sep=,
DeviceTag:,Xsens_4,,,,,,,,,,,,,,,,,
FirmwareVersion:,2.2.1,,,,,,,,,,,,,,,,,
AppVersion:,2023.0.0,,,,,,,,,,,,,,,,,
SyncStatus:,Un-synced,,,,,,,,,,,,,,,,,
OutputRate:,60Hz,,,,,,,,,,,,,,,,,
FilterProfile:,General,,,,,,,,,,,,,,,,,
Measurement Mode:,Sensor fusion Mode - Extended (Quaternion),,,,,,,,,,,,,,,,,
StartTime:,2023-07-17 14:48:33.869 +0200,,,,,,,,,,,,,,,,,
© Movella Technologies B. V. 2005-2023,,,,,,,,,,,,,,,,,,,

PacketCounter,SampleTimeFine,Quat_W,Quat_X,Quat_Y,Quat_Z,FreeAcc_X,FreeAcc_Y,FreeAcc_Z,Status
1, 589904528, 0.6791349, 4.3568303E-4, 0.0064163427, 0.73398536, 0.012541483, 0.020766335, 0.44334602, 0
2, 589921195, 0.6791381, 5.1425985E-4, 0.0063596466, 0.73398286, 0.027335513, -0.02559838, 0.42972565, 0
3, 589937862, 0.6793165, 2.8761488E-4, 0.006450318, 0.73381704, 0.0044010784, -0.012218886, 0.41255188, 0
4, 589954529, 0.6794174, 1.3581375E-4, 0.00663844, 0.73372215, -0.0188145, -0.029517401, 0.43650818, 0
5, 589971196, 0.6793963, 5.8886748E-5, 0.0069544627, 0.7337386, -0.010829975, -0.022493, 0.45230103, 0
6, 589987863, 0.6795921, 1.2740212E-5, 0.0072552566, 0.7335544, 0.0016730923, -0.0018229081, 0.42448997, 0
7, 590004530, 0.6796873, -1.592381E-5, 0.0075262296, 0.7334634, -0.008157113, 0.016535318, 0.43769932, 0
8, 590021197, 0.6797504, 1.3375794E-5, 0.0077454313, 0.7334027, 0.026458554, 0.022194242, 0.4361143, 0
9, 590037864, 0.67984086, 3.600511E-5, 0.007916765, 0.73331696, 0.021716801, 0.030646814, 0.4361744, 0
10, 590054531, 0.6799436, 6.025176E-5, 0.008067487, 0.73322004, 0.027158625, 0.008000186, 0.4339924, 0
11, 590071198, 0.67997515, 7.956911E-5, 0.008223652, 0.73318917, 0.013621149, 0.0045273798, 0.4238863, 0
12, 590087865, 0.68005425, 9.3595205E-5, 0.008382622, 0.73311394, 0.011915804, 0.016897628, 0.4204216, 0
13, 590104532, 0.6801472, 1.0274554E-4, 0.0085342545, 0.733026, 0.021417197, 0.0201644, 0.43776703, 0
14, 590121199, 0.6802375, 1.2465798E-4, 0.008688879, 0.7329404, 0.025889423, 0.017213812, 0.43678284, 0
15, 590137866, 0.68030536, 1.3987887E-4, 0.008840388, 0.7328756, 0.03886847, 0.013206601, 0.4305811, 0
16, 590154533, 0.6803853, 1.6935327E-4, 0.008978614, 0.7327997, 0.033360343, 0.010733423, 0.43772316, 0
17, 590171200, 0.68039745, 1.7535212E-4, 0.009136889, 0.73278636, 0.046315704, 0.02413423, 0.4581728, 0
18, 590187867, 0.68043035, 1.9216874E-4, 0.009287279, 0.73275393, 0.042096097, 0.026005078, 0.42931175, 0
19, 590204534, 0.6804982, 2.0889696E-4, 0.009425334, 0.73268926, 0.032944493, 0.04438536, 0.4491558, 0
20, 590221201, 0.6805956, 2.2980328E-4, 0.009559623, 0.7325969, 0.02488117, 0.03544402, 0.44129944, 0
21, 590237868, 0.6806558, 2.450719E-4, 0.009691919, 0.73253924, 0.034760237, 0.0286059, 0.4460888, 0
22, 590254535, 0.68076444, 2.6725503E-4, 0.009835409, 0.73243636, 0.050165396, 0.0174679, 0.44504166, 0
23, 590271202, 0.68085706, 2.8093343E-4, 0.009987013, 0.7323482, 0.060117666, 0.023133447, 0.43634987, 0
24, 590287869, 0.6809388, 2.9964332E-4, 0.010121216, 0.7322705, 0.051895827, 0.038810227, 0.42577744, 0
25, 590304536, 0.6809974, 3.0844615E-4, 0.0102729425, 0.7322138, 0.04643188, 0.03449028, 0.4286375, 0
26, 590321203, 0.68106794, 3.2040387E-4, 0.0104121175, 0.73214626, 0.036941424, 0.05003131, 0.4304018, 0
27, 590337870, 0.6811857, 3.251643E-4, 0.010557625, 0.7320345, 0.050684337, 0.038346242, 0.43349075, 0
28, 590354537, 0.6812741, 3.4722744E-4, 0.010700559, 0.7319502, 0.049398616, 0.033004403, 0.43868732, 0
29, 590371204, 0.6813694, 3.629115E-4, 0.010853125, 0.7318592, 0.05701368, 0.02928703, 0.4270401, 0
30, 590387871, 0.6814496, 3.738509E-4, 0.011002541, 0.73178244, 0.08563654, 0.05191611, 0.43287563, 0
31, 590404538, 0.6815338, 3.7922914E-4, 0.0111402245, 0.73170173, 0.08997473, 0.08646268, 0.43023682, 0
32, 590421205, 0.68159693, 3.8431067E-4, 0.011288246, 0.7316407, 0.07241988, 0.088989295, 0.4653721, 0
33, 590437872, 0.68167615, 3.908059E-4, 0.011446571, 0.73156446, 0.08693167, 0.08198728, 0.44960785, 0
34, 590454539, 0.6817573, 4.0329396E-4, 0.011592099, 0.7314866, 0.068995945, 0.0641433, 0.44443035, 0
35, 590471206, 0.681818, 4.1846486E-4, 0.011742184, 0.73142755, 0.07022175, 0.028651677, 0.42565346, 0
36, 590487873, 0.681906, 4.2073472E-4, 0.011879765, 0.73134327, 0.057960745, 0.004989849, 0.42655182, 0
37, 590504540, 0.6819881, 4.423005E-4, 0.012010578, 0.73126453, 0.033678792, 0.03309935, 0.42071438, 0
38, 590521207, 0.68206215, 4.727145E-4, 0.012155533, 0.73119307, 0.053853624, 0.054423902, 0.43439865, 0
39, 590537874, 0.6821306, 5.045172E-4, 0.012282867, 0.7311272, 0.11036586, 0.075543225, 0.43241978, 0
40, 590554541, 0.6822164, 5.1943585E-4, 0.01242504, 0.73104465, 0.13660927, 0.103190914, 0.46403027, 0
41, 590571208, 0.6822958, 5.413137E-4, 0.012569912, 0.7309681, 0.121753484, 0.08816585, 0.44315147, 0
42, 590587875, 0.6823743, 5.6393404E-4, 0.012707115, 0.7308925, 0.11560102, 0.07464275, 0.44306374, 0
43, 590604542, 0.68244207, 5.728588E-4, 0.012839833, 0.73082674, 0.047463186, 0.09469854, 0.45146656, 0
44, 590621209, 0.68249774, 5.8344967E-4, 0.012975813, 0.73077226, 0.050122753, 0.07361382, 0.45267296, 0
45, 590637876, 0.6825893, 6.011093E-4, 0.013119932, 0.73068416, 0.07688807, 0.096503116, 0.4486494, 0
46, 590654543, 0.6826676, 6.2539015E-4, 0.013260615, 0.73060846, 0.10642297, 0.0984968, 0.43045235, 0
47, 590671210, 0.68273777, 6.343253E-4, 0.013405126, 0.7305403, 0.12899941, 0.084205344, 0.42967606, 0
48, 590687877, 0.6828174, 6.5149734E-4, 0.013542876, 0.73046327, 0.14821081, 0.07137526, 0.41790485, 0
49, 590704544, 0.6828759, 6.690835E-4, 0.013676654, 0.7304061, 0.13519719, 0.069473006, 0.43350506, 0
50, 590721211, 0.68297553, 6.989463E-4, 0.013800912, 0.7303107, 0.09568454, 0.09715376, 0.4485979, 0
51, 590737878, 0.68305004, 7.177677E-4, 0.013929722, 0.7302383, 0.083082244, 0.096254356, 0.45687485, 0
52, 590754545, 0.6831304, 7.317957E-4, 0.014067231, 0.73016065, 0.087552726, 0.12189505, 0.46397877, 0
53, 590771212, 0.683213, 7.431662E-4, 0.014206113, 0.7300808, 0.103603676, 0.096716456, 0.45992088, 0
54, 590787879, 0.68327606, 7.703619E-4, 0.0143362535, 0.730019, 0.14756122, 0.07821769, 0.41090488, 0
55, 590804546, 0.68335646, 7.8541634E-4, 0.014477708, 0.72994107, 0.1674911, 0.068679415, 0.43058872, 0
56, 590821213, 0.68343735, 8.138216E-4, 0.014589862, 0.729863, 0.1602887, 0.07420971, 0.4387951, 0
57, 590837880, 0.683517, 8.344373E-4, 0.014698723, 0.7297862, 0.12702163, 0.10720619, 0.42118835, 0
58, 590854547, 0.6836077, 8.175062E-4, 0.014846697, 0.7296983, 0.13937037, 0.11369432, 0.47988796, 0
59, 590871214, 0.68367636, 8.4176473E-4, 0.014967927, 0.72963136, 0.0958518, 0.114971, 0.48148632, 0
60, 590887881, 0.6837598, 8.617316E-4, 0.015096071, 0.7295506, 0.06626925, 0.13205093, 0.5, 0
61, 590904548, 0.683847, 8.715584E-4, 0.015231256, 0.729466, 0.11060363, 0.089878745, 0.29220295, 0
62, 590921215, 0.6839071, 8.2258607E-4, 0.015413711, 0.72940594, 0.20215154, 0.02406588, 0.47481346, 0
63, 590937882, 0.68397796, 9.501131E-4, 0.015436213, 0.72933877, 0.20936738, 0.063387275, 0.700202, 0
64, 590954549, 0.68406683, 0.0010376595, 0.015485222, 0.7292543, 0.14168867, 0.23723556, -0.14999294, 0
65, 590971216, 0.68414164, 8.0186006E-4, 0.015850337, 0.72917664, 0.17983104, 0.092871316, 0.8523178, 0
66, 590987883, 0.684225, 9.85934E-4, 0.015811626, 0.729099, 0.05987018, 0.18824396, 0.51321125, 0
67, 591004550, 0.68430626, 0.0010507567, 0.015896032, 0.7290207, 0.037367463, 0.19015309, 0.41725063, 0
68, 591021217, 0.6843874, 9.663748E-4, 0.01611217, 0.72893995, 0.1361701, 0.11075447, 0.10908127, 0
69, 591037884, 0.68446046, 8.538672E-4, 0.016354589, 0.72886616, 0.18971038, -0.0051004426, 0.84452724, 0
70, 591054551, 0.68454, 0.0010173363, 0.016325131, 0.7287919, 0.18790771, 0.04133871, 0.26453495, 0
71, 591071218, 0.6846181, 0.0010456367, 0.016449409, 0.72871554, 0.2561234, 0.047331154, 0.37914085, 0
72, 591087885, 0.6846856, 0.0010493157, 0.016579121, 0.7286493, 0.17246632, 0.14687613, 0.27246094, 0
73, 591104552, 0.6847544, 9.6453016E-4, 0.016781546, 0.7285801, 0.08296199, 0.17583063, 0.69810104, 0
74, 591121219, 0.6848363, 0.0011613262, 0.01674056, 0.7285037, 0.11679404, 0.16921374, 0.45682526, 0
75, 591137886, 0.6849027, 0.0010836576, 0.016951272, 0.7284366, 0.118137494, 0.17004025, 0.33577728, 0
76, 591154553, 0.6849726, 0.0010843088, 0.017067356, 0.72836816, 0.16645488, 0.17321359, 0.5046902, 0
77, 591171220, 0.6850525, 0.0010421595, 0.017240735, 0.72828907, 0.23376198, 0.089723475, 0.49948883, 0
78, 591187887, 0.685131, 0.001150499, 0.017267635, 0.7282143, 0.2587234, 0.10752678, 0.4049244, 0
79, 591204554, 0.6852138, 0.0010677348, 0.017474838, 0.72813165, 0.19989762, 0.07554919, 0.38378906, 0
80, 591221221, 0.68529594, 0.0011952234, 0.017480014, 0.7280539, 0.11671879, 0.097360194, 0.45677662, 0
81, 591237888, 0.6853778, 0.0011021389, 0.017696239, 0.7279719, 0.094145514, 0.12410339, 0.45131683, 0
82, 591254555, 0.6854613, 0.0012210321, 0.017706938, 0.72789276, 0.07842103, 0.19358018, 0.481102, 0
83, 591271222, 0.6855431, 0.0011928703, 0.017858254, 0.7278121, 0.13775475, 0.21947587, 0.40690804, 0
84, 591287889, 0.6856246, 0.0012268873, 0.017936833, 0.72773325, 0.21947406, 0.19856668, 0.4566002, 0
85, 591304556, 0.6857053, 0.001182837, 0.01810712, 0.72765315, 0.26189598, 0.15642707, 0.46633816, 0
86, 591321223, 0.6857825, 0.0012316789, 0.018176045, 0.7275786, 0.22120923, 0.13827859, 0.4625206, 0
87, 591337890, 0.6858716, 0.0012103493, 0.018315667, 0.727491, 0.18579453, 0.10240068, 0.34105206, 0
88, 591354557, 0.6859491, 0.001242891, 0.0184035, 0.7274158, 0.15573142, 0.06517312, 0.50679016, 0
89, 591371224, 0.68602824, 0.0012591046, 0.018498631, 0.72733873, 0.087326415, 0.16671072, 0.31265163, 0
90, 591387891, 0.68610644, 0.0012645605, 0.01862989, 0.7272617, 0.15525931, 0.12882371, 0.61180973, 0
91, 591404558, 0.6861893, 0.0013477529, 0.018660845, 0.7271824, 0.21040922, 0.19219995, 0.3492489, 0
92, 591421225, 0.68627185, 0.0013322046, 0.018787745, 0.7271013, 0.23533396, 0.22227637, 0.50793076, 0
93, 591437892, 0.68634826, 0.0013080355, 0.018910274, 0.72702605, 0.26356408, 0.18104136, 0.41669083, 0
94, 591454559, 0.6864323, 0.0013250363, 0.01899283, 0.72694445, 0.21508071, 0.1402082, 0.5233822, 0
95, 591471226, 0.6865213, 0.0013477388, 0.019069333, 0.72685844, 0.16109566, 0.15940803, 0.36233425, 0
96, 591487893, 0.686598, 0.0013349779, 0.019192163, 0.7267828, 0.12981513, 0.10550083, 0.45763493, 0
97, 591504560, 0.68667775, 0.0013719802, 0.019261593, 0.7267055, 0.14701661, 0.10151455, 0.40163136, 0
98, 591521227, 0.6867635, 0.0013683565, 0.01936865, 0.7266216, 0.18286026, 0.16516037, 0.48000908, 0
99, 591537894, 0.6868373, 0.0014068313, 0.019440116, 0.7265499, 0.24734709, 0.17532668, 0.43067455, 0
100, 591554561, 0.686919, 0.0014358239, 0.0195105, 0.72647077, 0.26477093, 0.19775029, 0.46307278, 0
101, 591571228, 0.686996, 0.0014266782, 0.019622304, 0.7263949, 0.23256947, 0.2123558, 0.45067978, 0
102, 591587895, 0.687075, 0.0014441005, 0.019699357, 0.726318, 0.18477218, 0.17749631, 0.4399414, 0
103, 591604562, 0.68715507, 0.0014626178, 0.019783307, 0.72624, 0.16512023, 0.16969372, 0.45124435, 0
104, 591621229, 0.6872389, 0.0014619827, 0.019876558, 0.7261581, 0.16404504, 0.15321454, 0.40101624, 0
105, 591637896, 0.68732536, 0.0014718486, 0.0199561, 0.72607416, 0.19930795, 0.14877352, 0.41202545, 0
106, 591654563, 0.6874123, 0.0014746694, 0.020033311, 0.7259897, 0.24309137, 0.15310973, 0.42428112, 0
107, 591671230, 0.6875019, 0.0015126714, 0.020086298, 0.7259032, 0.25719514, 0.1582765, 0.45464134, 0
108, 591687897, 0.6875835, 0.0015399436, 0.020149726, 0.72582406, 0.24488102, 0.17234473, 0.38889885, 0
109, 591704564, 0.6876702, 0.0015471232, 0.020234052, 0.72573954, 0.20155174, 0.20363925, 0.5122528, 0
110, 591721231, 0.6877493, 0.0015565644, 0.020295242, 0.7256629, 0.16954002, 0.20798025, 0.44283676, 0
111, 591737898, 0.6878465, 0.0015717336, 0.020360328, 0.72556895, 0.17524076, 0.20461296, 0.46475983, 0
112, 591754565, 0.6879399, 0.0015647141, 0.020447223, 0.7254779, 0.21303232, 0.17342825, 0.43121052, 0
113, 591771232, 0.6880205, 0.0015697274, 0.02051265, 0.7253997, 0.25145638, 0.1464513, 0.4361601, 0
114, 591787899, 0.68810743, 0.0015810934, 0.02057606, 0.72531533, 0.2551621, 0.14346173, 0.4210701, 0
115, 591804566, 0.6882013, 0.0015905618, 0.020638451, 0.7252245, 0.25812015, 0.15164961, 0.4002247, 0
116, 591821233, 0.6882862, 0.0016041503, 0.020697027, 0.7251422, 0.2121568, 0.16410755, 0.4648037, 0
117, 591837900, 0.6883717, 0.0016323037, 0.0207323, 0.72506, 0.19245152, 0.2181563, 0.40946484, 0
118, 591854567, 0.6884593, 0.001634032, 0.020789864, 0.72497517, 0.19247505, 0.2216502, 0.4622736, 0
119, 591871234, 0.6885507, 0.0016401995, 0.0208575, 0.72488636, 0.2094276, 0.21217227, 0.4613018, 0
120, 591887901, 0.68864214, 0.0016441843, 0.020914426, 0.7247979, 0.24210398, 0.19248144, 0.42550468, 0
121, 591904568, 0.6887362, 0.0016508629, 0.020965453, 0.72470695, 0.25789225, 0.15690294, 0.41332436, 0
122, 591921235, 0.6888305, 0.0016513189, 0.021034263, 0.72461534, 0.23720497, 0.1519305, 0.47140694, 0
123, 591937902, 0.68892115, 0.0016853772, 0.021058483, 0.72452843, 0.2244428, 0.14633751, 0.43288994, 0
124, 591954569, 0.6890149, 0.0016888806, 0.02110817, 0.7244379, 0.20625111, 0.18773197, 0.40398884, 0
125, 591971236, 0.68911004, 0.0016881836, 0.02116167, 0.7243458, 0.20342986, 0.18952583, 0.470685, 0
126, 591987903, 0.68920326, 0.0017232257, 0.021182464, 0.72425634, 0.22797923, 0.21310148, 0.44627762, 0
127, 592004570, 0.68929803, 0.0017257023, 0.021224096, 0.724165, 0.2455801, 0.21247548, 0.41403294, 0
128, 592021237, 0.6893853, 0.0017143306, 0.021276904, 0.7240803, 0.25206563, 0.20648882, 0.45494556, 0
129, 592037904, 0.6894775, 0.0017157437, 0.021318905, 0.7239913, 0.2529956, 0.18015915, 0.4291973, 0
130, 592054571, 0.68957275, 0.0017276896, 0.021354387, 0.72389954, 0.23276289, 0.17068867, 0.40884876, 0
131, 592071238, 0.689675, 0.0017172438, 0.021401253, 0.7238007, 0.22154883, 0.16749793, 0.447587, 0
132, 592087905, 0.68977594, 0.0017327502, 0.021414302, 0.72370416, 0.2042937, 0.16919851, 0.45331287, 0
133, 592104572, 0.689872, 0.0017484142, 0.021419473, 0.7236124, 0.21998256, 0.16497786, 0.44477272, 0
134, 592121239, 0.68996304, 0.001762297, 0.021455167, 0.72352445, 0.23871829, 0.20198603, 0.4372902, 0
135, 592137906, 0.6900644, 0.0017726149, 0.021487838, 0.7234269, 0.25928968, 0.19305687, 0.43379974, 0
136, 592154573, 0.6901568, 0.0017867206, 0.021506704, 0.72333795, 0.26010662, 0.1945637, 0.41729546, 0
137, 592171240, 0.6902477, 0.0017873127, 0.021531869, 0.7232505, 0.23062839, 0.19892527, 0.4435606, 0
138, 592187907, 0.6903423, 0.0017855035, 0.02156294, 0.7231594, 0.22181627, 0.1969536, 0.43924809, 0
139, 592204574, 0.6904371, 0.001784671, 0.021593172, 0.723068, 0.22615165, 0.17698172, 0.45771313, 0
140, 592221241, 0.6905306, 0.0017859566, 0.021611894, 0.7229782, 0.23077609, 0.18116489, 0.40993404, 0
141, 592237908, 0.6906263, 0.0017959509, 0.021626165, 0.7228862, 0.26021668, 0.16944246, 0.44932938, 0
142, 592254575, 0.6907258, 0.0017912271, 0.021645108, 0.7227906, 0.24780032, 0.19371071, 0.43401432, 0
143, 592271242, 0.6908289, 0.0017949877, 0.021655966, 0.72269166, 0.25353947, 0.2029776, 0.4491415, 0
144, 592287909, 0.6909222, 0.0018056534, 0.021659693, 0.7226024, 0.23908572, 0.21074623, 0.42810822, 0
145, 592304576, 0.6910311, 0.0018154196, 0.02167539, 0.7224977, 0.22770995, 0.19953336, 0.45861816, 0
146, 592321243, 0.69113344, 0.0018176879, 0.02169195, 0.72239935, 0.21981214, 0.19191049, 0.43756866, 0
147, 592337910, 0.691235, 0.0018162533, 0.021708485, 0.7223017, 0.23781404, 0.2023962, 0.46728706, 0
148, 592354577, 0.6913385, 0.0018197806, 0.021710109, 0.72220266, 0.23210368, 0.17012186, 0.4296837, 0
149, 592371244, 0.6914525, 0.0018201489, 0.021721328, 0.72209305, 0.24865568, 0.17367566, 0.43827152, 0
150, 592387911, 0.6915646, 0.0018265276, 0.02173203, 0.72198534, 0.24726266, 0.16454951, 0.41826248, 0
151, 592404578, 0.69166404, 0.0018248592, 0.021729346, 0.72189015, 0.24509694, 0.19046849, 0.44913483, 0
152, 592421245, 0.6917698, 0.0018337, 0.021726806, 0.7217889, 0.23501965, 0.1979523, 0.44987965, 0
153, 592437912, 0.6918709, 0.0018425022, 0.021721615, 0.7216921, 0.23286289, 0.2049605, 0.43586445, 0
154, 592454579, 0.69197994, 0.0018389735, 0.021715177, 0.7215877, 0.23065731, 0.1989044, 0.44186783, 0
155, 592471246, 0.6920816, 0.0018316075, 0.0217141, 0.7214903, 0.24718733, 0.19835003, 0.44701767, 0
156, 592487913, 0.69218224, 0.0018241125, 0.021715777, 0.7213938, 0.25058547, 0.18541428, 0.4336605, 0
157, 592504580, 0.69228363, 0.0018321717, 0.021712491, 0.7212965, 0.24540585, 0.18197975, 0.42307854, 0
158, 592521247, 0.6923902, 0.0018201091, 0.021711066, 0.72119427, 0.23416048, 0.18385923, 0.44409657, 0
159, 592537914, 0.6924939, 0.0018217164, 0.021693671, 0.72109526, 0.22889654, 0.18120292, 0.43335438, 0
160, 592554581, 0.69260347, 0.0018343385, 0.021689566, 0.72099, 0.21935436, 0.19990289, 0.4264078, 0
161, 592571248, 0.6927195, 0.0018301661, 0.02167681, 0.72087896, 0.24002244, 0.19169672, 0.43922806, 0
162, 592587915, 0.692827, 0.0018276, 0.0216741, 0.7207758, 0.2384037, 0.20735237, 0.44640064, 0
163, 592604582, 0.69292927, 0.0018391169, 0.021664947, 0.7206778, 0.24878065, 0.19358288, 0.44432354, 0
164, 592621249, 0.6930347, 0.0018385355, 0.02165474, 0.7205766, 0.25389066, 0.18273094, 0.43559265, 0
165, 592637916, 0.69313943, 0.001832436, 0.021638213, 0.7204763, 0.23829228, 0.19631204, 0.42668343, 0
166, 592654583, 0.6932434, 0.001834621, 0.021620808, 0.7203768, 0.23590991, 0.18544653, 0.44478893, 0
167, 592671250, 0.69334245, 0.0018464036, 0.02159447, 0.7202823, 0.22008787, 0.19045393, 0.4581108, 0
168, 592687917, 0.6934494, 0.0018576083, 0.021577917, 0.72017986, 0.23145677, 0.18414885, 0.44881058, 0
169, 592704584, 0.6935535, 0.0018536238, 0.02156172, 0.72007996, 0.2480147, 0.19041112, 0.44115353, 0
170, 592721251, 0.69365656, 0.0018570834, 0.021539928, 0.7199814, 0.23275697, 0.1803648, 0.43302917, 0
171, 592737918, 0.6937635, 0.0018600598, 0.021501888, 0.7198795, 0.2506525, 0.19579752, 0.41962528, 0
172, 592754585, 0.69386244, 0.0018553381, 0.021497292, 0.7197843, 0.24050145, 0.20111607, 0.44615555, 0
173, 592771252, 0.6939577, 0.0018619413, 0.021489121, 0.71969265, 0.22893415, 0.18820503, 0.43807888, 0
174, 592787919, 0.69405663, 0.0018663057, 0.021459354, 0.7195981, 0.23065431, 0.18821074, 0.4384079, 0
175, 592804586, 0.6941609, 0.0018701999, 0.021431915, 0.7194984, 0.23473227, 0.18742743, 0.43572617, 0
176, 592821253, 0.694263, 0.0018756912, 0.021405216, 0.7194007, 0.24044614, 0.18583594, 0.42729855, 0
177, 592837920, 0.6943668, 0.0018722324, 0.02138367, 0.71930104, 0.24488153, 0.18877502, 0.45437717, 0
178, 592854587, 0.6944728, 0.0018695238, 0.021347303, 0.7191999, 0.24458638, 0.17910714, 0.44280815, 0
179, 592871254, 0.69457203, 0.001870323, 0.021307176, 0.7191052, 0.22802529, 0.19045892, 0.4315176, 0
180, 592887921, 0.69467944, 0.0018642371, 0.021281894, 0.7190021, 0.22421698, 0.19633304, 0.43762589, 0
181, 592904588, 0.69478464, 0.0018616855, 0.02125792, 0.7189013, 0.23151903, 0.18193898, 0.4242983, 0
182, 592921255, 0.6948853, 0.0018582965, 0.02121894, 0.71880513, 0.23996189, 0.18227601, 0.43777943, 0
183, 592937922, 0.6949947, 0.0018431243, 0.021177528, 0.71870065, 0.22991505, 0.17959177, 0.4343195, 0
184, 592954589, 0.69509, 0.0018480018, 0.021146271, 0.7186094, 0.2468212, 0.17348644, 0.42268658, 0
185, 592971256, 0.6951943, 0.0018374668, 0.02111102, 0.7185095, 0.23932616, 0.18161996, 0.44066525, 0
186, 592987923, 0.6953022, 0.0018388621, 0.021079604, 0.71840596, 0.23983711, 0.17093998, 0.4406538, 0
187, 593004590, 0.6953962, 0.0018469152, 0.02103757, 0.7183162, 0.23677136, 0.18425523, 0.4518509, 0
188, 593021257, 0.69549656, 0.0018506132, 0.021008516, 0.7182199, 0.22886986, 0.19789982, 0.44995022, 0
189, 593037924, 0.6955966, 0.001855502, 0.020967131, 0.7181242, 0.21903077, 0.19219561, 0.45125294, 0
190, 593054591, 0.69569343, 0.001856976, 0.020920433, 0.71803176, 0.20948479, 0.19165803, 0.45148182, 0
191, 593071258, 0.6957934, 0.0018616222, 0.02088405, 0.7179359, 0.23148791, 0.18227705, 0.4402361, 0
192, 593087925, 0.69589114, 0.0018496807, 0.020839935, 0.7178426, 0.24712719, 0.16950546, 0.43427658, 0
193, 593104592, 0.6959973, 0.0018386593, 0.0207978, 0.7177409, 0.24342059, 0.16710974, 0.40900803, 0
194, 593121259, 0.69609636, 0.0018421818, 0.02075857, 0.71764594, 0.23511842, 0.1686756, 0.44400978, 0
195, 593137926, 0.6961987, 0.0018341611, 0.020717308, 0.71754783, 0.2249256, 0.18438591, 0.44046688, 0
196, 593154593, 0.69628894, 0.0018246449, 0.020670963, 0.7174615, 0.21857992, 0.19643661, 0.44508457, 0
197, 593171260, 0.69638205, 0.0018148727, 0.020624144, 0.7173726, 0.20774588, 0.19586374, 0.42246532, 0
198, 593187927, 0.6964865, 0.0017992709, 0.020578956, 0.7172725, 0.21810324, 0.17935495, 0.4452057, 0
199, 593204594, 0.6965727, 0.0017928934, 0.020529909, 0.7171902, 0.2472231, 0.1808859, 0.4389248, 0
200, 593221261, 0.69666636, 0.0017835174, 0.020478822, 0.7171008, 0.23815903, 0.16937229, 0.4278202, 0
201, 593237928, 0.6967607, 0.0017740208, 0.020429172, 0.7170105, 0.21659546, 0.16669424, 0.42289352, 0
202, 593254595, 0.69685173, 0.0017744246, 0.020377697, 0.71692353, 0.22712985, 0.17235494, 0.44234467, 0
203, 593271262, 0.696941, 0.0017768067, 0.020324212, 0.7168383, 0.21014419, 0.17938395, 0.46127033, 0
204, 593287929, 0.69703114, 0.0017688303, 0.020273618, 0.7167521, 0.20430578, 0.17851016, 0.4436798, 0
205, 593304596, 0.6971123, 0.0017597764, 0.020215351, 0.71667475, 0.20623493, 0.17511788, 0.44053173, 0
206, 593321263, 0.69719774, 0.001753767, 0.02016863, 0.716593, 0.2227894, 0.1654812, 0.4638853, 0
207, 593337930, 0.697284, 0.0017475137, 0.020119583, 0.71651053, 0.22729507, 0.15674601, 0.44849586, 0
208, 593354597, 0.69737256, 0.0017431449, 0.020072734, 0.7164256, 0.2239747, 0.16200426, 0.43012238, 0
209, 593371264, 0.69745994, 0.0017415186, 0.020014161, 0.7163421, 0.21188056, 0.17182882, 0.4436741, 0
210, 593387931, 0.6975389, 0.0017240014, 0.019963486, 0.7162668, 0.20364562, 0.17114258, 0.44201565, 0
211, 593404598, 0.6976132, 0.0017148436, 0.019918064, 0.7161957, 0.2038625, 0.16050936, 0.43594265, 0
212, 593421265, 0.6976908, 0.0017128794, 0.019867452, 0.71612144, 0.21676865, 0.16820334, 0.43367672, 0
213, 593437932, 0.6977685, 0.0016976035, 0.019814119, 0.7160473, 0.21787024, 0.17082056, 0.4429407, 0
214, 593454599, 0.69785357, 0.0016937492, 0.019758988, 0.7159658, 0.22128093, 0.14879961, 0.4335642, 0
215, 593471266, 0.69792736, 0.00169135, 0.019706227, 0.7158955, 0.20915702, 0.17156948, 0.46367455, 0
216, 593487933, 0.69801086, 0.0016843353, 0.019656235, 0.7158154, 0.21167777, 0.16185609, 0.43223286, 0
217, 593504600, 0.6980942, 0.0016721975, 0.019609727, 0.71573555, 0.20072763, 0.1660378, 0.43689632, 0
218, 593521267, 0.69816107, 0.0016646126, 0.019556811, 0.7156717, 0.20578033, 0.15285659, 0.4357252, 0
219, 593537934, 0.6982431, 0.0016590852, 0.019498281, 0.7155932, 0.1928218, 0.1426341, 0.4335575, 0
220, 593554601, 0.69831777, 0.001657721, 0.019446265, 0.7155218, 0.22138922, 0.15017821, 0.47029972, 0
221, 593571268, 0.69837576, 0.0016553368, 0.019394604, 0.7154666, 0.22138269, 0.14157663, 0.43783855, 0
222, 593587935, 0.69843733, 0.0016551907, 0.019335492, 0.71540815, 0.21545242, 0.16004789, 0.4331417, 0
223, 593604602, 0.6985079, 0.0016431258, 0.019288715, 0.71534055, 0.20338398, 0.15169008, 0.42146397, 0
224, 593621269, 0.69856477, 0.0016433595, 0.019244745, 0.7152861, 0.20528471, 0.15310562, 0.44053364, 0
225, 593637936, 0.69863784, 0.0016336153, 0.01918259, 0.71521634, 0.19648603, 0.1459885, 0.4579916, 0
226, 593654603, 0.69870543, 0.0016112782, 0.019127537, 0.7151519, 0.2054199, 0.1487124, 0.43094444, 0
227, 593671270, 0.6987712, 0.0016064395, 0.019071804, 0.7150892, 0.20343745, 0.13454916, 0.4606552, 0
228, 593687937, 0.69884825, 0.0016041042, 0.019015828, 0.71501535, 0.19522898, 0.14971066, 0.442811, 0
229, 593704604, 0.6989015, 0.0015938992, 0.018961847, 0.71496475, 0.20307691, 0.14858343, 0.45018768, 0
230, 593721271, 0.69896126, 0.0015855067, 0.018912422, 0.7149077, 0.19274268, 0.14553048, 0.45867538, 0
231, 593737938, 0.69901776, 0.0015769212, 0.018858967, 0.7148539, 0.19052096, 0.14483127, 0.46849728, 0
232, 593754605, 0.69907665, 0.0015661477, 0.01882125, 0.71479726, 0.19382638, 0.13917917, 0.42731762, 0
233, 593771272, 0.6991202, 0.0015594357, 0.018762872, 0.71475625, 0.1869449, 0.14307839, 0.44031048, 0
234, 593787939, 0.69917125, 0.0015486404, 0.01871651, 0.7147075, 0.19524977, 0.15179175, 0.43635654, 0
235, 593804606, 0.69922656, 0.0015465308, 0.018657532, 0.714655, 0.20996933, 0.1661108, 0.43890095, 0
236, 593821273, 0.6992869, 0.0015278652, 0.018606123, 0.71459734, 0.18908577, 0.14268798, 0.43214417, 0
237, 593837940, 0.69934964, 0.0015187545, 0.018547438, 0.71453744, 0.18835376, 0.15299244, 0.43417645, 0
238, 593854607, 0.69940215, 0.0015113743, 0.018497663, 0.7144874, 0.17984697, 0.15336709, 0.44451332, 0
239, 593871274, 0.69389945, 2.4007975E-4, 0.0065008136, 0.72004265, 0.00408223, -0.018322608, 0.45000362, 0
240, 593887941, 0.69387233, 2.4396804E-4, 0.006484085, 0.72006893, 0.013015725, -0.0043876236, 0.44943714, 0
241, 593904608, 0.6938359, 2.3792787E-4, 0.006476819, 0.7201041, 0.011439278, -0.011962865, 0.44039917, 0
242, 593921275, 0.6938139, 2.2403112E-4, 0.0064760367, 0.72012514, 0.017184904, -0.0066409153, 0.44379616, 0
243, 593937942, 0.69379157, 2.1653372E-4, 0.0064673666, 0.7201467, 0.0038434588, -0.021089427, 0.45504093, 0
244, 593954609, 0.69375086, 2.1614067E-4, 0.0064532575, 0.7201862, -0.010517888, -0.00466963, 0.43456745, 0
245, 593971276, 0.69371843, 2.0631362E-4, 0.0064494703, 0.7202174, -0.0045803813, -0.004524649, 0.4799137, 0
246, 593987943, 0.69368535, 2.1498078E-4, 0.0064491094, 0.72024935, 0.0050124666, -0.009105072, 0.45637226, 0
247, 594004610, 0.6936511, 2.1669616E-4, 0.006435209, 0.7202825, -0.008087442, 0.0020246862, 0.45234013, 0
248, 594021277, 0.6936235, 2.1423084E-4, 0.0064152447, 0.72030926, 0.018639624, -9.284477E-4, 0.42140198, 0
249, 594037944, 0.6935939, 2.0838874E-4, 0.006412858, 0.7203377, 4.3315065E-4, -5.016193E-4, 0.4542036, 0
250, 594054611, 0.69355875, 2.0022824E-4, 0.006415915, 0.72037154, -9.999621E-4, -0.01064638, 0.45089436, 0
251, 594071278, 0.693528, 1.8820711E-4, 0.006417318, 0.72040117, -0.012931618, -0.017364701, 0.45095158, 0
252, 594087945, 0.6935031, 1.8694886E-4, 0.0064184973, 0.72042507, -0.0025328943, -0.014800869, 0.44087505, 0
253, 594104612, 0.69347334, 1.805637E-4, 0.0064176414, 0.72045374, -0.005784749, -0.016353883, 0.43626308, 0
254, 594121279, 0.6934415, 1.6816714E-4, 0.00642536, 0.7204843, 0.01424952, -0.011723338, 0.44477272, 0
255, 594137946, 0.6934152, 1.778553E-4, 0.0064271884, 0.7205096, 0.014269161, -0.01870669, 0.441679, 0
256, 594154613, 0.6933899, 1.8145512E-4, 0.0064224773, 0.720534, 0.0037151554, -3.661713E-4, 0.45461845, 0
257, 594171280, 0.69336283, 1.744977E-4, 0.0064173075, 0.7205601, 0.0046572103, -0.004395234, 0.42345047, 0
258, 594187947, 0.69332904, 1.5918387E-4, 0.0064259814, 0.7205925, -0.008631096, -0.0012925754, 0.4300251, 0
259, 594204614, 0.6933053, 1.654618E-4, 0.006423469, 0.7206153, -0.0023066222, -0.007927257, 0.4632845, 0
260, 594221281, 0.69327724, 1.7119032E-4, 0.0064246617, 0.7206423, -0.0024733979, -0.024827076, 0.42486286, 0
261, 594237948, 0.6932515, 1.716811E-4, 0.0064229947, 0.72066706, -0.0056134406, -0.0067497147, 0.4561863, 0
262, 594254615, 0.69322515, 1.641986E-4, 0.006424512, 0.72069246, 0.007296528, -0.0062291, 0.45075607, 0
263, 594271282, 0.6931968, 1.5813785E-4, 0.0064213746, 0.7207198, 0.016488833, -0.0058907038, 0.4426241, 0
264, 594287949, 0.6931687, 1.5944536E-4, 0.006424977, 0.72074676, 0.017089235, -0.004811478, 0.46697426, 0
265, 594304616, 0.69314075, 1.6706978E-4, 0.0064065815, 0.7207738, -0.004432786, 0.0022639933, 0.41668892, 0
266, 594321283, 0.6931094, 1.6993101E-4, 0.0064080073, 0.7208039, -0.010980699, -0.012201962, 0.44424915, 0
267, 594337950, 0.6930852, 1.7675401E-4, 0.0064073615, 0.7208272, 6.892127E-4, -0.015969368, 0.42593956, 0
268, 594354617, 0.6930578, 1.8879723E-4, 0.006401671, 0.72085357, 0.0010744408, -0.0061515123, 0.44021893, 0
269, 594371284, 0.6930214, 1.9175543E-4, 0.006393249, 0.7208887, 0.002472179, -0.001555929, 0.43064976, 0
270, 594387951, 0.6929905, 1.8752617E-4, 0.006395552, 0.7209184, 0.019824538, -0.011508081, 0.45254803, 0
271, 594404618, 0.6929668, 1.8301957E-4, 0.006395162, 0.7209411, 0.003564595, -0.00409609, 0.44045734, 0
272, 594421285, 0.69294286, 1.8006082E-4, 0.006387399, 0.7209642, 0.0012233562, -0.0058345115, 0.44130135, 0
273, 594437952, 0.6929191, 1.7412847E-4, 0.0063923555, 0.72098696, -0.0051408503, -0.0132298125, 0.44006157, 0
274, 594454619, 0.6928863, 1.728693E-4, 0.006392058, 0.72101855, -0.0058825607, -0.014742509, 0.42982578, 0
275, 594471286, 0.6928641, 1.7269052E-4, 0.0064002853, 0.7210398, 0.0085428925, -0.0012525601, 0.42874336, 0
276, 594487953, 0.6928361, 1.6755838E-4, 0.006406214, 0.72106665, -0.010909583, 0.0022111838, 0.45131207, 0
277, 594504620, 0.692809, 1.6695082E-4, 0.006413681, 0.7210926, 0.015271771, -0.0070680124, 0.45167923, 0
278, 594521287, 0.69277424, 1.645498E-4, 0.0064100935, 0.7211261, 0.014484638, -0.013942196, 0.43833065, 0
279, 594537954, 0.69274944, 1.561389E-4, 0.00641165, 0.72114986, 0.0047946777, -0.0134478705, 0.43720818, 0
280, 594554621, 0.69272107, 1.6579636E-4, 0.0064078006, 0.72117704, -0.005462227, -0.02739286, 0.44268227, 0
281, 594571288, 0.69269514, 1.5912704E-4, 0.0064103133, 0.721202, -0.013084354, -0.012835922, 0.45940018, 0
282, 594587955, 0.6926716, 1.76071E-4, 0.0064172554, 0.72122455, -0.0060518263, -0.0127592925, 0.43730736, 0
283, 594604622, 0.69265467, 1.7687648E-4, 0.006415808, 0.7212408, 0.0063320315, 0.0032372468, 0.4623375, 0
284, 594621289, 0.6926287, 1.7072143E-4, 0.0064144176, 0.72126585, 0.0010473642, -0.015582319, 0.44688034, 0
285, 594637956, 0.69260967, 1.7383369E-4, 0.006414701, 0.7212841, 0.015245483, -0.015795017, 0.4424429, 0
286, 594654623, 0.6925886, 1.635819E-4, 0.0064141597, 0.7213043, 0.013545489, -0.019844294, 0.43179035, 0
287, 594671290, 0.69256496, 1.5876818E-4, 0.006409542, 0.7213271, -0.0045032236, -0.021982104, 0.4253893, 0
288, 594687957, 0.6925425, 1.5953043E-4, 0.0064054406, 0.7213487, -0.006905293, -0.0030239178, 0.44826603, 0
289, 594704624, 0.6925128, 1.5350782E-4, 0.00640326, 0.7213772, -0.009611197, -0.0037699202, 0.47305012, 0
290, 594721291, 0.69248134, 1.5553848E-4, 0.006399415, 0.7214074, -0.0036311636, -0.008800437, 0.44129276, 0
291, 594737958, 0.6924585, 1.5764474E-4, 0.006399126, 0.72142935, -0.009044305, -0.0048653167, 0.44516468, 0
292, 594754625, 0.69242907, 1.4685959E-4, 0.006398621, 0.72145754, -9.457392E-5, -0.017031599, 0.45226192, 0
293, 594771292, 0.692397, 1.3546838E-4, 0.006391622, 0.7214884, -0.004750097, -0.02978198, 0.42779732, 0
294, 594787959, 0.69237137, 1.4038195E-4, 0.00638294, 0.72151303, -0.0012080352, -0.024088414, 0.43057537, 0
295, 594804626, 0.6923431, 1.3856038E-4, 0.0063798344, 0.7215402, 0.0075473096, -0.013792534, 0.44339943, 0
296, 594821293, 0.6923251, 1.4864569E-4, 0.0063705575, 0.7215576, -0.009199007, -0.006782696, 0.4404421, 0
297, 594837960, 0.69229347, 1.4766178E-4, 0.006360754, 0.72158813, 0.007870136, -0.013265785, 0.4717598, 0
298, 594854627, 0.69227386, 1.4458151E-4, 0.006351503, 0.72160697, 0.0030344538, -0.0137800025, 0.470685, 0
299, 594871294, 0.6922461, 1.4036341E-4, 0.0063414993, 0.7216337, 0.0070703747, -0.013044839, 0.42785835, 0
300, 594887961, 0.69222295, 1.474138E-4, 0.0063422713, 0.7216559, 0.002214926, -0.015783865, 0.4651451, 0
301, 594904628, 0.6921947, 1.4322076E-4, 0.0063435384, 0.721683, 0.009699107, -0.021399157, 0.4438238, 0
302, 594921295, 0.6921714, 1.3875493E-4, 0.006346115, 0.7217053, 0.009826216, -0.011489688, 0.43311214, 0
303, 594937962, 0.69215214, 1.3682648E-4, 0.006347799, 0.72172374, -0.011867218, -6.6879267E-7, 0.4525299, 0
304, 594954629, 0.6921294, 1.3923775E-4, 0.006347054, 0.7217456, 0.0038264021, -0.0072424486, 0.440135, 0
305, 594971296, 0.6921068, 1.3924975E-4, 0.006347673, 0.72176725, 0.0032198438, -0.007644064, 0.43914604, 0
306, 594987963, 0.6920789, 1.4159245E-4, 0.006340822, 0.72179407, 0.0021390296, 0.001626825, 0.43542385, 0
307, 595004630, 0.69205886, 1.443258E-4, 0.0063470094, 0.7218132, 0.010817629, -0.009278721, 0.44670105, 0
308, 595021297, 0.6920294, 1.4610185E-4, 0.006350169, 0.72184145, -8.8394136E-4, -0.0030807503, 0.44578743, 0
309, 595037964, 0.69200444, 1.4597412E-4, 0.0063539734, 0.72186536, -0.0056472924, -0.007568526, 0.44391537, 0
310, 595054631, 0.6919767, 1.4560239E-4, 0.006346329, 0.72189206, 0.0010924406, -0.01582585, 0.44467354, 0
311, 595071298, 0.69195575, 1.424275E-4, 0.006344222, 0.721912, 2.4548708E-4, -0.025892302, 0.4603758, 0
312, 595087965, 0.6919283, 1.3293343E-4, 0.006343767, 0.72193825, -0.0031228287, -0.016402159, 0.43080997, 0
313, 595104632, 0.69190186, 1.3900061E-4, 0.006331758, 0.7219638, 0.0100971665, -0.0015738873, 0.4336319, 0
314, 595121299, 0.6918769, 1.4005104E-4, 0.006329251, 0.7219878, -0.007223062, -0.005369989, 0.41252518, 0
315, 595137966, 0.6918523, 1.3884228E-4, 0.0063310843, 0.7220113, -0.002951052, -0.015643675, 0.43562698, 0
316, 595154633, 0.6918268, 1.4034138E-4, 0.006329711, 0.7220357, -0.0033640866, -0.007115442, 0.4419012, 0
317, 595171300, 0.6918074, 1.3749194E-4, 0.006326058, 0.72205436, -0.00979732, -0.0036854437, 0.430974, 0
318, 595187967, 0.6917753, 1.3880807E-4, 0.006315038, 0.72208524, 0.0012500556, -0.0089333635, 0.4210186, 0
319, 595204634, 0.6917493, 1.3485963E-4, 0.0063186656, 0.72211015, 0.007220422, -0.006784941, 0.42548466, 0
320, 595221301, 0.6917266, 1.3086153E-4, 0.0063172705, 0.72213185, -0.0026432397, -0.012268675, 0.44594097, 0
321, 595237968, 0.6917065, 1.3359351E-4, 0.006319003, 0.72215116, 0.010987733, -0.0020907049, 0.43168354, 0
322, 595254635, 0.6916858, 1.3971292E-4, 0.006304165, 0.7221711, 0.0030681274, -0.019357042, 0.44091415, 0
323, 595271302, 0.69166, 1.4301545E-4, 0.0063009155, 0.7221959, 9.745864E-5, -0.015957454, 0.45331, 0
324, 595287969, 0.69164044, 1.4508444E-4, 0.0062938505, 0.7222146, -7.4145535E-4, -0.0108146425, 0.43750095, 0
325, 595304636, 0.69162077, 1.495452E-4, 0.0062908446, 0.7222335, 0.019791719, -0.020433454, 0.44821358, 0
326, 595321303, 0.6916044, 1.4467505E-4, 0.006290374, 0.72224915, -0.0022207934, 0.004158387, 0.44679928, 0
327, 595337970, 0.69158524, 1.4362499E-4, 0.006295071, 0.72226745, 0.0025606237, 0.007830854, 0.4590912, 0
328, 595354637, 0.69156265, 1.4603729E-4, 0.006305491, 0.72228897, -0.011116294, 0.0015092159, 0.42166424, 0
329, 595371304, 0.6915458, 1.5473556E-4, 0.006304126, 0.7223051, -0.008798, -0.0068244054, 0.42818356, 0
330, 595387971, 0.6915198, 1.5568535E-4, 0.0063024387, 0.72233003, 1.3184121E-4, -0.01823513, 0.42594433, 0
331, 595404638, 0.6914931, 1.6258158E-4, 0.0063137175, 0.72235554, -0.0072851535, -0.005515909, 0.44204426, 0
332, 595421305, 0.6914707, 1.4703852E-4, 0.0063204933, 0.72237694, 0.004463142, -0.0039318707, 0.4516611, 0
333, 595437972, 0.69145346, 1.5014646E-4, 0.0063153827, 0.7223934, 0.0016416956, -0.0097390795, 0.44231796, 0
334, 595454639, 0.69143385, 1.5347477E-4, 0.0063090716, 0.7224122, 0.011145746, -0.005111981, 0.43680763, 0
335, 595471306, 0.6914095, 1.5374513E-4, 0.0063157924, 0.7224355, 0.011262074, -0.004473262, 0.4381771, 0
336, 595487973, 0.6913985, 1.4489805E-4, 0.006323313, 0.72244596, -5.83746E-4, -0.01564393, 0.44547558, 0
337, 595504640, 0.6913829, 1.4546553E-4, 0.006326776, 0.72246087, -0.0038115769, -0.0069879373, 0.4604082, 0
338, 595521307, 0.69135636, 1.4341906E-4, 0.006324046, 0.72248626, 0.0015469786, -0.017905999, 0.43833828, 0
339, 595537974, 0.69133633, 1.424914E-4, 0.0063262577, 0.72250545, -0.01112081, -0.0190848, 0.45940876, 0
340, 595554641, 0.69130754, 1.3696881E-4, 0.006327419, 0.722533, 0.0070689498, -0.00832075, 0.4365511, 0
341, 595571308, 0.69128644, 1.405059E-4, 0.0063257604, 0.7225532, 0.011375951, 0.0016694478, 0.44361115, 0
342, 595587975, 0.6912586, 1.3994495E-4, 0.0063134874, 0.7225799, 1.7049149E-4, -0.006830474, 0.44666004, 0
343, 595604642, 0.6912437, 1.4194484E-4, 0.0063163056, 0.72259414, -0.0013331814, 0.0010905301, 0.42556667, 0
344, 595621309, 0.691228, 1.3841128E-4, 0.0063049016, 0.72260934, -0.0011067244, -0.01454059, 0.4564085, 0
345, 595637976, 0.69120497, 1.3811367E-4, 0.0063129175, 0.72263116, -0.0077462536, -0.012473706, 0.43084908, 0
346, 595654643, 0.6911854, 1.3937356E-4, 0.0063104564, 0.72265, 0.01386549, -0.013026525, 0.45621777, 0
347, 595671310, 0.691166, 1.3903911E-4, 0.006297719, 0.7226687, 0.01108838, -0.006810131, 0.4581251, 0
348, 595687977, 0.6911481, 1.2528451E-4, 0.006305013, 0.7226856, -0.0017383301, -0.008769259, 0.44698334, 0
349, 595704644, 0.6911222, 1.2614697E-4, 0.0062977322, 0.7227106, 0.011703006, -0.010366968, 0.44513988, 0
350, 595721311, 0.69109297, 1.2054342E-4, 0.0062964936, 0.72273844, 0.0043733316, -0.011054826, 0.44542122, 0
351, 595737978, 0.69107795, 1.2081119E-4, 0.006305215, 0.7227527, -0.00409614, -0.008665399, 0.44433117, 0
352, 595754645, 0.6910646, 1.1974906E-4, 0.0063014943, 0.72276556, -0.015303076, -0.01478725, 0.44627762, 0
353, 595771312, 0.6910512, 1.1832787E-4, 0.0062920223, 0.7227785, -0.0044873473, -0.010368774, 0.45607948, 0
354, 595787979, 0.69102883, 1.2369352E-4, 0.006292443, 0.72279984, -0.0057016653, -0.019292604, 0.43415737, 0
355, 595804646, 0.69100195, 1.2661028E-4, 0.0062895697, 0.7228255, 0.012491842, -0.0038521038, 0.43104267, 0
356, 595821313, 0.6909846, 1.2350712E-4, 0.0062885033, 0.7228421, 0.0037526044, -0.007728732, 0.45898628, 0
357, 595837980, 0.69096565, 1.247541E-4, 0.0062843068, 0.7228602, -3.8765527E-5, -0.020636406, 0.43557835, 0
358, 595854647, 0.69094616, 1.3658543E-4, 0.006279873, 0.72287893, -0.008114869, -0.011079943, 0.45611, 0
359, 595871314, 0.6909891, 9.91842E-5, 0.006442696, 0.72283655, 0.0012164622, 0.0010429687, 0.43886566, 0
360, 595887981, 0.6909704, 1.0517206E-4, 0.006447405, 0.7228543, -0.0035996411, -0.014370832, 0.42672062, 0
361, 595904648, 0.6909512, 1.026991E-4, 0.006441173, 0.7228728, -6.466544E-4, -0.008455729, 0.4347992, 0
362, 595921315, 0.6909367, 1.0967763E-4, 0.0064450568, 0.72288656, 0.016203733, 0.0043800767, 0.44069958, 0
363, 595937982, 0.6909138, 1.1120991E-4, 0.0064431108, 0.7229085, -0.005604455, -0.0055111465, 0.45097065, 0
364, 595954649, 0.6908984, 1.1420156E-4, 0.0064368416, 0.7229232, 0.010974671, -0.01699308, 0.441823, 0
365, 595971316, 0.6908817, 1.0669419E-4, 0.0064406055, 0.7229391, 3.7703142E-4, -0.01586757, 0.45596886, 0
366, 595987983, 0.6908586, 1.13110036E-4, 0.00643793, 0.72296137, 0.0053846366, -0.0078292675, 0.44500923, 0
367, 596004650, 0.69084376, 1.0776657E-4, 0.006447623, 0.72297543, 0.005362862, 0.008209382, 0.4447279, 0
368, 596021317, 0.69082785, 1.071516E-4, 0.006450632, 0.72299063, 0.0064761727, 0.004893486, 0.45354939, 0
369, 596037984, 0.69082093, 9.508641E-5, 0.006456901, 0.7229971, 0.0068877684, -0.012696332, 0.45458412, 0
370, 596054651, 0.6907991, 9.036042E-5, 0.00645701, 0.723018, -3.8625483E-4, -0.008668007, 0.44285965, 0
371, 596071318, 0.6907789, 9.08318E-5, 0.0064475434, 0.72303736, 0.0031497795, -0.020261813, 0.43806934, 0
372, 596087985, 0.69076693, 1.0616021E-4, 0.0064534186, 0.72304875, -0.008121689, 4.2159203E-4, 0.44479465, 0
373, 596104652, 0.6907549, 1.1090129E-4, 0.0064632567, 0.7230602, -0.008912184, -0.0033378124, 0.42882347, 0
374, 596121319, 0.6907289, 1.063114E-4, 0.0064632674, 0.72308505, -0.0018372032, 5.6033675E-4, 0.44086647, 0
375, 596137986, 0.69070935, 1.0163306E-4, 0.006458673, 0.7231037, 0.010562231, -0.005669239, 0.4657402, 0
376, 596154653, 0.69069284, 9.917979E-5, 0.006453428, 0.72311956, 0.008766772, -0.011132364, 0.44471645, 0
377, 596171320, 0.6906766, 1.0258437E-4, 0.0064524715, 0.72313505, 0.010752171, -0.008097859, 0.41460896, 0
378, 596187987, 0.69066596, 9.871324E-5, 0.006445746, 0.7231451, 0.013101303, -0.0024912618, 0.44856358, 0
379, 596204654, 0.6906474, 9.8697616E-5, 0.0064322115, 0.72316307, 0.009940145, -0.0018932889, 0.45860386, 0
380, 596221321, 0.69063586, 9.352067E-5, 0.006434334, 0.7231741, 0.0022632503, -0.02656827, 0.44955063, 0
381, 596237988, 0.690618, 9.188917E-5, 0.006427342, 0.7231912, 0.009010174, -0.007345888, 0.4347191, 0
382, 596254655, 0.6906015, 8.751322E-5, 0.006416011, 0.72320706, 0.008827347, -0.013715988, 0.42469788, 0
383, 596271322, 0.6905889, 8.330967E-5, 0.006416832, 0.7232191, 0.0080876835, -0.005173626, 0.43690205, 0
384, 596287989, 0.6905665, 8.511776E-5, 0.0064200144, 0.72324044, 0.0022313998, -0.0093502095, 0.4429798, 0
385, 596304656, 0.69054985, 8.489817E-5, 0.006424549, 0.72325635, 0.0045944033, -8.5466844E-4, 0.44547176, 0
386, 596321323, 0.6905283, 8.156903E-5, 0.006417737, 0.72327703, 9.50178E-4, -0.0058224793, 0.45621395, 0
387, 596337990, 0.69051325, 8.314343E-5, 0.0064178165, 0.7232913, 0.008039181, -0.0068050865, 0.453166, 0
388, 596354657, 0.69049084, 8.2953666E-5, 0.006425382, 0.72331256, -0.0083857905, -0.01491851, 0.42649174, 0
389, 596371324, 0.6904745, 8.6499655E-5, 0.0064263223, 0.72332823, -0.010861843, -0.0104227895, 0.46452618, 0
390, 596387991, 0.6904585, 8.9925925E-5, 0.0064260885, 0.72334355, -0.0068587568, 0.0054992414, 0.46690273, 0
391, 596404658, 0.6904364, 8.700297E-5, 0.0064234915, 0.7233646, -0.008221278, -0.0031926904, 0.4480486, 0
392, 596421325, 0.69041795, 8.621148E-5, 0.00642157, 0.72338223, -0.0020168307, -0.0035921894, 0.44585705, 0
393, 596437992, 0.6904051, 8.688862E-5, 0.006415417, 0.72339463, 0.002960918, -0.0033477282, 0.44886398, 0
394, 596454659, 0.6903915, 8.323936E-5, 0.006409279, 0.7234077, -0.021228615, -0.009149121, 0.48095036, 0
395, 596471326, 0.6903709, 8.575521E-5, 0.006412326, 0.7234273, -0.015732445, -0.015854048, 0.44707012, 0
396, 596487993, 0.6903521, 8.890631E-5, 0.0064165993, 0.7234451, -0.0063227415, -0.011160763, 0.44055843, 0
397, 596504660, 0.6903461, 8.333812E-5, 0.006423234, 0.7234507, 0.012383341, -0.013427756, 0.4485731, 0
398, 596521327, 0.69033045, 8.734199E-5, 0.006422714, 0.7234657, 0.008728321, -0.014155251, 0.46675396, 0
399, 596537994, 0.69031566, 7.87974E-5, 0.0064252317, 0.7234798, -0.0046145786, -0.0059794593, 0.43557358, 0
400, 596554661, 0.69029576, 7.826531E-5, 0.0064306995, 0.72349876, -0.0068072127, -0.004929324, 0.44472885, 0
401, 596571328, 0.69027656, 7.983612E-5, 0.0064313724, 0.7235171, 0.0021452773, -0.01783841, 0.43889427, 0
402, 596587995, 0.6902597, 7.733659E-5, 0.0064244396, 0.72353315, -0.008921593, -0.0058543915, 0.4614992, 0
403, 596604662, 0.69024146, 6.673702E-5, 0.0064168586, 0.7235507, -3.487815E-4, -0.013847702, 0.4395542, 0
404, 596621329, 0.69022965, 6.348118E-5, 0.0064119524, 0.723562, 0.0010686574, -0.008880405, 0.45933533, 0
405, 596637996, 0.6902115, 6.6704524E-5, 0.0064098923, 0.72357935, -0.0016854658, -0.012658641, 0.43863964, 0
406, 596654663, 0.6901976, 6.2071056E-5, 0.006405049, 0.7235927, 0.003682271, -0.013433046, 0.43134117, 0
407, 596671330, 0.6901799, 6.479958E-5, 0.006416698, 0.72360945, 0.0047831736, -0.010749689, 0.42777538, 0
408, 596687997, 0.6901695, 7.64234E-5, 0.006411393, 0.72361934, -0.0020298434, -0.009180376, 0.43811798, 0
409, 596704664, 0.69016284, 7.514687E-5, 0.006408088, 0.7236257, -0.002660073, -0.0023181676, 0.43632603, 0
410, 596721331, 0.6901496, 7.138189E-5, 0.00640712, 0.7236384, -0.006790233, -0.009088288, 0.46163654, 0
411, 596737998, 0.69012403, 6.295725E-5, 0.006411478, 0.72366273, -0.0053949705, -0.011064944, 0.4425087, 0
412, 596754665, 0.6901043, 5.3203403E-5, 0.006408718, 0.72368157, 0.013979226, -0.009623933, 0.44534874, 0
413, 596771332, 0.6900859, 5.1842162E-5, 0.006409028, 0.72369915, -0.015323622, -0.007894332, 0.42239285, 0
414, 596787999, 0.690076, 5.6564855E-5, 0.006404069, 0.7237086, 0.0036716927, -0.0054628486, 0.43922138, 0
415, 596804666, 0.69005793, 5.306665E-5, 0.0064022955, 0.72372586, 5.668289E-4, -0.014539877, 0.45093346, 0
416, 596821333, 0.6900456, 5.9303682E-5, 0.006399343, 0.72373766, 0.0089551825, -0.004019704, 0.4487152, 0
417, 596838000, 0.6900304, 5.946709E-5, 0.006399258, 0.7237522, 0.0046641114, -8.179951E-4, 0.44727993, 0
418, 596854667, 0.6900145, 5.9049416E-5, 0.0064100563, 0.7237672, 0.011878735, -0.005153399, 0.44208527, 0
419, 596871334, 0.68999517, 6.044832E-5, 0.0064014476, 0.7237858, 0.0036333182, -0.018445175, 0.4420538, 0
420, 596888001, 0.6899833, 5.6787034E-5, 0.0063959267, 0.7237971, 0.0064736023, -0.003447209, 0.43935204, 0
421, 596904668, 0.68996316, 5.699857E-5, 0.0063975616, 0.7238163, 0.011867616, -0.0054816315, 0.44366264, 0
422, 596921335, 0.68995106, 5.181368E-5, 0.006395388, 0.7238279, 0.007379633, -6.7422533E-4, 0.44727135, 0
423, 596938002, 0.6899328, 4.9736303E-5, 0.006403877, 0.72384506, -0.0058402573, -0.010418556, 0.4359331, 0
424, 596954669, 0.6899175, 4.213366E-5, 0.006399444, 0.7238598, -5.8292877E-4, -0.0035508382, 0.4572096, 0
425, 596971336, 0.6898977, 4.659167E-5, 0.006400216, 0.7238787, -0.01195092, -0.008692198, 0.4552822, 0
426, 596988003, 0.68988746, 4.6722787E-5, 0.0064023305, 0.72388846, -0.009561084, 7.511917E-4, 0.43522453, 0
427, 597004670, 0.68987453, 4.859002E-5, 0.006406789, 0.7239007, -0.004793155, -0.0147908125, 0.450572, 0
428, 597021337, 0.6898587, 4.892005E-5, 0.0064022066, 0.72391576, 0.010266988, -0.0019029415, 0.43063068, 0
429, 597038004, 0.6898433, 3.616242E-5, 0.006402904, 0.7239304, -0.008297918, -0.01114354, 0.45046234, 0
430, 597054671, 0.68982834, 4.43217E-5, 0.0064037796, 0.7239447, -0.01133253, -0.01780826, 0.45107365, 0
431, 597071338, 0.6898179, 5.0025392E-5, 0.0064074807, 0.7239546, 0.005660731, -0.0106747765, 0.43712044, 0
432, 597088005, 0.6898038, 5.0451436E-5, 0.0064142994, 0.7239681, 0.004436079, -0.010493832, 0.46467304, 0
433, 597104672, 0.68978375, 5.4378193E-5, 0.006419585, 0.723987, -0.010731035, -0.0031004269, 0.4337635, 0
434, 597121339, 0.6897689, 4.931137E-5, 0.006420117, 0.7240011, 0.0037598442, -0.0019094985, 0.4662218, 0
435, 597138006, 0.6897518, 5.364952E-5, 0.006420041, 0.7240174, -0.0027040003, -0.009362502, 0.4582796, 0
436, 597154673, 0.68973315, 5.564504E-5, 0.006426143, 0.72403514, 0.006867401, -0.012826748, 0.45203495, 0
437, 597171340, 0.6897192, 5.2939176E-5, 0.0064170873, 0.7240485, -0.0012219977, -0.010239422, 0.43705082, 0
438, 597188007, 0.68970716, 5.8938476E-5, 0.0064147003, 0.72406006, 0.008456641, -0.0108599635, 0.45630836, 0
439, 597204674, 0.6896978, 5.938192E-5, 0.00641928, 0.72406894, 0.0027352432, -0.007613024, 0.44096088, 0
440, 597221341, 0.6896822, 6.5448905E-5, 0.006399924, 0.7240839, -0.012884313, 0.008117368, 0.4490633, 0
441, 597238008, 0.68965906, 6.261728E-5, 0.006397609, 0.724106, 0.003678063, 3.7359062E-4, 0.43157387, 0
442, 597254675, 0.6896401, 6.140855E-5, 0.0063950135, 0.72412413, 0.0026076313, 0.0016446819, 0.4347639, 0
443, 597271342, 0.68962157, 6.588445E-5, 0.006391812, 0.72414184, -0.007351449, -0.015529404, 0.43988132, 0
444, 597288009, 0.6896068, 5.945472E-5, 0.00639473, 0.72415584, 6.033313E-4, -0.003064096, 0.4507799, 0
445, 597304676, 0.68959576, 5.725486E-5, 0.0064060194, 0.7241663, 0.0028090584, -0.01626245, 0.41846752, 0
446, 597321343, 0.68958586, 4.763639E-5, 0.0064078937, 0.72417563, 0.01765637, -0.014829536, 0.43429947, 0
447, 597338010, 0.68956316, 4.937395E-5, 0.006399082, 0.7241974, 0.0054524727, -0.022719609, 0.44793797, 0
448, 597354677, 0.6895547, 4.5673634E-5, 0.0063990653, 0.72420543, -0.011135339, -0.022654932, 0.43868732, 0
449, 597371344, 0.689544, 4.6293386E-5, 0.006401102, 0.72421557, -0.0024354076, -0.01443087, 0.4442377, 0
450, 597388011, 0.6895242, 4.5195407E-5, 0.006404055, 0.7242345, -0.006901654, -0.01738518, 0.4487772, 0
451, 597404678, 0.68950754, 4.1994434E-5, 0.006411169, 0.7242502, -7.3699554E-4, -0.0073516886, 0.45851898, 0
452, 597421345, 0.68949306, 3.824633E-5, 0.0064097517, 0.72426397, -0.00595135, -0.013398838, 0.4650793, 0
453, 597438012, 0.6894711, 3.3056673E-5, 0.0064157653, 0.72428477, -0.008117837, -0.01069016, 0.46708965, 0
454, 597454679, 0.6894544, 2.6600947E-5, 0.0064147566, 0.7243008, 5.1845575E-4, -0.0014598264, 0.42127037, 0
455, 597471346, 0.68943584, 2.3766275E-5, 0.006412368, 0.7243184, -0.0018982291, -0.011474336, 0.4405384, 0
456, 597488013, 0.6894229, 2.0838223E-5, 0.006422617, 0.7243306, -0.0065623266, -6.343592E-4, 0.4344864, 0
457, 597504680, 0.68941164, 3.1360978E-5, 0.0064232624, 0.7243413, -0.0026068385, 0.0018439939, 0.4419279, 0
458, 597521347, 0.68939435, 2.9691462E-5, 0.0064197257, 0.7243577, -0.007298955, -0.0036451272, 0.45230293, 0
459, 597538014, 0.68937695, 3.4265882E-5, 0.0064221625, 0.72437435, -0.01341742, -0.008716374, 0.43005848, 0
460, 597554681, 0.68936574, 2.9154306E-5, 0.006424701, 0.72438496, 0.006932942, -0.003339215, 0.44791317, 0
461, 597571348, 0.6893609, 3.213395E-5, 0.006430718, 0.7243895, 0.0024713548, -0.005842029, 0.4535246, 0
462, 597588015, 0.68934643, 4.0521758E-5, 0.006424892, 0.7244034, -0.017527044, -0.004566383, 0.42894268, 0
463, 597604682, 0.6893398, 3.4884866E-5, 0.006421987, 0.72440976, -0.0019744646, -0.007539747, 0.4368248, 0
464, 597621349, 0.6893316, 3.5548983E-5, 0.0064300247, 0.72441757, -0.0053683235, -0.017374689, 0.4245777, 0
465, 597638016, 0.6893228, 3.5033325E-5, 0.0064254096, 0.7244258, -0.005832581, -0.011594646, 0.42538166, 0
466, 597654683, 0.6893122, 2.8203554E-5, 0.006417903, 0.724436, -0.0067214817, -0.010590405, 0.4263258, 0
467, 597671350, 0.68929243, 3.0679144E-5, 0.0064120083, 0.72445494, -0.003426251, -0.008480128, 0.41867542, 0
468, 597688017, 0.6892857, 3.9404345E-5, 0.0064068316, 0.72446144, 0.014771192, -0.006952066, 0.4620638, 0
469, 597704684, 0.6892684, 3.0144905E-5, 0.0063990396, 0.7244778, -0.005747709, -0.008006117, 0.44433117, 0
470, 597721351, 0.6892503, 2.835306E-5, 0.006393201, 0.7244951, -0.0011046604, 0.0018457717, 0.43439007, 0
471, 597738018, 0.6892402, 1.8347017E-5, 0.006393302, 0.7245047, -0.006137718, -0.006222247, 0.4434929, 0
472, 597754685, 0.6892214, 1.7678169E-5, 0.0063857953, 0.7245227, -4.8564127E-4, -0.01294078, 0.4660387, 0
473, 597771352, 0.6892061, 1.4061994E-5, 0.006380309, 0.7245373, -0.0023362832, -0.01491668, 0.4454975, 0
474, 597788019, 0.68919057, 1.31910365E-5, 0.006376239, 0.7245521, -0.010113224, 7.7538966E-4, 0.44033718, 0
475, 597804686, 0.68917215, 1.3095512E-5, 0.006383923, 0.7245695, -0.016008379, -0.011078165, 0.45765686, 0
476, 597821353, 0.68916565, 1.7099852E-5, 0.006390798, 0.7245756, 0.009884064, -0.008952795, 0.4380226, 0
477, 597838020, 0.6891542, 1.5287798E-5, 0.0063936054, 0.7245866, -0.0040359455, -0.0018666293, 0.4350214, 0
478, 597854687, 0.68913937, -2.593073E-7, 0.0063944086, 0.72460073, -0.0031208904, 0.007880386, 0.45009613, 0
479, 597871354, 0.6891623, 2.2018963E-5, 0.0064432113, 0.72457844, 0.026351908, 0.014335171, 0.43923664, 0
480, 597888021, 0.68914807, 2.8225046E-5, 0.006439477, 0.7245921, 0.0032732948, 0.0027899249, 0.43442726, 0
481, 597904688, 0.6891376, 8.611849E-6, 0.0064640013, 0.7246018, -0.005008894, -0.015918259, 0.41248035, 0
482, 597921355, 0.68912804, 2.7573817E-6, 0.0064725964, 0.7246108, -0.0024827924, -0.040192887, 0.4374466, 0
483, 597938022, 0.6891129, 8.794514E-6, 0.0064609135, 0.7246252, 0.0017429226, -0.043380342, 0.43327713, 0
484, 597954689, 0.689095, 2.283429E-5, 0.0064554005, 0.7246423, 0.0020913864, -1.1215466E-4, 0.4207554, 0
485, 597971356, 0.6890788, 2.3948438E-5, 0.0064566024, 0.72465765, 0.0036184618, 0.008638934, 0.45137787, 0
486, 597988023, 0.68906325, 3.113284E-5, 0.0064610047, 0.7246724, 0.016462592, 0.00947643, 0.45927048, 0
487, 598004690, 0.6890588, 3.607248E-5, 0.006454433, 0.72467667, -9.737307E-4, 0.002870323, 0.45757484, 0
488, 598021357, 0.68904334, 3.0415453E-5, 0.0064603426, 0.7246914, -8.9615077E-4, -0.011315022, 0.4471836, 0
489, 598038024, 0.689031, 2.941452E-5, 0.0064511714, 0.7247032, -0.012312047, -0.028516619, 0.43833447, 0
490, 598054691, 0.68902147, 2.9007144E-5, 0.00645225, 0.72471225, -0.004679743, -0.012993599, 0.423316, 0
491, 598071358, 0.6890135, 2.6313217E-5, 0.0064578913, 0.72471976, -0.0048906906, -0.0108747715, 0.45327663, 0
492, 598088025, 0.6889956, 2.9625684E-5, 0.006457003, 0.7247368, 0.011340523, -0.008840472, 0.43165398, 0
493, 598104692, 0.68897974, 2.6627007E-5, 0.0064587947, 0.7247519, -0.0012636235, -0.004768383, 0.4410286, 0
494, 598121359, 0.6889653, 3.4685345E-5, 0.00644717, 0.72476566, 0.017575732, -0.0034354874, 0.44845104, 0
495, 598138026, 0.6889574, 2.955818E-5, 0.0064385077, 0.7247733, 0.012073359, -0.0074192504, 0.43326283, 0
496, 598154693, 0.68894315, 2.0089097E-5, 0.0064378236, 0.7247869, -0.015599147, -0.006770828, 0.4589882, 0
497, 598171360, 0.6889316, 2.3981594E-5, 0.0064431746, 0.7247977, -0.0044061495, 0.005727311, 0.4530449, 0
498, 598188027, 0.68892366, 1.919049E-5, 0.006453005, 0.72480524, -0.0017199147, -0.006261221, 0.45731544, 0
499, 598204694, 0.68891335, 9.652542E-6, 0.006460815, 0.72481495, 0.005372361, -0.008346513, 0.42480373, 0
500, 598221361, 0.68890274, 1.1047384E-5, 0.006459936, 0.724825, 0.0021544797, -0.020937271, 0.4451847, 0
501, 598238028, 0.6888924, 1.554782E-5, 0.006464169, 0.72483474, 0.0022818332, -0.013057085, 0.44978333, 0
502, 598254695, 0.6888761, 1.6507125E-5, 0.0064706453, 0.7248503, 0.013447476, -0.026584413, 0.450552, 0
503, 598271362, 0.68887025, 2.1734584E-5, 0.0064693065, 0.7248559, -0.0054720826, -0.010921155, 0.45425034, 0
504, 598288029, 0.68885905, 2.0513093E-5, 0.0064734393, 0.7248665, -0.013528377, 0.0112493755, 0.47372437, 0
505, 598304696, 0.6888483, 1.6409249E-5, 0.0064720744, 0.72487664, 0.0071743256, -0.007220928, 0.45765114, 0
506, 598321363, 0.6888367, 1.4525113E-5, 0.0064734104, 0.72488767, 0.011670903, 0.0038039426, 0.43525696, 0
507, 598338030, 0.6888329, 1.2666458E-5, 0.0064754393, 0.72489125, 0.012043597, -0.018415613, 0.43565083, 0
508, 598354697, 0.68882835, 7.675543E-6, 0.006473516, 0.7248955, -0.0014753706, -0.020794684, 0.43325233, 0
509, 598371364, 0.6888205, 5.591661E-6, 0.006474015, 0.72490317, 7.052881E-5, -0.022945631, 0.45588493, 0
510, 598388031, 0.6888036, 5.5419755E-6, 0.0064670793, 0.7249192, 0.0016668688, -0.021823272, 0.44312954, 0
511, 598404698, 0.6887949, -6.8847353E-6, 0.0064647715, 0.7249275, -0.011108915, 2.917644E-4, 0.435915, 0
512, 598421365, 0.6887865, -1.2123843E-6, 0.0064682704, 0.7249354, 0.012436314, 2.2193401E-4, 0.45057583, 0
513, 598438032, 0.6887762, -2.4316222E-7, 0.006466244, 0.7249452, -0.0055691046, 0.01123294, 0.44717503, 0
514, 598454699, 0.68876547, -1.6178939E-6, 0.0064610788, 0.72495544, 0.008626077, -0.011233541, 0.4521761, 0
515, 598471366, 0.68875605, -6.966714E-6, 0.0064648837, 0.72496444, 0.0021224197, -0.02511169, 0.43645573, 0
516, 598488033, 0.6887484, -1.131325E-6, 0.006472937, 0.72497153, -0.01140222, -0.028319824, 0.43688488, 0
517, 598504700, 0.68874633, -5.2309025E-7, 0.006479091, 0.72497344, -0.011061992, -0.002499147, 0.449378, 0
518, 598521367, 0.68873423, -2.3818159E-6, 0.006476232, 0.72498494, -0.0014805777, 6.082223E-4, 0.42878532, 0
519, 598538034, 0.6887198, -5.6714293E-6, 0.006471087, 0.72499883, 0.0074664713, -0.013266498, 0.43009186, 0
520, 598554701, 0.68869984, -7.213932E-6, 0.0064680404, 0.7250178, -0.00447401, 0.0033228917, 0.44697952, 0
521, 598571368, 0.68869025, -7.5199077E-6, 0.0064646755, 0.7250269, 0.0046131085, -0.019537415, 0.41813946, 0
522, 598588035, 0.6886832, -1.2555582E-5, 0.0064648376, 0.7250336, 0.004095662, -0.02746667, 0.46412373, 0
523, 598604702, 0.68867743, -1.3602928E-5, 0.0064690327, 0.725039, 2.6875688E-4, -0.007884309, 0.44519806, 0
524, 598621369, 0.6886772, -1.4246404E-5, 0.006454379, 0.72503936, 0.005584775, -0.029015854, 0.4640131, 0
525, 598638036, 0.6886616, -8.636052E-6, 0.006467, 0.72505414, 0.0023702083, 0.0027907665, 0.4360571, 0
526, 598654703, 0.68865776, 4.3677173E-6, 0.0064686015, 0.7250578, -0.003761147, -0.014256988, 0.45650005, 0
527, 598671370, 0.6886441, 4.0464342E-6, 0.006469326, 0.72507066, -0.0030773857, -0.024528908, 0.43550682, 0
528, 598688037, 0.68863356, 4.057981E-6, 0.0064767203, 0.7250806, 0.0017206621, -0.017758776, 0.42132092, 0
529, 598704704, 0.6886266, 7.1368913E-6, 0.0064768833, 0.72508717, 0.006639491, -0.012974164, 0.42066765, 0
530, 598721371, 0.6886151, 1.8627166E-5, 0.006469556, 0.72509825, -0.014065195, 0.0029390082, 0.4402609, 0
531, 598738038, 0.6886011, 2.6181597E-5, 0.006469837, 0.72511154, -0.0025951564, -0.012304583, 0.44706917, 0
532, 598754705, 0.6885861, 3.6292655E-5, 0.0064639933, 0.7251258, -0.010774508, -0.0024496352, 0.41687202, 0
533, 598771372, 0.6885761, 2.9529447E-5, 0.0064639007, 0.72513527, -0.006846397, -0.019477189, 0.45363903, 0
534, 598788039, 0.6885675, 2.5096222E-5, 0.006468166, 0.7251434, -9.7720564E-5, -0.015967906, 0.4216709, 0
535, 598804706, 0.6885578, 3.250443E-5, 0.0064627905, 0.7251527, 0.00927628, -0.010309184, 0.44130993, 0
536, 598821373, 0.6885473, 4.3644337E-5, 0.0064610597, 0.7251626, 0.0021846332, -0.0101271635, 0.44849777, 0
537, 598838040, 0.68853754, 4.3902255E-5, 0.006457459, 0.72517186, -0.008390966, -0.0012846357, 0.44610023, 0
538, 598854707, 0.68852234, 4.7492627E-5, 0.0064623435, 0.72518635, 0.0014230511, -0.0011525232, 0.44381142, 0
539, 598871374, 0.68851393, 4.380218E-5, 0.006457621, 0.7251944, -0.008894674, -0.014709903, 0.45075417, 0
540, 598888041, 0.6885006, 5.070343E-5, 0.006452311, 0.7252071, 0.004931265, -0.008869748, 0.4242916, 0
541, 598904708, 0.68849117, 4.5536985E-5, 0.006459305, 0.72521603, -0.0066663437, -0.013038841, 0.4179802, 0
542, 598921375, 0.6884833, 4.5102894E-5, 0.006454363, 0.7252235, -0.004037203, -0.0038178265, 0.44068718, 0
543, 598938042, 0.6884824, 4.4858592E-5, 0.0064561656, 0.7252243, 0.0017286807, 0.0013697923, 0.45028114, 0
544, 598954709, 0.68847466, 4.3315013E-5, 0.0064536887, 0.72523165, -0.010333294, 0.0011615222, 0.43257332, 0
545, 598971376, 0.68846196, 3.551029E-5, 0.006468473, 0.72524357, 4.899544E-4, -0.010527333, 0.44605732, 0
546, 598988043, 0.6884582, 3.7467973E-5, 0.0064600846, 0.72524726, -0.013214865, -1.7647739E-4, 0.45188618, 0
547, 599004710, 0.6884516, 3.8340706E-5, 0.0064595095, 0.7252536, -0.019614555, -0.007630693, 0.42366982, 0
548, 599021377, 0.6884488, 3.1994452E-5, 0.0064756586, 0.7252561, 0.0054430994, -0.012218763, 0.441082, 0
549, 599038044, 0.6884349, 2.2184615E-5, 0.0064796368, 0.7252692, -0.0040278537, -0.017966658, 0.45150757, 0
550, 599054711, 0.68842167, 3.2863114E-5, 0.0064725354, 0.72528183, -8.068503E-4, -0.014419089, 0.4445448, 0
551, 599071378, 0.6884095, 3.1862088E-5, 0.006476333, 0.7252934, -6.240726E-4, -0.017562672, 0.4221449, 0
552, 599088045, 0.68839765, 1.893476E-5, 0.006480163, 0.7253046, -4.1277256E-4, -0.0031423166, 0.46605682, 0
553, 599104712, 0.6883925, 1.7536291E-5, 0.006481075, 0.72530943, -0.021221392, -0.012904312, 0.46106815, 0
554, 599121379, 0.68838656, 2.7865102E-5, 0.0064782207, 0.7253151, 0.01531033, -0.018015193, 0.45377827, 0
555, 599138046, 0.68837637, 1.8508965E-5, 0.0064767567, 0.72532475, 0.0052895388, -0.018988986, 0.45093727, 0
556, 599154713, 0.68837214, 1.741012E-5, 0.0064795394, 0.7253288, -0.0054457956, -0.012466728, 0.4483204, 0
557, 599171380, 0.6883675, 6.752478E-6, 0.0064779283, 0.7253332, 9.344204E-4, -0.00798188, 0.44852638, 0
558, 599188047, 0.68834996, 9.514509E-6, 0.006479741, 0.72534984, 0.0057994276, -0.018375257, 0.43721867, 0
559, 599204714, 0.68833923, 7.5907974E-6, 0.006479605, 0.72536004, -0.006981043, -0.019246276, 0.4540186, 0
560, 599221381, 0.6883291, 3.4985671E-6, 0.0064805415, 0.7253697, -0.0034588699, -0.015702292, 0.43918705, 0
561, 599238048, 0.68832105, -4.254075E-6, 0.006482794, 0.72537726, -4.8691948E-4, -0.016914802, 0.43534946, 0
562, 599254715, 0.68830556, -4.2296474E-6, 0.0064809914, 0.7253919, -0.0025039841, -0.024199152, 0.45248508, 0
563, 599271382, 0.6882911, 7.79362E-6, 0.006479216, 0.7254057, 0.008335971, -0.0078252135, 0.42556953, 0
564, 599288049, 0.6882793, 1.423317E-5, 0.0064703617, 0.725417, 0.004809524, 2.7896522E-4, 0.45011044, 0
565, 599304716, 0.68827045, 1.9240826E-5, 0.0064628813, 0.7254254, 0.008883599, -0.01847813, 0.44760036, 0
566, 599321383, 0.68825185, 2.0481939E-5, 0.006464491, 0.725443, -0.013314838, -0.007368872, 0.44401836, 0
567, 599338050, 0.6882433, 2.374303E-5, 0.006463413, 0.72545123, -0.004323467, -0.026468825, 0.44003487, 0
568, 599354717, 0.68823254, 2.1839614E-5, 0.006459774, 0.7254615, -0.011103352, -0.018503098, 0.44540596, 0
569, 599371384, 0.6882275, 2.75355E-5, 0.0064618555, 0.72546625, 0.0067514046, -0.004649263, 0.45398712, 0
570, 599388051, 0.68821615, 2.7157268E-5, 0.006464776, 0.72547704, 0.0018757416, -8.0989324E-4, 0.4420643, 0
571, 599404718, 0.6882135, 1.6966997E-5, 0.006468365, 0.7254793, -0.005580497, -0.009099688, 0.46974564, 0
572, 599421385, 0.68820727, 5.602114E-6, 0.0064814836, 0.72548527, -0.015126812, -0.019323377, 0.44736862, 0
573, 599438052, 0.6882071, 3.250352E-7, 0.006480363, 0.7254853, -0.007446523, -0.016835213, 0.43599224, 0
574, 599454719, 0.68820035, -2.847181E-6, 0.0064728907, 0.7254918, -1.00860225E-5, -0.019199416, 0.44024754, 0
575, 599471386, 0.688195, -7.300011E-6, 0.0064697065, 0.72549695, -0.0016869152, -0.013571728, 0.44175148, 0
576, 599488053, 0.6881963, -9.918169E-6, 0.0064752456, 0.72549564, -0.0027863055, -0.012371528, 0.4388132, 0
577, 599504720, 0.6881915, -1.29264035E-5, 0.006478992, 0.7255002, -0.0046202256, -0.0052762115, 0.4505701, 0
578, 599521387, 0.6881859, -1.5128887E-5, 0.0064789276, 0.72550553, -0.015722143, -0.013947055, 0.45601082, 0
579, 599538054, 0.6881699, -2.014212E-5, 0.0064800745, 0.7255207, -0.0033020547, -0.013209202, 0.45203304, 0
580, 599554721, 0.68816006, -1.835392E-5, 0.006495443, 0.72552985, -0.019814014, -0.0067895288, 0.4247818, 0
581, 599571388, 0.6881564, -3.2686854E-5, 0.006497362, 0.72553325, -0.022418914, -0.011488978, 0.44304657, 0
582, 599588055, 0.6881499, -3.165842E-5, 0.0065080235, 0.7255394, -0.014857507, -0.013752033, 0.42484474, 0
583, 599604722, 0.6881387, -3.2514006E-5, 0.006505996, 0.72555, -0.0023901043, -0.0022390918, 0.43420506, 0
584, 599621389, 0.68812877, -3.7725385E-5, 0.006504182, 0.7255595, -0.00791706, 0.0025683653, 0.44499016, 0
585, 599638056, 0.68812096, -3.7391354E-5, 0.0065012, 0.7255669, 0.008843888, -0.011526694, 0.43782902, 0
586, 599654723, 0.688113, -3.2739776E-5, 0.006506155, 0.7255745, -0.0055765607, -0.022031946, 0.4468937, 0
587, 599671390, 0.6881042, -3.1952324E-5, 0.0064978465, 0.72558284, -0.0052410574, -0.02440303, 0.4111786, 0
588, 599688057, 0.68809086, -3.0988285E-5, 0.006500188, 0.7255955, -0.0032209964, -0.012842297, 0.47297478, 0
589, 599704724, 0.68807566, -2.8316486E-5, 0.0065061823, 0.72560984, 0.009649956, -0.011392403, 0.44559193, 0
590, 599721391, 0.68807155, -2.1472728E-5, 0.00651622, 0.7256137, -0.007855062, -0.016756007, 0.437809, 0
591, 599738058, 0.68806684, -2.216173E-5, 0.0065178783, 0.7256182, 0.013019221, -0.004498049, 0.44555473, 0
592, 599754725, 0.6880571, -1.583448E-5, 0.006511922, 0.72562736, 0.007468951, -0.008271212, 0.4477892, 0
593, 599771392, 0.68804693, -8.175849E-6, 0.006512276, 0.7256371, 0.0035409166, -0.015109584, 0.43797302, 0
594, 599788059, 0.6880412, -8.385055E-6, 0.0065077287, 0.7256424, -0.008123393, -0.018388838, 0.4433899, 0
595, 599804726, 0.6880312, -1.6175494E-5, 0.006513119, 0.7256519, -0.0021572039, -0.012633089, 0.45921516, 0
596, 599821393, 0.6880239, -1.7217313E-5, 0.006513275, 0.72565883, 0.003427924, -0.02084804, 0.4320135, 0
597, 599838060, 0.68802655, -1.2248501E-5, 0.0065188576, 0.72565633, 0.00505843, -0.007860566, 0.44923973, 0
598, 599854727, 0.6880211, -1.1206427E-5, 0.006517893, 0.72566134, -0.0034652995, -0.010271724, 0.44220734, 0
599, 599871394, 0.6879722, -4.1740506E-5, 0.0064469413, 0.7257085, -0.006324924, -0.018681802, 0.44124317, 0
600, 599888061, 0.6879607, -3.8713802E-5, 0.0064446223, 0.7257194, 0.007283037, -0.01814372, 0.41560173, 0
601, 599904728, 0.6879572, -3.6702277E-5, 0.006446303, 0.7257227, -5.7878677E-4, -0.016514085, 0.43264294, 0
602, 599921395, 0.6879467, -3.1623233E-5, 0.00644172, 0.72573274, -0.007083737, -0.0175284, 0.43667412, 0
603, 599938062, 0.6879369, -3.612819E-5, 0.0064444663, 0.72574186, -9.5070887E-4, -0.020248052, 0.47176456, 0
604, 599954729, 0.68792355, -2.9419492E-5, 0.0064393375, 0.72575456, -0.0036642086, -0.0034429464, 0.44151306, 0
605, 599971396, 0.6879134, -3.81358E-5, 0.0064382013, 0.7257643, -1.7602694E-4, -0.01628881, 0.45506573, 0
606, 599988063, 0.68790984, -4.2385902E-5, 0.006436371, 0.7257677, 0.0030106881, -0.012332097, 0.4556675, 0
607, 600004730, 0.6878914, -4.634793E-5, 0.0064281975, 0.72578514, 0.002451738, -0.016448164, 0.4255209, 0
608, 600021397, 0.68788326, -4.114644E-5, 0.0064344774, 0.72579277, -0.015877068, -0.0072053946, 0.4491825, 0
609, 600038064, 0.6878676, -4.050405E-5, 0.0064341584, 0.72580767, -0.0060259164, -0.012938833, 0.45102596, 0
610, 600054731, 0.6878594, -4.4285807E-5, 0.0064404006, 0.72581536, -0.015540217, -0.011813685, 0.45848083, 0
611, 600071398, 0.6878614, -4.1613894E-5, 0.0064451317, 0.7258135, 0.008056434, -0.010044492, 0.43867016, 0
612, 600088065, 0.687857, -4.9062997E-5, 0.0064499676, 0.7258176, 0.01428451, -0.015423496, 0.44948673, 0
613, 600104732, 0.68783706, -4.6670313E-5, 0.0064489217, 0.7258365, 0.0055347537, -0.0057458384, 0.44687462, 0
614, 600121399, 0.68782425, -4.3691758E-5, 0.0064485744, 0.7258487, -0.006835253, -0.007954581, 0.44653797, 0
615, 600138066, 0.6878114, -4.295958E-5, 0.0064403717, 0.725861, -0.0073011345, -0.027133893, 0.45384407, 0
616, 600154733, 0.6878037, -4.278455E-5, 0.006441682, 0.7258682, -0.008174225, -0.007343552, 0.4292879, 0
617, 600171400, 0.6877939, -4.145602E-5, 0.0064480253, 0.72587746, -0.005779919, -0.024321558, 0.45191097, 0
618, 600188067, 0.68778455, -3.8868136E-5, 0.006449775, 0.72588634, -0.014072138, -0.02286832, 0.44054127, 0
619, 600204734, 0.68778086, -3.659503E-5, 0.0064551625, 0.7258897, -0.0039344775, -0.018325673, 0.4412775, 0
620, 600221401, 0.6877724, -2.7991393E-5, 0.0064594517, 0.72589767, 0.0037584263, -0.014927007, 0.443408, 0
621, 600238068, 0.6877668, -3.8202834E-5, 0.006458606, 0.725903, 0.005139876, -0.0068458263, 0.45724964, 0
622, 600254735, 0.6877558, -3.752878E-5, 0.00645917, 0.7259134, -6.4839714E-4, 8.062142E-4, 0.44841003, 0
623, 600271402, 0.6877462, -2.855468E-5, 0.00645775, 0.7259225, -0.0028260455, -0.024527453, 0.4570198, 0
624, 600288069, 0.687741, -1.5918844E-5, 0.006455064, 0.7259274, 0.0019974725, -0.021781592, 0.44865704, 0
625, 600304736, 0.6877351, -1.320564E-5, 0.006448812, 0.72593313, 0.00861268, -0.015314486, 0.4362831, 0
626, 600321403, 0.6877286, -9.628621E-6, 0.006444961, 0.72593933, -0.0061246427, -0.0165275, 0.45769215, 0
627, 600338070, 0.68771654, -7.3969027E-6, 0.0064577605, 0.72595066, -3.368969E-4, -0.013503964, 0.4459858, 0
628, 600354737, 0.687715, -8.999213E-6, 0.0064469525, 0.72595227, -0.002456554, -0.0063026818, 0.43959522, 0
629, 600371404, 0.68770933, -1.4226713E-5, 0.0064381864, 0.7259576, -0.0071961917, -0.010416423, 0.45937824, 0
630, 600388071, 0.6876972, -1.3091235E-5, 0.006427621, 0.7259692, -0.0017258378, -0.011454618, 0.44505215, 0
631, 600404738, 0.68768686, -2.012342E-5, 0.006420566, 0.7259791, -0.0033250067, -0.009199062, 0.42680264, 0
632, 600421405, 0.68768305, -2.2087717E-5, 0.006417769, 0.72598267, -0.0051487256, -0.013969821, 0.4492178, 0
633, 600438072, 0.6876721, -2.3587569E-5, 0.006406519, 0.72599316, -0.017105844, -0.0072066253, 0.44504356, 0
634, 600454739, 0.68766785, -2.3280822E-5, 0.0064128693, 0.7259971, -0.0072197197, -0.01167984, 0.43764782, 0
635, 600471406, 0.6876598, -1.816322E-5, 0.0064060325, 0.7260049, 0.002376243, -0.0118563855, 0.44639874, 0
636, 600488073, 0.6876457, -1.91079E-5, 0.006408217, 0.7260182, -0.010439906, 0.0011603166, 0.45828247, 0
637, 600504740, 0.68764293, -2.1630654E-5, 0.006407236, 0.72602075, -0.0022132637, -0.0141223185, 0.4348793, 0
638, 600521407, 0.6876355, -2.2130691E-5, 0.0064107236, 0.72602785, -0.011125592, 1.4506579E-4, 0.44755363, 0
639, 600538074, 0.68762654, -1.7709866E-5, 0.006417577, 0.72603625, 0.004735712, -0.011247022, 0.4409876, 0
640, 600554741, 0.68761986, -2.4879462E-5, 0.006426538, 0.7260425, -0.002700211, 0.0037292028, 0.47052097, 0
641, 600571408, 0.68761885, -1.6418646E-5, 0.0064325156, 0.7260434, -8.322191E-4, -0.007980352, 0.44806385, 0
642, 600588075, 0.6876106, -1.4801923E-5, 0.0064326986, 0.7260512, -0.007866462, -0.0063414085, 0.442132, 0
643, 600604742, 0.6876016, -1.919626E-5, 0.0064331666, 0.7260596, -0.0059131994, -0.011450322, 0.43493462, 0
644, 600621409, 0.68759745, -1.3328887E-5, 0.0064384704, 0.7260636, -0.006213444, -0.019636761, 0.44062328, 0
645, 600638076, 0.6875929, -7.2585963E-6, 0.006438246, 0.726068, -7.010938E-4, -0.007891428, 0.4395113, 0
646, 600654743, 0.68759185, -8.1492335E-6, 0.006439796, 0.7260689, 0.0019539117, -0.010642705, 0.42771626, 0
647, 600671410, 0.6875866, -1.0307467E-5, 0.0064341663, 0.726074, 7.6016056E-4, -0.006801109, 0.43010712, 0
648, 600688077, 0.6875803, -9.919146E-6, 0.006435497, 0.72607994, -0.011144845, -0.010582684, 0.44172668, 0
649, 600704744, 0.6875762, -1.9227267E-5, 0.006438426, 0.72608376, -0.0025138117, -0.01129592, 0.4453802, 0
650, 600721411, 0.68757206, -1.4906554E-5, 0.0064474065, 0.7260875, -0.010845484, -0.018711027, 0.44396305, 0
651, 600738078, 0.68757117, -1.9629799E-5, 0.0064461883, 0.72608835, 0.001712909, -0.011755336, 0.46059227, 0
652, 600754745, 0.68755734, -1.7800096E-5, 0.006447466, 0.7261016, -0.01345988, 2.4277813E-4, 0.4422102, 0
653, 600771412, 0.68755525, -1.0652496E-5, 0.0064477283, 0.72610354, -0.013874755, -0.01291851, 0.42375183, 0
654, 600788079, 0.6875552, -8.532669E-6, 0.0064544026, 0.7261035, 0.007828523, -0.013830077, 0.45597744, 0
655, 600804746, 0.6875434, -9.73976E-6, 0.006457234, 0.72611463, -0.0017669887, -3.9738067E-4, 0.44928455, 0
656, 600821413, 0.6875362, -1.4623678E-6, 0.0064464803, 0.72612154, -0.0017780316, -0.0190963, 0.46241665, 0
657, 600838080, 0.687527, 1.3314367E-6, 0.0064534503, 0.7261302, -0.008477483, -0.005868079, 0.44944763, 0
658, 600854747, 0.68751836, -1.1669471E-6, 0.0064474973, 0.7261385, 0.011882409, -0.0025901033, 0.44451714, 0
659, 600871414, 0.68750685, -1.1006845E-6, 0.0064536496, 0.7261493, 0.0016427014, -0.0026862973, 0.45823765, 0
660, 600888081, 0.68750155, -5.250225E-7, 0.006461202, 0.72615427, -0.0044465284, -0.0105263, 0.40931892, 0
661, 600904748, 0.6874863, -2.4302026E-6, 0.0064764465, 0.7261686, 0.0065328227, -0.0028704691, 0.47389793, 0
662, 600921415, 0.6874792, -1.1613848E-5, 0.0064777755, 0.7261752, 0.0059969677, -0.012169529, 0.43265152, 0
663, 600938082, 0.68747574, -1.4747982E-5, 0.0064713033, 0.7261785, 0.011239513, -0.01361016, 0.41553402, 0
664, 600954749, 0.68746334, -2.8474882E-5, 0.006478991, 0.72619015, -7.287256E-4, 0.0056650424, 0.43207073, 0
665, 600971416, 0.6874599, -3.154889E-5, 0.0064745806, 0.7261935, 0.011846442, -0.019867806, 0.44198227, 0
666, 600988083, 0.6874537, -3.6644764E-5, 0.006479909, 0.72619927, -0.011286943, -0.015178055, 0.42907333, 0
667, 601004750, 0.6874478, -4.3708875E-5, 0.0064808237, 0.7262049, 0.00801866, -0.0016875047, 0.4264574, 0
668, 601021417, 0.68744355, -4.2977033E-5, 0.0064839576, 0.726209, 0.001671133, 0.0046551516, 0.47531223, 0
669, 601038084, 0.68743736, -5.023905E-5, 0.006487879, 0.72621477, 0.010071176, -0.012641999, 0.44443798, 0
670, 601054751, 0.68743646, -4.8694208E-5, 0.0064821304, 0.72621566, 0.01446367, -0.013838186, 0.41424274, 0
671, 601071418, 0.68743235, -4.1813382E-5, 0.0064769103, 0.7262196, -0.0040169153, 0.011078901, 0.43910503, 0
672, 601088085, 0.6874257, -4.8220918E-5, 0.0064735515, 0.7262259, -0.012467972, -0.009338873, 0.44256115, 0
673, 601104752, 0.68741953, -4.2504413E-5, 0.006480612, 0.72623163, 0.0013901703, -0.011611476, 0.459898, 0
674, 601121419, 0.68741196, -4.1951862E-5, 0.006483053, 0.7262388, -0.007109797, -0.010162135, 0.45368004, 0
675, 601138086, 0.6874028, -3.9702954E-5, 0.0064798486, 0.72624755, 0.0021167062, -0.00815781, 0.43575191, 0
676, 601154753, 0.68739015, -4.443746E-5, 0.006476068, 0.7262596, -4.589175E-4, -0.008947578, 0.4505949, 0
677, 601171420, 0.68738407, -5.116999E-5, 0.006473667, 0.7262654, 0.008240186, -0.019666418, 0.449481, 0
678, 601188087, 0.6873769, -4.1284027E-5, 0.0064799404, 0.726272, -0.005979338, 0.003438625, 0.4308138, 0
679, 601204754, 0.6873674, -4.0573555E-5, 0.0064830505, 0.726281, -0.0042662965, -0.0058243526, 0.41614914, 0
680, 601221421, 0.68735564, -4.6734087E-5, 0.0064847064, 0.7262921, -0.0079392325, -0.008453843, 0.41996765, 0
681, 601238088, 0.6873521, -5.4276377E-5, 0.0064828307, 0.7262955, -0.022159351, 0.0037746977, 0.44091797, 0
682, 601254755, 0.68735033, -4.5054087E-5, 0.0064921165, 0.72629714, -0.0010900866, -0.0130521925, 0.4236288, 0
683, 601271422, 0.68734837, -4.028284E-5, 0.0064896466, 0.7262989, 0.0030101363, -0.001023008, 0.43999195, 0
684, 601288089, 0.6873414, -4.840863E-5, 0.0064984583, 0.7263055, -0.0076969936, -0.014191516, 0.4519806, 0
685, 601304756, 0.68733406, -6.0538117E-5, 0.0065007117, 0.72631234, -0.0069202823, -0.0014494454, 0.43939304, 0
686, 601321423, 0.6873233, -5.9201135E-5, 0.006507043, 0.7263225, 0.0030608145, -0.014872685, 0.45854855, 0
687, 601338090, 0.68732, -5.427855E-5, 0.00651018, 0.72632563, -0.0030633148, -0.0070259585, 0.46690273, 0
688, 601354757, 0.68731314, -5.1686664E-5, 0.0065104794, 0.72633207, -0.0035919335, -0.003713621, 0.43291664, 0
689, 601371424, 0.6873074, -5.639218E-5, 0.0065044374, 0.72633755, 1.15989256E-4, -0.020295609, 0.46943378, 0
690, 601388091, 0.68730265, -5.6695215E-5, 0.006505646, 0.726342, -0.004541336, -0.011699194, 0.4414835, 0
691, 601404758, 0.6873028, -4.7104244E-5, 0.006507274, 0.7263419, 0.012175704, -0.004795248, 0.4432478, 0
692, 601421425, 0.6872952, -4.3330565E-5, 0.0065062265, 0.7263491, -0.009258036, 0.0069857, 0.4566002, 0
693, 601438092, 0.6872892, -4.4356337E-5, 0.0065176142, 0.72635466, -0.00892796, -0.022257881, 0.47116566, 0
694, 601454759, 0.6872819, -4.035146E-5, 0.006518304, 0.7263616, -0.002802657, -0.016955132, 0.44651794, 0
695, 601471426, 0.68727005, -3.535007E-5, 0.0065115234, 0.72637284, -0.017518666, -0.013192219, 0.4311142, 0
696, 601488093, 0.6872593, -3.8046073E-5, 0.00651157, 0.72638303, -0.0080488585, -0.018296251, 0.45009613, 0
697, 601504760, 0.68724954, -3.8695747E-5, 0.006505531, 0.72639227, -0.0070945737, -0.016598897, 0.46247387, 0
698, 601521427, 0.6872433, -3.2102165E-5, 0.0065056994, 0.72639817, -0.0030563266, -0.022128338, 0.42678738, 0
699, 601538094, 0.68722934, -2.964001E-5, 0.006503825, 0.7264115, -7.5072417E-4, -0.01184133, 0.43966866, 0
700, 601554761, 0.6872243, -2.0192327E-5, 0.00649379, 0.7264163, -0.0031538971, -0.016293216, 0.43384266, 0
701, 601571428, 0.6872182, -1.6658343E-5, 0.0064848084, 0.7264222, 0.005575611, -0.010531878, 0.437109, 0
702, 601588095, 0.6872042, -1.7743138E-5, 0.006477329, 0.72643554, -0.0013383222, 0.0029213764, 0.4345808, 0
703, 601604762, 0.68719715, -2.2393137E-5, 0.00648428, 0.72644216, -0.004180831, 0.008380192, 0.43953228, 0
704, 601621429, 0.68719363, -1.8631144E-5, 0.0064879, 0.7264453, 0.016688414, -0.007943993, 0.4263754, 0
705, 601638096, 0.6871809, -2.0921285E-5, 0.0064842296, 0.7264574, 0.0069092675, 0.0012304665, 0.44543839, 0
706, 601654763, 0.68717414, -1.9640382E-5, 0.006482481, 0.72646374, 0.008426631, -0.0031600525, 0.4550619, 0
707, 601671430, 0.68716955, -1.450169E-5, 0.006480567, 0.72646827, 0.0074337265, -0.002500264, 0.44713497, 0
708, 601688097, 0.6871611, -1.3704754E-5, 0.006481014, 0.7264763, -0.01262624, -0.011967194, 0.45555496, 0
709, 601704764, 0.6871548, -1.52300345E-5, 0.006479848, 0.7264821, -0.011397082, 0.0011148411, 0.43879604, 0
710, 601721431, 0.6871551, -2.444942E-5, 0.006480452, 0.72648185, 0.0072654006, 0.0017584369, 0.4391098, 0
711, 601738098, 0.68714994, -2.900353E-5, 0.0064777746, 0.7264868, 0.007391249, 5.355855E-4, 0.45660114, 0
712, 601754765, 0.6871435, -3.3767512E-5, 0.0064831614, 0.7264928, 9.712686E-5, -0.008429138, 0.4368515, 0
713, 601771432, 0.68713945, -3.2825985E-5, 0.0064798407, 0.7264967, -0.0028100014, -0.0033271278, 0.4451704, 0
714, 601788099, 0.68713224, -4.091964E-5, 0.006480464, 0.72650355, 0.013618557, -0.012402813, 0.41823578, 0
715, 601804766, 0.6871257, -4.0383075E-5, 0.0064686076, 0.72650987, -0.012042008, -0.018102277, 0.44358635, 0
716, 601821433, 0.68711376, -4.4200406E-5, 0.0064720022, 0.7265211, 0.0037595334, -0.0023401754, 0.4629755, 0
717, 601838100, 0.68710566, -4.8548358E-5, 0.0064749583, 0.7265287, 0.0012128616, -0.0058973525, 0.44653416, 0
718, 601854767, 0.6871013, -4.8046964E-5, 0.006479778, 0.7265328, 0.0022053814, -0.0039216513, 0.44440365, 0
719, 601871434, 0.6871127, -7.700416E-5, 0.0064620147, 0.72652215, 0.0077725407, -0.0075984476, 0.43545628, 0
720, 601888101, 0.6871111, -8.744778E-5, 0.0064574974, 0.7265237, 0.0063906475, 0.0039844336, 0.45397282, 0
721, 601904768, 0.6871073, -9.2729395E-5, 0.0064623225, 0.72652715, -0.0024868017, -0.017019378, 0.4495325, 0
722, 601921435, 0.68710536, -9.851396E-5, 0.006459652, 0.72652906, 0.00505806, -0.008137072, 0.45000553, 0
723, 601938102, 0.6871005, -9.0798305E-5, 0.006456301, 0.7265337, -0.01361234, -0.018191095, 0.43491364, 0
724, 601954769, 0.6870885, -9.520208E-5, 0.006450988, 0.72654516, -0.009771522, -0.011662275, 0.43187714, 0
725, 601971436, 0.6870775, -9.331588E-5, 0.0064498046, 0.72655547, 0.00320761, -0.009112919, 0.45017815, 0
726, 601988103, 0.6870753, -8.982944E-5, 0.0064462335, 0.7265577, -0.011301262, -0.017269196, 0.42859077, 0
727, 602004770, 0.68706876, -9.1672795E-5, 0.006454892, 0.72656375, -0.0036564448, -0.012414555, 0.42242146, 0
728, 602021437, 0.6870621, -8.370865E-5, 0.006458681, 0.72657, -0.0045748386, -0.009007737, 0.44585037, 0
729, 602038104, 0.687059, -9.015286E-5, 0.0064561157, 0.726573, -0.0015315072, -0.007515254, 0.45877934, 0
730, 602054771, 0.6870481, -8.4331325E-5, 0.0064448286, 0.72658336, -0.0021788322, -0.0050912225, 0.44259548, 0
731, 602071438, 0.6870452, -8.336026E-5, 0.006446346, 0.7265861, -0.0044338545, -0.00288724, 0.4401226, 0
732, 602088105, 0.68703634, -9.292116E-5, 0.006458457, 0.7265944, -0.004740846, -0.01698064, 0.4466524, 0
733, 602104772, 0.68703216, -9.9144214E-5, 0.0064602313, 0.72659826, -0.009997141, -0.0067691742, 0.44736195, 0
734, 602121439, 0.6870262, -9.189409E-5, 0.006461216, 0.726604, 0.008261486, -0.0119492505, 0.44710636, 0
735, 602138106, 0.687019, -9.063421E-5, 0.006470125, 0.72661066, 0.005740668, 0.0052199136, 0.45745087, 0
736, 602154773, 0.6870095, -9.2115704E-5, 0.0064726495, 0.7266196, -0.0068280064, 0.0010209249, 0.45707035, 0
737, 602171440, 0.68699545, -8.817183E-5, 0.0064642276, 0.726633, -0.009216288, -0.00955636, 0.4558525, 0
738, 602188107, 0.6869948, -9.10589E-5, 0.006462807, 0.7266336, -0.006829805, -0.009607191, 0.4390192, 0
739, 602204774, 0.6869865, -9.4369105E-5, 0.006460819, 0.7266415, 6.0083077E-4, -0.0029273774, 0.45958424, 0
740, 602221441, 0.6869737, -9.532287E-5, 0.0064656944, 0.7266536, -0.010741125, -0.0060298457, 0.44301414, 0
741, 602238108, 0.68696856, -9.58119E-5, 0.0064610555, 0.7266584, 0.008618904, 9.0967957E-4, 0.42547226, 0
742, 602254775, 0.6869586, -9.496739E-5, 0.006466527, 0.7266678, -0.009238395, 0.003392997, 0.43422318, 0
743, 602271442, 0.68696004, -1.0106502E-4, 0.006454921, 0.7266665, 0.0010154857, -0.014818954, 0.4401884, 0
744, 602288109, 0.6869588, -1.05660394E-4, 0.006451278, 0.7266677, -0.0056183334, 0.0011636032, 0.4367962, 0
745, 602304776, 0.6869588, -1.0610093E-4, 0.0064501003, 0.7266677, -0.008983863, -0.013242772, 0.4273262, 0
746, 602321443, 0.6869562, -1.1478898E-4, 0.006454011, 0.7266701, -0.008849825, -0.016516624, 0.44193363, 0
747, 602338110, 0.6869507, -1.2061516E-4, 0.006456, 0.72667533, 0.012406911, 0.005841709, 0.43650913, 0
748, 602354777, 0.6869455, -1.2291556E-4, 0.006453771, 0.7266803, 2.893899E-4, -0.0063042855, 0.44036865, 0
749, 602371444, 0.68694526, -1.3319393E-4, 0.0064598494, 0.72668046, 0.0019683319, -0.004553303, 0.45483112, 0
750, 602388111, 0.6869364, -1.2826233E-4, 0.006463701, 0.72668874, -6.5366016E-4, -0.0035427725, 0.4401226, 0
751, 602404778, 0.68693185, -1.3015268E-4, 0.00646866, 0.72669315, -0.0042451187, -0.0027933496, 0.46469593, 0
752, 602421445, 0.686933, -1.229502E-4, 0.0064689047, 0.72669196, -0.010557757, -0.002715027, 0.4509039, 0
753, 602438112, 0.68692523, -1.2014722E-4, 0.0064643617, 0.7266994, -0.0030524465, -0.008178913, 0.4424429, 0
754, 602454779, 0.686927, -1.19329474E-4, 0.0064703855, 0.7266977, 0.005500476, 0.0010219694, 0.4400444, 0
755, 602471446, 0.68692106, -1.13800364E-4, 0.006471518, 0.7267033, -0.0043894066, -0.0055987732, 0.43569374, 0
756, 602488113, 0.6869143, -1.0989423E-4, 0.0064645233, 0.7267097, -0.0048393104, -0.007664653, 0.43769932, 0
757, 602504780, 0.68690705, -1.1360559E-4, 0.0064594853, 0.72671664, -0.00645438, 0.005415166, 0.440135, 0
758, 602521447, 0.68690246, -1.238639E-4, 0.0064700223, 0.72672087, 0.0013631147, -0.0029694112, 0.44086075, 0
759, 602538114, 0.6868945, -1.2047158E-4, 0.0064784177, 0.7267283, -0.011424715, -0.013568712, 0.4437809, 0
760, 602554781, 0.68688756, -1.2423238E-4, 0.0064817774, 0.7267348, -0.010428074, -0.015239079, 0.46476746, 0
761, 602571448, 0.6868831, -1.1758356E-4, 0.0064883465, 0.72673905, -0.007721007, 0.002334525, 0.44731236, 0
762, 602588115, 0.6868739, -1.1963436E-4, 0.006487113, 0.7267476, 0.0037276617, -0.010911688, 0.43333435, 0
763, 602604782, 0.6868624, -1.2766931E-4, 0.006489002, 0.7267585, 0.0016595243, -0.0082740905, 0.45997906, 0
764, 602621449, 0.6868515, -1.2367965E-4, 0.0064869937, 0.7267688, -0.0065764356, -0.0043225, 0.45392323, 0
765, 602638116, 0.6868498, -1.266915E-4, 0.0064844196, 0.7267704, 2.650724E-4, -0.0074860496, 0.4432106, 0
766, 602654783, 0.6868461, -1.3270383E-4, 0.006485011, 0.726774, 5.084466E-4, -0.021013718, 0.440197, 0
767, 602671450, 0.68684036, -1.2318746E-4, 0.006476424, 0.7267794, 0.0021766599, 0.002504267, 0.43660927, 0
768, 602688117, 0.6868289, -1.2332879E-4, 0.006478126, 0.72679037, 0.005408654, -2.4285195E-4, 0.44437313, 0
769, 602704784, 0.6868268, -1.3326282E-4, 0.0064957845, 0.7267921, -5.370877E-4, 0.021052206, 0.45573902, 0
770, 602721451, 0.6868208, -1.4319712E-4, 0.006492913, 0.72679776, 0.0028628379, -0.0072476156, 0.45216846, 0
771, 602738118, 0.68681216, -1.3841526E-4, 0.006496705, 0.72680587, -0.012336463, -0.015356845, 0.4485588, 0
772, 602754785, 0.68680745, -1.4693863E-4, 0.006498753, 0.72681034, -0.025048653, -0.0054945527, 0.45706367, 0
773, 602771452, 0.68680346, -1.4753937E-4, 0.0064908606, 0.7268142, -0.012221252, -0.0073231976, 0.4480915, 0
774, 602788119, 0.6867963, -1.4818241E-4, 0.006491174, 0.726821, 0.016040236, 0.009037314, 0.47884178, 0
775, 602804786, 0.68679714, -1.4769826E-4, 0.0064921854, 0.7268202, 0.002712801, 0.0012748513, 0.44965076, 0
776, 602821453, 0.686797, -1.649615E-4, 0.006497271, 0.72682023, 0.006138406, -0.006507921, 0.45867348, 0
777, 602838120, 0.6867902, -1.731763E-4, 0.0064972555, 0.72682667, -0.0030653055, -9.791948E-4, 0.45630264, 0
778, 602854787, 0.68677294, -1.7155545E-4, 0.0064921826, 0.7268431, -0.0088901995, -0.015106843, 0.45343685, 0
779, 602871454, 0.6867583, -1.6420278E-4, 0.0064829425, 0.72685695, -0.011701528, -0.0083126705, 0.44475555, 0
780, 602888121, 0.6867523, -1.7228481E-4, 0.0064826473, 0.72686255, 0.0017347225, 0.0024280853, 0.46034718, 0
781, 602904788, 0.68674695, -1.7643817E-4, 0.0064724283, 0.7268678, -0.005139059, -0.0069624106, 0.44912052, 0
782, 602921455, 0.68673885, -1.745016E-4, 0.006467797, 0.7268755, 2.7853905E-4, -0.009867428, 0.4421358, 0
783, 602938122, 0.68672895, -1.7610876E-4, 0.006470928, 0.72688484, 5.709708E-4, -0.0135593815, 0.46457195, 0
784, 602954789, 0.686724, -1.76404E-4, 0.006475583, 0.72688955, 0.007815892, -0.009528851, 0.45373535, 0
785, 602971456, 0.68672484, -1.7738796E-4, 0.0064684604, 0.7268887, 0.008582856, -0.009524141, 0.43876553, 0
786, 602988123, 0.6867223, -1.8499691E-4, 0.006478687, 0.7268911, -0.015671458, -0.0066365697, 0.44644356, 0
787, 603004790, 0.6867176, -1.7935722E-4, 0.006485217, 0.72689545, -0.0070624994, -0.013255734, 0.45518208, 0
788, 603021457, 0.6867169, -1.8923834E-4, 0.006480399, 0.72689617, -0.0043898956, -0.01222613, 0.44341278, 0
789, 603038124, 0.6867128, -1.9899943E-4, 0.006479342, 0.72690004, -0.00400296, -0.005035619, 0.442276, 0
790, 603054791, 0.68670565, -1.9712243E-4, 0.006483695, 0.72690666, -0.010425423, 0.0043796743, 0.42752552, 0
791, 603071458, 0.68670017, -1.973981E-4, 0.006479299, 0.72691184, -0.0041866247, -0.009467998, 0.44505978, 0
792, 603088125, 0.6866942, -1.97674E-4, 0.006483075, 0.72691756, -0.011450715, -0.011833153, 0.4469223, 0
793, 603104792, 0.6866933, -1.9726646E-4, 0.006484845, 0.7269184, -0.008550974, -0.0043980326, 0.44248962, 0
794, 603121459, 0.6866896, -1.9713858E-4, 0.006482966, 0.72692186, -2.843853E-4, -0.021324473, 0.4631071, 0
795, 603138126, 0.6866889, -1.9160015E-4, 0.0064818687, 0.72692263, -0.008104108, -0.022004133, 0.4226265, 0
796, 603154793, 0.6866845, -1.8513002E-4, 0.006477501, 0.72692674, -0.007958595, -0.016080523, 0.44622135, 0
797, 603171460, 0.6866771, -1.7490391E-4, 0.006473236, 0.72693384, -0.009137818, -0.0097130295, 0.42034435, 0
798, 603188127, 0.6866657, -1.7040683E-4, 0.006481784, 0.7269445, 0.0029552116, -0.009712499, 0.4258423, 0
799, 603204794, 0.68665874, -1.6614911E-4, 0.006487587, 0.726951, -0.0133381495, -0.01409522, 0.45114994, 0
800, 603221461, 0.6866563, -1.6441694E-4, 0.006488919, 0.72695327, 0.0036301718, -0.017072022, 0.41823196, 0
801, 603238128, 0.68665344, -1.6882567E-4, 0.006492044, 0.7269559, -0.0063101584, -0.009920773, 0.4471264, 0
802, 603254795, 0.6866502, -1.7640679E-4, 0.006486074, 0.72695905, 0.011486603, -0.008413878, 0.45619678, 0
803, 603271462, 0.6866404, -1.7419082E-4, 0.006489619, 0.72696835, -0.008330146, -0.031121245, 0.43629742, 0
804, 603288129, 0.6866367, -1.773594E-4, 0.006491409, 0.72697186, 0.005068083, -0.011525342, 0.4473343, 0
805, 603304796, 0.6866343, -1.7464985E-4, 0.0064938217, 0.726974, 7.2183507E-4, -0.009457067, 0.43394756, 0
806, 603321463, 0.68663365, -1.7618564E-4, 0.0065028006, 0.7269745, -0.0038747822, -0.01089441, 0.4530325, 0
807, 603338130, 0.68662566, -1.7499854E-4, 0.0065032784, 0.72698206, -2.7610836E-4, -0.007424491, 0.45319557, 0
808, 603354797, 0.6866106, -1.7812898E-4, 0.006504081, 0.72699636, -0.0023369817, -0.00947881, 0.4508114, 0
809, 603371464, 0.6866098, -1.8514115E-4, 0.0064899386, 0.72699726, -0.0033788837, 0.0012377016, 0.4490795, 0
810, 603388131, 0.68660116, -1.8072646E-4, 0.006491887, 0.7270053, 0.008128041, -0.0029402326, 0.43631935, 0
811, 603404798, 0.686595, -1.8222207E-4, 0.0064918287, 0.72701114, 0.010239369, -0.01076596, 0.4385271, 0
812, 603421465, 0.6865863, -1.8200352E-4, 0.0064940937, 0.7270194, -0.0026669041, -0.01187131, 0.45535374, 0
813, 603438132, 0.6865821, -1.9553718E-4, 0.0065000462, 0.72702336, -0.005943782, -0.0052640503, 0.44725132, 0
814, 603454799, 0.68658066, -2.0423997E-4, 0.006496766, 0.7270247, 0.0018155364, -0.0064368164, 0.44903564, 0
815, 603471466, 0.68657374, -2.0200333E-4, 0.006489572, 0.7270312, 0.008211244, -0.012002966, 0.45075035, 0
816, 603488133, 0.6865664, -1.9508987E-4, 0.006500448, 0.72703815, 0.0012703708, -0.009426412, 0.44311905, 0
817, 603504800, 0.68655795, -2.0150135E-4, 0.006501382, 0.727046, -0.004436889, -0.010587941, 0.44753933, 0
818, 603521467, 0.6865498, -1.9121534E-4, 0.0064990735, 0.72705376, 0.006118402, -0.004546907, 0.45035362, 0
819, 603538134, 0.6865438, -1.9109409E-4, 0.0065092505, 0.7270593, 0.0018183058, -0.0073470776, 0.4396534, 0
820, 603554801, 0.6865381, -1.9265305E-4, 0.006503198, 0.7270647, -0.0039394544, 0.0041275406, 0.44129276, 0
821, 603571468, 0.686529, -1.8848169E-4, 0.006509143, 0.72707325, -0.0025998468, -0.00950711, 0.42371464, 0
822, 603588135, 0.6865229, -1.9720937E-4, 0.0065181716, 0.72707903, 0.0042943894, -0.0060442793, 0.43129063, 0
823, 603604802, 0.68651664, -2.0217166E-4, 0.0065074647, 0.727085, -0.013815709, -0.017248066, 0.4233179, 0
824, 603621469, 0.6865091, -2.1283966E-4, 0.006509055, 0.72709215, 0.012037322, -0.011516416, 0.44493675, 0
825, 603638136, 0.68650544, -2.1566276E-4, 0.006507868, 0.7270955, 0.0033356585, 0.0024085562, 0.44154167, 0
826, 603654803, 0.68650746, -2.2660077E-4, 0.0065161893, 0.7270935, 0.007716481, -0.01631102, 0.46247768, 0
827, 603671470, 0.68650585, -2.341964E-4, 0.0065199705, 0.727095, 0.0020937435, -0.0017996918, 0.4322405, 0
828, 603688137, 0.68649673, -2.291567E-4, 0.006519918, 0.7271037, 0.0150815295, -0.014017838, 0.44773388, 0
829, 603704804, 0.6864888, -2.2234116E-4, 0.006520877, 0.72711116, 0.0026418183, -0.019433193, 0.45027637, 0
830, 603721471, 0.68648016, -2.1568782E-4, 0.0065163113, 0.7271194, -0.0040573995, -0.012595949, 0.43837833, 0
831, 603738138, 0.6864768, -2.1106793E-4, 0.006519803, 0.7271225, -0.004539419, -0.002433823, 0.42355347, 0
832, 603754805, 0.68646806, -2.1498837E-4, 0.006518887, 0.7271308, 0.00202999, -0.0015760266, 0.46006584, 0
833, 603771472, 0.68646866, -2.1632576E-4, 0.006520375, 0.72713023, 0.0040185465, -0.019329159, 0.4526434, 0
834, 603788139, 0.6864647, -2.1660395E-4, 0.0065169665, 0.7271339, -0.0056838505, 0.0063379905, 0.44247723, 0
835, 603804806, 0.68646204, -2.0848059E-4, 0.006507903, 0.72713655, -6.258677E-4, -0.0151854735, 0.46436405, 0
836, 603821473, 0.6864579, -2.1375765E-4, 0.0064940387, 0.7271406, -0.0038883537, -0.00946961, 0.4549799, 0
837, 603838140, 0.6864527, -2.1519861E-4, 0.0064937524, 0.7271455, -0.013696989, -0.0021095083, 0.43417645, 0
838, 603854807, 0.68644375, -2.0969636E-4, 0.006493043, 0.72715396, -0.018056005, -0.012089983, 0.4428711, 0
839, 603871474, 0.6864189, -1.2329327E-4, 0.006463363, 0.72717774, 0.004662086, -0.014313372, 0.45406055, 0
840, 603888141, 0.6864087, -1.3204725E-4, 0.006466241, 0.7271873, 0.006400793, -0.02064754, 0.4342966, 0
841, 603904808, 0.6864048, -1.3192426E-4, 0.0064601945, 0.7271909, 0.0030752413, -0.015937459, 0.46939564, 0
842, 603921475, 0.68639976, -1.279439E-4, 0.006463724, 0.7271957, 0.003811762, -0.0066699795, 0.44712448, 0
843, 603938142, 0.68638754, -1.2585869E-4, 0.0064674667, 0.72720724, 0.007698076, -0.0037612438, 0.44481373, 0
844, 603954809, 0.6863861, -1.2397526E-4, 0.006464008, 0.7272086, -0.0060413037, -0.0076910867, 0.45876694, 0
845, 603971476, 0.6863847, -1.2745275E-4, 0.0064593838, 0.72721004, 3.4283396E-4, -0.014024002, 0.44635773, 0
846, 603988143, 0.68638515, -1.2823586E-4, 0.0064560557, 0.7272096, 0.0012595549, -0.019259498, 0.4468994, 0
847, 604004810, 0.68637687, -1.307167E-4, 0.0064514605, 0.72721744, 0.0034350622, -0.009730981, 0.45348835, 0
848, 604021477, 0.68637246, -1.3146365E-4, 0.0064465394, 0.7272216, 0.0018555487, -0.0141369095, 0.4513731, 0
849, 604038144, 0.6863658, -1.3079068E-4, 0.006442828, 0.72722787, -0.008258349, -0.008257973, 0.45092297, 0
850, 604054811, 0.6863621, -1.2826669E-4, 0.0064348383, 0.7272315, 0.021466546, -0.009595995, 0.42785645, 0
851, 604071478, 0.6863609, -1.2216762E-4, 0.006437339, 0.72723264, 0.006199062, -0.014713397, 0.43313503, 0
852, 604088145, 0.6863558, -1.1249838E-4, 0.0064346795, 0.7272374, -0.008364987, -0.0117703155, 0.43060207, 0
853, 604104812, 0.6863524, -1.1383969E-4, 0.0064429566, 0.7272407, -0.0014072271, -0.008279137, 0.4584217, 0
854, 604121479, 0.6863529, -1.0983288E-4, 0.0064495914, 0.72724015, 0.006285111, -0.021567792, 0.47864532, 0
855, 604138146, 0.686351, -1.09418426E-4, 0.0064555807, 0.72724193, 0.013888966, -0.015356514, 0.4117527, 0
856, 604154813, 0.6863479, -1.0192304E-4, 0.0064515783, 0.7272448, 0.0035057936, 0.008895239, 0.44112587, 0
857, 604171480, 0.6863428, -1.18620424E-4, 0.0064615593, 0.7272495, 0.014280341, -0.016501915, 0.47299576, 0
858, 604188147, 0.6863376, -1.0433144E-4, 0.0064568, 0.7272545, 0.008156508, -0.015745306, 0.4434662, 0
859, 604204814, 0.6863361, -1.03456194E-4, 0.006461628, 0.72725594, 0.002813686, -0.0041746064, 0.4167719, 0
860, 604221481, 0.6863362, -9.898035E-5, 0.0064648557, 0.7272557, -0.013545063, -0.013378033, 0.47050858, 0
861, 604238148, 0.68633014, -1.0186518E-4, 0.006458269, 0.7272615, -0.0065184482, -0.021138335, 0.43914127, 0
862, 604254815, 0.68632805, -9.993665E-5, 0.0064606406, 0.72726345, -0.0074524144, 0.006271688, 0.43148708, 0
863, 604271482, 0.68632656, -9.6565804E-5, 0.0064664865, 0.72726476, 0.0011812904, -0.012955636, 0.44328308, 0
864, 604288149, 0.6863218, -8.8325665E-5, 0.0064680143, 0.72726923, 0.0050855656, -0.014234122, 0.43692398, 0
865, 604304816, 0.68632025, -9.5431984E-5, 0.0064761206, 0.72727066, 0.010731178, -0.017460631, 0.42796516, 0
866, 604321483, 0.6863132, -9.1791895E-5, 0.006476238, 0.7272773, -0.009566047, -0.008443994, 0.43645096, 0
867, 604338150, 0.6863056, -9.8377044E-5, 0.0064772144, 0.72728443, 0.0051398305, -0.020148415, 0.4508934, 0
868, 604354817, 0.686303, -9.656224E-5, 0.0064836, 0.72728676, 0.011371455, -0.009847375, 0.44389343, 0
869, 604371484, 0.6863025, -9.493549E-5, 0.006477883, 0.7272874, -0.0058088745, -0.016176384, 0.43612385, 0
870, 604388151, 0.6862964, -9.531068E-5, 0.0064767753, 0.7272932, 0.0055114594, -0.017550277, 0.42001534, 0
871, 604404818, 0.68629974, -9.723364E-5, 0.0064757997, 0.72729003, -0.004800189, -0.012912764, 0.44483376, 0
872, 604421485, 0.6862914, -9.519416E-5, 0.006477029, 0.7272979, -7.4273703E-4, -0.0042959745, 0.42554283, 0
873, 604438152, 0.6862876, -9.5078816E-5, 0.006487948, 0.7273014, -0.004546079, -0.016569624, 0.43560123, 0
874, 604454819, 0.686279, -8.346241E-5, 0.0064904327, 0.72730947, 0.0045631495, -0.0024400498, 0.42539597, 0
875, 604471486, 0.6862684, -8.2062856E-5, 0.0064830203, 0.72731954, 0.0033945646, -0.014017447, 0.43415833, 0
876, 604488153, 0.6862655, -7.903908E-5, 0.006492775, 0.72732216, 4.8008838E-4, -6.994923E-4, 0.4362421, 0
877, 604504820, 0.6862649, -7.349241E-5, 0.0064915926, 0.7273229, 0.0073367706, -0.013108902, 0.43550396, 0
878, 604521487, 0.68626225, -6.858161E-5, 0.006489113, 0.7273253, 0.0048436024, -0.010177485, 0.44834328, 0
879, 604538154, 0.6862595, -5.8831873E-5, 0.0064859833, 0.727328, 0.00228652, -0.009306128, 0.4285841, 0
880, 604554821, 0.686265, -5.3157342E-5, 0.0064842664, 0.7273228, 0.003074693, -0.019784085, 0.4406376, 0
881, 604571488, 0.6862605, -5.2008036E-5, 0.006480387, 0.72732705, 0.0017511926, -0.0103691, 0.4465294, 0
882, 604588155, 0.68625146, -5.4200664E-5, 0.006488309, 0.7273356, -0.001807923, -0.012238301, 0.46858692, 0
883, 604604822, 0.6862489, -6.482442E-5, 0.0064736875, 0.727338, -0.002882238, 0.0066858637, 0.4446659, 0
884, 604621489, 0.6862417, -6.2621904E-5, 0.006469949, 0.7273448, -0.0034079475, -0.008319939, 0.42526722, 0
885, 604638156, 0.68623865, -5.863442E-5, 0.0064708665, 0.7273478, -0.0111045325, -0.014391335, 0.44733334, 0
886, 604654823, 0.68623656, -5.727661E-5, 0.006470587, 0.72734964, -0.001862324, -0.0023691233, 0.43489552, 0
887, 604671490, 0.6862299, -6.2974774E-5, 0.0064702802, 0.72735596, 0.00730879, -0.010000018, 0.43747234, 0
888, 604688157, 0.68623203, -6.8295514E-5, 0.0064811427, 0.7273539, 0.0013341104, -9.761645E-4, 0.4414053, 0
889, 604704824, 0.6862317, -7.0085036E-5, 0.006480644, 0.72735417, 0.0013143156, 0.0020483346, 0.44959545, 0
890, 604721491, 0.6862254, -7.5754775E-5, 0.006487418, 0.72736007, -0.011680295, -0.010621102, 0.4338627, 0
891, 604738158, 0.686224, -7.764844E-5, 0.0064940527, 0.72736144, -0.005115576, -0.010392649, 0.4572134, 0
892, 604754825, 0.68621916, -8.141828E-5, 0.0064899786, 0.7273659, 0.0048827734, -0.00535799, 0.4432249, 0
893, 604771492, 0.6862097, -9.247714E-5, 0.006490054, 0.72737485, 0.0063167275, -0.012088432, 0.4104805, 0
894, 604788159, 0.6862059, -1.01885984E-4, 0.0064900937, 0.7273784, -0.01019599, -0.009867866, 0.429821, 0
895, 604804826, 0.6861937, -9.941636E-5, 0.006491873, 0.72739, 0.008711568, -0.006452378, 0.44291687, 0
896, 604821493, 0.68619144, -1.0419443E-4, 0.006481624, 0.72739214, 0.0056434474, -0.001967055, 0.4333315, 0
897, 604838160, 0.68618566, -9.7623335E-5, 0.0064813416, 0.7273977, -0.0029954892, -0.005281383, 0.44251537, 0
898, 604854827, 0.68618333, -1.0421715E-4, 0.0064750435, 0.7273998, 0.003906245, -0.006636089, 0.44848728, 0
899, 604871494, 0.68617964, -9.999694E-5, 0.006483159, 0.7274033, 0.0074944454, -0.01584212, 0.4361782, 0
900, 604888161, 0.6861743, -9.969684E-5, 0.006480904, 0.7274083, -0.00837105, -0.010756378, 0.423234, 0
901, 604904828, 0.68617535, -1.0007655E-4, 0.0064807553, 0.7274073, 0.0021525414, -2.365328E-4, 0.43439102, 0
902, 604921495, 0.6861801, -9.775344E-5, 0.0064896666, 0.72740275, 0.0018864772, -0.014062367, 0.4446373, 0
903, 604938162, 0.68617594, -9.1776215E-5, 0.0064899223, 0.72740674, -0.0015793914, -0.009745956, 0.45683575, 0
904, 604954829, 0.68616164, -9.7957185E-5, 0.006494899, 0.72742015, 0.009516954, -0.018412516, 0.4485817, 0
905, 604971496, 0.6861578, -8.821098E-5, 0.0065041427, 0.7274237, -0.009304251, -0.014207078, 0.42923832, 0
906, 604988163, 0.68615276, -8.737661E-5, 0.00649432, 0.7274287, -0.010533321, -0.012082252, 0.45624447, 0
907, 605004830, 0.6861551, -9.6196425E-5, 0.006498768, 0.7274263, -0.008957327, -0.0125338845, 0.4463148, 0
908, 605021497, 0.6861502, -8.917668E-5, 0.006500225, 0.7274308, 0.005262155, -0.0017868791, 0.43966293, 0
909, 605038164, 0.68615097, -8.943839E-5, 0.006496698, 0.72743016, 0.006006254, 0.0047630686, 0.46177578, 0
910, 605054831, 0.6861458, -8.8616835E-5, 0.0064912895, 0.7274352, 0.00820982, -0.013407673, 0.44740486, 0
911, 605071498, 0.6861365, -9.875626E-5, 0.0064952346, 0.72744393, 2.2844072E-4, -0.0041820724, 0.42546272, 0
912, 605088165, 0.6861326, -9.604867E-5, 0.0064936415, 0.72744757, -0.012273358, -0.017203858, 0.4345646, 0
913, 605104832, 0.6861337, -9.1113296E-5, 0.0065005547, 0.72744656, 0.01692742, -0.018359961, 0.45061302, 0
914, 605121499, 0.6861293, -8.732939E-5, 0.0065048817, 0.72745055, 0.0114767235, -0.0016357158, 0.44581413, 0
915, 605138166, 0.6861228, -8.344181E-5, 0.006502594, 0.72745675, 0.0083991345, 0.0010988871, 0.44210148, 0
916, 605154833, 0.6861206, -7.765869E-5, 0.006503353, 0.72745883, 0.0027937163, 0.0066808434, 0.4449892, 0
917, 605171500, 0.686118, -8.142404E-5, 0.0065132556, 0.7274611, 0.013906564, 2.122739E-4, 0.430974, 0
918, 605188167, 0.6861107, -7.9094774E-5, 0.00652489, 0.7274679, 0.016082644, -0.019311478, 0.44090176, 0
919, 605204834, 0.68610805, -7.7749166E-5, 0.006528836, 0.72747046, 0.005291205, -5.246405E-4, 0.44992352, 0
920, 605221501, 0.6861023, -7.634671E-5, 0.006530038, 0.72747594, 0.0038777369, -0.009666436, 0.42487526, 0
921, 605238168, 0.68610233, -7.888584E-5, 0.006524719, 0.7274758, 0.01293613, -0.020754326, 0.45212173, 0
922, 605254835, 0.686101, -7.438893E-5, 0.0065187323, 0.7274771, 0.00251626, -0.008570921, 0.45161247, 0
923, 605271502, 0.6860918, -7.277363E-5, 0.006526268, 0.72748566, 0.008857731, -0.0049095172, 0.4376154, 0
924, 605288169, 0.686088, -7.420491E-5, 0.0065249037, 0.7274893, -0.008597622, -0.006637859, 0.45290184, 0
925, 605304836, 0.68608016, -7.353586E-5, 0.0065254327, 0.7274967, 1.4989686E-4, -0.0034621938, 0.444067, 0
926, 605321503, 0.68607545, -6.936435E-5, 0.00652159, 0.72750115, 0.005490931, -0.01285787, 0.43379402, 0
927, 605338170, 0.6860748, -7.395909E-5, 0.0065175663, 0.7275018, 0.00641112, -0.0055393446, 0.4715147, 0
928, 605354837, 0.68607223, -6.9073605E-5, 0.0065131416, 0.7275044, 0.0071766344, 0.0054917247, 0.40408802, 0
929, 605371504, 0.6860638, -7.275559E-5, 0.0065170904, 0.7275121, 3.4302255E-5, -0.009061737, 0.4777794, 0
930, 605388171, 0.6860617, -7.466388E-5, 0.0065211556, 0.72751415, -0.0014504943, -0.026126428, 0.4269743, 0
931, 605404838, 0.68605584, -7.446031E-5, 0.0065228706, 0.72751975, -0.006566454, -0.018204667, 0.45982456, 0
932, 605421505, 0.6860529, -8.1062186E-5, 0.0065299794, 0.7275223, -5.010043E-4, -0.0046268413, 0.41722584, 0
933, 605438172, 0.6860573, -8.318802E-5, 0.0065333946, 0.72751814, 0.012357357, -0.01520976, 0.44890022, 0
934, 605454839, 0.6860497, -7.3453775E-5, 0.0065371166, 0.7275254, 0.005390116, -0.014196548, 0.41773129, 0
935, 605471506, 0.68605, -7.3154464E-5, 0.006532579, 0.7275251, -0.0109748775, -0.017424991, 0.4769926, 0
936, 605488173, 0.6860525, -8.5442814E-5, 0.00655462, 0.72752255, -0.003070373, -0.011609993, 0.46540928, 0
937, 605504840, 0.6860492, -9.0284346E-5, 0.006559985, 0.72752553, -9.3052286E-4, -0.008223968, 0.4229641, 0
938, 605521507, 0.68604505, -8.635841E-5, 0.0065569873, 0.7275295, -0.007332835, -0.012388138, 0.44083786, 0
939, 605538174, 0.6860432, -8.9410154E-5, 0.0065544103, 0.7275313, 0.013522146, -0.012543829, 0.4320097, 0
940, 605554841, 0.68603784, -9.0359594E-5, 0.006553201, 0.7275364, 0.014624146, -0.010946658, 0.42269802, 0
941, 605571508, 0.6860402, -9.330978E-5, 0.006555424, 0.7275341, -0.0029760157, -6.6472316E-4, 0.46420288, 0
942, 605588175, 0.68603486, -8.52575E-5, 0.0065607415, 0.7275391, -0.0032772343, -0.009696787, 0.45974827, 0
943, 605604842, 0.6860306, -9.138713E-5, 0.0065603126, 0.7275431, -0.0031789443, -0.016591832, 0.452981, 0
944, 605621509, 0.68603164, -9.1349866E-5, 0.006568794, 0.727542, -0.0042125313, -0.011578617, 0.42582512, 0
945, 605638176, 0.68603337, -9.197426E-5, 0.0065692086, 0.72754043, 0.0041807224, -0.012951229, 0.42803955, 0
946, 605654843, 0.6860214, -9.854455E-5, 0.006565608, 0.7275518, 0.0015630506, -0.008289302, 0.45972538, 0
947, 605671510, 0.68601465, -1.1111384E-4, 0.006565414, 0.7275581, 0.0049731564, -0.005373858, 0.42375183, 0
948, 605688177, 0.6860107, -1.1425508E-4, 0.006576376, 0.7275617, 0.0020790757, 0.0010443144, 0.46227837, 0
949, 605704844, 0.6859986, -1.0986207E-4, 0.006579601, 0.7275731, -0.0042400933, -0.010814023, 0.45126915, 0
950, 605721511, 0.6859934, -1.038978E-4, 0.0065828827, 0.727578, 0.0031597991, -0.014315102, 0.4283228, 0
951, 605738178, 0.6859823, -8.9518406E-5, 0.006577952, 0.7275885, 3.4994096E-4, -0.010307786, 0.43333817, 0
952, 605754845, 0.68598163, -9.11142E-5, 0.006579298, 0.7275891, -0.0063991793, -0.010016869, 0.44982433, 0
953, 605771512, 0.68597484, -9.1164315E-5, 0.0065716314, 0.7275956, 0.008270346, -0.010859796, 0.4529829, 0
954, 605788179, 0.68596876, -9.3349154E-5, 0.0065821335, 0.72760123, 0.0026786386, -0.0035780077, 0.4415722, 0
955, 605804846, 0.6859663, -9.333449E-5, 0.0065833484, 0.72760355, -0.008358012, -0.0068094237, 0.4539461, 0
956, 605821513, 0.68596244, -9.938219E-5, 0.006591069, 0.7276072, -0.0048121815, -0.011274878, 0.44716454, 0
957, 605838180, 0.6859625, -1.0592179E-4, 0.0065979827, 0.7276071, -0.010428958, 0.009955586, 0.41721535, 0
958, 605854847, 0.68595606, -1.0651354E-4, 0.0065988237, 0.72761315, 0.010996771, -0.014321234, 0.43241882, 0
959, 605871514, 0.6859003, -1.2961357E-4, 0.006532925, 0.7276662, -5.891697E-4, -0.016264446, 0.43517494, 0
960, 605888181, 0.6858989, -1.2460201E-4, 0.006535592, 0.72766757, -0.0055699535, -0.010373329, 0.4611578, 0
961, 605904848, 0.6858972, -1.1995374E-4, 0.006546003, 0.7276691, -9.939692E-4, -0.01164537, 0.43643475, 0
962, 605921515, 0.6858997, -1.130777E-4, 0.006547825, 0.72766656, 2.6545307E-4, -0.009024633, 0.41386795, 0
963, 605938182, 0.6859014, -1.1999031E-4, 0.0065440806, 0.7276651, -0.0028702836, -0.015483109, 0.44886398, 0
964, 605954849, 0.68589187, -1.11872716E-4, 0.006538271, 0.7276742, 0.0017851596, -0.008492313, 0.4250555, 0
965, 605971516, 0.68588644, -1.1020057E-4, 0.006541052, 0.7276793, 0.004846386, -0.010604744, 0.44287586, 0
966, 605988183, 0.68587583, -1.15656556E-4, 0.0065518897, 0.72768915, 0.0028567924, -0.012723135, 0.428442, 0
967, 606004850, 0.68587536, -1.154296E-4, 0.00654607, 0.72768956, 0.017219381, -0.016595086, 0.43179893, 0
968, 606021517, 0.6858652, -1.1606105E-4, 0.0065352544, 0.72769934, 0.0026182379, -0.016565114, 0.43801594, 0
969, 606038184, 0.68586135, -1.1445395E-4, 0.0065339706, 0.727703, 0.008827697, -0.020130938, 0.42670918, 0
970, 606054851, 0.6858539, -1.09195586E-4, 0.0065340856, 0.72771, -0.0081604095, -0.008110545, 0.4323244, 0
971, 606071518, 0.6858542, -1.1485138E-4, 0.0065308814, 0.72770983, -0.004796602, -0.0011140148, 0.43661213, 0
972, 606088185, 0.68584836, -1.131549E-4, 0.0065232655, 0.7277153, -0.007462434, -0.0076241535, 0.41815376, 0
973, 606104852, 0.68584806, -1.0300843E-4, 0.0065121194, 0.7277157, -0.007948571, -0.0046204985, 0.42078018, 0
974, 606121519, 0.6858471, -9.261897E-5, 0.006504484, 0.72771657, 0.0083259, -0.0136169605, 0.4492817, 0
975, 606138186, 0.6858405, -9.577988E-5, 0.0065076454, 0.72772276, 0.005262197, -0.01612245, 0.44443703, 0
976, 606154853, 0.6858344, -9.095197E-5, 0.0065115723, 0.72772855, -0.011175529, -0.015029418, 0.45124054, 0
977, 606171520, 0.6858299, -9.539584E-5, 0.0065113436, 0.72773284, -0.0017220975, -0.01873935, 0.43691254, 0
978, 606188187, 0.6858317, -9.22569E-5, 0.0065030903, 0.72773117, -0.0032164247, -0.0066098305, 0.44797897, 0
979, 606204854, 0.68582773, -9.708414E-5, 0.0064981095, 0.727735, 0.002742029, -0.017454334, 0.4387474, 0
980, 606221521, 0.68581903, -8.721011E-5, 0.006489007, 0.7277432, -0.00677744, -0.010187258, 0.45209408, 0
981, 606238188, 0.68581516, -8.556582E-5, 0.006489116, 0.72774684, -0.014787575, -0.010895159, 0.43258953, 0
982, 606254855, 0.685818, -9.363354E-5, 0.0064854305, 0.7277442, 0.003264302, -0.008891388, 0.4367447, 0
983, 606271522, 0.6858115, -9.787008E-5, 0.006489128, 0.7277503, -0.0050333617, -0.0116276415, 0.4516163, 0
984, 606288189, 0.68579984, -1.00674166E-4, 0.0064921775, 0.72776127, -0.002255623, -0.00917236, 0.44740772, 0
985, 606304856, 0.68579763, -9.8951925E-5, 0.0065020104, 0.7277632, -0.0017666534, 0.004093874, 0.4448061, 0
986, 606321523, 0.6857927, -1.04919694E-4, 0.0065013287, 0.727768, 0.0061217896, -0.0060773753, 0.44030666, 0
987, 606338190, 0.6857907, -1.10205714E-4, 0.0065043047, 0.7277698, 0.0032371555, 0.0022378666, 0.45445824, 0
988, 606354857, 0.685787, -1.08308275E-4, 0.0065005682, 0.7277733, 0.0058002137, -0.011180661, 0.43801403, 0
989, 606371524, 0.685785, -1.04249615E-4, 0.006503249, 0.72777516, 0.003686525, -0.02083211, 0.43835545, 0
990, 606388191, 0.6857816, -1.0819731E-4, 0.006507374, 0.72777826, -8.8021846E-4, -0.017753694, 0.42957115, 0
991, 606404858, 0.68577844, -9.583694E-5, 0.006507669, 0.72778136, -0.009717917, -0.012551079, 0.45135307, 0
992, 606421525, 0.6857772, -1.0378998E-4, 0.006509244, 0.7277825, -0.004991139, -0.019366154, 0.41733646, 0
993, 606438192, 0.68577236, -9.7382355E-5, 0.0065047275, 0.7277871, 0.0011012867, -0.0038287905, 0.46520615, 0
994, 606454859, 0.6857652, -8.6850334E-5, 0.0065079383, 0.7277938, 0.0051531787, 0.015507776, 0.46304512, 0
995, 606471526, 0.68576366, -8.39056E-5, 0.0065002516, 0.72779536, 0.007106647, 0.017178115, 0.435112, 0
996, 606488193, 0.6857622, -8.436169E-5, 0.006497723, 0.7277967, -0.008072334, 0.013270226, 0.45262718, 0
997, 606504860, 0.6857623, -8.455663E-5, 0.0065078516, 0.7277965, -0.0026468858, -0.014798105, 0.42989635, 0
998, 606521527, 0.6857558, -8.113738E-5, 0.006501628, 0.7278027, -0.0036795365, -0.01951564, 0.43180943, 0
999, 606538194, 0.6857519, -8.216962E-5, 0.0064983754, 0.7278063, -0.002902899, -0.0060588853, 0.42627144, 0
1000, 606554861, 0.68574476, -8.049754E-5, 0.006499559, 0.7278131, -0.0018096587, -0.018869245, 0.41277122, 0
1001, 606571528, 0.6857434, -7.988869E-5, 0.006503075, 0.72781444, 3.5007717E-5, -0.010406403, 0.46579456, 0
1002, 606588195, 0.6857397, -8.468996E-5, 0.006499977, 0.727818, -0.0026508882, 0.00956734, 0.460474, 0
1003, 606604862, 0.685738, -7.83083E-5, 0.0065002944, 0.72781944, 0.00181481, -0.0074420525, 0.46218395, 0
1004, 606621529, 0.68573856, -7.515727E-5, 0.006497995, 0.72781897, -0.013564041, -0.016435232, 0.43295956, 0
1005, 606638196, 0.68573236, -6.213869E-5, 0.006498661, 0.72782475, -0.010057957, -0.006901016, 0.43611336, 0
1006, 606654863, 0.6857189, -6.235533E-5, 0.006495466, 0.72783744, -0.007819091, -0.015380042, 0.45048237, 0
1007, 606671530, 0.685717, -7.458782E-5, 0.006497168, 0.72783935, -0.0019796193, -0.010616245, 0.46186066, 0
1008, 606688197, 0.68571717, -8.4902436E-5, 0.0064931787, 0.72783923, -0.0077531547, -0.0025177435, 0.43325806, 0
1009, 606704864, 0.68570954, -8.031743E-5, 0.0064917905, 0.7278463, -0.0038334916, -0.007921584, 0.43645, 0
1010, 606721531, 0.6857138, -8.486699E-5, 0.0064998837, 0.7278423, -0.0010956326, -0.01991708, 0.4356737, 0
1011, 606738198, 0.68571305, -8.508977E-5, 0.0065022274, 0.72784305, -0.0119390385, -0.008091463, 0.43667507, 0
1012, 606754865, 0.68571275, -9.2094844E-5, 0.006505605, 0.7278432, -0.0034557234, -0.012928544, 0.4123335, 0
1013, 606771532, 0.6857088, -9.222937E-5, 0.0065100803, 0.7278469, 3.7930498E-4, -0.0075277253, 0.4684515, 0
1014, 606788199, 0.6857008, -8.831316E-5, 0.006515693, 0.72785443, -0.0064579286, 0.00768988, 0.44611454, 0
1015, 606804866, 0.68569547, -9.310025E-5, 0.006517485, 0.7278594, 0.0062444457, 0.0012021059, 0.4646263, 0
1016, 606821533, 0.68569726, -9.6830016E-5, 0.006515375, 0.7278577, 0.009376666, -0.018951152, 0.45113182, 0
1017, 606838200, 0.68569887, -9.995045E-5, 0.0065130815, 0.7278562, 0.005564624, -0.019777333, 0.4407282, 0
1018, 606854867, 0.68569297, -1.0096597E-4, 0.0065144817, 0.72786176, -0.0011353969, -0.024992835, 0.4415102, 0
1019, 606871534, 0.68569005, -9.551782E-5, 0.006506622, 0.72786456, 0.008748911, -0.02265072, 0.4318161, 0
1020, 606888201, 0.6856905, -8.829751E-5, 0.0065024276, 0.72786415, 0.0041579627, 2.4001363E-4, 0.4284277, 0
1021, 606904868, 0.6856918, -8.983865E-5, 0.0064891535, 0.72786313, 0.0044262446, 5.8988975E-5, 0.4456606, 0
1022, 606921535, 0.68568957, -9.186E-5, 0.0064883493, 0.72786516, -0.0021819754, 0.0032845524, 0.42793655, 0
1023, 606938202, 0.685686, -1.0252372E-4, 0.006497634, 0.7278684, 0.010943725, 0.0016335348, 0.4449396, 0
1024, 606954869, 0.6856804, -1.006279E-4, 0.0064985086, 0.7278738, 0.00505243, -0.024276476, 0.4238186, 0
1025, 606971536, 0.68568355, -9.709318E-5, 0.0064917523, 0.7278709, -0.0052319947, -0.021964733, 0.46586895, 0
1026, 606988203, 0.6856815, -1.0563753E-4, 0.0064930893, 0.7278728, -0.002347658, -0.026448056, 0.4535389, 0
1027, 607004870, 0.68567616, -1.02073274E-4, 0.006493911, 0.72787786, -0.016430046, -0.0113354465, 0.4639387, 0
1028, 607021537, 0.6856663, -9.474303E-5, 0.0064886585, 0.7278871, 0.0052561727, -0.013680948, 0.45060253, 0
1029, 607038204, 0.6856644, -1.05318075E-4, 0.0064863376, 0.7278889, 0.0057962043, -0.0030013304, 0.45272636, 0
1030, 607054871, 0.68566453, -1.1001539E-4, 0.006484467, 0.7278889, 0.01417003, -0.0025183228, 0.4298296, 0
1031, 607071538, 0.6856655, -1.004523E-4, 0.0064707114, 0.7278881, -0.0045923637, -0.013710178, 0.43666744, 0
1032, 607088205, 0.6856627, -1.08789136E-4, 0.0064785746, 0.72789055, -0.0046665245, -0.010487775, 0.42542267, 0
1033, 607104872, 0.68565565, -1.0714993E-4, 0.0064773313, 0.7278972, -0.021040916, -0.015450467, 0.4399681, 0
1034, 607121539, 0.685647, -1.0066147E-4, 0.006476522, 0.7279054, -0.007558569, -0.016767621, 0.44595718, 0
1035, 607138206, 0.6856386, -1.0057803E-4, 0.0064776107, 0.7279133, -0.0016392021, -0.002285364, 0.45147896, 0
1036, 607154873, 0.685627, -9.9969904E-5, 0.006476385, 0.7279243, 0.0118616475, -0.0035904762, 0.45283413, 0
1037, 607171540, 0.6856185, -8.8542256E-5, 0.0064800517, 0.7279323, 0.007090645, -0.017794456, 0.44092846, 0
1038, 607188207, 0.6856107, -8.325182E-5, 0.0064789313, 0.7279397, 0.009357942, 0.003100133, 0.4422779, 0
1039, 607204874, 0.68561476, -9.531654E-5, 0.006485021, 0.72793573, 0.0020768056, -0.0047198553, 0.4474907, 0
1040, 607221541, 0.6856119, -1.043385E-4, 0.006484467, 0.7279385, -1.0959818E-4, -0.015229951, 0.44295788, 0
1041, 607238208, 0.6856108, -1.1251531E-4, 0.006472944, 0.72793955, -0.010731007, -0.009659126, 0.48382854, 0
1042, 607254875, 0.6856105, -1.0407785E-4, 0.006474105, 0.72793984, 0.0013812926, -0.01962732, 0.44157982, 0
1043, 607271542, 0.68560684, -1.02345286E-4, 0.006471985, 0.72794324, 0.003816613, -0.0107221715, 0.429492, 0
1044, 607288209, 0.68559843, -8.978332E-5, 0.0064726956, 0.7279512, 0.0055575203, -0.01393778, 0.41679096, 0
1045, 607304876, 0.68559635, -9.034265E-5, 0.0064706723, 0.7279532, 0.0023996176, -0.026383579, 0.43819618, 0
1046, 607321543, 0.6855957, -8.614319E-5, 0.00646492, 0.7279539, 0.008050245, -0.0037863024, 0.43544674, 0
1047, 607338210, 0.68558747, -8.556248E-5, 0.006457974, 0.72796166, -0.00926597, -0.015275052, 0.4500742, 0
1048, 607354877, 0.6855869, -8.268682E-5, 0.006464848, 0.7279621, 0.0013965962, -0.002204721, 0.42440414, 0
1049, 607371544, 0.68558174, -8.234193E-5, 0.006471691, 0.7279669, -0.013607053, 0.0019291783, 0.45955944, 0
1050, 607388211, 0.6855826, -8.414192E-5, 0.0064731683, 0.72796607, -0.0031242815, -0.021571271, 0.43198872, 0
1051, 607404878, 0.68558633, -8.1545826E-5, 0.0064737787, 0.72796255, 0.012746783, -0.012662653, 0.4300375, 0
1052, 607421545, 0.68558055, -8.690547E-5, 0.0064732446, 0.727968, 0.0045569018, -0.016802963, 0.44357204, 0
1053, 607438212, 0.68557096, -8.05244E-5, 0.0064731827, 0.7279771, 0.0130008375, -0.004788937, 0.43781948, 0
1054, 607454879, 0.68556935, -8.174304E-5, 0.006471032, 0.7279786, -0.009536642, -0.013048913, 0.4504633, 0
1055, 607471546, 0.6855667, -7.728389E-5, 0.006472137, 0.7279811, -0.004068746, -0.008469081, 0.4357214, 0
1056, 607488213, 0.6855628, -7.644419E-5, 0.006473624, 0.7279848, -0.010084276, 0.0024352332, 0.44357872, 0
1057, 607504880, 0.68556017, -7.689823E-5, 0.006471525, 0.7279873, -0.00668668, -0.005968338, 0.4477167, 0
1058, 607521547, 0.68555415, -7.204015E-5, 0.0064702416, 0.727993, -0.005091353, -0.010589275, 0.4409294, 0
1059, 607538214, 0.6855523, -6.9191934E-5, 0.006471086, 0.7279947, 0.0043799356, -0.016286032, 0.41368294, 0
1060, 607554881, 0.6855536, -7.241018E-5, 0.0064714435, 0.7279934, 0.0035594788, -0.026946405, 0.4499216, 0
1061, 607571548, 0.6855527, -6.0963936E-5, 0.0064573437, 0.7279944, -0.016208144, -0.0043258197, 0.4649048, 0
1062, 607588215, 0.68554157, -6.4029686E-5, 0.006454019, 0.7280049, -0.0027045067, -0.013831698, 0.45512962, 0
1063, 607604882, 0.6855372, -6.113239E-5, 0.006458111, 0.7280089, -0.014502101, -0.0075035533, 0.47311783, 0
1064, 607621549, 0.68553287, -6.3517815E-5, 0.006456943, 0.728013, -3.0531522E-4, -0.008290396, 0.46637154, 0
1065, 607638216, 0.6855304, -6.0871353E-5, 0.006454792, 0.72801536, 0.011631076, -0.010677038, 0.45125675, 0
1066, 607654883, 0.68551975, -6.3740845E-5, 0.0064551593, 0.72802544, 0.0044718133, -0.0047808466, 0.44865322, 0
1067, 607671550, 0.685524, -7.4529285E-5, 0.006448493, 0.7280215, -0.006354344, -0.0015952421, 0.42073917, 0
1068, 607688217, 0.6855208, -7.806749E-5, 0.006439751, 0.72802454, -0.013005758, -0.007749209, 0.43240452, 0
1069, 607704884, 0.6855143, -8.159311E-5, 0.0064463234, 0.72803074, -0.0074837306, -0.014834016, 0.4333992, 0
1070, 607721551, 0.6855136, -8.457778E-5, 0.0064475285, 0.72803134, -6.8550726E-4, -0.020003414, 0.48036194, 0
1071, 607738218, 0.68550867, -7.643709E-5, 0.00643945, 0.72803605, -0.010092221, -0.01798165, 0.40939522, 0
1072, 607754885, 0.6855045, -7.811943E-5, 0.0064419913, 0.72804, 0.011743168, -0.0127673615, 0.42932034, 0
1073, 607771552, 0.6855054, -7.059679E-5, 0.0064424956, 0.72803915, 0.0056885374, -0.00799394, 0.4370575, 0
1074, 607788219, 0.68550014, -6.862284E-5, 0.0064336397, 0.7280442, -0.0067518097, 1.7074108E-4, 0.46493244, 0
1075, 607804886, 0.6854977, -6.799263E-5, 0.00643693, 0.7280464, -0.0034489061, 0.00980052, 0.45908737, 0
1076, 607821553, 0.6854983, -6.792829E-5, 0.0064375536, 0.7280458, 0.0018436222, -0.0019192591, 0.45246506, 0
1077, 607838220, 0.6854909, -6.935171E-5, 0.0064374246, 0.7280528, 0.003777348, -0.014728795, 0.42727375, 0
1078, 607854887, 0.6854861, -6.533977E-5, 0.006443712, 0.72805727, 0.0011329837, -0.017261751, 0.44465923, 0
1079, 607871554, 0.6854559, -1.6035188E-4, 0.0065417322, 0.72808474, -0.0046690074, -0.019558994, 0.4362688, 0
1080, 607888221, 0.68545884, -1.5572183E-4, 0.006547552, 0.72808194, 0.005667576, -0.008939705, 0.4336548, 0
1081, 607904888, 0.6854564, -1.5889206E-4, 0.0065438957, 0.72808427, 0.006572105, -0.018185487, 0.4323187, 0
1082, 607921555, 0.68545866, -1.6323944E-4, 0.0065337173, 0.7280822, 0.022076737, -5.492195E-4, 0.46186733, 0
1083, 607938222, 0.68545794, -1.6880299E-4, 0.006536277, 0.7280828, -0.0063057058, -0.021203065, 0.44622517, 0
1084, 607954889, 0.68545514, -1.7040675E-4, 0.0065393243, 0.7280856, 0.011062201, -0.022302292, 0.43890476, 0
1085, 607971556, 0.6854475, -1.7481938E-4, 0.006552072, 0.72809255, 0.0019335547, -0.01265304, 0.46745014, 0
1086, 607988223, 0.6854522, -1.8479531E-4, 0.0065537733, 0.72808814, -0.0019206643, -0.012921144, 0.45415592, 0
1087, 608004890, 0.68544805, -1.8251722E-4, 0.0065546352, 0.7280921, 0.0023873977, -0.01904076, 0.44521713, 0
1088, 608021557, 0.6854493, -1.8014912E-4, 0.0065498576, 0.72809094, 0.0027571686, -0.008001359, 0.46612263, 0
1089, 608038224, 0.68543684, -1.7706126E-4, 0.0065570385, 0.72810256, 0.0068020825, -0.0095050745, 0.4462719, 0
1090, 608054891, 0.68542624, -1.6786096E-4, 0.0065618022, 0.7281125, 0.0028582907, -0.0030238514, 0.45383358, 0
1091, 608071558, 0.68542635, -1.7027723E-4, 0.0065658456, 0.7281124, -0.00184489, -0.014851699, 0.45937824, 0
1092, 608088225, 0.6854249, -1.6374713E-4, 0.006563984, 0.7281138, -0.0070122476, -0.013867895, 0.41870975, 0
1093, 608104892, 0.6854217, -1.6708286E-4, 0.0065612555, 0.7281168, 0.0021140939, -0.012098453, 0.4501648, 0
1094, 608121559, 0.6854117, -1.6926782E-4, 0.0065643922, 0.7281262, 0.004935016, 0.0018702286, 0.4544878, 0
1095, 608138226, 0.68540186, -1.6819043E-4, 0.006557286, 0.72813547, -0.0062830993, 7.2601746E-4, 0.4494686, 0
1096, 608154893, 0.6853963, -1.7445079E-4, 0.006547583, 0.7281408, 0.005100789, -0.019036377, 0.45123768, 0
1097, 608171560, 0.68538916, -1.7280431E-4, 0.0065520075, 0.7281475, -0.0050635845, -0.0112060625, 0.43941975, 0
1098, 608188227, 0.68538713, -1.7565385E-4, 0.0065562883, 0.72814935, -0.010783875, -0.020281624, 0.4148569, 0
1099, 608204894, 0.6853889, -1.930273E-4, 0.0065620886, 0.72814757, 6.275266E-4, 0.008100175, 0.4511652, 0
1100, 608221561, 0.6853826, -1.9455883E-4, 0.006562259, 0.7281536, -0.0026888852, 0.0031307158, 0.45104694, 0
1101, 608238228, 0.6853819, -1.8889815E-4, 0.0065590665, 0.72815436, 0.01244378, -0.004468339, 0.4611559, 0
1102, 608254895, 0.6853758, -2.0130302E-4, 0.0065780864, 0.7281598, 0.0034344827, -0.002500151, 0.42793274, 0
1103, 608271562, 0.68537533, -2.0232161E-4, 0.006581595, 0.72816026, 0.0030756535, -0.0201659, 0.4454441, 0
1104, 608288229, 0.68537015, -1.952022E-4, 0.0065620774, 0.72816527, -0.016902134, -0.019180339, 0.41282463, 0
