sep=,
DeviceTag:,Thoracique,,,,,,,,,,,,,,,,,
FirmwareVersion:,1.6.0,,,,,,,,,,,,,,,,,
AppVersion:,2022.0.1,,,,,,,,,,,,,,,,,
StartTime:,2022-06-03 20:38:06.000 +0200,,,,,,,,,,,,,,,,,
© Xsens Technologies B. V. 2005-2022,,,,,,,,,,,,,,,,,,,

PacketCounter,SampleTimeFine,Quat_W,Quat_X,Quat_Y,Quat_Z,Acc_X,Acc_Y,Acc_Z,Gyr_X,Gyr_Y,Gyr_Z,Mag_X,Mag_Y,Mag_Z,Status,
0, 2793801273, -0.19484253, -0.7332818, 0.4508486, -0.4701935, 0.0, 0.0, 0.0, 0.0, 0.0, 0.0, -0.5859375, -0.47509765625, -0.92724609375, 0, 
1, 2793817940, -0.1951747, -0.7330962, 0.45053685, -0.4706438, 8.601476669311523, -1.18949294090271, -5.150838375091553, 0.6975171566009521, 4.292951583862305, -1.2527557611465454, -0.5830078125, -0.4765625, -0.92919921875, 0, 
2, 2793834607, -0.1957725, -0.7325973, 0.4503159, -0.47138306, 8.50040340423584, -1.2062393426895142, -4.912524700164795, -0.45881322026252747, 7.4652910232543945, -0.2963774502277374, -0.58203125, -0.4736328125, -0.92822265625, 0, 
3, 2793851274, -0.19615416, -0.7322842, 0.4502663, -0.47175828, 8.591123580932617, -1.2508046627044678, -4.593622207641602, -0.8034062385559082, 4.131001949310303, 0.20311510562896729, -0.58349609375, -0.47265625, -0.93115234375, 0, 
4, 2793867941, -0.19637126, -0.7322148, 0.45018196, -0.4718561, 8.658549308776855, -1.2569156885147095, -4.772202968597412, -0.3926170766353607, 1.4791141748428345, -0.5671932697296143, -0.58447265625, -0.47705078125, -0.93212890625, 0, 
5, 2793884608, -0.19672015, -0.73208916, 0.4501772, -0.47191024, 8.641334533691406, -1.328442096710205, -4.862807750701904, -1.524314284324646, 1.744116187095642, -0.47886788845062256, -0.5830078125, -0.47412109375, -0.93212890625, 0, 
6, 2793901275, -0.19714484, -0.7317771, 0.4503964, -0.47200796, 8.66110897064209, -1.377389907836914, -4.857437610626221, -2.7500617504119873, 2.4989736080169678, 1.0379996299743652, -0.58349609375, -0.47265625, -0.9296875, 0, 
7, 2793917942, -0.19762136, -0.7312997, 0.45068264, -0.47227508, 8.740278244018555, -1.3785568475723267, -4.827040195465088, -2.9278135299682617, 3.958103656768799, 1.9491842985153198, -0.583984375, -0.47412109375, -0.93212890625, 0, 
8, 2793934609, -0.19820827, -0.7307036, 0.45077893, -0.47285956, 8.796097755432129, -1.3871324062347412, -4.780041694641113, -2.0450849533081055, 6.540095806121826, 1.4356369972229004, -0.580078125, -0.4736328125, -0.931640625, 0, 
9, 2793951276, -0.1989246, -0.7300513, 0.45063645, -0.4737014, 8.769058227539062, -1.3833506107330322, -4.7558512687683105, -1.197393774986267, 8.741301536560059, 0.3390289545059204, -0.583984375, -0.4755859375, -0.93603515625, 0, 
10, 2793967943, -0.19972876, -0.7293756, 0.45043218, -0.47459757, 8.695948600769043, -1.3818036317825317, -4.719371318817139, -1.300702691078186, 9.445959091186523, -0.1099681481719017, -0.58203125, -0.474609375, -0.93994140625, 0, 
11, 2793984610, -0.20059177, -0.7286934, 0.4503168, -0.47539023, 8.600934028625488, -1.370410442352295, -4.764225959777832, -2.2155377864837646, 9.00932788848877, 0.021213725209236145, -0.5849609375, -0.47314453125, -0.93896484375, 0, 
12, 2794001277, -0.20141524, -0.7279832, 0.45038646, -0.47606373, 8.624664306640625, -1.3332678079605103, -4.546804904937744, -3.029611825942993, 8.126355171203613, 1.000720500946045, -0.580078125, -0.474609375, -0.939453125, 0, 
13, 2794017944, -0.20198724, -0.7274667, 0.4505499, -0.47645617, 8.69871997833252, -1.309949517250061, -4.682954788208008, -2.6791398525238037, 5.175436973571777, 1.3029245138168335, -0.58251953125, -0.4736328125, -0.9423828125, 0, 
14, 2794034611, -0.20262483, -0.7269117, 0.450633, -0.4769534, 8.716525077819824, -1.3885124921798706, -4.739189624786377, -2.4739179611206055, 6.141279220581055, 0.951825737953186, -0.5810546875, -0.47216796875, -0.94287109375, 0, 
15, 2794051278, -0.20323403, -0.7264132, 0.4506386, -0.4774481, 8.698453903198242, -1.4201537370681763, -4.570230484008789, -2.007126808166504, 5.964117050170898, 0.47863104939460754, -0.5810546875, -0.47314453125, -0.9423828125, 0, 
16, 2794067945, -0.20370674, -0.7260549, 0.4506117, -0.47781703, 8.710624694824219, -1.3731746673583984, -4.5894575119018555, -1.4121947288513184, 4.497097969055176, 0.15456625819206238, -0.5810546875, -0.4716796875, -0.94580078125, 0, 
17, 2794084612, -0.20415518, -0.7257086, 0.4506376, -0.47812727, 8.70832347869873, -1.3231000900268555, -4.712915420532227, -1.6303380727767944, 4.0164618492126465, 0.378101110458374, -0.58203125, -0.4716796875, -0.947265625, 0, 
18, 2794101279, -0.20462081, -0.7253246, 0.45075324, -0.4784019, 8.701026916503906, -1.2993483543395996, -4.702724933624268, -2.1741981506347656, 3.8898329734802246, 0.8363379836082458, -0.5810546875, -0.4716796875, -0.947265625, 0, 
19, 2794117946, -0.2050763, -0.7249188, 0.4508441, -0.47873616, 8.67518424987793, -1.3230167627334595, -4.7069172859191895, -1.8881171941757202, 4.262063026428223, 0.8970657587051392, -0.58056640625, -0.4716796875, -0.94580078125, 0, 
20, 2794134613, -0.20548475, -0.72450125, 0.4508599, -0.47917816, 8.65378189086914, -1.3339126110076904, -4.6741509437561035, -1.0881171226501465, 4.797893047332764, 0.8663304448127747, -0.58154296875, -0.47314453125, -0.947265625, 0, 
21, 2794151280, -0.205905, -0.7240426, 0.450813, -0.47973466, 8.603469848632812, -1.349948525428772, -4.725699424743652, -0.6452351808547974, 5.628845691680908, 0.8041555881500244, -0.58154296875, -0.47412109375, -0.94677734375, 0, 
22, 2794167947, -0.20628195, -0.7235602, 0.45078072, -0.4803303, 8.585359573364258, -1.3899164199829102, -4.60004186630249, -0.38878801465034485, 5.747419834136963, 1.1487104892730713, -0.57958984375, -0.47119140625, -0.95166015625, 0, 
23, 2794184614, -0.2065019, -0.72321755, 0.45090824, -0.4806319, 8.656015396118164, -1.3653103113174438, -4.406006813049316, -0.8481646180152893, 3.111168384552002, 1.6114423274993896, -0.5810546875, -0.46826171875, -0.951171875, 0, 
24, 2794201281, -0.20657793, -0.7230106, 0.4511124, -0.48071948, 8.814254760742188, -1.2964098453521729, -4.401666164398193, -0.8580126762390137, 1.0424432754516602, 1.7445900440216064, -0.57861328125, -0.46923828125, -0.9521484375, 0, 
25, 2794217948, -0.20660394, -0.7229026, 0.45119733, -0.48079085, 8.893385887145996, -1.3073498010635376, -4.455332279205322, -0.1246442049741745, 0.6493139863014221, 0.9868252873420715, -0.578125, -0.470703125, -0.9501953125, 0, 
26, 2794234615, -0.20665224, -0.7228296, 0.45116526, -0.48091012, 8.898551940917969, -1.310511827468872, -4.5273237228393555, 0.34892818331718445, 1.006367802619934, 0.29109469056129456, -0.57861328125, -0.47021484375, -0.951171875, 0, 
27, 2794251282, -0.206756, -0.7227071, 0.45107117, -0.48113778, 8.799359321594238, -1.2862212657928467, -4.599567413330078, 0.5456593632698059, 1.969456434249878, 0.10699064284563065, -0.5791015625, -0.47265625, -0.951171875, 0, 
28, 2794267949, -0.20683825, -0.7225728, 0.45102704, -0.48134544, 8.697653770446777, -1.215409755706787, -4.626954555511475, 0.4076452851295471, 1.7702409029006958, 0.4340648055076599, -0.580078125, -0.470703125, -0.95361328125, 0, 
29, 2794284616, -0.20684081, -0.72247577, 0.4510662, -0.48145318, 8.654330253601074, -1.2199138402938843, -4.644987106323242, 0.27196204662323, 0.7871742844581604, 0.8543949127197266, -0.5791015625, -0.470703125, -0.953125, 0, 
30, 2794301283, -0.2068342, -0.7223797, 0.4512344, -0.4814426, 8.639362335205078, -1.250159740447998, -4.645280361175537, -0.47506436705589294, -0.016712287440896034, 1.3549566268920898, -0.5771484375, -0.47119140625, -0.9501953125, 0, 
31, 2794317950, -0.20685473, -0.722296, 0.45163053, -0.48118767, 8.672571182250977, -1.3042452335357666, -4.461255073547363, -2.1059720516204834, -1.511450171470642, 2.0108144283294678, -0.58056640625, -0.4697265625, -0.951171875, 0, 
32, 2794334617, -0.2066774, -0.72232413, 0.45194322, -0.48092827, 8.760479927062988, -1.3575514554977417, -4.68508768081665, -0.7016215324401855, -2.398834466934204, 1.8980739116668701, -0.58056640625, -0.47119140625, -0.9521484375, 0, 
33, 2794351284, -0.20656535, -0.7223643, 0.45205587, -0.48080975, 8.674453735351562, -1.4125049114227295, -4.786623954772949, 0.09108515828847885, -1.2511546611785889, 0.8511548042297363, -0.5810546875, -0.470703125, -0.95068359375, 0, 
34, 2794367951, -0.2066279, -0.72225255, 0.45210198, -0.48090756, 8.577221870422363, -1.4141888618469238, -4.738245010375977, -0.10070914030075073, 0.9626597762107849, 0.7236164212226868, -0.5791015625, -0.46923828125, -0.95166015625, 0, 
35, 2794384618, -0.20692873, -0.7219456, 0.45228285, -0.48106927, 8.514765739440918, -1.358481526374817, -4.450448513031006, -1.807654619216919, 2.474730968475342, 1.3020278215408325, -0.57861328125, -0.46875, -0.95263671875, 0, 
36, 2794401285, -0.2067991, -0.7219768, 0.45268065, -0.48070395, 8.698029518127441, -1.3321197032928467, -4.254053115844727, -1.5457907915115356, -2.9055819511413574, 2.0007429122924805, -0.578125, -0.46875, -0.95263671875, 0, 
37, 2794417952, -0.20646787, -0.722174, 0.45281124, -0.48042652, 8.718618392944336, -1.318803310394287, -4.8732147216796875, 0.8470183610916138, -3.26633620262146, 0.9490464925765991, -0.578125, -0.4677734375, -0.95166015625, 0, 
38, 2794434619, -0.20627627, -0.72224784, 0.4528398, -0.4803712, 8.653491020202637, -1.3722678422927856, -4.754748821258545, 1.0067647695541382, -1.1764936447143555, 0.6805741786956787, -0.5810546875, -0.46923828125, -0.95068359375, 0, 
39, 2794451286, -0.20596081, -0.7224859, 0.4529017, -0.48009002, 8.745821952819824, -1.3982303142547607, -4.468080043792725, 1.0427888631820679, -3.274045705795288, 0.42246225476264954, -0.578125, -0.46728515625, -0.94970703125, 0, 
40, 2794467953, -0.20553997, -0.72287786, 0.45288467, -0.4796963, 8.771020889282227, -1.3393129110336304, -4.6322503089904785, 1.6928263902664185, -4.556281566619873, -0.2594950497150421, -0.5810546875, -0.46630859375, -0.94873046875, 0, 
41, 2794484620, -0.20522049, -0.7231989, 0.4529435, -0.4792934, 8.71876049041748, -1.2825899124145508, -4.722296714782715, 0.8102641701698303, -4.160449504852295, -0.008938832208514214, -0.5791015625, -0.4697265625, -0.9482421875, 0, 
42, 2794501287, -0.20494293, -0.7234028, 0.45324582, -0.4788187, 8.687936782836914, -1.2956910133361816, -4.73013162612915, -0.5884518027305603, -4.34338903427124, 1.3271796703338623, -0.57861328125, -0.46826171875, -0.94775390625, 0, 
43, 2794517954, -0.2047062, -0.7234912, 0.45359305, -0.4784573, 8.686861991882324, -1.3413573503494263, -4.725040912628174, -0.7497862577438354, -3.3355040550231934, 1.9356226921081543, -0.5791015625, -0.4677734375, -0.94580078125, 0, 
44, 2794534621, -0.20453978, -0.7235119, 0.45387498, -0.47822976, 8.743602752685547, -1.3839726448059082, -4.640439033508301, -0.562659740447998, -2.1353049278259277, 1.7788211107254028, -0.5810546875, -0.46826171875, -0.94580078125, 0, 
45, 2794551288, -0.20441188, -0.723525, 0.45403576, -0.47811213, 8.81226921081543, -1.3891681432724, -4.685850620269775, -0.0231026541441679, -1.2730921506881714, 1.228173851966858, -0.57958984375, -0.46728515625, -0.94384765625, 0, 
46, 2794567955, -0.20432791, -0.72346133, 0.4540785, -0.47820362, 8.734678268432617, -1.3763282299041748, -4.644108295440674, 0.6913060545921326, 0.3217787742614746, 1.0296369791030884, -0.5810546875, -0.4677734375, -0.947265625, 0, 
47, 2794584622, -0.20427628, -0.7234304, 0.45419955, -0.4781577, 8.64186954498291, -1.4078513383865356, -4.5417351722717285, -0.1090332567691803, -0.47829151153564453, 1.0174708366394043, -0.58056640625, -0.46533203125, -0.94580078125, 0, 
48, 2794601289, -0.20409605, -0.7234716, 0.45432103, -0.47805664, 8.662753105163574, -1.4211251735687256, -4.482051372528076, 0.4568985104560852, -1.3924472332000732, 1.1393104791641235, -0.5791015625, -0.4658203125, -0.9462890625, 0, 
49, 2794617956, -0.20393613, -0.7235338, 0.45436412, -0.47798994, 8.645973205566406, -1.4360524415969849, -4.642669677734375, 0.7500230073928833, -1.1158684492111206, 0.6659622192382812, -0.57666015625, -0.466796875, -0.9453125, 0, 
50, 2794634623, -0.20389026, -0.7234792, 0.4545139, -0.47794983, 8.703649520874023, -1.471333622932434, -4.582919597625732, -0.24875052273273468, -0.3936031758785248, 1.223576307296753, -0.580078125, -0.46875, -0.9462890625, 0, 
51, 2794651290, -0.20391168, -0.7233095, 0.45481917, -0.47790682, 8.892532348632812, -1.430023431777954, -4.546856880187988, -1.2648447751998901, -0.037266477942466736, 2.131751537322998, -0.57763671875, -0.466796875, -0.9453125, 0, 
52, 2794667957, -0.20398375, -0.7230038, 0.45527875, -0.47790122, 9.031675338745117, -1.3524067401885986, -4.466780185699463, -2.097564935684204, 0.5372840762138367, 3.210314989089966, -0.58251953125, -0.4658203125, -0.94580078125, 0, 
53, 2794684624, -0.20414877, -0.72257143, 0.45593333, -0.47786072, 9.035253524780273, -1.3487968444824219, -4.562300205230713, -3.4869649410247803, 0.7961772084236145, 4.221709728240967, -0.57958984375, -0.46630859375, -0.9453125, 0, 
54, 2794701291, -0.20453891, -0.7219634, 0.4567117, -0.47786948, 9.000676155090332, -1.3941725492477417, -4.655575752258301, -5.103804111480713, 2.1499109268188477, 4.716559410095215, -0.57861328125, -0.4638671875, -0.94580078125, 0, 
55, 2794717958, -0.20527215, -0.7211862, 0.4574256, -0.4780459, 8.909150123596191, -1.4398188591003418, -4.613020896911621, -6.307384967803955, 4.705572605133057, 4.036466121673584, -0.57861328125, -0.462890625, -0.94482421875, 0, 
56, 2794734625, -0.20629689, -0.7203708, 0.45805287, -0.47823375, 8.846102714538574, -1.3904918432235718, -4.524806976318359, -7.485044956207275, 5.9272990226745605, 2.785759687423706, -0.57861328125, -0.462890625, -0.94677734375, 0, 
57, 2794751292, -0.20756719, -0.71949273, 0.4586415, -0.47844145, 8.812164306640625, -1.2945905923843384, -4.37353515625, -8.600377082824707, 7.058741092681885, 2.0116288661956787, -0.57763671875, -0.46240234375, -0.947265625, 0, 
58, 2794767959, -0.20887809, -0.7186081, 0.4593163, -0.4785532, 8.874174118041992, -1.2253341674804688, -4.215166091918945, -9.396726608276367, 6.612208843231201, 2.188958168029785, -0.5791015625, -0.4609375, -0.94921875, 0, 
59, 2794784626, -0.21017417, -0.7176275, 0.46011263, -0.47869226, 8.87639045715332, -1.2121316194534302, -4.262567043304443, -9.775283813476562, 6.8400092124938965, 3.1801576614379883, -0.57666015625, -0.46044921875, -0.94921875, 0, 
60, 2794801293, -0.2114915, -0.71644086, 0.46106672, -0.47897124, 8.729704856872559, -1.282935380935669, -4.187073707580566, -10.255050659179688, 8.047764778137207, 4.7438530921936035, -0.578125, -0.45849609375, -0.9521484375, 0, 
61, 2794817960, -0.21283555, -0.7150155, 0.46218616, -0.47942692, 8.403033256530762, -1.4963971376419067, -3.991100311279297, -10.717606544494629, 9.547481536865234, 6.482804775238037, -0.576171875, -0.45556640625, -0.953125, 0, 
62, 2794834627, -0.21404183, -0.7135533, 0.46345383, -0.47984415, 8.201590538024902, -1.7568674087524414, -3.6590993404388428, -10.704412460327148, 8.824573516845703, 7.7266082763671875, -0.57470703125, -0.45556640625, -0.955078125, 0, 
63, 2794851294, -0.21455222, -0.7127937, 0.46492565, -0.47932082, 8.781886100769043, -2.016977071762085, -3.90619158744812, -9.92916488647461, -0.6267430782318115, 7.400505065917969, -0.57275390625, -0.4521484375, -0.9521484375, 0, 
64, 2794867961, -0.21498373, -0.7123703, 0.46608728, -0.47862896, 9.353460311889648, -1.9068690538406372, -5.422791004180908, -8.562776565551758, -2.3553059101104736, 4.8166680335998535, -0.57421875, -0.451171875, -0.953125, 0, 
65, 2794884628, -0.21632698, -0.7111293, 0.4667086, -0.47926304, 9.1194429397583, -1.596353530883789, -4.7952117919921875, -8.21014404296875, 10.550639152526855, 3.748939275741577, -0.57373046875, -0.45068359375, -0.9541015625, 0, 
66, 2794901295, -0.21726409, -0.7104159, 0.46776816, -0.47886384, 9.155731201171875, -1.3432562351226807, -4.210786819458008, -10.20018482208252, 1.8046269416809082, 4.000058650970459, -0.57177734375, -0.44921875, -0.955078125, 0, 
67, 2794917962, -0.21812795, -0.70970744, 0.46912584, -0.4781932, 9.331049919128418, -1.2713156938552856, -5.045910358428955, -11.688720703125, -0.21842524409294128, 5.276302814483643, -0.572265625, -0.44677734375, -0.95263671875, 0, 
68, 2794934629, -0.21928418, -0.7086484, 0.47007388, -0.47830397, 9.100553512573242, -1.1729798316955566, -5.371687412261963, -9.774080276489258, 6.305087566375732, 4.618823528289795, -0.57275390625, -0.4462890625, -0.95458984375, 0, 
69, 2794951296, -0.2207245, -0.7074816, 0.47048527, -0.4789638, 8.792670249938965, -1.1886531114578247, -5.1252241134643555, -7.781527996063232, 11.062676429748535, 2.2472147941589355, -0.57177734375, -0.4462890625, -0.95556640625, 0, 
70, 2794967963, -0.22217597, -0.70654655, 0.47066215, -0.47949892, 8.66779613494873, -1.3136482238769531, -4.34183931350708, -7.114713191986084, 10.085883140563965, 0.13027267158031464, -0.57373046875, -0.44189453125, -0.95654296875, 0, 
71, 2794984630, -0.22332534, -0.70600146, 0.4707322, -0.47969887, 8.588044166564941, -1.4783308506011963, -3.8163065910339355, -5.782350540161133, 6.356951713562012, -1.1667227745056152, -0.57275390625, -0.44677734375, -0.96044921875, 0, 
72, 2795001297, -0.22382568, -0.70609075, 0.47064096, -0.47942385, 8.426223754882812, -1.4695364236831665, -4.0489654541015625, -2.6652450561523438, 0.1066448837518692, -2.5908656120300293, -0.57177734375, -0.44482421875, -0.95556640625, 0, 
73, 2795017964, -0.22407189, -0.7063519, 0.47037125, -0.47918895, 8.27962875366211, -1.4014301300048828, -4.425234317779541, -0.44946444034576416, -0.8143044710159302, -3.1147990226745605, -0.572265625, -0.44384765625, -0.95703125, 0, 
74, 2795034631, -0.22384478, -0.70677674, 0.47032562, -0.47871307, 8.237438201904297, -1.3123857975006104, -4.35129976272583, 0.5849364995956421, -4.398456573486328, -1.3685252666473389, -0.5732421875, -0.44677734375, -0.95458984375, 0, 
75, 2795051298, -0.22299501, -0.70749307, 0.47047073, -0.47790813, 8.362399101257324, -1.2145367860794067, -4.526319980621338, 2.367811441421509, -9.264422416687012, 0.15894605219364166, -0.57373046875, -0.44580078125, -0.9541015625, 0, 
76, 2795067965, -0.22192344, -0.70826286, 0.4706683, -0.47707158, 8.521469116210938, -1.2310428619384766, -4.776070594787598, 3.2536656856536865, -10.389808654785156, 0.9215132594108582, -0.5732421875, -0.44677734375, -0.95166015625, 0, 
77, 2795084632, -0.2206674, -0.70896536, 0.47105953, -0.4762236, 8.692475318908691, -1.2765220403671265, -4.824968338012695, 3.377913475036621, -11.117838859558105, 2.6694273948669434, -0.576171875, -0.44580078125, -0.94921875, 0, 
78, 2795101299, -0.21946093, -0.70958316, 0.47130185, -0.47562116, 8.878958702087402, -1.3028656244277954, -4.858393669128418, 4.2891364097595215, -9.255370140075684, 2.4297046661376953, -0.5732421875, -0.44677734375, -0.951171875, 0, 
79, 2795117966, -0.21852213, -0.709885, 0.47121775, -0.47568634, 8.930744171142578, -1.2858068943023682, -4.792851448059082, 5.737802505493164, -3.606307029724121, 1.9918296337127686, -0.5732421875, -0.4453125, -0.9501953125, 0, 
80, 2795134633, -0.21781978, -0.7099399, 0.47083133, -0.47630867, 8.848570823669434, -1.2379446029663086, -4.559629917144775, 7.0070905685424805, 1.1415772438049316, 1.3800956010818481, -0.57373046875, -0.4453125, -0.94873046875, 0, 
81, 2795151300, -0.21703915, -0.70999944, 0.47043166, -0.47697085, 8.776260375976562, -1.2532734870910645, -4.329123020172119, 7.568572998046875, 1.087624192237854, 1.6174356937408447, -0.572265625, -0.4453125, -0.95166015625, 0, 
82, 2795167967, -0.21599284, -0.7103076, 0.47012565, -0.47728866, 8.79655933380127, -1.2991862297058105, -4.253304958343506, 7.815147876739502, -2.4086828231811523, 1.6274760961532593, -0.576171875, -0.44775390625, -0.9501953125, 0, 
83, 2795184634, -0.21484579, -0.71072364, 0.46979225, -0.47751507, 8.779809951782227, -1.3716853857040405, -4.242475986480713, 8.26203727722168, -3.493816614151001, 1.3398327827453613, -0.57373046875, -0.4462890625, -0.94921875, 0, 
84, 2795201301, -0.21343441, -0.7114368, 0.46933687, -0.4775339, 8.69435977935791, -1.356871485710144, -4.290510654449463, 9.721939086914062, -6.157232284545898, 0.34512490034103394, -0.5751953125, -0.44580078125, -0.94921875, 0, 
85, 2795217968, -0.21205975, -0.7122791, 0.4687453, -0.4774718, 8.600643157958984, -1.4399513006210327, -4.580724716186523, 9.917709350585938, -6.659779071807861, -0.9766383171081543, -0.57373046875, -0.447265625, -0.94970703125, 0, 
86, 2795234635, -0.21086806, -0.7131104, 0.46806818, -0.47742307, 8.556395530700684, -1.4660708904266357, -4.561553001403809, 9.330652236938477, -5.842861175537109, -1.9415332078933716, -0.57373046875, -0.44775390625, -0.9501953125, 0, 
87, 2795251302, -0.20961002, -0.7141118, 0.46731147, -0.47722134, 8.594481468200684, -1.4046586751937866, -4.432546615600586, 9.6710844039917, -7.25120210647583, -2.8837480545043945, -0.57373046875, -0.4482421875, -0.94580078125, 0, 
88, 2795267969, -0.20836557, -0.71517754, 0.466528, -0.47693682, 8.601607322692871, -1.3208564519882202, -4.49360990524292, 9.518831253051758, -7.784768104553223, -3.3854756355285645, -0.5751953125, -0.451171875, -0.94873046875, 0, 
89, 2795284636, -0.20717484, -0.71622974, 0.46591073, -0.47647983, 8.57303524017334, -1.2742024660110474, -4.42863655090332, 8.136627197265625, -8.655251502990723, -2.947779893875122, -0.57666015625, -0.45263671875, -0.9453125, 0, 
90, 2795301303, -0.20593348, -0.7173035, 0.4656188, -0.47568762, 8.58830451965332, -1.271069884300232, -4.3810296058654785, 6.278489112854004, -11.000954627990723, -1.7269243001937866, -0.5771484375, -0.45263671875, -0.9453125, 0, 
91, 2795317970, -0.20466882, -0.71830046, 0.46563148, -0.47471577, 8.642956733703613, -1.270978569984436, -4.494112014770508, 4.711708068847656, -12.143447875976562, -0.15634000301361084, -0.57861328125, -0.45166015625, -0.94140625, 0, 
92, 2795334637, -0.20347092, -0.7191933, 0.46573424, -0.4737768, 8.756370544433594, -1.3019098043441772, -4.58278751373291, 4.04888916015625, -11.554022789001465, 0.45030349493026733, -0.57763671875, -0.45166015625, -0.9375, 0, 
93, 2795351304, -0.20235002, -0.7200531, 0.46582872, -0.47285745, 8.828014373779297, -1.3829220533370972, -4.636129856109619, 3.7111854553222656, -11.09151840209961, 0.2914022207260132, -0.578125, -0.451171875, -0.93505859375, 0, 
94, 2795367971, -0.2013797, -0.720829, 0.46588254, -0.47203565, 8.877902030944824, -1.493232011795044, -4.793066501617432, 3.292494535446167, -9.796541213989258, 0.005474716424942017, -0.57568359375, -0.45263671875, -0.935546875, 0, 
95, 2795384638, -0.20058522, -0.7214994, 0.46580392, -0.47142652, 8.929018020629883, -1.5377508401870728, -4.778650760650635, 3.3871583938598633, -7.653831481933594, -0.5888360738754272, -0.57763671875, -0.4521484375, -0.93310546875, 0, 
96, 2795401305, -0.19990812, -0.72211844, 0.46547547, -0.47109112, 8.901396751403809, -1.6243822574615479, -4.734071254730225, 4.420220375061035, -5.409043788909912, -1.6670026779174805, -0.578125, -0.45458984375, -0.93212890625, 0, 
97, 2795417972, -0.19928113, -0.7227607, 0.46487486, -0.4709643, 8.891975402832031, -1.7060940265655518, -4.718764781951904, 5.751992225646973, -3.9154269695281982, -2.9682304859161377, -0.578125, -0.453125, -0.93115234375, 0, 
98, 2795434639, -0.1986306, -0.72348344, 0.46405214, -0.4709407, 8.848092079162598, -1.7106350660324097, -4.688696384429932, 7.027529716491699, -3.433178186416626, -4.111786842346191, -0.57958984375, -0.4541015625, -0.931640625, 0, 
99, 2795451306, -0.19791356, -0.7243145, 0.46307606, -0.4709258, 8.81709098815918, -1.6543123722076416, -4.642792224884033, 8.030088424682617, -3.744372606277466, -4.99329948425293, -0.5791015625, -0.455078125, -0.9296875, 0, 
100, 2795467973, -0.19705832, -0.72526765, 0.46204883, -0.4708269, 8.814865112304688, -1.5219866037368774, -4.645382404327393, 8.784934997558594, -4.92779541015625, -5.303943634033203, -0.580078125, -0.458984375, -0.92919921875, 0, 
101, 2795484640, -0.19621524, -0.72621727, 0.46120727, -0.4705402, 8.813894271850586, -1.4052820205688477, -4.615490913391113, 7.520422458648682, -6.066537380218506, -4.661026954650879, -0.580078125, -0.46044921875, -0.9296875, 0, 
102, 2795501307, -0.19525799, -0.72710705, 0.4605009, -0.47025618, 8.808975219726562, -1.3701070547103882, -4.700544834136963, 7.580023765563965, -6.405571460723877, -3.423112630844116, -0.580078125, -0.4609375, -0.92822265625, 0, 
103, 2795517974, -0.19436789, -0.7278367, 0.45969486, -0.47028488, 8.755056381225586, -1.3273721933364868, -4.944888591766357, 8.344409942626953, -3.976501703262329, -3.212000608444214, -0.57958984375, -0.462890625, -0.9287109375, 0, 
104, 2795534641, -0.19370742, -0.72829986, 0.45889056, -0.47062555, 8.660289764404297, -1.3044935464859009, -4.918022155761719, 7.817875385284424, -0.830889105796814, -2.685133934020996, -0.580078125, -0.46142578125, -0.9296875, 0, 
105, 2795551308, -0.19324714, -0.72859085, 0.45841563, -0.47082758, 8.618635177612305, -1.401187777519226, -4.649563312530518, 5.083244323730469, -0.7742975950241089, -1.325380563735962, -0.58154296875, -0.46240234375, -0.92822265625, 0, 
106, 2795567975, -0.19264884, -0.72894174, 0.4581508, -0.4707871, 8.795162200927734, -1.456373929977417, -4.425841808319092, 4.409924507141113, -2.898371696472168, -0.33757537603378296, -0.580078125, -0.4619140625, -0.927734375, 0, 
107, 2795584642, -0.19188935, -0.7294098, 0.45768327, -0.47082692, 8.784231185913086, -1.4505730867385864, -4.962130069732666, 6.281381130218506, -3.114325523376465, -1.0940979719161987, -0.5810546875, -0.4638671875, -0.9296875, 0, 
108, 2795601309, -0.19133337, -0.7297092, 0.45705464, -0.47119978, 8.635477066040039, -1.498646855354309, -5.067558765411377, 6.6087236404418945, -0.045833930373191833, -1.5909713506698608, -0.58203125, -0.462890625, -0.9287109375, 0, 
109, 2795617976, -0.19068371, -0.73010874, 0.45642403, -0.4714553, 8.631338119506836, -1.507192611694336, -4.773548603057861, 6.847024440765381, -1.2493876218795776, -1.766098141670227, -0.58154296875, -0.46484375, -0.92626953125, 0, 
110, 2795634643, -0.18982683, -0.7307684, 0.45568377, -0.4714954, 8.610527992248535, -1.429344654083252, -4.862645626068115, 7.90751838684082, -3.6808273792266846, -2.7438247203826904, -0.58203125, -0.46337890625, -0.9296875, 0, 
111, 2795651310, -0.18902096, -0.7314435, 0.45504504, -0.47138903, 8.59299373626709, -1.4057433605194092, -4.966777324676514, 6.884369373321533, -4.441115379333496, -2.6387107372283936, -0.58349609375, -0.4658203125, -0.92724609375, 0, 
112, 2795667977, -0.18829235, -0.731992, 0.45467365, -0.4711876, 8.580676078796387, -1.44778573513031, -4.970537185668945, 5.1669602394104, -4.612515449523926, -1.2721447944641113, -0.58251953125, -0.46533203125, -0.9267578125, 0, 
113, 2795684644, -0.18757647, -0.73242986, 0.4544552, -0.47100323, 8.606375694274902, -1.4541372060775757, -4.93235445022583, 4.518599510192871, -4.326587677001953, -0.17577998340129852, -0.58056640625, -0.46533203125, -0.9248046875, 0, 
114, 2795701311, -0.18693489, -0.73278314, 0.45420027, -0.47095472, 8.663135528564453, -1.4833070039749146, -4.885318756103516, 4.577444076538086, -3.089250087738037, -0.15978483855724335, -0.58154296875, -0.46630859375, -0.92333984375, 0, 
115, 2795717978, -0.18642202, -0.7330478, 0.45382583, -0.47110724, 8.660651206970215, -1.525022029876709, -4.828418731689453, 4.8298187255859375, -1.2332130670547485, -0.6432885527610779, -0.58203125, -0.46630859375, -0.92431640625, 0, 
116, 2795734645, -0.1859861, -0.7332525, 0.4533555, -0.4714135, 8.664615631103516, -1.51582670211792, -4.726627826690674, 5.1550374031066895, 0.09720662236213684, -0.9928380250930786, -0.58203125, -0.46728515625, -0.92724609375, 0, 
117, 2795751312, -0.18559761, -0.7334811, 0.45281774, -0.4717278, 8.644815444946289, -1.5203841924667358, -4.793584823608398, 5.189920425415039, 0.29468053579330444, -1.5496580600738525, -0.58056640625, -0.46875, -0.923828125, 0, 
118, 2795767979, -0.18532003, -0.73362744, 0.4522034, -0.47219872, 8.646137237548828, -1.5248218774795532, -4.753654479980469, 5.262814521789551, 1.7942527532577515, -1.8399778604507446, -0.58251953125, -0.47021484375, -0.92578125, 0, 
119, 2795784646, -0.18492696, -0.73384494, 0.45156777, -0.47262293, 8.57897663116455, -1.5031404495239258, -4.880557537078857, 5.858208179473877, 0.9953801035881042, -1.8533353805541992, -0.58203125, -0.4677734375, -0.9267578125, 0, 
120, 2795801313, -0.18467715, -0.73391926, 0.45100373, -0.47314364, 8.549511909484863, -1.5681813955307007, -4.938188076019287, 5.020980358123779, 2.3017563819885254, -1.3902320861816406, -0.58203125, -0.46923828125, -0.9267578125, 0, 
121, 2795817980, -0.18453307, -0.7338377, 0.45052046, -0.47378623, 8.566495895385742, -1.5584487915039062, -4.873825550079346, 4.4058518409729, 3.648317813873291, -0.6897243857383728, -0.58251953125, -0.47119140625, -0.92822265625, 0, 
122, 2795834647, -0.18441446, -0.733686, 0.45003158, -0.47453117, 8.642695426940918, -1.5205599069595337, -4.788766384124756, 4.523491382598877, 4.478618144989014, -0.45306316018104553, -0.58056640625, -0.47119140625, -0.93017578125, 0, 
123, 2795851314, -0.1843532, -0.7334831, 0.44953442, -0.47533917, 8.669623374938965, -1.4544748067855835, -4.834014415740967, 4.390638828277588, 5.153871536254883, -0.44349679350852966, -0.58251953125, -0.47265625, -0.93212890625, 0, 
124, 2795867981, -0.1843957, -0.7332272, 0.44907963, -0.47614694, 8.69887924194336, -1.4191330671310425, -4.826953411102295, 3.6603689193725586, 5.592142581939697, -0.4047703146934509, -0.5830078125, -0.47265625, -0.9287109375, 0, 
125, 2795884648, -0.18454623, -0.7328919, 0.44875306, -0.47691205, 8.670722007751465, -1.4693379402160645, -4.890811920166016, 2.464832067489624, 5.807507514953613, 0.07882950454950333, -0.58203125, -0.46826171875, -0.9326171875, 0, 
126, 2795901315, -0.18474552, -0.7324812, 0.44856784, -0.47763965, 8.616878509521484, -1.467656135559082, -4.873134613037109, 1.5444906949996948, 5.836474895477295, 0.8159374594688416, -0.58154296875, -0.4716796875, -0.93359375, 0, 
127, 2795917982, -0.18491584, -0.7320911, 0.44843823, -0.47829288, 8.600025177001953, -1.4524136781692505, -4.905697822570801, 1.3033983707427979, 5.235332489013672, 1.0333125591278076, -0.58251953125, -0.47314453125, -0.93603515625, 0, 
128, 2795934649, -0.18505153, -0.73174596, 0.44833428, -0.4788658, 8.572789192199707, -1.4239981174468994, -4.977631568908691, 1.204123616218567, 4.543802261352539, 1.0358994007110596, -0.5830078125, -0.470703125, -0.93603515625, 0, 
129, 2795951316, -0.18522853, -0.73141575, 0.4483348, -0.47930112, 8.56712818145752, -1.4301507472991943, -5.000131130218506, 0.24654147028923035, 3.7965645790100098, 1.2044439315795898, -0.580078125, -0.4716796875, -0.93701171875, 0, 
130, 2795967983, -0.18540362, -0.731105, 0.44847128, -0.4795797, 8.548847198486328, -1.4803998470306396, -4.982308864593506, -0.649038553237915, 2.7662289142608643, 1.635056972503662, -0.58154296875, -0.4716796875, -0.93701171875, 0, 
131, 2795984650, -0.18553472, -0.73087895, 0.44862786, -0.4797269, 8.599930763244629, -1.493233323097229, -4.910224914550781, -0.7926618456840515, 1.6654722690582275, 1.4525794982910156, -0.57958984375, -0.46923828125, -0.9365234375, 0, 
132, 2796001317, -0.18568501, -0.73069924, 0.4487151, -0.47986102, 8.628620147705078, -1.4968822002410889, -4.913819789886475, -0.6412010192871094, 1.5948834419250488, 0.881083071231842, -0.58056640625, -0.470703125, -0.9384765625, 0, 
133, 2796017984, -0.18588163, -0.73050535, 0.4486413, -0.4801491, 8.61987018585205, -1.4887124300003052, -4.9248480796813965, 0.11462323367595673, 2.7636806964874268, 0.1597912311553955, -0.5810546875, -0.4658203125, -0.9384765625, 0, 
134, 2796034651, -0.18609983, -0.7303274, 0.44844276, -0.48052025, 8.579671859741211, -1.5171401500701904, -4.861976146697998, 0.6958394646644592, 3.35396409034729, -0.4810193181037903, -0.5810546875, -0.4677734375, -0.939453125, 0, 
135, 2796051318, -0.18638223, -0.7301003, 0.44830516, -0.48088446, 8.528371810913086, -1.5386531352996826, -4.836668491363525, 0.087371326982975, 3.602022886276245, -0.2448190152645111, -0.5810546875, -0.47021484375, -0.93896484375, 0, 
136, 2796067985, -0.18667552, -0.7298431, 0.44850764, -0.48097253, 8.583917617797852, -1.543325424194336, -4.563596248626709, -1.9817060232162476, 1.9136719703674316, 1.1651666164398193, -0.58056640625, -0.4697265625, -0.94189453125, 0, 
137, 2796084652, -0.1866855, -0.7296909, 0.44872493, -0.4809968, 8.71792984008789, -1.6092935800552368, -4.8363776206970215, -0.6721028685569763, 0.3540635406970978, 1.771867275238037, -0.58056640625, -0.46923828125, -0.94091796875, 0, 
138, 2796101319, -0.18686113, -0.7293807, 0.44863635, -0.48148152, 8.678512573242188, -1.6307986974716187, -5.153955459594727, 0.7264593839645386, 4.0894455909729, 0.7673245072364807, -0.5810546875, -0.46923828125, -0.94189453125, 0, 
139, 2796117986, -0.18726629, -0.7288564, 0.44845396, -0.48228714, 8.6792631149292, -1.6204324960708618, -4.981849670410156, 0.600560188293457, 7.237182140350342, 0.6100753545761108, -0.5791015625, -0.46875, -0.9423828125, 0, 
140, 2796134653, -0.18778506, -0.7282717, 0.44830388, -0.48310748, 8.61355972290039, -1.634728193283081, -5.055642127990723, -0.10809841752052307, 7.819244861602783, 0.5998814702033997, -0.57861328125, -0.4697265625, -0.94482421875, 0, 
141, 2796151320, -0.1883271, -0.7276149, 0.4482646, -0.48392203, 8.708002090454102, -1.6580626964569092, -4.777212619781494, -0.7015190720558167, 7.959474086761475, 1.2917189598083496, -0.57861328125, -0.46923828125, -0.9453125, 0, 
142, 2796167987, -0.18874566, -0.7270173, 0.4480516, -0.48485377, 8.68583869934082, -1.533150315284729, -5.1202921867370605, 0.9302471280097961, 8.192602157592773, 0.8033744692802429, -0.578125, -0.46923828125, -0.9482421875, 0, 
143, 2796184654, -0.18951538, -0.72604686, 0.44767973, -0.48634884, 8.577528953552246, -1.4787808656692505, -4.9433274269104, 0.9565004706382751, 13.540578842163086, 0.7174954414367676, -0.578125, -0.46728515625, -0.95068359375, 0, 
144, 2796201321, -0.19040093, -0.7249388, 0.44723788, -0.48805913, 8.537660598754883, -1.4758063554763794, -4.571591854095459, 1.0946812629699707, 15.523862838745117, 0.6862608194351196, -0.57861328125, -0.46728515625, -0.95361328125, 0, 
145, 2796217988, -0.19134787, -0.72379637, 0.44676083, -0.4898179, 8.562134742736816, -1.4402532577514648, -4.527523994445801, 1.0114784240722656, 16.115097045898438, 0.4732014834880829, -0.5771484375, -0.46826171875, -0.95654296875, 0, 
146, 2796234655, -0.19246244, -0.7225723, 0.44644868, -0.4914709, 8.611798286437988, -1.4003106355667114, -4.4204607009887695, -0.8096821308135986, 16.161376953125, 0.8409488201141357, -0.57763671875, -0.46875, -0.9609375, 0, 
147, 2796251322, -0.19373822, -0.7212204, 0.44631898, -0.49307042, 8.64016342163086, -1.4689103364944458, -4.430992603302002, -2.561464548110962, 16.58142852783203, 1.525154709815979, -0.57666015625, -0.46630859375, -0.96337890625, 0, 
148, 2796267989, -0.19525552, -0.71970105, 0.44624293, -0.4947576, 8.662135124206543, -1.5074191093444824, -4.410197734832764, -3.894710063934326, 18.253751754760742, 1.602992057800293, -0.576171875, -0.46923828125, -0.9677734375, 0, 
149, 2796284656, -0.19687521, -0.71821845, 0.4461514, -0.49635035, 8.683555603027344, -1.5231609344482422, -4.340803623199463, -4.589237689971924, 17.9958438873291, 0.9382007718086243, -0.57373046875, -0.46826171875, -0.970703125, 0, 
150, 2796301323, -0.19852716, -0.71684843, 0.4459725, -0.4978314, 8.672057151794434, -1.516440510749817, -4.2822747230529785, -4.63964319229126, 17.277864456176758, -0.09967193007469177, -0.57373046875, -0.46826171875, -0.974609375, 0, 
151, 2796317990, -0.20007497, -0.71570176, 0.44583404, -0.4989843, 8.746826171875, -1.491500973701477, -4.221747398376465, -4.966742038726807, 14.521636009216309, -0.6767008304595947, -0.57421875, -0.466796875, -0.97705078125, 0, 
152, 2796334657, -0.2015318, -0.7147974, 0.44575974, -0.49975988, 8.804180145263672, -1.5549219846725464, -4.185290336608887, -5.562633037567139, 11.466651916503906, -1.3103591203689575, -0.57421875, -0.46875, -0.9794921875, 0, 
153, 2796351324, -0.2029072, -0.7139778, 0.4455968, -0.5005199, 8.842794418334961, -1.6101821660995483, -3.9856417179107666, -4.788629531860352, 10.971902847290039, -1.7473247051239014, -0.5751953125, -0.46728515625, -0.98291015625, 0, 
154, 2796367991, -0.20417136, -0.7133616, 0.44527742, -0.50116813, 8.85127067565918, -1.6712008714675903, -4.10861349105835, -3.7630581855773926, 9.599202156066895, -2.9121525287628174, -0.5732421875, -0.46875, -0.98291015625, 0, 
155, 2796384658, -0.20550098, -0.71284115, 0.44484454, -0.50174916, 8.860742568969727, -1.7039097547531128, -3.9959535598754883, -3.764005422592163, 9.300992965698242, -4.08159065246582, -0.5751953125, -0.46875, -0.986328125, 0, 
156, 2796401325, -0.20666006, -0.7126072, 0.4444028, -0.50199664, 8.939284324645996, -1.648173213005066, -3.7740859985351562, -3.5126030445098877, 6.168211460113525, -4.884342670440674, -0.572265625, -0.46826171875, -0.986328125, 0, 
157, 2796417992, -0.20758374, -0.7126206, 0.44397527, -0.50197494, 9.025099754333496, -1.5742007493972778, -3.7947657108306885, -2.8808653354644775, 3.255918264389038, -5.141058444976807, -0.57275390625, -0.470703125, -0.98583984375, 0, 
158, 2796434659, -0.20838523, -0.7127313, 0.443649, -0.50177395, 9.061327934265137, -1.4881021976470947, -3.8210668563842773, -3.0386781692504883, 1.5237703323364258, -4.7760009765625, -0.57373046875, -0.47021484375, -0.98828125, 0, 
159, 2796451326, -0.20909286, -0.71284527, 0.44347978, -0.50146776, 9.063977241516113, -1.429378628730774, -3.88010573387146, -3.438082456588745, 0.48461154103279114, -3.8435187339782715, -0.5712890625, -0.4716796875, -0.9892578125, 0, 
160, 2796467993, -0.20974222, -0.71289605, 0.44343442, -0.5011642, 9.075725555419922, -1.3861467838287354, -3.933938503265381, -3.661604642868042, 0.35944226384162903, -2.839129686355591, -0.57568359375, -0.4716796875, -0.98779296875, 0, 
161, 2796484660, -0.21035016, -0.7128962, 0.4434797, -0.5008692, 9.059632301330566, -1.3492335081100464, -3.9718427658081055, -3.8185079097747803, 0.3190253973007202, -2.085014820098877, -0.57275390625, -0.4697265625, -0.9873046875, 0, 
162, 2796501327, -0.21090078, -0.712908, 0.44361466, -0.50050116, 9.015128135681152, -1.375508189201355, -3.9501566886901855, -4.051890850067139, -0.38365262746810913, -1.5888069868087769, -0.57470703125, -0.47412109375, -0.98779296875, 0, 
163, 2796517994, -0.21136817, -0.7129933, 0.44374335, -0.50006795, 8.967680931091309, -1.4248214960098267, -3.962509870529175, -3.714526653289795, -1.2014213800430298, -1.6524226665496826, -0.5732421875, -0.47265625, -0.9873046875, 0, 
164, 2796534661, -0.2117616, -0.7131495, 0.44384533, -0.49958825, 8.868956565856934, -1.4381089210510254, -4.008433818817139, -3.299670934677124, -1.8596867322921753, -1.8124057054519653, -0.576171875, -0.47509765625, -0.986328125, 0, 
165, 2796551328, -0.21205242, -0.71342635, 0.4440342, -0.49890128, 8.755840301513672, -1.3730617761611938, -4.028393745422363, -3.5518670082092285, -3.730490207672119, -1.7048327922821045, -0.57275390625, -0.47412109375, -0.98779296875, 0, 
166, 2796567995, -0.21210837, -0.71389365, 0.4443454, -0.497931, 8.779831886291504, -1.3396254777908325, -4.041244983673096, -3.405618906021118, -6.668664455413818, -1.2932366132736206, -0.5771484375, -0.47265625, -0.98388671875, 0, 
167, 2796584662, -0.21204507, -0.71448886, 0.4447139, -0.49677402, 8.816635131835938, -1.347645878791809, -4.106916904449463, -3.400522470474243, -8.471403121948242, -1.2668685913085938, -0.576171875, -0.474609375, -0.98388671875, 0, 
168, 2796601329, -0.2119542, -0.71511984, 0.44507948, -0.4955758, 8.849831581115723, -1.3343712091445923, -4.18369722366333, -3.3299977779388428, -8.875686645507812, -1.3563721179962158, -0.5771484375, -0.47412109375, -0.98046875, 0, 
169, 2796617996, -0.21182765, -0.7157772, 0.44536707, -0.49442133, 8.82003116607666, -1.307976245880127, -4.232670783996582, -2.716445207595825, -8.746213912963867, -1.6351536512374878, -0.57568359375, -0.47265625, -0.97900390625, 0, 
170, 2796634663, -0.21175182, -0.7164126, 0.4457252, -0.49320936, 8.764324188232422, -1.2405093908309937, -4.149386405944824, -3.4129059314727783, -8.901658058166504, -1.4771358966827393, -0.5771484375, -0.47412109375, -0.9755859375, 0, 
171, 2796651330, -0.21153137, -0.7170684, 0.4462452, -0.4918786, 8.858980178833008, -1.2614611387252808, -4.154068470001221, -3.5839478969573975, -10.234428405761719, -0.4247739911079407, -0.5771484375, -0.4755859375, -0.974609375, 0, 
172, 2796667997, -0.2112621, -0.71772784, 0.4466688, -0.49064705, 8.959126472473145, -1.2833378314971924, -4.3036298751831055, -2.7074551582336426, -9.767379760742188, -0.6019114255905151, -0.57763671875, -0.474609375, -0.97216796875, 0, 
173, 2796684664, -0.2111171, -0.7182429, 0.4470896, -0.4895711, 8.954106330871582, -1.3124499320983887, -4.494790554046631, -3.0431995391845703, -8.126951217651367, -0.36513474583625793, -0.57763671875, -0.474609375, -0.97119140625, 0, 
174, 2796701331, -0.21142286, -0.71827555, 0.44754368, -0.48897603, 8.854412078857422, -1.3278850317001343, -4.4365925788879395, -4.603179454803467, -2.7910804748535156, 0.46325060725212097, -0.5791015625, -0.47314453125, -0.96875, 0, 
175, 2796717998, -0.21171072, -0.7182689, 0.44810325, -0.48834836, 8.958056449890137, -1.325608730316162, -3.899721145629883, -5.026402950286865, -3.0288429260253906, 1.1167969703674316, -0.5771484375, -0.47216796875, -0.96826171875, 0, 
176, 2796734665, -0.21164726, -0.7185678, 0.44852343, -0.48754966, 9.033604621887207, -1.3106921911239624, -4.313556671142578, -2.9066319465637207, -5.779237270355225, 0.41841548681259155, -0.57763671875, -0.47265625, -0.966796875, 0, 
177, 2796751332, -0.21170074, -0.71873087, 0.4486559, -0.48716417, 8.960456848144531, -1.3509613275527954, -4.473293781280518, -1.4429938793182373, -2.503359794616699, -0.3752516508102417, -0.57861328125, -0.47265625, -0.96630859375, 0, 
178, 2796767999, -0.21171004, -0.7189782, 0.44875315, -0.48670503, 8.96217155456543, -1.430637240409851, -4.118149280548096, -1.2107635736465454, -3.2344868183135986, -0.7684705853462219, -0.578125, -0.47119140625, -0.96630859375, 0, 
179, 2796784666, -0.21151675, -0.7194535, 0.44871402, -0.4861225, 8.991361618041992, -1.3982853889465332, -4.231842517852783, 0.19727542996406555, -5.033907413482666, -1.647217035293579, -0.58056640625, -0.47265625, -0.9619140625, 0, 
180, 2796801333, -0.21134263, -0.7199249, 0.4486096, -0.4855967, 8.908832550048828, -1.319473385810852, -4.347181797027588, 0.49068164825439453, -4.586888790130615, -1.940290093421936, -0.58056640625, -0.47705078125, -0.96435546875, 0, 
181, 2796818000, -0.21116552, -0.7202713, 0.44873416, -0.48504475, 8.825639724731445, -1.2769887447357178, -4.361024379730225, -0.5232162475585938, -4.640573501586914, -0.44878581166267395, -0.580078125, -0.4755859375, -0.9619140625, 0, 
182, 2796834667, -0.21097882, -0.7205036, 0.4490114, -0.4845239, 8.830260276794434, -1.261464238166809, -4.420210361480713, -1.052195429801941, -4.358014106750488, 0.7355008125305176, -0.578125, -0.47265625, -0.95947265625, 0, 
183, 2796851334, -0.21083996, -0.7206603, 0.44928074, -0.48410144, 8.833520889282227, -1.2559353113174438, -4.449031829833984, -1.0696632862091064, -3.4590976238250732, 0.9126125574111938, -0.58056640625, -0.4736328125, -0.96044921875, 0, 
184, 2796868001, -0.21080934, -0.72074455, 0.4494506, -0.4838319, 8.82754898071289, -1.2936744689941406, -4.447991847991943, -0.9076884984970093, -1.981744408607483, 0.5059341192245483, -0.57958984375, -0.4736328125, -0.9580078125, 0, 
185, 2796884668, -0.21082753, -0.72079575, 0.44957256, -0.48363394, 8.821099281311035, -1.2985750436782837, -4.442146301269531, -0.8160398006439209, -1.2968541383743286, 0.3115784823894501, -0.57958984375, -0.474609375, -0.9609375, 0, 
186, 2796901335, -0.21084881, -0.7208706, 0.44974524, -0.4833523, 8.80959415435791, -1.2823514938354492, -4.427319526672363, -1.22520911693573, -1.853322148323059, 0.35864824056625366, -0.578125, -0.47265625, -0.96044921875, 0, 
187, 2796918002, -0.21084547, -0.7208936, 0.45006293, -0.48302412, 8.85903263092041, -1.2916115522384644, -4.332584857940674, -1.804939866065979, -2.1996700763702393, 1.2517503499984741, -0.5810546875, -0.474609375, -0.9609375, 0, 
188, 2796934669, -0.21068713, -0.7210362, 0.45034266, -0.4826195, 8.896105766296387, -1.2794127464294434, -4.588246822357178, -0.9719507694244385, -3.399932384490967, 1.097344160079956, -0.5791015625, -0.4755859375, -0.955078125, 0, 
189, 2796951336, -0.21060959, -0.7211469, 0.45048746, -0.48235244, 8.823110580444336, -1.3162251710891724, -4.689663410186768, -0.5461780428886414, -2.165656328201294, 0.4586402177810669, -0.58056640625, -0.47265625, -0.955078125, 0, 
190, 2796968003, -0.21053931, -0.72129554, 0.45070168, -0.48196062, 8.741877555847168, -1.3419705629348755, -4.5278778076171875, -1.143402099609375, -2.988463878631592, 0.48048779368400574, -0.57861328125, -0.4716796875, -0.95654296875, 0, 
191, 2796984670, -0.21030009, -0.72150743, 0.45126247, -0.4812228, 8.83531379699707, -1.370591402053833, -4.231060028076172, -2.4353325366973877, -5.939457893371582, 2.0615856647491455, -0.57861328125, -0.47119140625, -0.9560546875, 0, 
192, 2797001337, -0.20992169, -0.7217072, 0.45192242, -0.48046872, 8.9832181930542, -1.3146600723266602, -4.358418941497803, -2.1418240070343018, -6.555008411407471, 3.0284781455993652, -0.5791015625, -0.47021484375, -0.95458984375, 0, 
193, 2797018004, -0.2096227, -0.721743, 0.45242545, -0.48007172, 8.967348098754883, -1.3009330034255981, -4.4438958168029785, -1.14336359500885, -3.7686781883239746, 3.0124566555023193, -0.578125, -0.47119140625, -0.9521484375, 0, 
194, 2797034671, -0.2094734, -0.72164536, 0.45282632, -0.4799056, 8.88298225402832, -1.3339120149612427, -4.4305739402771, -1.0234578847885132, -1.5697126388549805, 2.7587502002716064, -0.57958984375, -0.4697265625, -0.95263671875, 0, 
195, 2797051338, -0.2094056, -0.7214737, 0.45315164, -0.47988614, 8.824448585510254, -1.3418704271316528, -4.454615116119385, -0.8287245631217957, -0.23550879955291748, 2.557114362716675, -0.5810546875, -0.47021484375, -0.953125, 0, 
196, 2797068005, -0.20937237, -0.721303, 0.45343357, -0.47989088, 8.806156158447266, -1.2964770793914795, -4.451853275299072, -0.7802653312683105, 0.051577575504779816, 2.2590723037719727, -0.580078125, -0.4716796875, -0.95166015625, 0, 
197, 2797084672, -0.20934156, -0.721148, 0.4537019, -0.47988352, 8.839780807495117, -1.3078523874282837, -4.428563117980957, -0.7617729306221008, -0.033962443470954895, 2.1174724102020264, -0.580078125, -0.46826171875, -0.95361328125, 0, 
198, 2797101339, -0.20933372, -0.72098285, 0.4539232, -0.47992608, 8.893623352050781, -1.2956361770629883, -4.414161682128906, -0.580294132232666, 0.3860026001930237, 1.9122503995895386, -0.5791015625, -0.46728515625, -0.9541015625, 0, 
199, 2797118006, -0.20937127, -0.72080785, 0.45407945, -0.4800248, 8.906234741210938, -1.3046586513519287, -4.448517799377441, -0.42914077639579773, 0.9327184557914734, 1.5515213012695312, -0.57861328125, -0.46923828125, -0.95263671875, 0, 
200, 2797134673, -0.20945325, -0.7205958, 0.4542204, -0.48017362, 8.897438049316406, -1.3072619438171387, -4.416982173919678, -0.495849072933197, 1.464502215385437, 1.5168416500091553, -0.578125, -0.4677734375, -0.95166015625, 0, 
201, 2797151340, -0.20955133, -0.7203873, 0.45436382, -0.48030815, 8.897615432739258, -1.3122491836547852, -4.434688091278076, -0.6241558790206909, 1.4279786348342896, 1.4447035789489746, -0.57763671875, -0.46630859375, -0.95263671875, 0, 
202, 2797168007, -0.20965707, -0.72018075, 0.45451254, -0.48043117, 8.907978057861328, -1.3029428720474243, -4.437505722045898, -0.7113800048828125, 1.3808512687683105, 1.422228455543518, -0.5791015625, -0.46728515625, -0.953125, 0, 
203, 2797184674, -0.20977336, -0.7199301, 0.45465526, -0.48062092, 8.885113716125488, -1.3511425256729126, -4.493926048278809, -0.5985815525054932, 1.897574543952942, 1.5920660495758057, -0.57861328125, -0.46533203125, -0.953125, 0, 
204, 2797201341, -0.20998965, -0.71961397, 0.4548369, -0.48082793, 8.808141708374023, -1.340041995048523, -4.497198104858398, -1.2640762329101562, 2.455841541290283, 1.683516025543213, -0.5791015625, -0.4658203125, -0.9541015625, 0, 
205, 2797218008, -0.21027954, -0.71922916, 0.45521986, -0.48091477, 8.858500480651855, -1.3651760816574097, -4.291391372680664, -2.7679007053375244, 2.0285322666168213, 2.4779839515686035, -0.5771484375, -0.4638671875, -0.95263671875, 0, 
206, 2797234675, -0.21032472, -0.7189628, 0.45550054, -0.48102733, 8.901094436645508, -1.378161907196045, -4.487039089202881, -0.9682369828224182, 1.145342230796814, 2.4470694065093994, -0.57861328125, -0.46630859375, -0.955078125, 0, 
207, 2797251342, -0.21042725, -0.71867275, 0.45552352, -0.481394, 8.718137741088867, -1.4044190645217896, -4.7326154708862305, 0.36241331696510315, 3.0317819118499756, 1.425365924835205, -0.57861328125, -0.46484375, -0.95751953125, 0, 
208, 2797268009, -0.21068832, -0.7182843, 0.45559683, -0.48179018, 8.658001899719238, -1.3916232585906982, -4.500657558441162, -0.6376281380653381, 3.927278518676758, 1.500744104385376, -0.57763671875, -0.46435546875, -0.95654296875, 0, 
209, 2797284676, -0.21092576, -0.7179005, 0.4560205, -0.4818574, 8.737361907958984, -1.3868706226348877, -4.0775065422058105, -2.7049827575683594, 1.7068878412246704, 2.817685127258301, -0.57763671875, -0.462890625, -0.95751953125, 0, 
210, 2797301343, -0.21077605, -0.7178143, 0.45652142, -0.48157704, 8.84835433959961, -1.3943870067596436, -4.295035362243652, -1.7091096639633179, -2.3225595951080322, 3.0439605712890625, -0.57861328125, -0.462890625, -0.9560546875, 0, 
211, 2797318010, -0.21069849, -0.71762896, 0.45668736, -0.48173013, 8.790421485900879, -1.4333524703979492, -4.850673675537109, 0.2606412470340729, 0.858288049697876, 2.0920004844665527, -0.57666015625, -0.4638671875, -0.95654296875, 0, 
212, 2797334677, -0.21077207, -0.71722054, 0.4568038, -0.4821953, 8.729294776916504, -1.4631482362747192, -4.544265270233154, 0.33641642332077026, 3.6822550296783447, 2.4989349842071533, -0.578125, -0.4619140625, -0.9560546875, 0, 
213, 2797351344, -0.21061899, -0.7170218, 0.45688635, -0.48247936, 8.804661750793457, -1.4162986278533936, -4.255167484283447, 1.3006577491760254, 1.4315258264541626, 2.1621153354644775, -0.5771484375, -0.462890625, -0.95703125, 0, 
214, 2797368011, -0.21029563, -0.7170875, 0.45691714, -0.48249355, 8.869075775146484, -1.3318549394607544, -4.316498279571533, 1.8469123840332031, -1.2352876663208008, 1.2511098384857178, -0.578125, -0.46337890625, -0.9580078125, 0, 
215, 2797384678, -0.20996572, -0.71714526, 0.45710164, -0.4823768, 8.832069396972656, -1.3317363262176514, -4.468776702880859, 0.9468055367469788, -2.098153829574585, 1.8656609058380127, -0.57763671875, -0.46337890625, -0.955078125, 0, 
216, 2797401345, -0.2096704, -0.71704584, 0.45750144, -0.48227403, 8.807111740112305, -1.3536174297332764, -4.521777629852295, -0.12127614766359329, -1.7100319862365723, 3.3263792991638184, -0.57666015625, -0.46142578125, -0.95703125, 0, 
217, 2797418012, -0.20938136, -0.71681714, 0.45794588, -0.4823178, 8.87453556060791, -1.3755046129226685, -4.5106682777404785, -0.024293644353747368, -0.6035504341125488, 4.144115447998047, -0.57568359375, -0.46240234375, -0.955078125, 0, 
218, 2797434679, -0.20915577, -0.71653825, 0.4582807, -0.4825122, 8.86769962310791, -1.4034537076950073, -4.517917633056641, 0.42658600211143494, 0.6629912257194519, 3.7682628631591797, -0.576171875, -0.45849609375, -0.95654296875, 0, 
219, 2797451346, -0.20902067, -0.7162204, 0.45848313, -0.4828499, 8.813138961791992, -1.4233132600784302, -4.51319694519043, 0.8171667456626892, 1.973426342010498, 3.1442084312438965, -0.576171875, -0.4580078125, -0.95751953125, 0, 
220, 2797468013, -0.20886184, -0.7159789, 0.4586162, -0.4831505, 8.742109298706055, -1.3817987442016602, -4.446041107177734, 1.1566630601882935, 1.5610363483428955, 2.586991310119629, -0.57568359375, -0.45703125, -0.95654296875, 0, 
221, 2797484680, -0.20867759, -0.71581143, 0.4588065, -0.4832976, 8.676201820373535, -1.428245186805725, -4.474245548248291, 0.713153600692749, 0.3987961411476135, 2.500446081161499, -0.57568359375, -0.45751953125, -0.95654296875, 0, 
222, 2797501347, -0.20832556, -0.71571404, 0.4590175, -0.48339322, 8.725749015808105, -1.435768485069275, -4.383552551269531, 1.408730387687683, -0.6467974781990051, 2.864248752593994, -0.5751953125, -0.4580078125, -0.95654296875, 0, 
223, 2797518014, -0.2079368, -0.7156758, 0.45915544, -0.48348662, 8.708189010620117, -1.458066463470459, -4.585832118988037, 1.9106237888336182, -0.8654530644416809, 2.437502861022949, -0.576171875, -0.455078125, -0.95654296875, 0, 
224, 2797534681, -0.20760536, -0.71559554, 0.45929334, -0.48361647, 8.69522762298584, -1.530779242515564, -4.440624237060547, 1.6819154024124146, -0.3651858866214752, 2.4311511516571045, -0.57568359375, -0.45556640625, -0.95556640625, 0, 
225, 2797551348, -0.20711623, -0.7156764, 0.45943335, -0.48357373, 8.695854187011719, -1.573401689529419, -4.36622428894043, 2.136784791946411, -2.2507293224334717, 2.2107670307159424, -0.57470703125, -0.45556640625, -0.95654296875, 0, 
226, 2797568015, -0.20652354, -0.71586686, 0.45947948, -0.48350126, 8.684099197387695, -1.5331652164459229, -4.467211723327637, 3.0218827724456787, -2.955411195755005, 1.7035458087921143, -0.57568359375, -0.45654296875, -0.9560546875, 0, 
227, 2797584682, -0.20586541, -0.7161011, 0.45951772, -0.4833988, 8.685307502746582, -1.5001753568649292, -4.479496479034424, 3.3365986347198486, -3.444242477416992, 1.7013301849365234, -0.57568359375, -0.4541015625, -0.95654296875, 0, 
228, 2797601349, -0.20517184, -0.71636623, 0.4596454, -0.4831794, 8.720046043395996, -1.5038564205169678, -4.4430389404296875, 2.886967420578003, -4.36075496673584, 1.9968621730804443, -0.57470703125, -0.4541015625, -0.95361328125, 0, 
229, 2797618016, -0.20445834, -0.7166271, 0.45980954, -0.48293874, 8.764659881591797, -1.5145254135131836, -4.524786949157715, 2.792520523071289, -4.565463066101074, 2.225673198699951, -0.57470703125, -0.4541015625, -0.95361328125, 0, 
230, 2797634683, -0.20378876, -0.71684706, 0.45991182, -0.48279816, 8.759868621826172, -1.5139095783233643, -4.6105427742004395, 3.0440633296966553, -3.7113447189331055, 2.044015407562256, -0.5751953125, -0.45654296875, -0.95361328125, 0, 
231, 2797651350, -0.20319721, -0.7169759, 0.46001625, -0.48275626, 8.739635467529297, -1.4812804460525513, -4.6315598487854, 2.8463330268859863, -2.681406259536743, 2.2151849269866943, -0.5751953125, -0.455078125, -0.95068359375, 0, 
232, 2797668017, -0.20264521, -0.7170492, 0.46012485, -0.4827761, 8.76179313659668, -1.4676594734191895, -4.588268756866455, 2.729961633682251, -2.067828416824341, 2.3805787563323975, -0.5771484375, -0.455078125, -0.955078125, 0, 
233, 2797684684, -0.20215653, -0.7170918, 0.46025854, -0.48279023, 8.76962947845459, -1.4964706897735596, -4.565441131591797, 2.4398343563079834, -1.8575613498687744, 2.2991690635681152, -0.57568359375, -0.453125, -0.95068359375, 0, 
234, 2797701351, -0.20170483, -0.717156, 0.4603563, -0.4827906, 8.770158767700195, -1.5542724132537842, -4.559793472290039, 2.180978775024414, -1.798920750617981, 2.003495693206787, -0.5751953125, -0.45361328125, -0.95068359375, 0, 
235, 2797718018, -0.20126247, -0.7172369, 0.46038896, -0.48282397, 8.745628356933594, -1.556994915008545, -4.580167293548584, 2.488036632537842, -1.5727221965789795, 1.6395519971847534, -0.5732421875, -0.45361328125, -0.9501953125, 0, 
236, 2797734685, -0.20084304, -0.7173561, 0.4603927, -0.48281813, 8.75014877319336, -1.5543146133422852, -4.571296215057373, 2.4668936729431152, -1.7922358512878418, 1.2116663455963135, -0.576171875, -0.455078125, -0.9501953125, 0, 
237, 2797751352, -0.20041521, -0.7175333, 0.46044445, -0.48268273, 8.730177879333496, -1.4740679264068604, -4.587399482727051, 1.997361660003662, -2.713780641555786, 1.124557614326477, -0.576171875, -0.4521484375, -0.94921875, 0, 
238, 2797768019, -0.20008652, -0.7176378, 0.4606102, -0.48250598, 8.767581939697266, -1.4325944185256958, -4.672563552856445, 1.2477033138275146, -2.5819649696350098, 1.3509224653244019, -0.578125, -0.4541015625, -0.951171875, 0, 
239, 2797784686, -0.19989328, -0.7176589, 0.46082118, -0.4823526, 8.736424446105957, -1.4094574451446533, -4.622884273529053, 0.0055643594823777676, -1.7547390460968018, 1.6188058853149414, -0.576171875, -0.4521484375, -0.94921875, 0, 
240, 2797801353, -0.19977796, -0.7175805, 0.46139053, -0.48197293, 8.747543334960938, -1.500357747077942, -4.475952625274658, -2.0287182331085205, -2.857699155807495, 2.929523468017578, -0.57568359375, -0.4521484375, -0.94921875, 0, 
241, 2797818020, -0.19958687, -0.7174875, 0.46183345, -0.48176655, 8.683143615722656, -1.5219639539718628, -4.8109130859375, -1.0898202657699585, -1.9521231651306152, 3.0407590866088867, -0.57373046875, -0.4521484375, -0.94677734375, 0, 
242, 2797834687, -0.19959657, -0.71725833, 0.46210486, -0.4818434, 8.530774116516113, -1.4981238842010498, -4.899616718292236, -0.6467207670211792, 0.7420831322669983, 2.27154541015625, -0.57470703125, -0.4501953125, -0.94775390625, 0, 
243, 2797851354, -0.19974034, -0.7170382, 0.462516, -0.48171672, 8.563556671142578, -1.5224239826202393, -4.531202793121338, -2.6273765563964844, -0.016264066100120544, 2.32332181930542, -0.576171875, -0.44921875, -0.94873046875, 0, 
244, 2797868021, -0.19992842, -0.7168295, 0.46310064, -0.48138762, 8.706103324890137, -1.593852162361145, -4.303581714630127, -3.9543957710266113, -1.1671451330184937, 2.668529510498047, -0.5751953125, -0.44775390625, -0.9482421875, 0, 
245, 2797884688, -0.19989529, -0.71685636, 0.46360135, -0.48087907, 8.777148246765137, -1.586447834968567, -4.523478031158447, -2.869262933731079, -3.413609743118286, 2.00866961479187, -0.57568359375, -0.4482421875, -0.94580078125, 0, 
246, 2797901355, -0.20003484, -0.71675706, 0.4638065, -0.4807714, 8.715561866760254, -1.65944242477417, -4.90855598449707, -1.5307046175003052, -0.08356143534183502, 0.8776384592056274, -0.57666015625, -0.44775390625, -0.94970703125, 0, 
247, 2797918022, -0.20028311, -0.71654415, 0.46387923, -0.48091498, 8.669556617736816, -1.6697998046875, -4.622788429260254, -1.0773983001708984, 2.075544595718384, 0.6221773624420166, -0.57568359375, -0.44921875, -0.947265625, 0, 
248, 2797934689, -0.2003379, -0.71661294, 0.46376678, -0.48089805, 8.705554008483887, -1.6013076305389404, -4.465864181518555, 0.3365572690963745, -0.003624197095632553, -0.7548190951347351, -0.57421875, -0.44970703125, -0.94970703125, 0, 
249, 2797951356, -0.20032166, -0.716869, 0.46362227, -0.4806627, 8.731917381286621, -1.5399518013000488, -4.5410943031311035, 0.3831980228424072, -1.8866698741912842, -1.592047095298767, -0.5751953125, -0.44775390625, -0.9453125, 0, 
250, 2797968023, -0.20035109, -0.71705145, 0.463624, -0.4803767, 8.74774169921875, -1.5459609031677246, -4.648772239685059, -0.5924601554870605, -1.9485887289047241, -0.8543884754180908, -0.57470703125, -0.4501953125, -0.9482421875, 0, 
251, 2797984690, -0.20046821, -0.7170432, 0.46367988, -0.4802861, 8.77307415008545, -1.5217900276184082, -4.650699138641357, -0.8370102047920227, -0.15071791410446167, -0.004046806134283543, -0.57568359375, -0.44775390625, -0.94580078125, 0, 
252, 2798001357, -0.20062569, -0.7169298, 0.46372586, -0.4803453, 8.782355308532715, -1.5270860195159912, -4.639459609985352, -0.6673260927200317, 1.0778015851974487, 0.35503682494163513, -0.57373046875, -0.44970703125, -0.947265625, 0, 
253, 2798018024, -0.20083423, -0.7167926, 0.46365786, -0.48052838, 8.777039527893066, -1.5420165061950684, -4.6399335861206055, -0.16375480592250824, 2.083035945892334, -0.13823172450065613, -0.5732421875, -0.4482421875, -0.9462890625, 0, 
254, 2798034691, -0.20106263, -0.71672815, 0.46343583, -0.48074314, 8.746625900268555, -1.5537461042404175, -4.586512088775635, 0.42246225476264954, 2.2783584594726562, -1.1379849910736084, -0.576171875, -0.44970703125, -0.94970703125, 0, 
255, 2798051358, -0.20123792, -0.71678084, 0.46315992, -0.48085704, 8.688014030456543, -1.5554461479187012, -4.629484176635742, 0.7011028528213501, 1.3007217645645142, -1.7381291389465332, -0.5732421875, -0.45166015625, -0.947265625, 0, 
256, 2798068025, -0.20148979, -0.7167398, 0.46288663, -0.48107576, 8.667350769042969, -1.5739926099777222, -4.593475818634033, 0.525438129901886, 2.367823600769043, -1.538452386856079, -0.5771484375, -0.45068359375, -0.9453125, 0, 
257, 2798084692, -0.20150587, -0.716868, 0.46261483, -0.48113948, 8.684234619140625, -1.534793496131897, -4.552317142486572, 1.4186681509017944, 0.2905440926551819, -1.503119707107544, -0.57470703125, -0.45068359375, -0.94970703125, 0, 
258, 2798101359, -0.20152816, -0.7169997, 0.46230555, -0.48123112, 8.70799732208252, -1.5501577854156494, -4.690979480743408, 1.4498262405395508, 0.5159358382225037, -1.6006273031234741, -0.576171875, -0.4521484375, -0.94873046875, 0, 
259, 2798118026, -0.20155883, -0.7171119, 0.46202412, -0.48132157, 8.713861465454102, -1.5608224868774414, -4.563473701477051, 1.3640618324279785, 0.5490018129348755, -1.4706043004989624, -0.57373046875, -0.4521484375, -0.9501953125, 0, 
260, 2798134693, -0.20150733, -0.71729064, 0.46169922, -0.48138878, 8.745936393737793, -1.5251089334487915, -4.536762237548828, 1.9601846933364868, 0.010085000656545162, -1.6712925434112549, -0.57568359375, -0.4521484375, -0.9482421875, 0, 
261, 2798151360, -0.20143121, -0.7174896, 0.46134797, -0.48146075, 8.745397567749023, -1.459062099456787, -4.627143383026123, 2.292752742767334, -0.09146294742822647, -1.8193470239639282, -0.576171875, -0.453125, -0.94970703125, 0, 
262, 2798168027, -0.20135945, -0.71764344, 0.46106842, -0.48152924, 8.716096878051758, -1.4230122566223145, -4.617372035980225, 1.9248393774032593, -0.03717683255672455, -1.3230624198913574, -0.57666015625, -0.45458984375, -0.951171875, 0, 
263, 2798184694, -0.20127647, -0.717739, 0.46091932, -0.4815644, 8.674337387084961, -1.4546360969543457, -4.605029582977295, 1.349872350692749, -0.2229713648557663, -0.4972449243068695, -0.57421875, -0.45166015625, -0.94775390625, 0, 
264, 2798201361, -0.2011422, -0.7178287, 0.4607982, -0.48160252, 8.715003967285156, -1.4663081169128418, -4.600015640258789, 1.2070945501327515, -0.3359746038913727, -0.009515117853879929, -0.57568359375, -0.45263671875, -0.94970703125, 0, 
265, 2798218028, -0.2010945, -0.71785045, 0.4607313, -0.481654, 8.729986190795898, -1.4670594930648804, -4.612734794616699, 1.1888455152511597, 0.04088427126407623, -0.12542539834976196, -0.57275390625, -0.4541015625, -0.94775390625, 0, 
266, 2798234695, -0.20107926, -0.71788156, 0.4605835, -0.48175547, 8.74740982055664, -1.5101499557495117, -4.589094638824463, 1.1971056461334229, 0.5188173055648804, -0.45311427116394043, -0.576171875, -0.45458984375, -0.9501953125, 0, 
267, 2798251362, -0.20112547, -0.7179021, 0.46036455, -0.48191476, 8.783979415893555, -1.517086386680603, -4.540844440460205, 1.2701911926269531, 1.1375430822372437, -0.8793094158172607, -0.57568359375, -0.455078125, -0.94873046875, 0, 
268, 2798268029, -0.20117734, -0.7179395, 0.4601084, -0.48208198, 8.81735610961914, -1.48621666431427, -4.514188766479492, 1.4350987672805786, 1.1863611936569214, -1.1349756717681885, -0.5751953125, -0.455078125, -0.951171875, 0, 
269, 2798284696, -0.2012475, -0.71795255, 0.45983505, -0.48229393, 8.830608367919922, -1.501010537147522, -4.4972920417785645, 1.5262926816940308, 1.5669018030166626, -1.1506890058517456, -0.57666015625, -0.45458984375, -0.94921875, 0, 
270, 2798301363, -0.20134902, -0.7179195, 0.45953858, -0.48258325, 8.80761432647705, -1.5104316473007202, -4.5073652267456055, 1.4952117204666138, 2.2551536560058594, -1.0471112728118896, -0.57470703125, -0.45556640625, -0.9541015625, 0, 
271, 2798318030, -0.2015405, -0.71778107, 0.45929334, -0.48294252, 8.780335426330566, -1.5320621728897095, -4.523555278778076, 1.4264094829559326, 3.0808234214782715, -0.9042243361473083, -0.5751953125, -0.45703125, -0.95166015625, 0, 
272, 2798334697, -0.20176327, -0.71762484, 0.45897806, -0.48338127, 8.817999839782715, -1.4625693559646606, -4.493155479431152, 1.3435653448104858, 3.7964932918548584, -0.9885156750679016, -0.576171875, -0.4541015625, -0.9521484375, 0, 
273, 2798351364, -0.20198746, -0.71748805, 0.45857757, -0.48387074, 8.804163932800293, -1.4368621110916138, -4.507375240325928, 1.2569754123687744, 4.201232433319092, -1.124372124671936, -0.5751953125, -0.455078125, -0.9541015625, 0, 
274, 2798368031, -0.20232347, -0.71727765, 0.4582348, -0.4843666, 8.820535659790039, -1.4215689897537231, -4.502508163452148, 0.8561750054359436, 4.675451278686523, -1.1880451440811157, -0.57666015625, -0.45751953125, -0.955078125, 0, 
275, 2798384698, -0.20281775, -0.71702415, 0.45805106, -0.484709, 8.815786361694336, -1.4050514698028564, -4.402889251708984, -0.8102065324783325, 4.305924415588379, -1.1030622720718384, -0.57666015625, -0.45654296875, -0.95703125, 0, 
276, 2798401365, -0.20320627, -0.7168311, 0.45797008, -0.48490828, 8.868704795837402, -1.4694108963012695, -4.475160121917725, -1.165147304534912, 2.9531123638153076, -0.5490978360176086, -0.57470703125, -0.45751953125, -0.95556640625, 0, 
277, 2798418032, -0.20365682, -0.71657646, 0.45767677, -0.4853722, 8.769890785217285, -1.4413137435913086, -4.787313461303711, 0.10492885112762451, 4.932244300842285, -1.2993837594985962, -0.5751953125, -0.4560546875, -0.9580078125, 0, 
278, 2798434699, -0.20429747, -0.7161955, 0.45725507, -0.48606202, 8.695539474487305, -1.436692476272583, -4.695736408233643, 0.10353296250104904, 7.250681400299072, -1.839248538017273, -0.5751953125, -0.458984375, -0.958984375, 0, 
279, 2798451366, -0.20500784, -0.7157803, 0.45716828, -0.4864561, 8.631969451904297, -1.4884079694747925, -4.369241714477539, -2.3360958099365234, 5.656955242156982, -0.730640709400177, -0.57470703125, -0.4541015625, -0.9580078125, 0, 
280, 2798468033, -0.20566954, -0.7153049, 0.45742005, -0.4866395, 8.776369094848633, -1.5512847900390625, -4.09670877456665, -3.9835307598114014, 4.193586826324463, 0.9942402243614197, -0.576171875, -0.4580078125, -0.9599609375, 0, 
281, 2798484700, -0.20592225, -0.7150807, 0.45762178, -0.48667234, 8.899347305297852, -1.5395270586013794, -4.439244270324707, -1.9334897994995117, 1.3986263275146484, 1.1188716888427734, -0.576171875, -0.45654296875, -0.95947265625, 0, 
282, 2798501367, -0.2063311, -0.7146759, 0.4575326, -0.48717758, 8.878785133361816, -1.576522707939148, -4.709999084472656, -0.4799948036670685, 5.22413969039917, 0.3947877585887909, -0.5751953125, -0.45849609375, -0.9619140625, 0, 
283, 2798518034, -0.20677438, -0.7142504, 0.45731413, -0.48781818, 8.860637664794922, -1.6204885244369507, -4.230622291564941, 0.18156203627586365, 6.2518110275268555, -0.09928764402866364, -0.576171875, -0.45654296875, -0.96240234375, 0, 
284, 2798534701, -0.20701498, -0.7141236, 0.45690268, -0.4882873, 8.922550201416016, -1.543769359588623, -4.190385818481445, 1.7092318534851074, 4.043740272521973, -1.5506187677383423, -0.57373046875, -0.4580078125, -0.9658203125, 0, 
285, 2798551368, -0.20725551, -0.7141281, 0.45639014, -0.48865783, 8.934019088745117, -1.4559859037399292, -4.341724872589111, 1.9253259897232056, 3.263077735900879, -2.599574089050293, -0.57666015625, -0.458984375, -0.9638671875, 0, 
286, 2798568035, -0.20765409, -0.713924, 0.45600146, -0.48914945, 8.828150749206543, -1.409935474395752, -4.495273113250732, 0.8172309398651123, 4.877292156219482, -1.6955864429473877, -0.57568359375, -0.45703125, -0.9677734375, 0, 
287, 2798584702, -0.20817368, -0.71348554, 0.4557799, -0.48977432, 8.781563758850098, -1.3445020914077759, -4.478996753692627, -0.2563447058200836, 6.460541248321533, -0.3566952645778656, -0.57666015625, -0.45849609375, -0.966796875, 0, 
288, 2798601369, -0.20873247, -0.7129607, 0.45560703, -0.4904611, 8.856406211853027, -1.333815574645996, -4.365616321563721, -0.5417087078094482, 7.10910701751709, 0.10967999696731567, -0.5732421875, -0.45849609375, -0.966796875, 0, 
289, 2798618036, -0.20937479, -0.7124106, 0.45539787, -0.49118042, 8.920722961425781, -1.3699393272399902, -4.310006141662598, -0.7644752264022827, 7.6662726402282715, -0.22397027909755707, -0.57421875, -0.45751953125, -0.96826171875, 0, 
290, 2798634703, -0.21011597, -0.7118071, 0.45513648, -0.49198058, 8.951891899108887, -1.428849458694458, -4.239901065826416, -0.8945237994194031, 8.628837585449219, -0.5296323895454407, -0.57421875, -0.45947265625, -0.97119140625, 0, 
291, 2798651370, -0.21093944, -0.71115667, 0.45483446, -0.49284744, 8.991350173950195, -1.4759931564331055, -4.253464221954346, -1.020218014717102, 9.428709030151367, -0.763873279094696, -0.57275390625, -0.45654296875, -0.974609375, 0, 
292, 2798668037, -0.2118811, -0.7103016, 0.45439202, -0.49408305, 9.044181823730469, -1.4794154167175293, -4.167801856994629, -0.26548853516578674, 12.498472213745117, -0.6766878366470337, -0.57275390625, -0.4580078125, -0.97509765625, 0, 
293, 2798684704, -0.21276563, -0.7094609, 0.4538607, -0.49539745, 8.996877670288086, -1.4598312377929688, -4.265626907348633, 0.5826956629753113, 12.785987854003906, -0.8462056517601013, -0.5712890625, -0.4599609375, -0.97998046875, 0, 
294, 2798701371, -0.21362346, -0.70866627, 0.45336825, -0.4966149, 8.88724422454834, -1.5278980731964111, -4.280232906341553, 0.34453579783439636, 12.015826225280762, -0.8514562249183655, -0.57275390625, -0.4580078125, -0.9814453125, 0, 
295, 2798718038, -0.21428886, -0.70810044, 0.45293814, -0.497527, 8.867242813110352, -1.5654852390289307, -4.097841262817383, 0.4545038342475891, 9.055135726928711, -1.0524643659591675, -0.5712890625, -0.45751953125, -0.984375, 0, 
296, 2798734705, -0.2148374, -0.70770025, 0.4524665, -0.49828878, 8.96459674835205, -1.5181530714035034, -4.061817169189453, 0.9408186674118042, 7.4529643058776855, -1.5923609733581543, -0.57177734375, -0.46044921875, -0.98388671875, 0, 
297, 2798751372, -0.21536425, -0.70731765, 0.45191795, -0.4991016, 9.031441688537598, -1.443981409072876, -4.031991481781006, 1.4948022365570068, 7.688018321990967, -1.871853232383728, -0.5712890625, -0.46044921875, -0.98681640625, 0, 
298, 2798768039, -0.21584281, -0.7069608, 0.45140812, -0.4998613, 8.945342063903809, -1.4203927516937256, -4.01177978515625, 1.469855546951294, 7.134336471557617, -1.6759802103042603, -0.572265625, -0.4599609375, -0.98876953125, 0, 
299, 2798784706, -0.216211, -0.7066409, 0.4510972, -0.50043476, 8.865140914916992, -1.4229474067687988, -4.015568256378174, 0.7996606230735779, 5.464104652404785, -0.7213305234909058, -0.5703125, -0.4619140625, -0.99169921875, 0, 
300, 2798801373, -0.21649013, -0.70632565, 0.45100176, -0.50084513, 8.913829803466797, -1.4235024452209473, -4.034276008605957, -0.008797962218523026, 4.059388637542725, 0.37577030062675476, -0.56982421875, -0.4599609375, -0.99072265625, 0, 
301, 2798818040, -0.21673527, -0.7060574, 0.4509654, -0.5011496, 8.977616310119629, -1.4186038970947266, -4.015323638916016, -0.3054954409599304, 3.189786434173584, 0.4757750928401947, -0.57080078125, -0.46044921875, -0.9912109375, 0, 
302, 2798834707, -0.21695706, -0.7058528, 0.4509077, -0.50139403, 9.013879776000977, -1.438690185546875, -4.007727146148682, -0.20939664542675018, 2.6399331092834473, 0.1667194813489914, -0.56982421875, -0.4609375, -0.99072265625, 0, 
303, 2798851374, -0.21719092, -0.70564806, 0.4508165, -0.5016628, 9.00343132019043, -1.4377175569534302, -4.027039527893066, -0.07759367674589157, 2.8437845706939697, -0.001946565113030374, -0.57275390625, -0.46240234375, -0.9921875, 0, 
304, 2798868041, -0.21737744, -0.70546263, 0.45074606, -0.5019061, 8.960841178894043, -1.45064377784729, -4.007997989654541, 0.030792871490120888, 2.475832462310791, 0.16463203728199005, -0.5703125, -0.462890625, -0.99365234375, 0, 
305, 2798884708, -0.2174899, -0.70530796, 0.4506991, -0.50211686, 8.954110145568848, -1.4746602773666382, -4.002114772796631, 0.2537001669406891, 1.9482619762420654, 0.3900749981403351, -0.5693359375, -0.4599609375, -0.99462890625, 0, 
306, 2798901375, -0.21758729, -0.7051599, 0.4506041, -0.5023678, 8.988503456115723, -1.492795467376709, -4.0041279792785645, 0.6264674663543701, 2.144916296005249, 0.24882099032402039, -0.57080078125, -0.4609375, -0.99462890625, 0, 
307, 2798918042, -0.2176688, -0.7050766, 0.45044184, -0.50259495, 9.014032363891602, -1.4779547452926636, -3.96824312210083, 0.9585745930671692, 1.8573497533798218, -0.2581632137298584, -0.56982421875, -0.45947265625, -0.9931640625, 0, 
308, 2798934709, -0.21772897, -0.70506734, 0.45018962, -0.5028079, 9.041494369506836, -1.4860211610794067, -3.9624321460723877, 1.4399908781051636, 1.6023752689361572, -0.8714080452919006, -0.568359375, -0.4609375, -0.99462890625, 0, 
309, 2798951376, -0.2177228, -0.7051366, 0.4499243, -0.50295085, 9.004709243774414, -1.4340976476669312, -3.9581453800201416, 1.7087321281433105, 0.8047574758529663, -1.0541291236877441, -0.5693359375, -0.4599609375, -0.994140625, 0, 
310, 2798968043, -0.2176603, -0.70526874, 0.44969124, -0.50300103, 8.986857414245605, -1.4133750200271606, -3.9988222122192383, 1.6773178577423096, -0.08529028296470642, -1.0359054803848267, -0.5693359375, -0.46240234375, -0.99560546875, 0, 
311, 2798984710, -0.21758378, -0.7054541, 0.44964015, -0.50281966, 8.972582817077637, -1.3791437149047852, -3.8867616653442383, 0.47918152809143066, -1.7071888446807861, -0.6161262392997742, -0.56982421875, -0.46142578125, -0.99365234375, 0, 
312, 2799001377, -0.21727726, -0.7057534, 0.44972947, -0.50245243, 9.023698806762695, -1.441657543182373, -3.9800493717193604, 0.704714298248291, -3.923725128173828, 0.22962428629398346, -0.568359375, -0.4619140625, -0.9951171875, 0, 
313, 2799018044, -0.21700667, -0.7060047, 0.44966176, -0.50227714, 8.976799011230469, -1.4645023345947266, -4.197971343994141, 1.5954214334487915, -2.48158860206604, -0.2217291295528412, -0.56982421875, -0.4619140625, -0.994140625, 0, 
314, 2799034711, -0.21680191, -0.706202, 0.4496072, -0.5021368, 8.906891822814941, -1.4668724536895752, -4.224050521850586, 1.2568857669830322, -1.9411096572875977, -0.1653555929660797, -0.5693359375, -0.46240234375, -0.99072265625, 0, 
315, 2799051378, -0.21685039, -0.7061175, 0.44966632, -0.5021818, 8.777373313903809, -1.4608708620071411, -4.231459140777588, -0.21036989986896515, 0.5456721186637878, 0.6592516303062439, -0.56884765625, -0.46337890625, -0.9921875, 0, 
316, 2799068045, -0.21680024, -0.7060358, 0.44993395, -0.5020785, 8.852937698364258, -1.4342092275619507, -3.6795079708099365, -0.9074580073356628, -0.7996413707733154, 1.7818692922592163, -0.56982421875, -0.4609375, -0.9921875, 0, 
317, 2799084712, -0.21622053, -0.7064321, 0.45013875, -0.5015872, 8.958980560302734, -1.431784987449646, -4.046645641326904, 1.3934909105300903, -5.877384662628174, 1.248753547668457, -0.5712890625, -0.4619140625, -0.990234375, 0, 
318, 2799101379, -0.21574423, -0.7067191, 0.45012468, -0.50140065, 8.884575843811035, -1.4996733665466309, -4.354789733886719, 2.4255928993225098, -3.375138759613037, 0.619897723197937, -0.57177734375, -0.4619140625, -0.9912109375, 0, 
319, 2799118046, -0.21526755, -0.70701396, 0.4501223, -0.50119174, 8.916208267211914, -1.5394551753997803, -3.949359655380249, 2.3300704956054688, -3.5292890071868896, 0.620192289352417, -0.5693359375, -0.462890625, -0.99169921875, 0, 
320, 2799134713, -0.21468821, -0.7074999, 0.44999838, -0.5008659, 8.955650329589844, -1.5056601762771606, -4.031515598297119, 3.168015718460083, -4.894202709197998, -0.3812962770462036, -0.5703125, -0.4619140625, -0.986328125, 0, 
321, 2799151380, -0.214175, -0.7079164, 0.44985688, -0.50062436, 8.905173301696777, -1.4215655326843262, -4.1827216148376465, 3.065885066986084, -4.0134077072143555, -0.35481271147727966, -0.5712890625, -0.4638671875, -0.98779296875, 0, 
322, 2799168047, -0.21368028, -0.70820487, 0.44998348, -0.5003139, 8.864300727844238, -1.3925487995147705, -4.184630870819092, 1.651475191116333, -4.246880531311035, 1.1801116466522217, -0.572265625, -0.4609375, -0.9892578125, 0, 
323, 2799184714, -0.21315807, -0.70841706, 0.45022267, -0.5000211, 8.923251152038574, -1.391091227531433, -4.17041015625, 1.3412023782730103, -4.148859977722168, 2.085084915161133, -0.56982421875, -0.46142578125, -0.9892578125, 0, 
324, 2799201381, -0.21268547, -0.7086062, 0.45039245, -0.49980092, 8.975205421447754, -1.4296683073043823, -4.1113810539245605, 1.528508186340332, -3.459942579269409, 1.7546683549880981, -0.57177734375, -0.4609375, -0.986328125, 0, 
325, 2799218048, -0.21225908, -0.7088558, 0.45044655, -0.49957943, 8.967787742614746, -1.4445726871490479, -4.1127471923828125, 1.7856217622756958, -3.3609118461608887, 0.8426387310028076, -0.5703125, -0.46044921875, -0.98583984375, 0, 
326, 2799234715, -0.21186341, -0.70915234, 0.45042312, -0.49934778, 8.95446491241455, -1.4699121713638306, -4.112524032592773, 1.9390674829483032, -3.365227699279785, 0.1990683525800705, -0.57080078125, -0.46142578125, -0.98486328125, 0, 
327, 2799251382, -0.2115066, -0.7094944, 0.4504935, -0.49894944, 8.939964294433594, -1.4909194707870483, -4.125097751617432, 0.9786933064460754, -4.350406646728516, 0.13869917392730713, -0.5732421875, -0.46142578125, -0.98583984375, 0, 
328, 2799268049, -0.21117617, -0.70973486, 0.45059878, -0.4986522, 8.983774185180664, -1.4783589839935303, -4.026989459991455, 0.8946580290794373, -3.4768857955932617, 0.6809968948364258, -0.5732421875, -0.46142578125, -0.98291015625, 0, 
329, 2799284716, -0.21079391, -0.7100268, 0.45059478, -0.49840203, 8.979353904724121, -1.4522686004638672, -4.259856700897217, 1.7429125308990479, -3.425814390182495, 0.23451630771160126, -0.572265625, -0.46240234375, -0.97998046875, 0, 
330, 2799301383, -0.21061449, -0.7101235, 0.4505033, -0.49842268, 8.95522403717041, -1.5152502059936523, -4.275994300842285, 1.6085032224655151, -0.6792168617248535, 0.1091485247015953, -0.57177734375, -0.46142578125, -0.9833984375, 0, 
331, 2799318050, -0.21058261, -0.7101332, 0.45037746, -0.49853593, 8.953381538391113, -1.5549455881118774, -4.136002540588379, 1.1657108068466187, 0.5769388675689697, -0.16026507318019867, -0.57421875, -0.462890625, -0.982421875, 0, 
332, 2799334717, -0.21049133, -0.71022356, 0.45019034, -0.49861494, 8.968571662902832, -1.5201866626739502, -4.015800952911377, 1.6778688430786133, 0.03878403455018997, -0.555219292640686, -0.5703125, -0.46142578125, -0.984375, 0, 
333, 2799351384, -0.2103429, -0.7104392, 0.44995737, -0.4985805, 8.964590072631836, -1.5230921506881714, -4.044715404510498, 1.943638801574707, -1.0552817583084106, -1.135654330253601, -0.57177734375, -0.4619140625, -0.982421875, 0, 
334, 2799368051, -0.21021242, -0.7106939, 0.44975567, -0.49845448, 8.923916816711426, -1.5748000144958496, -4.0717926025390625, 1.5215414762496948, -1.626303791999817, -1.2972958087921143, -0.5732421875, -0.462890625, -0.98291015625, 0, 
335, 2799384718, -0.21011892, -0.7109525, 0.4495454, -0.4983148, 8.910451889038086, -1.630666732788086, -4.060429573059082, 1.3341976404190063, -1.580764651298523, -1.4981894493103027, -0.57177734375, -0.4619140625, -0.9833984375, 0, 
336, 2799401385, -0.21002981, -0.7112673, 0.4492346, -0.49818352, 8.91927719116211, -1.6272199153900146, -4.0955376625061035, 1.7640169858932495, -1.5724660158157349, -2.16636061668396, -0.57373046875, -0.46484375, -0.98095703125, 0, 
337, 2799418052, -0.2099523, -0.71165884, 0.4488223, -0.49802852, 8.945090293884277, -1.6235045194625854, -4.062530040740967, 2.092628002166748, -1.7687621116638184, -2.9736218452453613, -0.57275390625, -0.46484375, -0.97998046875, 0, 
338, 2799434719, -0.20984767, -0.7121921, 0.44832307, -0.4977598, 8.955849647521973, -1.6082611083984375, -4.02108097076416, 2.374643087387085, -2.7696869373321533, -3.908017873764038, -0.57080078125, -0.46533203125, -0.98291015625, 0, 
339, 2799451386, -0.20966199, -0.71290606, 0.4477808, -0.49730408, 8.983129501342773, -1.5797362327575684, -4.01838493347168, 2.605010986328125, -4.491495609283447, -4.668351173400879, -0.57470703125, -0.46875, -0.9794921875, 0, 
340, 2799468053, -0.20939937, -0.71374816, 0.44719386, -0.49673438, 9.002001762390137, -1.5556387901306152, -4.078803539276123, 2.967878580093384, -5.66053581237793, -5.1832170486450195, -0.57421875, -0.4658203125, -0.982421875, 0, 
341, 2799484720, -0.2091279, -0.7145965, 0.44660532, -0.49615863, 8.973101615905762, -1.4821017980575562, -4.107903957366943, 3.0075268745422363, -5.737092018127441, -5.1893391609191895, -0.572265625, -0.4697265625, -0.9794921875, 0, 
342, 2799501387, -0.20883009, -0.7154648, 0.44603682, -0.49554348, 8.955594062805176, -1.4402093887329102, -4.102328777313232, 2.9747045040130615, -6.108399868011475, -5.117969036102295, -0.576171875, -0.46875, -0.9765625, 0, 
343, 2799518054, -0.20844789, -0.7164189, 0.44548622, -0.49482086, 8.962584495544434, -1.402268409729004, -4.129360198974609, 3.1249232292175293, -7.214548587799072, -5.161446571350098, -0.57763671875, -0.47119140625, -0.97509765625, 0, 
344, 2799534721, -0.20806323, -0.71742445, 0.44492525, -0.49402982, 8.9365873336792, -1.3393062353134155, -4.19753360748291, 3.035445213317871, -7.719349384307861, -5.459117889404297, -0.576171875, -0.47314453125, -0.97705078125, 0, 
345, 2799551388, -0.20766714, -0.7184834, 0.44434905, -0.4931756, 8.868888854980469, -1.3024003505706787, -4.234624862670898, 3.02580189704895, -8.225162506103516, -5.7487473487854, -0.578125, -0.474609375, -0.97314453125, 0, 
346, 2799568055, -0.20726757, -0.71955866, 0.44384217, -0.4922317, 8.863794326782227, -1.2707828283309937, -4.321957588195801, 2.5583577156066895, -8.832941055297852, -5.572622299194336, -0.5771484375, -0.4765625, -0.97216796875, 0, 
347, 2799584722, -0.20700976, -0.7205697, 0.44358614, -0.4910904, 8.806795120239258, -1.2365918159484863, -4.272796630859375, 0.31409505009651184, -9.517452239990234, -4.896612167358398, -0.578125, -0.4755859375, -0.97119140625, 0, 
348, 2799601389, -0.20644712, -0.7216004, 0.44352025, -0.48987186, 8.784174919128418, -1.2669163942337036, -4.427450656890869, 0.9754535555839539, -11.166168212890625, -3.095757007598877, -0.5771484375, -0.478515625, -0.96875, 0, 
349, 2799618056, -0.20593938, -0.72255015, 0.4433629, -0.4888269, 8.677521705627441, -1.2191855907440186, -4.635263919830322, 1.423996090888977, -9.734441757202148, -3.2401485443115234, -0.580078125, -0.47900390625, -0.966796875, 0, 
350, 2799634723, -0.20560338, -0.7232629, 0.44315702, -0.48810068, 8.598321914672852, -1.2427828311920166, -4.665221214294434, 1.3711698055267334, -6.762881755828857, -2.8848233222961426, -0.57958984375, -0.478515625, -0.96435546875, 0, 
351, 2799651390, -0.20546462, -0.7238064, 0.44322538, -0.48729068, 8.562939643859863, -1.2870044708251953, -4.29238224029541, -1.0247513055801392, -6.39739990234375, -1.7859480381011963, -0.57666015625, -0.4814453125, -0.9609375, 0, 
352, 2799668057, -0.20512025, -0.7243976, 0.4434361, -0.48636436, 8.65621280670166, -1.3112152814865112, -4.166223526000977, -0.7654228806495667, -7.964449882507324, -0.6988425850868225, -0.57763671875, -0.47900390625, -0.96142578125, 0, 
353, 2799684724, -0.20463425, -0.7250108, 0.44350475, -0.4855923, 8.680895805358887, -1.281272053718567, -4.615477085113525, 0.9163264632225037, -7.501076698303223, -0.7813923358917236, -0.57763671875, -0.47802734375, -0.95751953125, 0, 
354, 2799701391, -0.20426415, -0.72545654, 0.44357473, -0.48501846, 8.656850814819336, -1.2822575569152832, -4.575441837310791, 0.7026652693748474, -5.601344108581543, -0.3727928698062897, -0.5810546875, -0.48095703125, -0.958984375, 0, 
355, 2799718058, -0.2037606, -0.7260222, 0.44379708, -0.48417926, 8.760565757751465, -1.2846969366073608, -4.320956707000732, 0.22071106731891632, -7.946840763092041, 0.09396661818027496, -0.58154296875, -0.48193359375, -0.95703125, 0, 
356, 2799734725, -0.20305818, -0.72684526, 0.44404268, -0.48301336, 8.837335586547852, -1.2397409677505493, -4.450846195220947, 0.49927499890327454, -11.073027610778809, -0.3718709647655487, -0.5830078125, -0.4794921875, -0.95556640625, 0, 
357, 2799751392, -0.20240441, -0.72777754, 0.4443473, -0.4816015, 8.892138481140137, -1.214535117149353, -4.599819183349609, -0.5388530492782593, -12.600032806396484, -0.9143482446670532, -0.580078125, -0.48095703125, -0.9541015625, 0, 
358, 2799768059, -0.20187485, -0.7286248, 0.44481835, -0.48010525, 8.9304780960083, -1.2543842792510986, -4.773569107055664, -2.0866036415100098, -12.591337203979492, -0.3503434658050537, -0.5830078125, -0.47900390625, -0.94970703125, 0, 
359, 2799784726, -0.2015595, -0.7291461, 0.4453594, -0.47894368, 8.9642333984375, -1.2630246877670288, -4.852000713348389, -2.8209331035614014, -9.281330108642578, 0.754813015460968, -0.58251953125, -0.4814453125, -0.947265625, 0, 
360, 2799801393, -0.20148018, -0.7293528, 0.4458599, -0.47819582, 8.971023559570312, -1.2302312850952148, -4.780823230743408, -3.0365524291992188, -5.393241882324219, 1.3088538646697998, -0.58251953125, -0.4814453125, -0.9453125, 0, 
361, 2799818060, -0.20159599, -0.7293694, 0.44619912, -0.47780523, 8.966659545898438, -1.2310731410980225, -4.677642345428467, -2.6573688983917236, -2.154348134994507, 0.9389808177947998, -0.58154296875, -0.48046875, -0.94580078125, 0, 
362, 2799834727, -0.20187141, -0.7293106, 0.44639012, -0.47760034, 8.91785717010498, -1.236114740371704, -4.603538990020752, -2.503154754638672, -0.2798699736595154, 0.15922774374485016, -0.583984375, -0.47998046875, -0.94482421875, 0, 
363, 2799851394, -0.20226519, -0.72923857, 0.44652453, -0.4774181, 8.835060119628906, -1.2507946491241455, -4.632254600524902, -2.8625266551971436, 0.3182954490184784, -0.44030794501304626, -0.58251953125, -0.478515625, -0.94677734375, 0, 
364, 2799868061, -0.20275012, -0.7290362, 0.44667444, -0.47738123, 8.796943664550781, -1.219955563545227, -4.493480205535889, -3.1144790649414062, 1.7352029085159302, -0.05347932130098343, -0.58203125, -0.48095703125, -0.94384765625, 0, 
365, 2799884728, -0.20312479, -0.7289304, 0.44682524, -0.4772421, 8.767292022705078, -1.1829851865768433, -4.588789939880371, -2.7636678218841553, 0.5687299370765686, -0.11656980216503143, -0.58251953125, -0.47900390625, -0.9443359375, 0, 
366, 2799901395, -0.20355535, -0.7287852, 0.44695035, -0.4771632, 8.775224685668945, -1.2345023155212402, -4.730204105377197, -2.7881217002868652, 1.2008578777313232, -0.24484461545944214, -0.58349609375, -0.4775390625, -0.94677734375, 0, 
367, 2799918062, -0.2040596, -0.728583, 0.44708616, -0.4771295, 8.780547142028809, -1.302072525024414, -4.619821071624756, -3.145303964614868, 1.8285868167877197, -0.1879972368478775, -0.5830078125, -0.48046875, -0.9462890625, 0, 
368, 2799934729, -0.20452817, -0.7283926, 0.44722927, -0.47708535, 8.785895347595215, -1.2491483688354492, -4.600167751312256, -2.8313941955566406, 1.5907855033874512, -0.1767532229423523, -0.580078125, -0.48046875, -0.9453125, 0, 
369, 2799951396, -0.2049514, -0.72821295, 0.44728497, -0.47712567, 8.792559623718262, -1.2188119888305664, -4.6404032707214355, -2.5425469875335693, 2.0350890159606934, -0.11959849298000336, -0.58349609375, -0.478515625, -0.94580078125, 0, 
370, 2799968063, -0.20539862, -0.72797346, 0.4474234, -0.477169, 8.764071464538574, -1.2655671834945679, -4.639620304107666, -2.6817262172698975, 2.156147003173828, 0.23345333337783813, -0.583984375, -0.48046875, -0.94775390625, 0, 
371, 2799984730, -0.20582953, -0.7276676, 0.4476144, -0.47727096, 8.776896476745605, -1.3023532629013062, -4.613317012786865, -2.5507559776306152, 2.5237925052642822, 0.7671324610710144, -0.5810546875, -0.4794921875, -0.9462890625, 0, 
372, 2800001397, -0.20621237, -0.727325, 0.44776767, -0.47748408, 8.800814628601074, -1.3156070709228516, -4.568005561828613, -1.765381097793579, 3.0857350826263428, 0.9374569058418274, -0.58251953125, -0.478515625, -0.94873046875, 0, 
373, 2800018064, -0.20647836, -0.7270405, 0.44783172, -0.4777425, 8.746910095214844, -1.3027464151382446, -4.510830402374268, -0.9247081875801086, 2.926039695739746, 0.895579993724823, -0.583984375, -0.47900390625, -0.94775390625, 0, 
374, 2800034731, -0.20664856, -0.7268145, 0.44785866, -0.47798726, 8.693342208862305, -1.3067787885665894, -4.555865287780762, -0.3151770532131195, 2.428269624710083, 0.8414347767829895, -0.58056640625, -0.4755859375, -0.9482421875, 0, 
375, 2800051398, -0.20672554, -0.72666854, 0.44782677, -0.47820583, 8.692514419555664, -1.2719779014587402, -4.52560567855835, 0.05759655311703682, 1.8772375583648682, 0.7346553802490234, -0.58251953125, -0.47900390625, -0.94873046875, 0, 
376, 2800068065, -0.20672128, -0.7266004, 0.44782957, -0.4783084, 8.706822395324707, -1.2327638864517212, -4.5312275886535645, 0.45132774114608765, 0.6913315057754517, 0.590660810470581, -0.58203125, -0.4775390625, -0.94921875, 0, 
377, 2800084732, -0.20665208, -0.72659814, 0.4478765, -0.47829777, 8.699240684509277, -1.1717549562454224, -4.56212043762207, 0.36455196142196655, -0.3517135679721832, 0.6671531200408936, -0.5849609375, -0.4794921875, -0.9501953125, 0, 
378, 2800101399, -0.20650369, -0.72662306, 0.44803834, -0.4781725, 8.714112281799316, -1.168387770652771, -4.598376750946045, 0.05621347203850746, -1.4179446697235107, 1.2609195709228516, -0.58154296875, -0.4765625, -0.94921875, 0, 
379, 2800118066, -0.20633903, -0.72660345, 0.44831684, -0.47801232, 8.684755325317383, -1.1820595264434814, -4.643947601318359, -0.41223639249801636, -1.663519263267517, 1.9825576543807983, -0.58203125, -0.4775390625, -0.94775390625, 0, 
380, 2800134733, -0.20611104, -0.72658634, 0.4487396, -0.4777399, 8.70447826385498, -1.1954647302627563, -4.595992088317871, -0.8889272809028625, -2.63529109954834, 2.732267141342163, -0.58251953125, -0.478515625, -0.9462890625, 0, 
381, 2800151400, -0.20568022, -0.72672087, 0.44916067, -0.47732514, 8.737398147583008, -1.2144895792007446, -4.569347858428955, -1.008013367652893, -4.332183361053467, 3.19563889503479, -0.58203125, -0.47509765625, -0.947265625, 0, 
382, 2800168067, -0.20525903, -0.7267809, 0.44970858, -0.47689927, 8.743913650512695, -1.2358548641204834, -4.633110523223877, -0.7063855528831482, -4.4287309646606445, 3.5405657291412354, -0.58203125, -0.47607421875, -0.947265625, 0, 
383, 2800184734, -0.20490399, -0.7268045, 0.4503718, -0.47638938, 8.7093505859375, -1.2533046007156372, -4.542357921600342, -1.5757960081100464, -4.708844184875488, 3.8160040378570557, -0.58056640625, -0.47412109375, -0.94482421875, 0, 
384, 2800201401, -0.20438406, -0.72687876, 0.4512329, -0.47568402, 8.80030632019043, -1.325074553489685, -4.423365116119385, -2.001555919647217, -6.631193161010742, 4.947330474853516, -0.58251953125, -0.4736328125, -0.94384765625, 0, 
385, 2800218068, -0.2037271, -0.7270077, 0.45181295, -0.4752183, 8.792506217956543, -1.3568651676177979, -4.77363395690918, 0.3008660674095154, -5.622783184051514, 4.2227864265441895, -0.58203125, -0.47216796875, -0.94140625, 0, 
386, 2800234735, -0.20322001, -0.72703075, 0.45204598, -0.47517827, 8.696760177612305, -1.3562426567077637, -4.885387420654297, 1.878339171409607, -2.2006301879882812, 2.913950204849243, -0.58203125, -0.4716796875, -0.94140625, 0, 
387, 2800251402, -0.20291018, -0.72703385, 0.45234007, -0.47502595, 8.690447807312012, -1.3619329929351807, -4.55353307723999, 0.3313450813293457, -2.1719698905944824, 2.4715168476104736, -0.58154296875, -0.47265625, -0.93994140625, 0, 
388, 2800268069, -0.2026347, -0.72703224, 0.452741, -0.47476438, 8.807164192199707, -1.4059587717056274, -4.339746952056885, -0.5254445672035217, -2.7459380626678467, 2.7503881454467773, -0.5810546875, -0.47216796875, -0.93994140625, 0, 
389, 2800284736, -0.20215395, -0.7272034, 0.45298266, -0.4744766, 8.869803428649902, -1.3746554851531982, -4.667240142822266, 1.1726200580596924, -3.8580925464630127, 2.0534024238586426, -0.57958984375, -0.47265625, -0.939453125, 0, 
390, 2800301403, -0.20189247, -0.7271448, 0.4529363, -0.47472194, 8.810558319091797, -1.4375560283660889, -5.0070414543151855, 2.355503559112549, 0.6404006481170654, 1.3555967807769775, -0.5810546875, -0.46923828125, -0.94091796875, 0, 
391, 2800318070, -0.20171247, -0.7269801, 0.45283383, -0.47514814, 8.731592178344727, -1.4746514558792114, -4.662403583526611, 2.5538361072540283, 2.2217161655426025, 1.3862940073013306, -0.5810546875, -0.470703125, -0.94091796875, 0, 
392, 2800334737, -0.20132881, -0.7270685, 0.452607, -0.47539166, 8.7395658493042, -1.4135147333145142, -4.510142803192139, 3.7552504539489746, 0.02127774804830551, 0.3913044035434723, -0.58154296875, -0.4716796875, -0.94140625, 0, 
393, 2800351404, -0.20088361, -0.72734326, 0.4523449, -0.4754092, 8.78225040435791, -1.3619585037231445, -4.594035625457764, 3.7322118282318115, -1.860480785369873, -0.47637060284614563, -0.57958984375, -0.46923828125, -0.9404296875, 0, 
394, 2800368071, -0.20048548, -0.7275915, 0.45222127, -0.47531465, 8.725263595581055, -1.393903374671936, -4.721299648284912, 2.6556594371795654, -2.37886905670166, -0.008208869956433773, -0.580078125, -0.470703125, -0.9404296875, 0, 
395, 2800384738, -0.20011374, -0.72771335, 0.4522019, -0.4753034, 8.677653312683105, -1.4054198265075684, -4.760395050048828, 2.270534038543701, -1.6114485263824463, 0.9334355592727661, -0.58203125, -0.47119140625, -0.94091796875, 0, 
396, 2800401405, -0.19982746, -0.7277292, 0.45217156, -0.47542873, 8.687463760375977, -1.4123642444610596, -4.742571830749512, 2.157095193862915, -0.3007187247276306, 1.1165024042129517, -0.5810546875, -0.46923828125, -0.93994140625, 0, 
397, 2800418072, -0.19963703, -0.72771, 0.45203155, -0.47567075, 8.676311492919922, -1.4266186952590942, -4.697295188903809, 2.3524560928344727, 0.8466982841491699, 0.5229408740997314, -0.5810546875, -0.4697265625, -0.94189453125, 0, 
398, 2800434739, -0.19949993, -0.7277367, 0.45177385, -0.47593236, 8.643138885498047, -1.3975142240524292, -4.672971725463867, 2.593202590942383, 1.1212279796600342, -0.3547615110874176, -0.58203125, -0.47021484375, -0.94140625, 0, 
399, 2800451406, -0.19930823, -0.7279168, 0.45151988, -0.47597805, 8.667542457580566, -1.3902915716171265, -4.702702045440674, 2.394102096557617, -0.6348875761032104, -0.9310472011566162, -0.58251953125, -0.47021484375, -0.9404296875, 0, 
400, 2800468073, -0.19921401, -0.7280311, 0.4512242, -0.47612324, 8.684988021850586, -1.4286049604415894, -4.666712760925293, 2.260493516921997, 0.4378170371055603, -1.1178534030914307, -0.58154296875, -0.47265625, -0.9404296875, 0, 
401, 2800484740, -0.19892542, -0.7282738, 0.45087275, -0.47620553, 8.700263023376465, -1.3671073913574219, -4.6500244140625, 3.3974156379699707, -0.823525071144104, -1.2451229095458984, -0.5810546875, -0.47119140625, -0.9404296875, 0, 
402, 2800501407, -0.19872034, -0.72848517, 0.45048586, -0.47633415, 8.767691612243652, -1.3840382099151611, -4.747281074523926, 3.1941020488739014, -0.1823624074459076, -1.5350714921951294, -0.58251953125, -0.47119140625, -0.939453125, 0, 
403, 2800518074, -0.19856298, -0.7286987, 0.4501402, -0.47640008, 8.806710243225098, -1.4425822496414185, -4.602324485778809, 2.631967782974243, -0.4118138253688812, -1.5782164335250854, -0.58251953125, -0.474609375, -0.94091796875, 0, 
404, 2800534741, -0.19830742, -0.7290709, 0.44968486, -0.47636706, 8.860883712768555, -1.4537972211837769, -4.517426490783691, 3.393881320953369, -1.5815714597702026, -2.433206558227539, -0.58154296875, -0.47216796875, -0.94091796875, 0, 
405, 2800551408, -0.19803718, -0.7294852, 0.4491432, -0.4763562, 8.884285926818848, -1.4413049221038818, -4.654075622558594, 3.8768606185913086, -1.5362627506256104, -2.9178504943847656, -0.58056640625, -0.4765625, -0.9404296875, 0, 
406, 2800568075, -0.19783455, -0.7298119, 0.44862086, -0.4764324, 8.80111312866211, -1.4384682178497314, -4.688641548156738, 3.622411012649536, -0.6312891244888306, -2.6528613567352295, -0.5830078125, -0.47314453125, -0.9404296875, 0, 
407, 2800584742, -0.19761926, -0.73007405, 0.44818974, -0.47652534, 8.744911193847656, -1.429768681526184, -4.667035102844238, 3.3517098426818848, -0.4974755048751831, -1.9315305948257446, -0.583984375, -0.47509765625, -0.94140625, 0, 
408, 2800601409, -0.19733621, -0.7302909, 0.44776553, -0.47670949, 8.712597846984863, -1.4166755676269531, -4.749872207641602, 3.8860669136047363, -0.10949428379535675, -1.4103888273239136, -0.58203125, -0.47607421875, -0.94189453125, 0, 
409, 2800618076, -0.19709748, -0.73045623, 0.44730014, -0.47699156, 8.656956672668457, -1.4168859720230103, -4.794589996337891, 4.031906604766846, 0.7436584234237671, -1.4716546535491943, -0.58056640625, -0.47802734375, -0.94140625, 0, 
410, 2800634743, -0.19689712, -0.73061645, 0.446841, -0.47725946, 8.631632804870605, -1.383486032485962, -4.759274959564209, 3.7662768363952637, 0.7989304661750793, -1.5689058303833008, -0.58349609375, -0.47802734375, -0.94189453125, 0, 
411, 2800651410, -0.19670007, -0.7308215, 0.44637313, -0.4774645, 8.670074462890625, -1.3419275283813477, -4.711451530456543, 3.646409273147583, 0.3573547899723053, -1.8471750020980835, -0.58251953125, -0.47607421875, -0.94189453125, 0, 
412, 2800668077, -0.19649285, -0.7311079, 0.44584018, -0.4776089, 8.644614219665527, -1.3653877973556519, -4.7222580909729, 3.836622714996338, -0.15786388516426086, -2.473034381866455, -0.58203125, -0.4775390625, -0.9404296875, 0, 
413, 2800684744, -0.19636007, -0.7313588, 0.4452508, -0.47782913, 8.6158447265625, -1.3223756551742554, -4.801880836486816, 3.8312571048736572, 0.645548939704895, -2.789428472518921, -0.58349609375, -0.478515625, -0.94140625, 0, 
414, 2800701411, -0.19632125, -0.7315065, 0.44476932, -0.47806752, 8.586319923400879, -1.3363845348358154, -4.764406681060791, 2.9206740856170654, 1.2180439233779907, -2.2147302627563477, -0.5830078125, -0.47998046875, -0.94189453125, 0, 
415, 2800718078, -0.19630833, -0.73160857, 0.44436407, -0.47829354, 8.60523796081543, -1.297122597694397, -4.7364301681518555, 2.439859390258789, 1.2817682027816772, -1.7934138774871826, -0.58447265625, -0.48193359375, -0.94384765625, 0, 
416, 2800734745, -0.19629735, -0.7316949, 0.443972, -0.4785299, 8.680156707763672, -1.282765507698059, -4.687887191772461, 2.397918462753296, 1.3733720779418945, -1.672099232673645, -0.58349609375, -0.48095703125, -0.94384765625, 0, 
417, 2800751412, -0.19632223, -0.7317848, 0.44357193, -0.47875336, 8.746521949768066, -1.2875088453292847, -4.637105941772461, 2.2077953815460205, 1.4176692962646484, -1.8580220937728882, -0.58251953125, -0.48095703125, -0.94189453125, 0, 
418, 2800768079, -0.19642541, -0.7318101, 0.4431372, -0.4790749, 8.762056350708008, -1.3015040159225464, -4.694395542144775, 2.14103627204895, 2.408599376678467, -1.9611902236938477, -0.58544921875, -0.4814453125, -0.94580078125, 0, 
419, 2800784746, -0.19665793, -0.7317331, 0.4426601, -0.47953776, 8.785770416259766, -1.3160793781280518, -4.699649810791016, 1.9223034381866455, 3.907594919204712, -2.0975263118743896, -0.58447265625, -0.4814453125, -0.9443359375, 0, 
420, 2800801413, -0.19694948, -0.73157907, 0.44223413, -0.4800459, 8.780418395996094, -1.295439600944519, -4.652836322784424, 1.4903326034545898, 4.500964641571045, -1.7389488220214844, -0.58251953125, -0.484375, -0.94873046875, 0, 
421, 2800818080, -0.1973672, -0.7313516, 0.44194984, -0.48048264, 8.84423828125, -1.2730554342269897, -4.4913859367370605, 0.0708383321762085, 4.575562000274658, -1.3166723251342773, -0.5849609375, -0.48193359375, -0.94482421875, 0, 
422, 2800834747, -0.19763322, -0.7312279, 0.44172037, -0.48077255, 8.966170310974121, -1.328181505203247, -4.447526454925537, 0.34781408309936523, 2.9594898223876953, -1.0537577867507935, -0.5810546875, -0.482421875, -0.947265625, 0, 
423, 2800851414, -0.19792311, -0.7311154, 0.4410954, -0.4813976, 8.878059387207031, -1.3262828588485718, -4.846950054168701, 2.5691912174224854, 5.215919017791748, -2.700270414352417, -0.5849609375, -0.48388671875, -0.94677734375, 0, 
424, 2800868081, -0.19842938, -0.7308957, 0.44030225, -0.4822483, 8.704102516174316, -1.3027855157852173, -4.816523551940918, 2.5749924182891846, 7.59126615524292, -3.6291537284851074, -0.5830078125, -0.4833984375, -0.951171875, 0, 
425, 2800884748, -0.1990412, -0.7306167, 0.4398566, -0.48282522, 8.730158805847168, -1.3070127964019775, -4.423221588134766, -0.016801932826638222, 6.25653600692749, -2.4273412227630615, -0.58154296875, -0.4853515625, -0.95263671875, 0, 
426, 2800901415, -0.19976096, -0.7301466, 0.439667, -0.48341164, 8.720831871032715, -1.3130995035171509, -4.338831901550293, -1.641607642173767, 6.9155378341674805, -0.9077141284942627, -0.5810546875, -0.48828125, -0.95361328125, 0, 
427, 2800918082, -0.20003757, -0.7300112, 0.43951005, -0.48364434, 8.817373275756836, -1.3193981647491455, -4.411977291107178, -0.13467156887054443, 2.6431217193603516, -0.7692005038261414, -0.58056640625, -0.4833984375, -0.95458984375, 0, 
428, 2800934749, -0.20033336, -0.72986037, 0.43909153, -0.48412937, 8.818035125732422, -1.3554092645645142, -4.717075824737549, 1.3809151649475098, 4.377050399780273, -1.752651572227478, -0.58154296875, -0.4873046875, -0.95703125, 0, 
429, 2800951416, -0.2006115, -0.729777, 0.43869674, -0.48449767, 8.864867210388184, -1.4024709463119507, -4.23155403137207, 1.1290653944015503, 3.481950283050537, -1.9385995864868164, -0.58154296875, -0.48388671875, -0.95556640625, 0, 
430, 2800968083, -0.20070209, -0.72999567, 0.43819368, -0.4845861, 8.932491302490234, -1.3832719326019287, -4.321311950683594, 2.004648447036743, 0.6553585529327393, -3.15390944480896, -0.58251953125, -0.4892578125, -0.958984375, 0, 
431, 2800984750, -0.20088, -0.73023707, 0.4376803, -0.48461246, 8.970565795898438, -1.3336055278778076, -4.429642200469971, 1.4428082704544067, 0.5452880263328552, -3.6509628295898438, -0.5810546875, -0.4892578125, -0.95703125, 0, 
432, 2801001417, -0.2010749, -0.73037386, 0.43732476, -0.48464626, 8.973431587219238, -1.2871270179748535, -4.450263500213623, 0.7112582921981812, 0.7633417844772339, -2.5899949073791504, -0.583984375, -0.48828125, -0.95751953125, 0, 
433, 2801018084, -0.20132484, -0.73031485, 0.4369874, -0.48493594, 8.914676666259766, -1.2626075744628906, -4.6147847175598145, 0.8733481764793396, 2.8417482376098633, -1.739998698234558, -0.58251953125, -0.4892578125, -0.95654296875, 0, 
434, 2801034751, -0.20163588, -0.73014164, 0.4365303, -0.48547894, 8.858814239501953, -1.2630083560943604, -4.5532073974609375, 1.5674015283584595, 4.842843055725098, -1.8505561351776123, -0.58447265625, -0.48974609375, -0.95947265625, 0, 
435, 2801051418, -0.20193735, -0.7300303, 0.43592986, -0.48606, 8.79058837890625, -1.2619812488555908, -4.496619701385498, 2.2940590381622314, 4.997671604156494, -2.6714813709259033, -0.58251953125, -0.4892578125, -0.958984375, 0, 
436, 2801068085, -0.20223643, -0.7300274, 0.4352505, -0.48654863, 8.746896743774414, -1.2435272932052612, -4.432762145996094, 2.4441492557525635, 4.2729597091674805, -3.5130631923675537, -0.58349609375, -0.4912109375, -0.9609375, 0, 
437, 2801084752, -0.20250767, -0.73014176, 0.43461186, -0.48683482, 8.708621978759766, -1.2350764274597168, -4.465782165527344, 2.0047507286071777, 2.725889205932617, -3.847719192504883, -0.58349609375, -0.49072265625, -0.95947265625, 0, 
438, 2801101419, -0.20282194, -0.73017824, 0.4340794, -0.48712465, 8.637401580810547, -1.2210599184036255, -4.372882843017578, 1.3354783058166504, 2.9853463172912598, -3.2212073802948, -0.58251953125, -0.49365234375, -0.9599609375, 0, 
439, 2801118086, -0.20295402, -0.7303934, 0.4336728, -0.4871089, 8.6947603225708, -1.196150779724121, -4.460458755493164, 1.1652432680130005, 0.13341014087200165, -2.938826560974121, -0.58154296875, -0.49267578125, -0.9609375, 0, 
440, 2801134753, -0.2031613, -0.7305249, 0.43336183, -0.48710197, 8.693160057067871, -1.2625545263290405, -4.569632053375244, 0.37790894508361816, 0.5492451190948486, -2.4484074115753174, -0.5830078125, -0.49560546875, -0.96142578125, 0, 
441, 2801151420, -0.20336257, -0.7306214, 0.43315324, -0.48705867, 8.755955696105957, -1.2675813436508179, -4.3205437660217285, -0.0923081710934639, 0.32300812005996704, -1.860634446144104, -0.58251953125, -0.494140625, -0.9638671875, 0, 
442, 2801168087, -0.20346369, -0.7307687, 0.43294156, -0.48698416, 8.81287670135498, -1.2208552360534668, -4.371737957000732, 0.39916113018989563, -0.2973058521747589, -1.7356382608413696, -0.58203125, -0.49560546875, -0.9619140625, 0, 
443, 2801184754, -0.20354791, -0.7308609, 0.4327551, -0.4869763, 8.81705093383789, -1.1923680305480957, -4.375067710876465, 0.521365761756897, 0.13562564551830292, -1.2951446771621704, -0.5859375, -0.49560546875, -0.96044921875, 0, 
444, 2801201421, -0.2035519, -0.7309855, 0.43267643, -0.48685738, 8.726163864135742, -1.195812463760376, -4.438737392425537, 0.27763527631759644, -0.9206613898277283, -0.7369030117988586, -0.58349609375, -0.49609375, -0.9609375, 0, 
445, 2801218088, -0.2035039, -0.7311173, 0.4326843, -0.48667255, 8.671812057495117, -1.2014158964157104, -4.507383346557617, 0.06373079121112823, -1.55161714553833, -0.24210403859615326, -0.58251953125, -0.498046875, -0.962890625, 0, 
446, 2801234755, -0.20342347, -0.73130965, 0.43274623, -0.4863619, 8.680034637451172, -1.2076661586761475, -4.475677490234375, -0.24323101341724396, -2.5580556392669678, -0.21761831641197205, -0.5810546875, -0.49658203125, -0.9609375, 0, 
447, 2801251422, -0.2033088, -0.73158526, 0.43283007, -0.48592058, 8.69875717163086, -1.232913613319397, -4.471859455108643, -0.4172693192958832, -3.6262969970703125, -0.4235187768936157, -0.58544921875, -0.4970703125, -0.96044921875, 0, 
448, 2801268089, -0.20320782, -0.7318887, 0.43288326, -0.48545858, 8.727192878723145, -1.2385213375091553, -4.496768951416016, -0.4050520658493042, -3.739121437072754, -0.7351998090744019, -0.5859375, -0.49609375, -0.958984375, 0, 
449, 2801284756, -0.20310946, -0.73218906, 0.43292737, -0.4850071, 8.73772144317627, -1.2233093976974487, -4.470792770385742, -0.36295756697654724, -3.6555728912353516, -0.7652563452720642, -0.5849609375, -0.498046875, -0.95947265625, 0, 
450, 2801301423, -0.20295054, -0.7325085, 0.43300956, -0.4845176, 8.7625150680542, -1.205741047859192, -4.468319416046143, -0.27113601565361023, -4.144531726837158, -0.48180049657821655, -0.58447265625, -0.49755859375, -0.958984375, 0, 
451, 2801318090, -0.20278603, -0.7327953, 0.4331106, -0.48406252, 8.750943183898926, -1.2147074937820435, -4.519249439239502, -0.24875055253505707, -3.9047200679779053, -0.22354765236377716, -0.5849609375, -0.4970703125, -0.9560546875, 0, 
452, 2801334757, -0.20261396, -0.73305625, 0.43321225, -0.48364806, 8.751392364501953, -1.222321629524231, -4.529557228088379, -0.12814034521579742, -3.6374006271362305, -0.06075332686305046, -0.5849609375, -0.49755859375, -0.95703125, 0, 
453, 2801351424, -0.20244372, -0.73329026, 0.43329757, -0.4832878, 8.747527122497559, -1.210724949836731, -4.5186896324157715, 0.04126846045255661, -3.2474467754364014, 0.005730841308832169, -0.58447265625, -0.498046875, -0.95556640625, 0, 
454, 2801368091, -0.20227258, -0.7334997, 0.43340474, -0.4829458, 8.746173858642578, -1.1887376308441162, -4.540688514709473, -0.0069154296070337296, -3.105053424835205, 0.2182266116142273, -0.58544921875, -0.4951171875, -0.95751953125, 0, 
455, 2801384758, -0.2020744, -0.73369896, 0.43356133, -0.48258513, 8.770739555358887, -1.1818193197250366, -4.532384395599365, -0.10400036722421646, -3.3162682056427, 0.561116635799408, -0.58349609375, -0.4970703125, -0.9541015625, 0, 
456, 2801401425, -0.2018481, -0.73390484, 0.43377364, -0.4821761, 8.798174858093262, -1.1850382089614868, -4.538514614105225, -0.28220078349113464, -3.7430918216705322, 0.8485296964645386, -0.5859375, -0.49658203125, -0.95166015625, 0, 
457, 2801418092, -0.20162766, -0.7341, 0.43392766, -0.48183244, 8.834233283996582, -1.1908432245254517, -4.563465595245361, 0.06164335831999779, -3.2793989181518555, 0.6576636433601379, -0.5859375, -0.49658203125, -0.95361328125, 0, 
458, 2801434759, -0.20148557, -0.7342599, 0.43407744, -0.4815132, 8.822748184204102, -1.169659972190857, -4.498115539550781, -0.2957882583141327, -2.7993528842926025, 0.5155516266822815, -0.5859375, -0.4951171875, -0.95068359375, 0, 
459, 2801451426, -0.20132914, -0.73444104, 0.4343961, -0.48101473, 8.859659194946289, -1.2209973335266113, -4.399056911468506, -1.2884212732315063, -4.051416873931885, 1.1041828393936157, -0.58544921875, -0.49609375, -0.95166015625, 0, 
460, 2801468093, -0.20109573, -0.7346017, 0.43447146, -0.48079902, 8.898749351501465, -1.239263653755188, -4.6874260902404785, 0.7215802669525146, -2.4482924938201904, 0.5829771161079407, -0.583984375, -0.498046875, -0.95166015625, 0, 
461, 2801484760, -0.20095591, -0.73476774, 0.43443432, -0.48063746, 8.789776802062988, -1.215170979499817, -4.661149978637695, 0.7897740006446838, -1.758042812347412, -0.2356368601322174, -0.58740234375, -0.498046875, -0.951171875, 0, 
462, 2801501427, -0.20109871, -0.73465824, 0.43446484, -0.48071736, 8.670055389404297, -1.2364691495895386, -4.804049015045166, -0.5210903286933899, 1.1218042373657227, 0.3278745710849762, -0.5869140625, -0.49560546875, -0.95068359375, 0, 
463, 2801518094, -0.20128465, -0.73444265, 0.43482047, -0.48064727, 8.758552551269531, -1.2123066186904907, -4.209404468536377, -2.4082601070404053, 0.39579951763153076, 1.9378890991210938, -0.58642578125, -0.4931640625, -0.9521484375, 0, 
464, 2801534761, -0.2010839, -0.73450595, 0.43520993, -0.48028204, 8.852025985717773, -1.218116283416748, -4.53032922744751, -1.063785195350647, -3.2195169925689697, 2.1440072059631348, -0.58740234375, -0.49365234375, -0.951171875, 0, 
465, 2801551428, -0.20097235, -0.73445636, 0.4353128, -0.48031133, 8.811857223510742, -1.1987764835357666, -4.777589321136475, 0.4563222825527191, -0.19153177738189697, 1.2855974435806274, -0.587890625, -0.49560546875, -0.94921875, 0, 
466, 2801568095, -0.20096862, -0.73443824, 0.43536377, -0.48029432, 8.807777404785156, -1.2834044694900513, -4.448995113372803, -0.011897098273038864, -0.13570886850357056, 0.5082903504371643, -0.5849609375, -0.49462890625, -0.94775390625, 0, 
467, 2801584762, -0.20075573, -0.734713, 0.43536952, -0.47995773, 8.909565925598145, -1.3287183046340942, -4.393435955047607, 0.6420527100563049, -3.278707265853882, -0.3467831313610077, -0.58544921875, -0.4970703125, -0.94775390625, 0, 
468, 2801601429, -0.20053464, -0.7350483, 0.4351281, -0.4797557, 8.904489517211914, -1.2492930889129639, -4.657032489776611, 1.9852079153060913, -2.483304738998413, -1.5633606910705566, -0.5869140625, -0.49560546875, -0.9482421875, 0, 
469, 2801618096, -0.20039335, -0.73530495, 0.43489823, -0.4796298, 8.75612735748291, -1.2070703506469727, -4.679646015167236, 1.6623345613479614, -1.6159435510635376, -1.4288043975830078, -0.5849609375, -0.4951171875, -0.9482421875, 0, 
470, 2801634763, -0.20023215, -0.7354398, 0.43486303, -0.47952238, 8.671103477478027, -1.2210876941680908, -4.729718208312988, 1.0094926357269287, -1.4497814178466797, 0.010610061697661877, -0.587890625, -0.49658203125, -0.94970703125, 0, 
471, 2801651430, -0.20013797, -0.73540044, 0.43493438, -0.4795572, 8.653329849243164, -1.206202507019043, -4.718653202056885, 0.5048454999923706, -0.10175924003124237, 1.0446715354919434, -0.58642578125, -0.4970703125, -0.94677734375, 0, 
472, 2801668097, -0.20011407, -0.7352731, 0.43502244, -0.47968256, 8.630449295043945, -1.1984339952468872, -4.646692752838135, 0.2449406385421753, 0.833981454372406, 1.2853412628173828, -0.5859375, -0.498046875, -0.9482421875, 0, 
473, 2801684764, -0.20008865, -0.73515487, 0.43501836, -0.4798783, 8.654891967773438, -1.1921614408493042, -4.627387046813965, 0.7779025435447693, 1.2823959589004517, 0.8949269652366638, -0.5859375, -0.4951171875, -0.94775390625, 0, 
474, 2801701431, -0.19997647, -0.7351763, 0.43495524, -0.4799494, 8.689513206481934, -1.1993708610534668, -4.559814929962158, 1.2306452989578247, 0.013260974548757076, 0.29334861040115356, -0.58544921875, -0.4970703125, -0.9482421875, 0, 
475, 2801718098, -0.19990999, -0.7352517, 0.4349807, -0.47983834, 8.687965393066406, -1.2336938381195068, -4.529281139373779, 0.2374105006456375, -1.0707260370254517, 0.17809148132801056, -0.5849609375, -0.4970703125, -0.9462890625, 0, 
476, 2801734765, -0.19966957, -0.7354238, 0.4350332, -0.4796271, 8.726038932800293, -1.1970632076263428, -4.5839948654174805, 0.8605802655220032, -2.4532227516174316, 0.46223875880241394, -0.5859375, -0.4970703125, -0.9501953125, 0, 
477, 2801751432, -0.19953519, -0.7355104, 0.43501192, -0.4795695, 8.697565078735352, -1.2284663915634155, -4.791685104370117, 0.9098719358444214, -0.9765609502792358, 0.20512570440769196, -0.58544921875, -0.49560546875, -0.947265625, 0, 
478, 2801768099, -0.19949283, -0.7355185, 0.4349683, -0.4796141, 8.710084915161133, -1.2635529041290283, -4.695006370544434, 0.7164576649665833, 0.1053130105137825, 0.16433748602867126, -0.5869140625, -0.49560546875, -0.94921875, 0, 
479, 2801784766, -0.19941196, -0.7355716, 0.43486816, -0.47965738, 8.725931167602539, -1.239063024520874, -4.585355758666992, 1.154908537864685, -0.08794119954109192, -0.13114982843399048, -0.5859375, -0.49658203125, -0.94677734375, 0, 
480, 2801801433, -0.1992327, -0.73570347, 0.43479818, -0.479593, 8.78223991394043, -1.1994423866271973, -4.571351051330566, 1.3410234451293945, -1.2269763946533203, -0.03754821792244911, -0.5859375, -0.4951171875, -0.9482421875, 0, 
481, 2801818100, -0.19905649, -0.7358152, 0.43475077, -0.47953793, 8.754173278808594, -1.1894136667251587, -4.597599029541016, 1.250059723854065, -1.1367812156677246, 0.13944192230701447, -0.58837890625, -0.49609375, -0.9462890625, 0, 
482, 2801834767, -0.19890368, -0.73589444, 0.4347605, -0.4794707, 8.757134437561035, -1.2048618793487549, -4.547488212585449, 0.8618481755256653, -1.0981574058532715, 0.4326305389404297, -0.58740234375, -0.49462890625, -0.9482421875, 0, 
483, 2801851434, -0.19868591, -0.7360284, 0.4348367, -0.47928607, 8.83375358581543, -1.2214126586914062, -4.623207092285156, 0.6952503323554993, -2.1571271419525146, 0.6584064960479736, -0.58544921875, -0.49560546875, -0.94580078125, 0, 
484, 2801868101, -0.19862515, -0.7359698, 0.43489704, -0.47934645, 8.83087158203125, -1.1708226203918457, -4.7936692237854, 0.4229232966899872, 0.2071106731891632, 0.9717777967453003, -0.5859375, -0.49658203125, -0.94580078125, 0, 
485, 2801884768, -0.19862543, -0.73581374, 0.4350115, -0.4794821, 8.735821723937988, -1.1837729215621948, -4.692196846008301, 0.028308436274528503, 1.018123984336853, 1.4379547834396362, -0.58837890625, -0.49560546875, -0.94580078125, 0, 
486, 2801901435, -0.19857748, -0.7356951, 0.43513107, -0.4795755, 8.68231201171875, -1.252899408340454, -4.703303337097168, 0.17964106798171997, 0.5298563241958618, 1.4535270929336548, -0.587890625, -0.494140625, -0.947265625, 0, 
487, 2801918102, -0.19846374, -0.73569524, 0.43521506, -0.47954616, 8.673405647277832, -1.283386468887329, -4.631444454193115, 0.42408865690231323, -0.6305719017982483, 0.9674108028411865, -0.5869140625, -0.4931640625, -0.94677734375, 0, 
488, 2801934769, -0.19826612, -0.7358046, 0.43526804, -0.47941202, 8.735417366027832, -1.2600005865097046, -4.675812244415283, 0.7870334386825562, -1.7295101881027222, 0.6177462935447693, -0.58642578125, -0.494140625, -0.947265625, 0, 
489, 2801951436, -0.19808134, -0.73590356, 0.43529075, -0.479316, 8.793774604797363, -1.2280782461166382, -4.630867958068848, 0.9201170206069946, -1.421581745147705, 0.5052041411399841, -0.58642578125, -0.49462890625, -0.9462890625, 0, 
490, 2801968103, -0.19790262, -0.7359799, 0.43531764, -0.4792481, 8.820143699645996, -1.2115980386734009, -4.60479736328125, 0.930605411529541, -1.1940001249313354, 0.6122139692306519, -0.5869140625, -0.49560546875, -0.94677734375, 0, 
491, 2801984770, -0.19779865, -0.7359969, 0.43533134, -0.4792524, 8.820597648620605, -1.2003321647644043, -4.64216947555542, 0.7306599617004395, -0.3904528319835663, 0.5750499367713928, -0.5849609375, -0.49462890625, -0.9453125, 0, 
492, 2802001437, -0.19779316, -0.7359216, 0.43535903, -0.47934502, 8.762642860412598, -1.1715704202651978, -4.599998474121094, 0.3257999122142792, 0.6353678107261658, 0.7177125811576843, -0.58642578125, -0.49365234375, -0.94873046875, 0, 
493, 2802018104, -0.19786415, -0.7357595, 0.43547973, -0.47945514, 8.744250297546387, -1.1619219779968262, -4.5543413162231445, -0.43454509973526, 1.1133778095245361, 1.2205029726028442, -0.58544921875, -0.4951171875, -0.94580078125, 0, 
494, 2802034771, -0.19797629, -0.73550093, 0.43573922, -0.47956973, 8.749162673950195, -1.1721359491348267, -4.535336971282959, -1.2175253629684448, 1.3877537250518799, 2.0812175273895264, -0.5849609375, -0.49560546875, -0.94921875, 0, 
495, 2802051438, -0.19820923, -0.7351162, 0.43631184, -0.47954288, 8.805394172668457, -1.1971721649169922, -4.326834678649902, -3.456446886062622, 1.0242838859558105, 3.452406406402588, -0.5869140625, -0.4921875, -0.94677734375, 0, 
496, 2802068105, -0.19824848, -0.7347901, 0.43688387, -0.4795059, 8.854434967041016, -1.2597270011901855, -4.570456027984619, -2.426419496536255, 0.1991451531648636, 3.8981316089630127, -0.58642578125, -0.4912109375, -0.94677734375, 0, 
497, 2802084772, -0.19849265, -0.7343862, 0.4372322, -0.47970614, 8.80507755279541, -1.2741800546646118, -4.618631839752197, -2.1159162521362305, 2.5749659538269043, 2.649268388748169, -0.5849609375, -0.49267578125, -0.9482421875, 0, 
498, 2802101439, -0.19888312, -0.7339059, 0.4375258, -0.4800111, 8.798748016357422, -1.2859076261520386, -4.658641815185547, -2.466733694076538, 3.869137763977051, 2.2640669345855713, -0.5869140625, -0.49169921875, -0.94677734375, 0, 
499, 2802118106, -0.19950826, -0.73332953, 0.43798333, -0.48021555, 8.788891792297363, -1.2991597652435303, -4.355307579040527, -4.623016357421875, 4.1611738204956055, 2.4667272567749023, -0.5830078125, -0.49169921875, -0.94677734375, 0, 
500, 2802134773, -0.20000479, -0.73280776, 0.43851495, -0.48032036, 8.914873123168945, -1.2925958633422852, -4.265956878662109, -4.440306663513184, 2.9890849590301514, 2.9626271724700928, -0.5849609375, -0.48974609375, -0.94873046875, 0, 
501, 2802151440, -0.20047566, -0.7323065, 0.43880033, -0.4806278, 8.841767311096191, -1.2909443378448486, -4.78327751159668, -2.864396572113037, 4.203511714935303, 2.025740385055542, -0.5849609375, -0.48779296875, -0.94873046875, 0, 
502, 2802168107, -0.20115966, -0.73161495, 0.4389037, -0.48130035, 8.703328132629395, -1.333847999572754, -4.705783367156982, -2.4951000213623047, 7.564205646514893, 1.4813939332962036, -0.5849609375, -0.4873046875, -0.95068359375, 0, 
503, 2802184774, -0.20168044, -0.73115075, 0.4390041, -0.48169613, 8.754855155944824, -1.3402049541473389, -4.289735317230225, -2.184840202331543, 4.931577682495117, 0.9378283023834229, -0.58544921875, -0.4892578125, -0.95361328125, 0, 
504, 2802201441, -0.20202118, -0.73105776, 0.4389829, -0.4817138, 8.852234840393066, -1.2290016412734985, -4.350521087646484, -1.521996259689331, 1.429976224899292, -0.7124941349029541, -0.5849609375, -0.4892578125, -0.95166015625, 0, 
505, 2802218108, -0.20240957, -0.73103595, 0.43900847, -0.4815605, 8.835261344909668, -1.186686635017395, -4.4633469581604, -2.309893846511841, 0.40818318724632263, -1.099450707435608, -0.5849609375, -0.4892578125, -0.951171875, 0, 
506, 2802234775, -0.2028248, -0.73090255, 0.4392587, -0.48136017, 8.765176773071289, -1.2099204063415527, -4.5243964195251465, -3.4968504905700684, 0.31303203105926514, 0.21727892756462097, -0.5849609375, -0.48876953125, -0.953125, 0, 
507, 2802251442, -0.20327273, -0.73055285, 0.4396438, -0.4813502, 8.748954772949219, -1.2657192945480347, -4.555539608001709, -3.82954740524292, 1.8944244384765625, 1.7042373418807983, -0.58349609375, -0.48828125, -0.95361328125, 0, 
