sep=,
DeviceTag:,Xsens_2,,,,,,,,,,,,,,,,,
FirmwareVersion:,2.2.1,,,,,,,,,,,,,,,,,
AppVersion:,2023.0.0,,,,,,,,,,,,,,,,,
StartTime:,2023-07-04 23:51:53.000 +0200,,,,,,,,,,,,,,,,,
© Movella Technologies B. V. 2005-2023,,,,,,,,,,,,,,,,,,,

PacketCounter,SampleTimeFine,Quat_W,Quat_X,Quat_Y,Quat_Z,Acc_X,Acc_Y,Acc_Z,Gyr_X,Gyr_Y,Gyr_Z,Mag_X,Mag_Y,Mag_Z,Status,
0, 158103962, 0.6555163, -0.3285606, -0.60134596, -0.31737944, 0.0, 0.0, 0.0, 0.0, 0.0, 0.0, -1.04248046875, 0.16845703125, 0.0869140625, 0, 
1, 158120629, 0.6558659, -0.32851475, -0.60111463, -0.31714195, 9.910470008850098, -0.4588369131088257, 0.5675827264785767, 2.0613932609558105, 1.187462568283081, 0.10938543826341629, -1.043212890625, 0.169677734375, 0.08984375, 0, 
2, 158137296, 0.65580314, -0.32838756, -0.6012601, -0.31712806, 9.913965225219727, -0.4650457799434662, 0.5572837591171265, 2.140126943588257, 0.9413500428199768, -0.034410662949085236, -1.04345703125, 0.168701171875, 0.08447265625, 0, 
3, 158153963, 0.65571433, -0.3281324, -0.60155344, -0.31701937, 9.944852828979492, -0.47788888216018677, 0.6091241240501404, 2.064069986343384, 1.0729864835739136, -0.20602858066558838, -1.04296875, 0.169189453125, 0.086181640625, 0, 
4, 158170630, 0.65573823, -0.32784286, -0.60172296, -0.3169477, 9.964016914367676, -0.4859926402568817, 0.579393208026886, 2.124067783355713, 0.9087194204330444, -0.37034687399864197, -1.04345703125, 0.16943359375, 0.08740234375, 0, 
5, 158187297, 0.6557337, -0.32766187, -0.60188043, -0.31684542, 9.98045825958252, -0.44290629029273987, 0.5684745907783508, 1.7984533309936523, 0.4780418574810028, -0.19751231372356415, -1.0419921875, 0.16845703125, 0.087158203125, 0, 
6, 158203964, 0.6556895, -0.32745355, -0.6020645, -0.31680277, 10.000439643859863, -0.46598583459854126, 0.6180936694145203, 1.8134366273880005, 0.41768547892570496, -0.3866492807865143, -1.041015625, 0.169921875, 0.08642578125, 0, 
7, 158220631, 0.6556977, -0.32720205, -0.60222656, -0.31673747, 9.967469215393066, -0.4949565827846527, 0.6228253245353699, 1.2611628770828247, 0.2853574752807617, -0.5066192150115967, -1.042724609375, 0.168701171875, 0.0888671875, 0, 
8, 158237298, 0.6556518, -0.32707918, -0.6023129, -0.31679517, 9.999614715576172, -0.4590185582637787, 0.6050959229469299, 0.9746848940849304, 0.0074468920938670635, -0.7659221291542053, -1.04443359375, 0.169677734375, 0.08349609375, 0, 
9, 158253965, 0.65571046, -0.32675833, -0.60249466, -0.31665948, 9.972225189208984, -0.4470180571079254, 0.6170856356620789, 1.3402549028396606, 0.024671435356140137, -0.790894627571106, -1.041259765625, 0.170166015625, 0.088623046875, 0, 
10, 158270632, 0.6557184, -0.32650453, -0.602658, -0.31659383, 9.925712585449219, -0.45042330026626587, 0.593061089515686, 1.503484845161438, -0.24335908889770508, -0.8102322220802307, -1.046630859375, 0.169921875, 0.089599609375, 0, 
11, 158287299, 0.655712, -0.32622918, -0.6028358, -0.31655252, 9.91950511932373, -0.47779956459999084, 0.5891348719596863, 1.9005199670791626, -0.26139041781425476, -1.075208306312561, -1.045654296875, 0.167724609375, 0.0859375, 0, 
12, 158303966, 0.6557808, -0.32583082, -0.6030474, -0.31641704, 9.934341430664062, -0.518611490726471, 0.6141656041145325, 2.734097957611084, -0.004956057760864496, -1.2268483638763428, -1.04052734375, 0.16943359375, 0.090087890625, 0, 
13, 158320633, 0.65581286, -0.32551175, -0.6032601, -0.31627336, 9.972018241882324, -0.4177824556827545, 0.5774317383766174, 2.329455852508545, -0.4148232638835907, -1.1665176153182983, -1.0419921875, 0.167724609375, 0.08984375, 0, 
14, 158337300, 0.6557733, -0.32525262, -0.603466, -0.3162292, 9.942017555236816, -0.3789917528629303, 0.5602489113807678, 2.0577175617218018, -0.5561285018920898, -1.3571271896362305, -1.043701171875, 0.169189453125, 0.08935546875, 0, 
15, 158353967, 0.65566605, -0.32502827, -0.60366166, -0.31630895, 9.934038162231445, -0.38997888565063477, 0.5700955986976624, 0.9811328053474426, -0.506964921951294, -1.7577226161956787, -1.041748046875, 0.169921875, 0.089599609375, 0, 
16, 158370634, 0.65557396, -0.32472658, -0.603916, -0.31632417, 9.932796478271484, -0.444461852312088, 0.5160384774208069, 0.1494821012020111, -0.5900909304618835, -1.912231206893921, -1.0439453125, 0.1689453125, 0.08984375, 0, 
17, 158387301, 0.6554588, -0.32447985, -0.60415626, -0.3163575, 9.933076858520508, -0.4342643618583679, 0.5362462997436523, 0.6527203917503357, -0.6386142373085022, -1.7950915098190308, -1.042724609375, 0.166015625, 0.08837890625, 0, 
18, 158403968, 0.6552551, -0.32441494, -0.6042934, -0.316584, 9.92509937286377, -0.4345230162143707, 0.5677117109298706, 1.1156572103500366, -0.5768876075744629, -1.7630759477615356, -1.041748046875, 0.16552734375, 0.08935546875, 0, 
19, 158420635, 0.65512806, -0.32419536, -0.60451293, -0.31665257, 9.92449951171875, -0.42499035596847534, 0.5724081993103027, 0.3018520176410675, -0.5622370839118958, -1.9014866352081299, -1.044677734375, 0.1650390625, 0.08935546875, 0, 
20, 158437302, 0.65495175, -0.3240271, -0.604712, -0.31680915, 9.929402351379395, -0.4080114960670471, 0.5576823949813843, 0.003067120909690857, -0.6397413015365601, -2.144679307937622, -1.04345703125, 0.164794921875, 0.0927734375, 0, 
21, 158453969, 0.65490997, -0.3236087, -0.60501844, -0.31673837, 9.941834449768066, -0.438353955745697, 0.5676441788673401, 0.5091100335121155, -0.450335294008255, -2.2388830184936523, -1.041748046875, 0.165283203125, 0.0908203125, 0, 
22, 158470636, 0.6548224, -0.3233219, -0.6052511, -0.31676766, 9.949585914611816, -0.44940343499183655, 0.5849694609642029, 1.260676383972168, -0.47781774401664734, -2.0047316551208496, -1.040283203125, 0.1640625, 0.09326171875, 0, 
23, 158487303, 0.65468657, -0.3231513, -0.60541135, -0.31691656, 9.944046020507812, -0.38484954833984375, 0.5309863090515137, 0.8080102801322937, -0.40967512130737305, -2.005333423614502, -1.0439453125, 0.164306640625, 0.091064453125, 0, 
24, 158503970, 0.6545435, -0.3229842, -0.6055888, -0.3170432, 9.942893028259277, -0.42705851793289185, 0.5384225249290466, 0.04782531037926674, -0.525495707988739, -1.9844717979431152, -1.0419921875, 0.16015625, 0.09521484375, 0, 
25, 158520637, 0.65413547, -0.32334888, -0.60546863, -0.31774247, 9.930867195129395, -0.4818853437900543, 0.6018509268760681, -0.09694407135248184, -0.3988409638404846, -1.9533268213272095, -1.040771484375, 0.1640625, 0.093017578125, 0, 
26, 158537304, 0.6539354, -0.3233714, -0.60553706, -0.31800082, 9.919068336486816, -0.45338356494903564, 0.5939337611198425, 0.04933646693825722, -0.5038914680480957, -1.667412519454956, -1.042724609375, 0.159912109375, 0.092041015625, 0, 
27, 158553971, 0.65369195, -0.32348585, -0.6055549, -0.31835043, 9.925264358520508, -0.39159467816352844, 0.5396318435668945, -0.3686563968658447, -0.509974479675293, -1.6822293996810913, -1.044189453125, 0.1591796875, 0.091796875, 0, 
28, 158570638, 0.6535907, -0.3233755, -0.60565066, -0.31848863, 9.941400527954102, -0.4190814197063446, 0.5609004497528076, -0.2629527747631073, -0.157697394490242, -1.656424641609192, -1.04541015625, 0.158203125, 0.08984375, 0, 
29, 158587305, 0.65360814, -0.32306078, -0.60586524, -0.31836402, 9.941158294677734, -0.45622771978378296, 0.5643644332885742, 0.4293648898601532, -0.27515724301338196, -1.449934959411621, -1.044677734375, 0.15966796875, 0.093017578125, 0, 
30, 158603972, 0.6535792, -0.32289496, -0.6059893, -0.31835523, 9.939491271972656, -0.4484056532382965, 0.5170416235923767, 1.4831866025924683, -0.23504772782325745, -1.1419036388397217, -1.0458984375, 0.160400390625, 0.09423828125, 0, 
31, 158620639, 0.65353644, -0.32279724, -0.60606533, -0.31839767, 9.92362117767334, -0.4020519256591797, 0.5391014218330383, 1.1890760660171509, -0.1096479743719101, -1.016465663909912, -1.044189453125, 0.15966796875, 0.093505859375, 0, 
32, 158637306, 0.65348935, -0.32268992, -0.6061648, -0.31841367, 9.936043739318848, -0.4340322017669678, 0.5327699780464172, 0.6324735283851624, -0.24402497708797455, -1.0418733358383179, -1.042236328125, 0.160888671875, 0.09375, 0, 
33, 158653973, 0.6533701, -0.32272807, -0.6061918, -0.31856823, 9.934208869934082, -0.4163780212402344, 0.5337401628494263, 0.7327088117599487, -0.28565841913223267, -0.9752035140991211, -1.041748046875, 0.158935546875, 0.095703125, 0, 
34, 158670640, 0.65328664, -0.3227319, -0.6062307, -0.3186615, 9.947676658630371, -0.45555779337882996, 0.5244324803352356, 0.8078309297561646, -0.23424093425273895, -0.8222828507423401, -1.0419921875, 0.1572265625, 0.097412109375, 0, 
35, 158687307, 0.6532189, -0.32271832, -0.6062718, -0.31873572, 9.9660005569458, -0.4438985586166382, 0.5412948727607727, 1.1968622207641602, -0.18497493863105774, -0.7898444533348083, -1.045654296875, 0.157958984375, 0.09521484375, 0, 
36, 158703974, 0.65325683, -0.32259578, -0.60634214, -0.31864834, 9.978109359741211, -0.4493146240711212, 0.5642010569572449, 2.3833961486816406, 0.010213064029812813, -0.3798491954803467, -1.046630859375, 0.156982421875, 0.09375, 0, 
37, 158720641, 0.65346396, -0.32225627, -0.60646313, -0.31833658, 9.949585914611816, -0.4368240535259247, 0.6064489483833313, 2.4646265506744385, 0.5368229150772095, -0.16312727332115173, -1.04248046875, 0.1591796875, 0.093994140625, 0, 
38, 158737308, 0.65359867, -0.3221326, -0.6064409, -0.31822747, 9.922765731811523, -0.42329248785972595, 0.5854848027229309, 2.196077585220337, 0.7592180371284485, 0.092557892203331, -1.044677734375, 0.15673828125, 0.097412109375, 0, 
39, 158753975, 0.65359277, -0.3222862, -0.6062363, -0.31847388, 9.930089950561523, -0.43423736095428467, 0.5663792490959167, 2.2402851581573486, 1.0353741645812988, -0.054657503962516785, -1.044189453125, 0.158935546875, 0.09814453125, 0, 
40, 158770642, 0.6537548, -0.3221531, -0.6061623, -0.31841674, 9.927956581115723, -0.4254843592643738, 0.5744928121566772, 2.0162250995635986, 1.218812346458435, -0.007017879281193018, -1.0458984375, 0.156494140625, 0.093994140625, 0, 
41, 158787309, 0.65389466, -0.32206762, -0.6060551, -0.3184201, 9.952746391296387, -0.44387659430503845, 0.5346211791038513, 2.0781826972961426, 1.2756725549697876, -0.018133793026208878, -1.04248046875, 0.157470703125, 0.0986328125, 0, 
42, 158803976, 0.65405923, -0.32200977, -0.60589296, -0.3184497, 9.93856143951416, -0.4313630163669586, 0.5766004920005798, 2.612950086593628, 1.5996861457824707, 0.19900430738925934, -1.043212890625, 0.161865234375, 0.094970703125, 0, 
43, 158820643, 0.6542693, -0.3218991, -0.60572827, -0.31844312, 9.944611549377441, -0.42450064420700073, 0.5615876913070679, 2.1826696395874023, 1.8633942604064941, 0.19377927482128143, -1.043212890625, 0.1572265625, 0.095458984375, 0, 
44, 158837310, 0.6547207, -0.32136562, -0.6057468, -0.31801876, 9.93283748626709, -0.4700263440608978, 0.5969856977462769, 3.0102286338806152, 2.1800954341888428, 0.21546043455600739, -1.044921875, 0.16064453125, 0.093994140625, 0, 
45, 158853977, 0.6550956, -0.32099378, -0.6056786, -0.31775194, 9.913373947143555, -0.40144437551498413, 0.5745779275894165, 2.6232333183288574, 2.190622091293335, 0.2738189399242401, -1.046875, 0.16064453125, 0.09521484375, 0, 
46, 158870644, 0.65529335, -0.3209438, -0.6054291, -0.31787017, 9.9122896194458, -0.42093828320503235, 0.5765565037727356, 2.6098251342773438, 2.2809197902679443, 0.13351257145404816, -1.044189453125, 0.159912109375, 0.090576171875, 0, 
47, 158887311, 0.65564346, -0.32064304, -0.60524476, -0.31780282, 9.927380561828613, -0.4366482198238373, 0.6411024332046509, 1.8616594076156616, 2.8726181983947754, -0.07265042513608932, -1.04150390625, 0.161376953125, 0.09423828125, 0, 
48, 158903978, 0.6556385, -0.32105795, -0.6046793, -0.31846973, 9.955580711364746, -0.4567587971687317, 0.6247348189353943, 1.7430723905563354, 2.8783810138702393, 0.14501912891864777, -1.044189453125, 0.16015625, 0.093505859375, 0, 
49, 158920645, 0.65607655, -0.32063904, -0.60455215, -0.3182308, 9.872417449951172, -0.4342282712459564, 0.6257167458534241, 2.2322299480438232, 2.888465642929077, 0.1995677351951599, -1.042236328125, 0.16162109375, 0.092529296875, 0, 
50, 158937312, 0.656369, -0.32041445, -0.6043296, -0.31827694, 9.8865327835083, -0.47711706161499023, 0.5752448439598083, 2.6594371795654297, 2.8045077323913574, -0.1939905881881714, -1.044921875, 0.161865234375, 0.09228515625, 0, 
51, 158953979, 0.65702635, -0.31953198, -0.6044349, -0.31760716, 9.881162643432617, -0.4744013249874115, 0.6248502135276794, 2.604844093322754, 2.9821958541870117, -0.11351550370454788, -1.045654296875, 0.160400390625, 0.0908203125, 0, 
52, 158970646, 0.6573265, -0.31932878, -0.60416806, -0.3176983, 9.92956829071045, -0.4715114235877991, 0.6901472210884094, 3.2791426181793213, 3.0613067150115967, -0.14285485446453094, -1.0419921875, 0.162353515625, 0.087890625, 0, 
53, 158987313, 0.657741, -0.31891954, -0.60401314, -0.31754556, 9.992450714111328, -0.47775107622146606, 0.6754924654960632, 3.0634515285491943, 3.029771089553833, -0.07215096801519394, -1.047607421875, 0.163818359375, 0.087890625, 0, 
54, 159003980, 0.65814674, -0.31849343, -0.6038857, -0.3173751, 10.040178298950195, -0.4957229793071747, 0.6413872241973877, 2.196923017501831, 2.9013619422912598, -0.21743902564048767, -1.040283203125, 0.16259765625, 0.087158203125, 0, 
55, 159020647, 0.6584841, -0.31818736, -0.60374856, -0.31724355, 10.049384117126465, -0.47934672236442566, 0.5818463563919067, 1.79586660861969, 2.4715681076049805, 9.284603875130415E-4, -1.043701171875, 0.162353515625, 0.085693359375, 0, 
56, 159037314, 0.65880567, -0.3178713, -0.6036546, -0.31707096, 10.002991676330566, -0.45234909653663635, 0.5800904035568237, 2.2607882022857666, 2.1509101390838623, 0.025234917178750038, -1.041748046875, 0.1611328125, 0.087158203125, 0, 
57, 159053981, 0.6590431, -0.31766176, -0.60354614, -0.31699398, 9.940502166748047, -0.4178769290447235, 0.6181676387786865, 1.9812895059585571, 1.829162836074829, -0.06044596806168556, -1.04541015625, 0.164306640625, 0.086181640625, 0, 
58, 159070648, 0.65942055, -0.31715763, -0.6036097, -0.31659263, 9.907505989074707, -0.48446643352508545, 0.5947616100311279, 2.7585582733154297, 1.6649982929229736, -0.05889640748500824, -1.0439453125, 0.161865234375, 0.084228515625, 0, 
59, 159087315, 0.65972155, -0.31683564, -0.60358006, -0.3163442, 9.907055854797363, -0.4686582088470459, 0.5968713164329529, 3.768505334854126, 1.6163854598999023, 0.2337350845336914, -1.04345703125, 0.163818359375, 0.0869140625, 0, 
60, 159103982, 0.66016114, -0.3162763, -0.6036546, -0.31584427, 9.911465644836426, -0.475289523601532, 0.5960920453071594, 4.457243919372559, 1.7686659097671509, 0.3238150179386139, -1.041748046875, 0.16357421875, 0.086181640625, 0, 
61, 159120649, 0.6604313, -0.3160666, -0.60354644, -0.31569627, 9.924657821655273, -0.4528375566005707, 0.5949373841285706, 4.0226664543151855, 1.7885346412658691, 0.4449950158596039, -1.042236328125, 0.16357421875, 0.086669921875, 0, 
62, 159137316, 0.660646, -0.31601262, -0.60333514, -0.3157049, 9.96277141571045, -0.4177022874355316, 0.5682894587516785, 4.360497951507568, 1.9649806022644043, 0.6322494149208069, -1.0439453125, 0.1650390625, 0.086181640625, 0, 
63, 159153983, 0.66093737, -0.31584346, -0.603168, -0.31558388, 9.955865859985352, -0.4482429027557373, 0.6021186113357544, 3.447719097137451, 2.1479129791259766, 0.6590210795402527, -1.042724609375, 0.168701171875, 0.08544921875, 0, 
64, 159170650, 0.6612975, -0.31552473, -0.6030922, -0.3152932, 9.967169761657715, -0.46362102031707764, 0.5701645612716675, 2.125053644180298, 2.0972769260406494, 0.5387567281723022, -1.043701171875, 0.16650390625, 0.0830078125, 0, 
65, 159187317, 0.6615317, -0.3154537, -0.60290086, -0.31523854, 9.964055061340332, -0.5008983016014099, 0.5977458357810974, 1.8804330825805664, 2.0019142627716064, 0.6450302600860596, -1.04248046875, 0.16748046875, 0.081787109375, 0, 
66, 159203984, 0.66171557, -0.31548387, -0.6026631, -0.31527698, 9.952363967895508, -0.47148239612579346, 0.600136935710907, 1.3458898067474365, 1.9788949489593506, 0.6671148538589478, -1.0419921875, 0.165771484375, 0.082275390625, 0, 
67, 159220651, 0.662049, -0.31521264, -0.6025959, -0.31497654, 9.901910781860352, -0.5131201148033142, 0.6097919940948486, 1.553851842880249, 1.874343752861023, 0.6700602173805237, -1.04296875, 0.1689453125, 0.083251953125, 0, 
68, 159237318, 0.6622205, -0.31525084, -0.60236764, -0.31501424, 9.875865936279297, -0.5058769583702087, 0.6600351333618164, 1.3687043190002441, 1.8829177618026733, 0.6550960540771484, -1.044921875, 0.16796875, 0.080078125, 0, 
69, 159253985, 0.66241306, -0.31514725, -0.6022384, -0.31496024, 9.923398971557617, -0.5644503235816956, 0.6325864195823669, 1.3337301015853882, 1.6808847188949585, 0.21262384951114655, -1.041259765625, 0.1689453125, 0.079833984375, 0, 
70, 159270652, 0.66265696, -0.31494457, -0.60218674, -0.31474864, 9.944663047790527, -0.5372163653373718, 0.6883248090744019, 1.8013732433319092, 1.4561909437179565, 0.38207104802131653, -1.0400390625, 0.16796875, 0.080078125, 0, 
71, 159287319, 0.66284406, -0.31478518, -0.60216767, -0.31455088, 9.931624412536621, -0.4906688332557678, 0.6618974208831787, 1.112801432609558, 1.024168610572815, 0.2681201696395874, -1.0439453125, 0.16845703125, 0.08203125, 0, 
72, 159303986, 0.6629608, -0.3146811, -0.6021593, -0.31442475, 9.942962646484375, -0.4908605217933655, 0.6379444599151611, 0.9208469390869141, 0.7061997056007385, 0.03138195723295212, -1.042236328125, 0.169677734375, 0.077392578125, 0, 
73, 159320653, 0.6630355, -0.31462568, -0.6021379, -0.31436354, 9.945034980773926, -0.5163208246231079, 0.6803269386291504, 0.5848788022994995, 0.6239125728607178, -0.1064399853348732, -1.043212890625, 0.166259765625, 0.081787109375, 0, 
74, 159337320, 0.6629306, -0.3148784, -0.60201484, -0.3145676, 9.943168640136719, -0.5477039813995361, 0.6975283026695251, 1.0448445081710815, 0.11561571806669235, 0.06403174251317978, -1.042724609375, 0.16796875, 0.0810546875, 0, 
75, 159353987, 0.6629808, -0.3148102, -0.602069, -0.31442642, 9.927624702453613, -0.5279904007911682, 0.6857912540435791, 1.052707552909851, 0.03762505576014519, -0.025330958887934685, -1.04638671875, 0.16796875, 0.07861328125, 0, 
76, 159370654, 0.6629459, -0.3148547, -0.6020981, -0.3143996, 9.915814399719238, -0.4940962493419647, 0.6632144451141357, 0.5577356815338135, -0.22332993149757385, -0.1570955067873001, -1.043701171875, 0.1669921875, 0.083251953125, 0, 
77, 159387321, 0.66281027, -0.31502482, -0.6021074, -0.31449744, 9.938484191894531, -0.5080145597457886, 0.6389502286911011, 0.17580555379390717, -0.5849491953849792, -0.30781981348991394, -1.0439453125, 0.169189453125, 0.080810546875, 0, 
78, 159403988, 0.6627537, -0.31503457, -0.6022168, -0.3143976, 9.943559646606445, -0.5081527233123779, 0.6237704157829285, 1.0421295166015625, -0.7472376823425293, -0.2023659348487854, -1.04443359375, 0.165771484375, 0.084716796875, 0, 
79, 159420655, 0.66268146, -0.31505302, -0.60234934, -0.3142775, 9.961681365966797, -0.4965601861476898, 0.6349202990531921, 1.768070101737976, -0.9981652498245239, -0.10890519618988037, -1.04638671875, 0.166259765625, 0.08251953125, 0, 
80, 159437322, 0.6626107, -0.31505123, -0.6024992, -0.31414118, 9.960344314575195, -0.4919489026069641, 0.615517258644104, 1.7271538972854614, -1.046477198600769, -0.17472343146800995, -1.04248046875, 0.166748046875, 0.083740234375, 0, 
81, 159453989, 0.6625396, -0.31507835, -0.60264915, -0.3139761, 9.957474708557129, -0.5239694714546204, 0.6479469537734985, 1.8106067180633545, -1.170218586921692, 0.0811474397778511, -1.043701171875, 0.165771484375, 0.085693359375, 0, 
82, 159470656, 0.6624171, -0.31518605, -0.602777, -0.31388128, 9.96884536743164, -0.5079696774482727, 0.6274364590644836, 1.0231120586395264, -1.3016693592071533, 0.029761958867311478, -1.04345703125, 0.166259765625, 0.08544921875, 0, 
83, 159487323, 0.66231656, -0.31523588, -0.60293025, -0.3137489, 9.960453033447266, -0.4855009615421295, 0.6312154531478882, 1.2141062021255493, -1.2635387182235718, -0.07504522055387497, -1.041748046875, 0.16796875, 0.08349609375, 0, 
84, 159503990, 0.6622304, -0.31523222, -0.60312945, -0.31355143, 9.933313369750977, -0.4880666136741638, 0.6259968280792236, 1.8184057474136353, -1.4333124160766602, -0.07329075038433075, -1.04443359375, 0.16845703125, 0.086181640625, 0, 
85, 159520657, 0.6621493, -0.3151871, -0.6033776, -0.31329057, 9.94473648071289, -0.5211855173110962, 0.5821365714073181, 2.2385241985321045, -1.6727142333984375, -0.0627254992723465, -1.0400390625, 0.16796875, 0.088623046875, 0, 
86, 159537324, 0.662108, -0.31503576, -0.6036959, -0.312917, 9.944086074829102, -0.4920312464237213, 0.5600526332855225, 2.4193756580352783, -1.7955207824707031, -0.13553601503372192, -1.044677734375, 0.167236328125, 0.08984375, 0, 
87, 159553991, 0.6619608, -0.31506303, -0.6039119, -0.31278387, 9.944875717163086, -0.4817211329936981, 0.5767995715141296, 2.3738746643066406, -1.71082603931427, -0.33460429310798645, -1.044189453125, 0.1669921875, 0.087158203125, 0, 
88, 159570658, 0.6619074, -0.3149218, -0.60419196, -0.31249845, 9.955514907836914, -0.4888150691986084, 0.5628968477249146, 2.7134993076324463, -1.518212080001831, -0.38130268454551697, -1.0439453125, 0.166748046875, 0.08935546875, 0, 
89, 159587325, 0.6619236, -0.31474003, -0.60442114, -0.3122034, 9.968320846557617, -0.5450114607810974, 0.6781449913978577, 3.77152156829834, -0.9554755091667175, -0.19165346026420593, -1.042724609375, 0.167236328125, 0.091552734375, 0, 
90, 159603992, 0.6619624, -0.314601, -0.6045957, -0.31192324, 9.943286895751953, -0.5625661015510559, 0.6612944006919861, 4.519412994384766, -0.7168675661087036, 0.15610943734645844, -1.043212890625, 0.168701171875, 0.089599609375, 0, 
91, 159620659, 0.6620908, -0.31432948, -0.6048045, -0.31151912, 9.96172046661377, -0.5506349802017212, 0.6490952372550964, 4.699700832366943, -0.43863677978515625, 0.19335028529167175, -1.044189453125, 0.1708984375, 0.09228515625, 0, 
92, 159637326, 0.66226226, -0.31405142, -0.6049617, -0.31113005, 9.947674751281738, -0.5283849835395813, 0.6534239053726196, 4.667819023132324, 0.02123933471739292, 0.2947317659854889, -1.04541015625, 0.168212890625, 0.09130859375, 0, 
93, 159653993, 0.662447, -0.31374404, -0.6051012, -0.31077537, 9.95798110961914, -0.5024377703666687, 0.6158372163772583, 4.359864234924316, 0.30377307534217834, 0.05801916867494583, -1.042724609375, 0.169677734375, 0.090576171875, 0, 
94, 159670660, 0.66266495, -0.31338936, -0.6052369, -0.31040397, 9.966145515441895, -0.500777006149292, 0.6168617010116577, 4.823946475982666, 0.522627055644989, 0.02215498499572277, -1.0458984375, 0.1728515625, 0.08984375, 0, 
95, 159687327, 0.66290116, -0.3130076, -0.6053919, -0.30998224, 9.965688705444336, -0.5187905430793762, 0.5961557030677795, 5.343322277069092, 0.45654645562171936, 0.1410747915506363, -1.041259765625, 0.168701171875, 0.09033203125, 0, 
96, 159703994, 0.6631156, -0.3126504, -0.60555613, -0.30956313, 9.945493698120117, -0.5535984635353088, 0.5611902475357056, 4.7023515701293945, 0.30185848474502563, 0.12726952135562897, -1.040771484375, 0.171142578125, 0.093994140625, 0, 
97, 159720661, 0.6633599, -0.31219426, -0.6057881, -0.30904564, 9.959848403930664, -0.5422796010971069, 0.5713977217674255, 4.918944358825684, 0.15795350074768066, 0.013305796310305595, -1.040771484375, 0.17333984375, 0.09423828125, 0, 
98, 159737328, 0.6634902, -0.31194255, -0.6059153, -0.30877063, 9.961501121520996, -0.5224462151527405, 0.6284295320510864, 5.950279235839844, 0.11502666026353836, -0.018409131094813347, -1.04296875, 0.173583984375, 0.09130859375, 0, 
99, 159753995, 0.66371393, -0.31147382, -0.60616654, -0.3082697, 9.938421249389648, -0.4723513722419739, 0.606002688407898, 6.137975215911865, 0.004719140008091927, -0.12190365791320801, -1.039794921875, 0.173828125, 0.092041015625, 0, 
100, 159770662, 0.66394067, -0.31093934, -0.6064829, -0.30769816, 9.950386047363281, -0.5022960901260376, 0.5692008137702942, 6.451340198516846, -0.2717956006526947, -0.23638604581356049, -1.044677734375, 0.175537109375, 0.086181640625, 0, 
101, 159787329, 0.6640797, -0.31056145, -0.6067289, -0.30729458, 9.941634178161621, -0.533388078212738, 0.5730604529380798, 6.5784430503845215, -0.3569577932357788, -0.2556852102279663, -1.041015625, 0.175048828125, 0.089111328125, 0, 
102, 159803996, 0.6642644, -0.31007695, -0.6070633, -0.30672354, 9.936567306518555, -0.5252819657325745, 0.5464375019073486, 6.398911952972412, -0.6316285133361816, -0.15046824514865875, -1.037841796875, 0.176025390625, 0.08984375, 0, 
103, 159820663, 0.66448224, -0.30953097, -0.6074164, -0.3061038, 9.942124366760254, -0.47495993971824646, 0.5736899971961975, 6.646508693695068, -0.5313162803649902, -0.18482765555381775, -1.04052734375, 0.176513671875, 0.09228515625, 0, 
104, 159837330, 0.6647501, -0.3089221, -0.60776144, -0.30545166, 9.917194366455078, -0.4861285388469696, 0.6034579873085022, 7.3665971755981445, -0.2254878133535385, -0.16217322647571564, -1.0390625, 0.17724609375, 0.091064453125, 0, 
105, 159853997, 0.66499645, -0.30839285, -0.608065, -0.30484524, 9.93721866607666, -0.5088298916816711, 0.571940541267395, 6.966784477233887, -0.205497145652771, 0.021898865699768066, -1.037109375, 0.1787109375, 0.091552734375, 0, 
106, 159870664, 0.6652623, -0.30786487, -0.6083727, -0.30418426, 9.909417152404785, -0.5111593008041382, 0.5353952050209045, 6.8136067390441895, -0.23880644142627716, 0.27455538511276245, -1.037841796875, 0.18212890625, 0.089111328125, 0, 
107, 159887331, 0.6655771, -0.3072059, -0.6087294, -0.30344722, 9.906036376953125, -0.5378431081771851, 0.5389003157615662, 7.201382637023926, -0.10851461440324783, 0.01819782517850399, -1.038330078125, 0.1796875, 0.09130859375, 0, 
108, 159903998, 0.6657866, -0.30673164, -0.6090294, -0.3028648, 9.89547348022461, -0.4825237989425659, 0.5311394333839417, 6.318705081939697, -0.37812677025794983, 0.044245947152376175, -1.04296875, 0.18359375, 0.09130859375, 0, 
109, 159920665, 0.6659903, -0.30626526, -0.6093155, -0.3023132, 9.88789176940918, -0.4679063856601715, 0.5417811274528503, 5.714641571044922, -0.26815855503082275, -0.07697257399559021, -1.040771484375, 0.182861328125, 0.08935546875, 0, 
110, 159937332, 0.66620594, -0.30577683, -0.60960114, -0.30175585, 9.920695304870605, -0.4779979884624481, 0.5010910034179688, 5.841783046722412, -0.1739678680896759, -0.1192847490310669, -1.03857421875, 0.181396484375, 0.0908203125, 0, 
111, 159953999, 0.66640824, -0.30526814, -0.6099176, -0.30118445, 9.97836685180664, -0.5656546354293823, 0.5168665051460266, 6.597549915313721, -0.37130093574523926, -0.19421471655368805, -1.040283203125, 0.182861328125, 0.095947265625, 0, 
112, 159970666, 0.66660285, -0.30482143, -0.61020803, -0.3006175, 10.001604080200195, -0.5460796356201172, 0.5468159317970276, 6.414637565612793, -0.40293261408805847, 0.08961884677410126, -1.039306640625, 0.183349609375, 0.09228515625, 0, 
113, 159987333, 0.66682327, -0.30438855, -0.6104682, -0.30003855, 9.972289085388184, -0.5235482454299927, 0.5298646688461304, 6.056212902069092, -0.18954038619995117, 0.28860390186309814, -1.037841796875, 0.18505859375, 0.092529296875, 0, 
114, 160004000, 0.6669808, -0.30404985, -0.61069846, -0.29956296, 9.932242393493652, -0.458122581243515, 0.5235981345176697, 4.6863179206848145, -0.2753813862800598, 0.11608957499265671, -1.0380859375, 0.185546875, 0.0947265625, 0, 
115, 160020667, 0.6670588, -0.30382788, -0.61085874, -0.2992871, 9.913826942443848, -0.45139279961586, 0.5292050838470459, 3.500436305999756, -0.12229423224925995, -0.2913764715194702, -1.03515625, 0.187255859375, 0.091552734375, 0, 
116, 160037334, 0.66714406, -0.3035931, -0.61099404, -0.29905924, 9.925444602966309, -0.48980775475502014, 0.522495448589325, 2.8523199558258057, 0.17414075136184692, -0.5309832692146301, -1.03759765625, 0.183349609375, 0.093017578125, 0, 
117, 160054001, 0.66724426, -0.30332598, -0.61114526, -0.2987978, 9.92707633972168, -0.5209712982177734, 0.5035029053688049, 3.5898756980895996, 0.15148630738258362, -0.491078644990921, -1.03857421875, 0.186279296875, 0.09130859375, 0, 
118, 160070668, 0.66735435, -0.30300152, -0.6113433, -0.2984756, 9.96037483215332, -0.5329124331474304, 0.49782246351242065, 3.913832426071167, -0.007991163991391659, -0.5560517907142639, -1.034423828125, 0.1865234375, 0.093017578125, 0, 
119, 160087335, 0.6674714, -0.30269605, -0.6115196, -0.29816303, 9.961141586303711, -0.5328691601753235, 0.5162357091903687, 3.913365125656128, 0.104243703186512, -0.4554899036884308, -1.0380859375, 0.18603515625, 0.090087890625, 0, 
120, 160104002, 0.6676152, -0.30236652, -0.6117098, -0.2977845, 9.963554382324219, -0.49923253059387207, 0.515013575553894, 4.131251335144043, 0.08325407654047012, -0.2510940730571747, -1.0380859375, 0.18994140625, 0.094970703125, 0, 
121, 160120669, 0.6677786, -0.30199796, -0.61188745, -0.29742682, 9.954174041748047, -0.4622933864593506, 0.5016530752182007, 3.6947152614593506, 0.37465620040893555, -0.48487406969070435, -1.037109375, 0.18701171875, 0.0927734375, 0, 
122, 160137336, 0.6678979, -0.301718, -0.6120048, -0.29720184, 9.947940826416016, -0.4849950075149536, 0.5140126347541809, 3.0893142223358154, 0.5468823313713074, -0.6478027701377869, -1.039306640625, 0.1875, 0.0947265625, 0, 
123, 160154003, 0.6679712, -0.3015252, -0.61207104, -0.29709587, 9.973530769348145, -0.5029506683349609, 0.539637565612793, 2.263432741165161, 0.6534311771392822, -0.7977267503738403, -1.035400390625, 0.18896484375, 0.092529296875, 0, 
124, 160170670, 0.6680446, -0.30134678, -0.61213136, -0.2969878, 9.91754150390625, -0.5051122307777405, 0.49176865816116333, 1.9100927114486694, 0.6647776961326599, -0.7393490076065063, -1.033447265625, 0.1875, 0.09228515625, 0, 
125, 160187337, 0.6681203, -0.3011646, -0.6121781, -0.29690593, 9.899007797241211, -0.5055527687072754, 0.5125617980957031, 1.8041266202926636, 0.80820232629776, -0.8449373245239258, -1.03759765625, 0.1845703125, 0.09326171875, 0, 
126, 160204004, 0.6682234, -0.30089033, -0.61224926, -0.29680565, 9.928837776184082, -0.5472030639648438, 0.5232146382331848, 2.5768234729766846, 0.9604186415672302, -1.1347450017929077, -1.037841796875, 0.185791015625, 0.0927734375, 0, 
127, 160220671, 0.66836923, -0.30055282, -0.6123348, -0.2966429, 9.986420631408691, -0.5378863215446472, 0.5297937393188477, 3.25999116897583, 1.0818997621536255, -1.0625429153442383, -1.037841796875, 0.1845703125, 0.092529296875, 0, 
128, 160237338, 0.6685212, -0.3002392, -0.61240065, -0.2964818, 9.9905424118042, -0.49654433131217957, 0.5260735154151917, 3.254298448562622, 1.1543515920639038, -0.9120041131973267, -1.0400390625, 0.1845703125, 0.0908203125, 0, 
129, 160254005, 0.6686853, -0.29991266, -0.61244845, -0.29634336, 9.981614112854004, -0.4778420329093933, 0.5560181736946106, 2.9394538402557373, 1.3783345222473145, -1.0310968160629272, -1.0400390625, 0.1875, 0.090087890625, 0, 
130, 160270672, 0.6688218, -0.29964063, -0.61245614, -0.29629427, 9.961531639099121, -0.49985477328300476, 0.5189220905303955, 2.0632436275482178, 1.5302306413650513, -1.1955944299697876, -1.033447265625, 0.188232421875, 0.089599609375, 0, 
131, 160287339, 0.66896605, -0.29935253, -0.6124605, -0.29625076, 9.94616413116455, -0.5423949956893921, 0.4960818886756897, 1.9885698556900024, 1.634487271308899, -1.2796169519424438, -1.035888671875, 0.1884765625, 0.090087890625, 0, 
132, 160304006, 0.6691376, -0.29905242, -0.6124296, -0.2962309, 9.947375297546387, -0.5310595035552979, 0.5275203585624695, 2.061784029006958, 1.989722728729248, -1.3090842962265015, -1.039306640625, 0.185791015625, 0.086669921875, 0, 
133, 160320673, 0.66932434, -0.29875365, -0.61237967, -0.29621372, 9.93917465209961, -0.536349892616272, 0.5330451726913452, 2.4334239959716797, 2.1366496086120605, -1.222359538078308, -1.035400390625, 0.18798828125, 0.0908203125, 0, 
134, 160337340, 0.66954064, -0.2984178, -0.6123238, -0.2961787, 9.94140625, -0.5087419152259827, 0.5380911827087402, 2.710348606109619, 2.3344826698303223, -1.2327200174331665, -1.0400390625, 0.1865234375, 0.08837890625, 0, 
135, 160354007, 0.6697499, -0.29810786, -0.61225086, -0.29616874, 9.958412170410156, -0.4967418611049652, 0.5486119985580444, 2.2724609375, 2.396618604660034, -1.233744502067566, -1.039306640625, 0.18701171875, 0.089599609375, 0, 
136, 160370674, 0.6699138, -0.2978737, -0.61213166, -0.29627964, 9.951676368713379, -0.48623743653297424, 0.5567415356636047, 1.3807933330535889, 2.514270305633545, -1.461646318435669, -1.03759765625, 0.188720703125, 0.087890625, 0, 
137, 160387341, 0.670047, -0.2977274, -0.6119714, -0.29645696, 9.967570304870605, -0.49265673756599426, 0.5474380254745483, 0.30625107884407043, 2.545710325241089, -1.3982422351837158, -1.03759765625, 0.187744140625, 0.08642578125, 0, 
138, 160404008, 0.6701829, -0.29760155, -0.6118061, -0.29661673, 9.967940330505371, -0.5310384035110474, 0.563391923904419, 0.14957815408706665, 2.5166141986846924, -1.2284553050994873, -1.03759765625, 0.18603515625, 0.0859375, 0, 
139, 160420675, 0.6703393, -0.2974651, -0.6116456, -0.29673117, 9.968708038330078, -0.529140830039978, 0.5675734877586365, 0.46355149149894714, 2.515730619430542, -1.0369110107421875, -1.03662109375, 0.18505859375, 0.08544921875, 0, 
140, 160437342, 0.6704898, -0.29736862, -0.6114772, -0.29683477, 9.934812545776367, -0.5036163926124573, 0.5848826169967651, 0.4035024344921112, 2.427136182785034, -0.8136450052261353, -1.03857421875, 0.18310546875, 0.086181640625, 0, 
141, 160454009, 0.6705928, -0.2973151, -0.6113237, -0.29697233, 9.931660652160645, -0.49773046374320984, 0.555096447467804, 0.26187705993652344, 2.137110948562622, -0.9014453887939453, -1.03955078125, 0.185302734375, 0.085693359375, 0, 
142, 160470676, 0.670689, -0.29724744, -0.61120176, -0.29707345, 9.920183181762695, -0.48231983184814453, 0.5626701712608337, 0.1283068209886551, 1.9394066333770752, -0.9071570038795471, -1.037841796875, 0.186767578125, 0.085205078125, 0, 
143, 160487343, 0.67078644, -0.29717404, -0.6110997, -0.2971368, 9.936623573303223, -0.5020592212677002, 0.5804217457771301, 0.6403430700302124, 1.787023663520813, -0.7759302854537964, -1.0390625, 0.185546875, 0.0830078125, 0, 
144, 160504010, 0.6709133, -0.29705632, -0.6110358, -0.29709977, 9.953471183776855, -0.5282483696937561, 0.5854394435882568, 1.031256914138794, 1.6386492252349854, -0.551063597202301, -1.040283203125, 0.1826171875, 0.083984375, 0, 
145, 160520677, 0.6710044, -0.29704, -0.6109214, -0.29714555, 9.91774845123291, -0.4673730731010437, 0.6082596182823181, 0.49108511209487915, 1.6753523349761963, -0.4484719932079315, -1.041748046875, 0.185791015625, 0.084716796875, 0, 
146, 160537344, 0.67104715, -0.29710567, -0.61079913, -0.29723477, 9.933738708496094, -0.4649467468261719, 0.5862561464309692, -0.27743038535118103, 1.4386911392211914, -0.3965422511100769, -1.03955078125, 0.183349609375, 0.083740234375, 0, 
147, 160554011, 0.6710552, -0.2972425, -0.6106431, -0.29740056, 9.91487979888916, -0.47981882095336914, 0.6166372299194336, -0.9435526728630066, 1.4626388549804688, -0.4454112946987152, -1.03759765625, 0.184326171875, 0.085693359375, 0, 
148, 160570678, 0.6710521, -0.29741073, -0.6104783, -0.29757747, 9.947455406188965, -0.5150861740112305, 0.5868813395500183, -1.0148454904556274, 1.414000153541565, -0.36086371541023254, -1.039306640625, 0.1845703125, 0.08642578125, 0, 
149, 160587345, 0.6710796, -0.29755074, -0.6103255, -0.29768893, 9.949949264526367, -0.5006564855575562, 0.615792453289032, -0.6139172315597534, 1.420160174369812, -0.15119816362857819, -1.03759765625, 0.185546875, 0.08154296875, 0, 
150, 160604012, 0.6711509, -0.29761025, -0.6101918, -0.2977427, 9.954253196716309, -0.48979827761650085, 0.6134911179542542, -0.04835037514567375, 1.575270652770996, -0.1901678889989853, -1.039306640625, 0.18701171875, 0.0810546875, 0, 
151, 160620679, 0.67124087, -0.2976695, -0.6100645, -0.2977413, 9.947829246520996, -0.4992973506450653, 0.615342378616333, 0.07478907704353333, 1.5233536958694458, 0.07300899177789688, -1.03662109375, 0.187744140625, 0.08251953125, 0, 
152, 160637346, 0.6712911, -0.29777858, -0.60994303, -0.29776806, 9.954957962036133, -0.4617205262184143, 0.5914281606674194, -0.64411461353302, 1.3025339841842651, 0.03177255764603615, -1.040283203125, 0.183837890625, 0.082763671875, 0, 
153, 160654013, 0.6712854, -0.29796785, -0.60978, -0.2979253, 9.947769165039062, -0.4625195264816284, 0.6142764091491699, -0.8479403853416443, 1.336035132408142, -0.19388172030448914, -1.0400390625, 0.18115234375, 0.0830078125, 0, 
154, 160670680, 0.67127496, -0.29814765, -0.6096283, -0.2980795, 9.9288969039917, -0.4288265109062195, 0.6383316516876221, -1.1286300420761108, 1.2958874702453613, -0.2804911136627197, -1.0390625, 0.185791015625, 0.081787109375, 0, 
155, 160687347, 0.6712709, -0.29828638, -0.60949785, -0.29821652, 9.939422607421875, -0.4706067144870758, 0.6809166669845581, -1.095961093902588, 1.289215326309204, -0.4257791340351105, -1.040283203125, 0.183349609375, 0.082763671875, 0, 
156, 160704014, 0.67127836, -0.29837355, -0.60941297, -0.2982858, 9.939175605773926, -0.5200634002685547, 0.6601481437683105, -0.46237969398498535, 1.0954807996749878, -0.4007299244403839, -1.03857421875, 0.184326171875, 0.080322265625, 0, 
157, 160720681, 0.6713159, -0.29841906, -0.609345, -0.2982946, 9.92715835571289, -0.5297515988349915, 0.6688726544380188, 0.33573126792907715, 1.09784996509552, -0.25385385751724243, -1.036865234375, 0.18310546875, 0.082763671875, 0, 
158, 160737348, 0.6713428, -0.2984951, -0.60926884, -0.2983136, 9.922362327575684, -0.48828691244125366, 0.6751368641853333, 0.22496914863586426, 1.04770028591156, -0.17408309876918793, -1.03955078125, 0.183349609375, 0.083740234375, 0, 
159, 160754015, 0.67134565, -0.29855675, -0.6092225, -0.29834032, 9.912081718444824, -0.42598435282707214, 0.6674624085426331, 0.4302677810192108, 0.8511740565299988, -0.37046849727630615, -1.0361328125, 0.181640625, 0.082275390625, 0, 
160, 160770682, 0.6713622, -0.29858127, -0.60916907, -0.2983873, 9.917204856872559, -0.4430699646472931, 0.6616998314857483, 0.18966202437877655, 1.0736714601516724, -0.602148175239563, -1.03759765625, 0.182861328125, 0.07958984375, 0, 
161, 160787349, 0.67141336, -0.2985815, -0.6091001, -0.2984131, 9.940163612365723, -0.4783286154270172, 0.7127446532249451, -0.028807884082198143, 1.3171074390411377, -0.539115309715271, -1.036376953125, 0.18212890625, 0.082763671875, 0, 
162, 160804016, 0.67139935, -0.29870063, -0.60899276, -0.29854444, 9.907098770141602, -0.48487746715545654, 0.6895315647125244, -0.4552593231201172, 1.165185809135437, -0.5231457352638245, -1.038330078125, 0.18212890625, 0.081298828125, 0, 
163, 160820683, 0.6714335, -0.29864863, -0.6089656, -0.29857492, 9.885175704956055, -0.5197041034698486, 0.6257768869400024, 0.6498198509216309, 1.1566439867019653, -0.8714272379875183, -1.0380859375, 0.183349609375, 0.07958984375, 0, 
164, 160837350, 0.6714661, -0.29857966, -0.6089652, -0.29857138, 9.88535213470459, -0.5645304918289185, 0.682260274887085, 0.6439545154571533, 1.005580186843872, -0.8707805275917053, -1.040771484375, 0.182373046875, 0.080322265625, 0, 
165, 160854017, 0.67151695, -0.29851297, -0.6089484, -0.29855812, 9.904004096984863, -0.540788471698761, 0.6861364841461182, 0.9859864711761475, 1.1242823600769043, -0.7277784943580627, -1.037353515625, 0.1796875, 0.083251953125, 0, 
166, 160870684, 0.6715621, -0.29847747, -0.60889363, -0.29860377, 9.920717239379883, -0.5384725332260132, 0.6791368126869202, 1.5654098987579346, 1.2939025163650513, -0.7221437692642212, -1.039794921875, 0.18359375, 0.080078125, 0, 
167, 160887351, 0.67169094, -0.29830706, -0.60885924, -0.298554, 9.950104713439941, -0.5675053596496582, 0.7254021167755127, 1.7788786888122559, 1.672573208808899, -0.8046932816505432, -1.03759765625, 0.182373046875, 0.07958984375, 0, 
168, 160904018, 0.67179, -0.29821795, -0.6087984, -0.29854444, 9.980294227600098, -0.6032892465591431, 0.6966590285301208, 1.2001469135284424, 1.5809822082519531, -0.6570874452590942, -1.041259765625, 0.181396484375, 0.079833984375, 0, 
169, 160920685, 0.6719449, -0.29808494, -0.608743, -0.29844126, 9.956786155700684, -0.5847443342208862, 0.674141526222229, 1.6415436267852783, 1.700811505317688, -0.3372872471809387, -1.037841796875, 0.181640625, 0.081298828125, 0, 
170, 160937352, 0.6720845, -0.29801965, -0.6086359, -0.29841113, 9.935495376586914, -0.5807330012321472, 0.675454318523407, 1.0185017585754395, 1.8844289779663086, -0.3125581741333008, -1.040283203125, 0.182861328125, 0.081298828125, 0, 
171, 160954019, 0.6721925, -0.2980283, -0.6085048, -0.2984266, 9.94627857208252, -0.5453681945800781, 0.7067943215370178, 0.6351052522659302, 1.7978706359863281, -0.21540920436382294, -1.04248046875, 0.181884765625, 0.079345703125, 0, 
172, 160970686, 0.67230725, -0.2980345, -0.6083657, -0.29844528, 9.951148986816406, -0.5068696141242981, 0.6449238061904907, 1.0804462432861328, 1.858816146850586, -0.17853333055973053, -1.040283203125, 0.18212890625, 0.08251953125, 0, 
173, 160987353, 0.6724745, -0.29792258, -0.60828626, -0.29834226, 9.956575393676758, -0.5815252065658569, 0.6917599439620972, 2.155961513519287, 1.8081412315368652, -0.14412905275821686, -1.038330078125, 0.18212890625, 0.076904296875, 0, 
174, 161004020, 0.6726823, -0.29776418, -0.60824746, -0.29811126, 9.96951961517334, -0.6321560144424438, 0.6670978665351868, 2.4772348403930664, 1.6482411623001099, 0.19682078063488007, -1.04052734375, 0.18017578125, 0.081298828125, 0, 
175, 161020687, 0.6729422, -0.29753822, -0.60827345, -0.29769695, 9.967877388000488, -0.5983416438102722, 0.6598835587501526, 3.223268747329712, 1.3555649518966675, 0.6790951490402222, -1.03759765625, 0.185546875, 0.077392578125, 0, 
176, 161037354, 0.6732227, -0.2972629, -0.6083355, -0.29721034, 9.976445198059082, -0.5532993674278259, 0.6418053507804871, 4.047985076904297, 1.2255805730819702, 0.782045304775238, -1.038818359375, 0.183837890625, 0.076416015625, 0, 
177, 161054021, 0.67347914, -0.29705575, -0.6083595, -0.29678693, 9.987683296203613, -0.5382567048072815, 0.692545473575592, 3.8928611278533936, 1.274321436882019, 0.8435413837432861, -1.03857421875, 0.185546875, 0.076171875, 0, 
178, 161070688, 0.6736718, -0.2969252, -0.60838485, -0.2964287, 9.995906829833984, -0.5604536533355713, 0.6760331988334656, 3.2371504306793213, 0.9772140383720398, 0.7343672513961792, -1.039794921875, 0.183349609375, 0.07861328125, 0, 
179, 161087355, 0.67380416, -0.29694134, -0.60836506, -0.29615158, 10.000869750976562, -0.5393384099006653, 0.6711872220039368, 2.8282952308654785, 0.7704044580459595, 1.0059388875961304, -1.03857421875, 0.18505859375, 0.0791015625, 0, 
180, 161104022, 0.67396903, -0.29688522, -0.6083966, -0.29576758, 9.914521217346191, -0.529743492603302, 0.6641143560409546, 2.541189670562744, 0.6512797474861145, 1.0539627075195312, -1.0390625, 0.184814453125, 0.0771484375, 0, 
181, 161120689, 0.6740746, -0.29692382, -0.6083772, -0.29552808, 9.88344669342041, -0.5543268322944641, 0.6696914434432983, 1.9810785055160522, 0.7174373865127563, 0.8203748464584351, -1.034912109375, 0.186767578125, 0.077392578125, 0, 
182, 161137356, 0.6742686, -0.29678932, -0.60840255, -0.2951685, 9.923386573791504, -0.6102597117424011, 0.7054218053817749, 2.981971263885498, 1.0135583877563477, 0.690800130367279, -1.03564453125, 0.18359375, 0.07568359375, 0, 
183, 161154023, 0.6745506, -0.2965381, -0.60847217, -0.2946323, 9.916983604431152, -0.6280184388160706, 0.731141209602356, 5.07102108001709, 1.0314619541168213, 1.1476540565490723, -1.033447265625, 0.188232421875, 0.07763671875, 0, 
184, 161170690, 0.6748184, -0.29633078, -0.6085235, -0.29412186, 9.937556266784668, -0.5388678312301636, 0.710891604423523, 4.966213703155518, 1.0079494714736938, 1.2355952262878418, -1.036865234375, 0.189208984375, 0.0791015625, 0, 
185, 161187357, 0.6749736, -0.2963015, -0.6084963, -0.2938509, 9.93952465057373, -0.5286046862602234, 0.6723476648330688, 2.9559872150421143, 1.0219979286193848, 0.8172115683555603, -1.034912109375, 0.1884765625, 0.077880859375, 0, 
186, 161204024, 0.6750601, -0.2963444, -0.60842943, -0.29374737, 9.918462753295898, -0.5265777707099915, 0.6893026232719421, 1.2583519220352173, 1.1364225149154663, 0.24691921472549438, -1.035888671875, 0.190185546875, 0.0771484375, 0, 
187, 161220691, 0.67510796, -0.29640406, -0.60838574, -0.29366758, 9.9153413772583, -0.5386896729469299, 0.6792022585868835, 0.6585025191307068, 0.9010290503501892, 0.04851045086979866, -1.03662109375, 0.189453125, 0.0771484375, 0, 
188, 161237358, 0.67509824, -0.29649675, -0.6083611, -0.29364738, 9.90119457244873, -0.5727188587188721, 0.683055579662323, 0.3227840065956116, 0.6234899163246155, -0.2329922914505005, -1.03759765625, 0.18896484375, 0.075927734375, 0, 
189, 161254025, 0.67503136, -0.2966527, -0.6083168, -0.2937357, 9.897114753723145, -0.5952823162078857, 0.7285001873970032, -0.6269155740737915, 0.5744032263755798, -0.5538809895515442, -1.036865234375, 0.190185546875, 0.080810546875, 0, 
190, 161270692, 0.6748712, -0.29694217, -0.6082333, -0.29398385, 9.904730796813965, -0.6135807037353516, 0.7331077456474304, -1.4514907598495483, 0.3913492262363434, -0.7875712513923645, -1.0380859375, 0.1884765625, 0.079833984375, 0, 
191, 161287359, 0.6747434, -0.2971051, -0.60822266, -0.29413468, 9.927101135253906, -0.5878117680549622, 0.7586249113082886, -0.8740654587745667, 0.27331310510635376, -1.0054328441619873, -1.034423828125, 0.18896484375, 0.07958984375, 0, 
192, 161304026, 0.6746175, -0.29719052, -0.60827816, -0.29422238, 9.933992385864258, -0.5782821178436279, 0.7705585360527039, -0.12212774902582169, 0.002433206420391798, -1.1724021434783936, -1.037353515625, 0.18994140625, 0.0771484375, 0, 
193, 161320693, 0.6744898, -0.29725748, -0.60834795, -0.29430336, 9.91352367401123, -0.6223879456520081, 0.7412405014038086, 0.34378647804260254, -0.06456320732831955, -1.226547360420227, -1.035400390625, 0.1865234375, 0.080078125, 0, 
194, 161337360, 0.67435265, -0.29725435, -0.6084838, -0.29433975, 9.916083335876465, -0.651072084903717, 0.704244077205658, 0.5487905144691467, -0.3417438566684723, -1.5065966844558716, -1.03466796875, 0.187255859375, 0.078369140625, 0, 
195, 161354027, 0.674205, -0.29723895, -0.60864156, -0.29436734, 9.925474166870117, -0.6051275730133057, 0.7271780371665955, 0.827751100063324, -0.48531574010849, -1.576454997062683, -1.037353515625, 0.186767578125, 0.081298828125, 0, 
196, 161370694, 0.67409104, -0.29718658, -0.60879576, -0.2943626, 9.947600364685059, -0.6233986020088196, 0.7243556976318359, 1.060583472251892, -0.3135954737663269, -1.521323800086975, -1.034912109375, 0.1865234375, 0.080322265625, 0, 
197, 161387361, 0.67403644, -0.29704952, -0.60898477, -0.29423454, 9.936861991882324, -0.6513822078704834, 0.7208325862884521, 2.2771098613739014, -0.3119690716266632, -1.2509050369262695, -1.036376953125, 0.1875, 0.0791015625, 0, 
198, 161404028, 0.6739951, -0.29688576, -0.6091902, -0.2940698, 9.919488906860352, -0.6083225607872009, 0.7257633209228516, 2.03098464012146, -0.3287838399410248, -1.2542475461959839, -1.038330078125, 0.18603515625, 0.080078125, 0, 
199, 161420695, 0.6738927, -0.2968545, -0.609316, -0.294075, 9.937255859375, -0.5930203199386597, 0.6942136287689209, 0.9817603230476379, -0.1598808765411377, -1.4051958322525024, -1.038818359375, 0.1865234375, 0.081298828125, 0, 
200, 161437362, 0.6737738, -0.2968681, -0.6094135, -0.29413155, 9.930627822875977, -0.6201677918434143, 0.7041293978691101, 0.3525075912475586, -0.07900877296924591, -1.444882869720459, -1.036865234375, 0.185546875, 0.081298828125, 0, 
201, 161454029, 0.6736445, -0.2969043, -0.60951024, -0.2941909, 9.932750701904297, -0.626968502998352, 0.6627475619316101, 0.2691895067691803, -0.16069407761096954, -1.3832011222839355, -1.035888671875, 0.18359375, 0.08056640625, 0, 
202, 161470696, 0.6735793, -0.29686862, -0.6096272, -0.29413402, 9.93766975402832, -0.6350334882736206, 0.6476621031761169, 0.9986391663551331, -0.0637051910161972, -1.0839487314224243, -1.039306640625, 0.184326171875, 0.08056640625, 0, 
203, 161487363, 0.6735494, -0.29681337, -0.6097276, -0.2940499, 9.935022354125977, -0.643403172492981, 0.7009548544883728, 1.948486328125, 0.11850997060537338, -0.8839775323867798, -1.038818359375, 0.181396484375, 0.082275390625, 0, 
204, 161504030, 0.6735211, -0.2968146, -0.60977703, -0.29401103, 9.932726860046387, -0.6178072690963745, 0.6786186695098877, 1.5158939361572266, 0.3339959979057312, -0.7464948892593384, -1.03759765625, 0.183837890625, 0.081298828125, 0, 
205, 161520697, 0.67351276, -0.29679254, -0.6098422, -0.2939174, 9.939884185791016, -0.6238680481910706, 0.6914576888084412, 1.4201089143753052, 0.30266526341438293, -0.6266083121299744, -1.037353515625, 0.185546875, 0.0810546875, 0, 
206, 161537364, 0.6735303, -0.2967666, -0.6098854, -0.2938137, 9.943795204162598, -0.6296992301940918, 0.6918407082557678, 1.1765066385269165, 0.5128687024116516, -0.5300868153572083, -1.03955078125, 0.184814453125, 0.08544921875, 0, 
207, 161554031, 0.67349774, -0.2968815, -0.60984033, -0.29386538, 9.940898895263672, -0.6224719882011414, 0.6710485816001892, 0.8127805590629578, 0.6943602561950684, -0.48777467012405396, -1.0380859375, 0.18408203125, 0.083984375, 0, 
208, 161570698, 0.6735706, -0.29682583, -0.6098493, -0.2937365, 9.949350357055664, -0.6123424172401428, 0.6388313174247742, 1.6846109628677368, 0.9053191542625427, -0.3478524088859558, -1.0390625, 0.186767578125, 0.083251953125, 0, 
209, 161587365, 0.6737224, -0.2967121, -0.60984993, -0.2935017, 9.934521675109863, -0.619417130947113, 0.691362202167511, 2.6629395484924316, 1.1731128692626953, 0.0807824432849884, -1.037353515625, 0.1845703125, 0.083740234375, 0, 
210, 161604032, 0.67384154, -0.29669613, -0.6098101, -0.29332715, 9.909740447998047, -0.5992624759674072, 0.6765994429588318, 2.0979108810424805, 1.1367172002792358, 0.24749553203582764, -1.035888671875, 0.184326171875, 0.079345703125, 0, 
211, 161620699, 0.673912, -0.29676354, -0.60972875, -0.29326606, 9.916522026062012, -0.5618087649345398, 0.6629323959350586, 1.08682382106781, 1.1884806156158447, 0.05694983899593353, -1.03857421875, 0.184326171875, 0.080322265625, 0, 
212, 161637366, 0.6739354, -0.29694277, -0.60957885, -0.29334265, 9.933338165283203, -0.5346108078956604, 0.7012273669242859, 0.16754548251628876, 1.3480732440948486, -0.0336102657020092, -1.0380859375, 0.182373046875, 0.08349609375, 0, 
213, 161654033, 0.67395157, -0.29711822, -0.6094456, -0.2934043, 9.950847625732422, -0.5470417737960815, 0.7261021733283997, -0.31907662749290466, 1.2425105571746826, -0.07537177205085754, -1.035888671875, 0.1865234375, 0.083984375, 0, 
214, 161670700, 0.67394453, -0.29730713, -0.6093434, -0.29344144, 9.951882362365723, -0.5496901273727417, 0.7226523160934448, -0.5962572693824768, 0.9373095631599426, -0.0420752614736557, -1.03955078125, 0.18408203125, 0.08251953125, 0, 
215, 161687367, 0.6738796, -0.2975507, -0.60924506, -0.29354775, 9.962333679199219, -0.5958836078643799, 0.7422776818275452, -0.9496740102767944, 0.6947059631347656, -0.23314598202705383, -1.03759765625, 0.18310546875, 0.08251953125, 0, 
216, 161704034, 0.67382795, -0.2976969, -0.6092287, -0.2935522, 9.961847305297852, -0.6055660247802734, 0.7592678666114807, -0.6224205493927002, 0.38908249139785767, -0.3711472153663635, -1.03759765625, 0.18212890625, 0.080810546875, 0, 
217, 161720701, 0.6737661, -0.29783222, -0.60924953, -0.29351375, 9.962240219116211, -0.5614252090454102, 0.7658197283744812, 0.7767819166183472, 0.05632232129573822, -0.22921445965766907, -1.038330078125, 0.182861328125, 0.082763671875, 0, 
218, 161737368, 0.67374265, -0.29779103, -0.60938877, -0.29332018, 9.95747184753418, -0.507892370223999, 0.7395409345626831, 2.0569560527801514, -0.2744337022304535, -0.4540427625179291, -1.0390625, 0.1826171875, 0.0810546875, 0, 
219, 161754035, 0.67364675, -0.29781613, -0.6095631, -0.2931529, 9.992897033691406, -0.4876440465450287, 0.7596022486686707, 1.3235106468200684, -0.8119289875030518, -0.5327121615409851, -1.03662109375, 0.18310546875, 0.083740234375, 0, 
220, 161770702, 0.6734618, -0.29792687, -0.6097475, -0.29308152, 9.936978340148926, -0.4763936400413513, 0.6734036803245544, 0.7009811997413635, -1.2257534265518188, -0.7884805798530579, -1.0400390625, 0.18212890625, 0.087646484375, 0, 
221, 161787369, 0.67328215, -0.29789948, -0.61003095, -0.2929321, 9.928918838500977, -0.5336334705352783, 0.6921793818473816, 1.5746687650680542, -1.5294687747955322, -1.2174676656723022, -1.0390625, 0.1826171875, 0.0859375, 0, 
222, 161804036, 0.6730432, -0.29792625, -0.610344, -0.29280245, 9.913287162780762, -0.5130964517593384, 0.6685899496078491, 2.178513526916504, -2.0281991958618164, -1.1846321821212769, -1.03759765625, 0.18359375, 0.083984375, 0, 
223, 161820703, 0.6728908, -0.2977708, -0.61074305, -0.29247832, 9.898738861083984, -0.49943259358406067, 0.6895883083343506, 3.0766489505767822, -2.0453085899353027, -1.1351357698440552, -1.040283203125, 0.181884765625, 0.085205078125, 0, 
224, 161837370, 0.67272705, -0.2976339, -0.61112714, -0.2921924, 9.899126052856445, -0.49594438076019287, 0.6667030453681946, 3.285238742828369, -2.006390333175659, -1.1850165128707886, -1.03955078125, 0.18017578125, 0.085205078125, 0, 
225, 161854037, 0.6725071, -0.2975678, -0.61148894, -0.29200873, 9.942262649536133, -0.49638596177101135, 0.6323568224906921, 2.4589149951934814, -2.0772664546966553, -1.4180983304977417, -1.040283203125, 0.182373046875, 0.086669921875, 0, 
226, 161870704, 0.6722394, -0.29751727, -0.6118794, -0.29185843, 9.958725929260254, -0.4921799898147583, 0.5973882675170898, 1.9392144680023193, -2.361471652984619, -1.6795209646224976, -1.0380859375, 0.180908203125, 0.086669921875, 0, 
227, 161887371, 0.6719749, -0.2974903, -0.612231, -0.29175812, 9.955408096313477, -0.4018037021160126, 0.5785261392593384, 1.3321806192398071, -2.101041793823242, -1.7391729354858398, -1.0390625, 0.181884765625, 0.090087890625, 0, 
228, 161904038, 0.6716637, -0.29752937, -0.61253685, -0.29179254, 9.917708396911621, -0.4020933210849762, 0.5711277723312378, 0.36633843183517456, -1.944778561592102, -2.070972204208374, -1.0380859375, 0.181396484375, 0.086669921875, 0, 
229, 161920705, 0.67135155, -0.29757318, -0.6128258, -0.29185936, 9.921540260314941, -0.48366105556488037, 0.5528311133384705, -0.6182841658592224, -1.7782063484191895, -2.217092990875244, -1.040283203125, 0.17919921875, 0.088134765625, 0, 
230, 161937372, 0.6710118, -0.29768914, -0.6130812, -0.2919859, 9.971567153930664, -0.521293044090271, 0.5138893127441406, -0.7110533714294434, -1.7851732969284058, -2.129728078842163, -1.0419921875, 0.177978515625, 0.0927734375, 0, 
231, 161954039, 0.6706822, -0.2977993, -0.61332476, -0.29211926, 9.984335899353027, -0.45719286799430847, 0.5479118227958679, -0.48772984743118286, -1.6663622856140137, -2.1243045330047607, -1.040771484375, 0.17919921875, 0.093505859375, 0, 
232, 161970706, 0.6703084, -0.2979501, -0.6135534, -0.29234356, 9.976912498474121, -0.4172762930393219, 0.5305972695350647, -1.080702304840088, -1.6805903911590576, -2.420016050338745, -1.040771484375, 0.1787109375, 0.092041015625, 0, 
233, 161987373, 0.66992176, -0.29809606, -0.6137926, -0.29257873, 9.968297004699707, -0.4308685064315796, 0.519637405872345, -1.4666086435317993, -1.7336851358413696, -2.5578248500823975, -1.039306640625, 0.17626953125, 0.09423828125, 0, 
234, 162004040, 0.6695219, -0.2982774, -0.61400175, -0.29287028, 9.942154884338379, -0.45841437578201294, 0.5014575719833374, -1.8222731351852417, -1.6088554859161377, -2.620608329772949, -1.03759765625, 0.173828125, 0.09326171875, 0, 
235, 162020707, 0.6690818, -0.29849368, -0.61423206, -0.29317275, 9.921589851379395, -0.5005890130996704, 0.47048085927963257, -1.6031948328018188, -1.938324213027954, -2.613513469696045, -1.0390625, 0.173095703125, 0.09375, 0, 
236, 162037374, 0.668638, -0.29870483, -0.61449915, -0.29341036, 9.916206359863281, -0.49082860350608826, 0.477384477853775, -1.2662469148635864, -2.2403106689453125, -2.4221351146698, -1.040283203125, 0.173583984375, 0.097412109375, 0, 
237, 162054041, 0.66819227, -0.298952, -0.6147174, -0.2937165, 9.924644470214844, -0.45021963119506836, 0.5012261867523193, -1.2045460939407349, -1.9755139350891113, -2.4475817680358887, -1.041259765625, 0.169189453125, 0.09619140625, 0, 
238, 162070708, 0.6676889, -0.29931524, -0.61489564, -0.29411796, 9.885873794555664, -0.4245206415653229, 0.47257789969444275, -1.4803693294525146, -2.103654384613037, -2.3734586238861084, -1.039794921875, 0.1728515625, 0.099609375, 0, 
239, 162087375, 0.6671915, -0.29961747, -0.6151313, -0.29444596, 9.883814811706543, -0.4088684618473053, 0.45198678970336914, -2.691875457763672, -2.2929320335388184, -2.5205135345458984, -1.03955078125, 0.174072265625, 0.094482421875, 0, 
240, 162104042, 0.6666831, -0.29994026, -0.6153412, -0.29483038, 9.900721549987793, -0.4890191853046417, 0.4728645086288452, -3.552962064743042, -2.1255276203155518, -2.683666706085205, -1.040283203125, 0.170166015625, 0.098876953125, 0, 
241, 162120709, 0.6661467, -0.30035257, -0.6155229, -0.29524305, 9.955634117126465, -0.526386559009552, 0.45891425013542175, -2.7527377605438232, -2.289839506149292, -2.3463540077209473, -1.041748046875, 0.167236328125, 0.09814453125, 0, 
242, 162137376, 0.6657263, -0.30055857, -0.615828, -0.29534572, 10.001988410949707, -0.49776870012283325, 0.48537954688072205, -1.0269027948379517, -2.5439815521240234, -1.883724570274353, -1.043701171875, 0.165771484375, 0.09912109375, 0, 
243, 162154043, 0.6653193, -0.30077797, -0.6161129, -0.29544494, 9.992846488952637, -0.47756701707839966, 0.5064935684204102, -0.388243705034256, -2.4549708366394043, -1.7023288011550903, -1.039306640625, 0.1650390625, 0.10302734375, 0, 
244, 162170710, 0.66486555, -0.30110946, -0.6163732, -0.29558596, 9.958189010620117, -0.4386369287967682, 0.49591904878616333, -1.4793318510055542, -2.6716668605804443, -1.4784737825393677, -1.04345703125, 0.165283203125, 0.10205078125, 0, 
245, 162187377, 0.66434836, -0.3015512, -0.61659914, -0.29582703, 9.95795726776123, -0.40128225088119507, 0.46687981486320496, -2.396023750305176, -2.8089003562927246, -1.5137429237365723, -1.0419921875, 0.162353515625, 0.101318359375, 0, 
246, 162204044, 0.66376853, -0.30205035, -0.61680675, -0.2961867, 9.95334529876709, -0.4358809292316437, 0.4416734576225281, -2.1705548763275146, -2.9018101692199707, -1.833056092262268, -1.041748046875, 0.1630859375, 0.103759765625, 0, 
247, 162220711, 0.663286, -0.30232164, -0.6171626, -0.29624954, 9.95263385772705, -0.4820067584514618, 0.46117666363716125, -1.4642589092254639, -3.243419647216797, -1.6711584329605103, -1.04296875, 0.162353515625, 0.10791015625, 0, 
248, 162237378, 0.6627968, -0.30263665, -0.61755884, -0.29619706, 9.977520942687988, -0.5047874450683594, 0.40885207056999207, -0.3708271086215973, -3.8096656799316406, -1.0191999673843384, -1.0400390625, 0.161865234375, 0.110595703125, 0, 
249, 162254045, 0.6623076, -0.30299035, -0.6179626, -0.2960878, 10.024170875549316, -0.5420702695846558, 0.38345813751220703, 0.41223639249801636, -4.065253734588623, -0.5774062871932983, -1.042236328125, 0.160400390625, 0.112060546875, 0, 
250, 162270712, 0.66190726, -0.3031348, -0.61849076, -0.2957319, 10.000570297241211, -0.4337954521179199, 0.49859827756881714, 1.2195104360580444, -4.282219409942627, -0.5111334919929504, -1.042236328125, 0.160400390625, 0.110595703125, 0, 
251, 162287379, 0.6615323, -0.30327266, -0.61899716, -0.29536986, 9.999731063842773, -0.3778817057609558, 0.5293186902999878, 1.5756419897079468, -4.090853691101074, -0.3979637324810028, -1.0419921875, 0.162109375, 0.11181640625, 0, 
252, 162304046, 0.6610179, -0.30367753, -0.6193924, -0.2952766, 9.95263957977295, -0.3747456967830658, 0.43099522590637207, 0.4251323640346527, -4.2269721031188965, -0.44774195551872253, -1.041748046875, 0.157470703125, 0.116455078125, 0, 
253, 162320713, 0.6604172, -0.30420667, -0.61971325, -0.29540318, 9.954051971435547, -0.4653403162956238, 0.3522454798221588, -0.9552831649780273, -4.067776679992676, -0.9174019694328308, -1.04248046875, 0.16162109375, 0.118408203125, 0, 
254, 162337380, 0.6599563, -0.30457133, -0.6200739, -0.2953007, 9.969464302062988, -0.562301516532898, 0.415629506111145, -0.06437752395868301, -3.7550010681152344, -0.4329186975955963, -1.040771484375, 0.159423828125, 0.115966796875, 0, 
255, 162354047, 0.6595851, -0.30486518, -0.62043184, -0.29507506, 9.9247465133667, -0.46444207429885864, 0.4359061121940613, 1.1730297803878784, -3.4853250980377197, 0.01630888693034649, -1.041259765625, 0.158447265625, 0.118408203125, 0, 
256, 162370714, 0.65923655, -0.30505902, -0.6208505, -0.29477304, 9.96176528930664, -0.35706841945648193, 0.41979897022247314, 1.138875126838684, -3.5902602672576904, -0.18936750292778015, -1.043212890625, 0.158203125, 0.11962890625, 0, 
257, 162387381, 0.65881354, -0.30535507, -0.6212428, -0.2945856, 9.963743209838867, -0.3915880024433136, 0.41376692056655884, -0.36324572563171387, -3.7467219829559326, -0.3783956468105316, -1.040771484375, 0.158203125, 0.1220703125, 0, 
258, 162404048, 0.6582035, -0.3059387, -0.62152207, -0.29475442, 9.948835372924805, -0.37888041138648987, 0.421780526638031, -2.1071889400482178, -3.934450149536133, -0.8329442739486694, -1.044189453125, 0.15576171875, 0.124267578125, 0, 
259, 162420715, 0.65765566, -0.30628926, -0.6219267, -0.29475963, 9.946353912353516, -0.44471386075019836, 0.3219890892505646, -2.2660133838653564, -4.029947280883789, -1.3146039247512817, -1.043701171875, 0.154052734375, 0.124755859375, 0, 
260, 162437382, 0.6570743, -0.3067138, -0.622343, -0.29473624, 9.97308349609375, -0.5319623351097107, 0.30187439918518066, -0.7651858925819397, -4.499888896942139, -0.8932878971099854, -1.040771484375, 0.154052734375, 0.12744140625, 0, 
261, 162454049, 0.65650815, -0.30712885, -0.62277645, -0.29464987, 9.970967292785645, -0.47357189655303955, 0.29503893852233887, 1.0869262218475342, -4.680932521820068, -0.6052473187446594, -1.04150390625, 0.154296875, 0.128662109375, 0, 
262, 162470716, 0.6559745, -0.3074068, -0.623327, -0.29438427, 10.008646011352539, -0.4281294345855713, 0.30557000637054443, 1.8795239925384521, -5.140629291534424, -0.5977044105529785, -1.04150390625, 0.154052734375, 0.127197265625, 0, 
263, 162487383, 0.6555054, -0.3075582, -0.62393373, -0.29398555, 9.985809326171875, -0.3856610953807831, 0.3429037928581238, 1.016350507736206, -5.063529014587402, -0.6017704606056213, -1.0361328125, 0.156494140625, 0.130859375, 0, 
264, 162504050, 0.6549115, -0.30791774, -0.62445414, -0.29382807, 9.96578311920166, -0.4132479727268219, 0.32682016491889954, -0.814669668674469, -5.14598274230957, -0.8422161936759949, -1.039794921875, 0.153076171875, 0.135498046875, 0, 
265, 162520717, 0.6542847, -0.30831853, -0.6249619, -0.2937239, 9.956913948059082, -0.49848321080207825, 0.2646823227405548, -0.21626727283000946, -5.245884895324707, -0.9123821258544922, -1.04052734375, 0.154541015625, 0.136962890625, 0, 
266, 162537384, 0.65381044, -0.3083855, -0.6256111, -0.2933275, 9.939996719360352, -0.4926517605781555, 0.22049957513809204, 2.121474504470825, -5.137273788452148, -1.0534567832946777, -1.03955078125, 0.15283203125, 0.13330078125, 0, 
267, 162554051, 0.6533406, -0.30841208, -0.6262912, -0.29289526, 9.945988655090332, -0.4308823347091675, 0.184749573469162, 3.2893497943878174, -5.281512260437012, -1.1037729978561401, -1.03955078125, 0.1552734375, 0.13671875, 0, 
268, 162570718, 0.6529518, -0.30827743, -0.62706065, -0.29225707, 9.936112403869629, -0.46212854981422424, 0.1573355495929718, 4.1673150062561035, -5.408769130706787, -0.9249323606491089, -1.041015625, 0.151123046875, 0.140869140625, 0, 
269, 162587385, 0.6525501, -0.30823663, -0.62771386, -0.29179475, 9.930668830871582, -0.451172411441803, 0.19946959614753723, 5.4346818923950195, -4.855470657348633, -1.0299315452575684, -1.0380859375, 0.154541015625, 0.1435546875, 0, 
270, 162604052, 0.65234584, -0.30780935, -0.6285151, -0.2909762, 9.971121788024902, -0.4407133162021637, 0.20422126352787018, 6.624181747436523, -4.550788402557373, -1.079088807106018, -1.04150390625, 0.154296875, 0.14208984375, 0, 
271, 162620719, 0.6521544, -0.30749908, -0.62916094, -0.2903371, 9.996819496154785, -0.3717101216316223, 0.21112613379955292, 5.595434665679932, -3.676422357559204, -1.0110360383987427, -1.04248046875, 0.15380859375, 0.145751953125, 0, 
272, 162637386, 0.65198594, -0.30730066, -0.62962973, -0.28990865, 9.994047164916992, -0.4183775782585144, 0.20378181338310242, 4.167993068695068, -2.5770411491394043, -1.044044017791748, -1.039306640625, 0.15576171875, 0.146728515625, 0, 
273, 162654053, 0.651848, -0.30716988, -0.62996805, -0.28962272, 9.931456565856934, -0.4142295718193054, 0.11835400760173798, 2.881787061691284, -1.691545844078064, -1.0554544925689697, -1.0419921875, 0.1572265625, 0.1494140625, 0, 
274, 162670720, 0.6517907, -0.3069963, -0.6302651, -0.28928965, 9.915881156921387, -0.47234010696411133, 0.05460874363780022, 2.829576015472412, -1.1546142101287842, -0.7894411087036133, -1.036865234375, 0.1513671875, 0.1484375, 0, 
275, 162687387, 0.65182525, -0.30679953, -0.63047045, -0.28897238, 9.907875061035156, -0.5213361978530884, 0.10895764082670212, 3.761993885040283, -0.2972930669784546, -0.5717843770980835, -1.03759765625, 0.15673828125, 0.149169921875, 0, 
276, 162704054, 0.6520311, -0.30635175, -0.630727, -0.28842267, 9.88797378540039, -0.4638057351112366, 0.13971349596977234, 5.095301151275635, 0.2682802379131317, -0.40757492184638977, -1.0380859375, 0.155517578125, 0.148681640625, 0, 
277, 162720721, 0.6521896, -0.30591014, -0.631009, -0.2879158, 9.947738647460938, -0.37408360838890076, 0.12567207217216492, 5.511898040771484, -4.2260956251993775E-4, -0.7101761102676392, -1.03955078125, 0.154296875, 0.14990234375, 0, 
278, 162737388, 0.6523687, -0.3053869, -0.6312755, -0.2874811, 9.996908187866211, -0.39790409803390503, 0.13452212512493134, 5.595644950866699, 0.46800804138183594, -1.3129774332046509, -1.040771484375, 0.1552734375, 0.149658203125, 0, 
279, 162754055, 0.6526218, -0.30469114, -0.6315765, -0.28698316, 9.974130630493164, -0.5272608995437622, 0.22485356032848358, 6.991703987121582, 0.8349228501319885, -1.699882984161377, -1.037841796875, 0.154052734375, 0.147705078125, 0, 
280, 162770722, 0.6529426, -0.30388868, -0.6319622, -0.28625473, 9.966044425964355, -0.609226405620575, 0.25268182158470154, 8.707249641418457, 0.47339320182800293, -1.176775574684143, -1.035888671875, 0.158447265625, 0.1455078125, 0, 
281, 162787389, 0.6534977, -0.302817, -0.6323622, -0.2852385, 9.983274459838867, -0.5865116119384766, 0.22557850182056427, 12.656792640686035, 1.314444661140442, -0.6100756525993347, -1.037109375, 0.159423828125, 0.147216796875, 0, 
282, 162804056, 0.6543789, -0.30136257, -0.6327031, -0.28399947, 9.991076469421387, -0.5577641129493713, 0.3899516761302948, 15.078505516052246, 3.3058855533599854, -0.5313551425933838, -1.038818359375, 0.158447265625, 0.142822265625, 0, 
283, 162820723, 0.65549964, -0.29977092, -0.6328182, -0.28284085, 9.966724395751953, -0.566031277179718, 0.639117956161499, 14.91316032409668, 5.804405689239502, -0.5680965781211853, -1.037109375, 0.16259765625, 0.14306640625, 0, 
284, 162837390, 0.65688044, -0.29810962, -0.63273674, -0.2815728, 9.985804557800293, -0.5825472474098206, 0.6950704455375671, 15.081976890563965, 7.737168312072754, 0.5104231834411621, -1.0400390625, 0.1630859375, 0.140380859375, 0, 
285, 162854057, 0.658369, -0.29654858, -0.63240963, -0.28047737, 9.942083358764648, -0.5530874729156494, 0.6719413995742798, 14.964157104492188, 9.406759262084961, 0.9036681652069092, -1.03759765625, 0.166015625, 0.13720703125, 0, 
286, 162870724, 0.6599577, -0.29495007, -0.63192713, -0.27951482, 9.896039962768555, -0.6029102206230164, 0.5418692827224731, 14.780426979064941, 10.858259201049805, 0.6563389897346497, -1.037109375, 0.170654296875, 0.133544921875, 0, 
287, 162887391, 0.6617806, -0.29301244, -0.6314673, -0.27827922, 9.894102096557617, -0.6617395877838135, 0.431673139333725, 16.24326515197754, 11.920551300048828, 0.7687023282051086, -1.035400390625, 0.1728515625, 0.126953125, 0, 
288, 162904058, 0.6638076, -0.29097718, -0.63088506, -0.2769043, 9.964506149291992, -0.6055012941360474, 0.4704113006591797, 18.910478591918945, 13.208747863769531, 1.6548395156860352, -1.03759765625, 0.17578125, 0.123046875, 0, 
289, 162920725, 0.66618556, -0.28851327, -0.6303434, -0.27499866, 10.03046989440918, -0.5460489988327026, 0.5185049176216125, 22.426435470581055, 14.34816837310791, 2.7429604530334473, -1.03662109375, 0.180419921875, 0.117431640625, 0, 
290, 162937392, 0.6688145, -0.28577906, -0.62973714, -0.27285317, 10.041115760803223, -0.5276375412940979, 0.6824123859405518, 25.792585372924805, 15.730360984802246, 3.2955586910247803, -1.036376953125, 0.18359375, 0.111328125, 0, 
291, 162954059, 0.6717806, -0.2826671, -0.628991, -0.27051896, 10.029809951782227, -0.6885453462600708, 0.7443664073944092, 28.469615936279297, 18.1704158782959, 3.4174907207489014, -1.031005859375, 0.19091796875, 0.1025390625, 0, 
292, 162970726, 0.6749557, -0.27960068, -0.62784284, -0.26846203, 10.027599334716797, -0.7884575128555298, 0.9050689339637756, 30.462268829345703, 21.22167205810547, 3.696775436401367, -1.032958984375, 0.197509765625, 0.096923828125, 0, 
293, 162987393, 0.67854935, -0.27625293, -0.6264045, -0.26621938, 10.038864135742188, -0.6770257949829102, 1.0367965698242188, 31.503196716308594, 24.571565628051758, 4.60060453414917, -1.031982421875, 0.204345703125, 0.08837890625, 0, 
294, 163004060, 0.6825427, -0.27273136, -0.6246227, -0.26381797, 10.010969161987305, -0.547100841999054, 1.2510883808135986, 30.833953857421875, 27.988887786865234, 5.82230281829834, -1.03173828125, 0.21044921875, 0.079833984375, 0, 
295, 163020727, 0.6867755, -0.26931515, -0.6223446, -0.2617179, 10.02188491821289, -0.5598509311676025, 1.4408786296844482, 29.601844787597656, 31.653566360473633, 6.296834945678711, -1.0283203125, 0.217529296875, 0.067626953125, 0, 
296, 163037394, 0.69115204, -0.26611763, -0.61949986, -0.26021257, 9.927494049072266, -0.6011596918106079, 1.5195060968399048, 24.69251251220703, 35.6498908996582, 5.685161590576172, -1.0302734375, 0.220947265625, 0.057373046875, 0, 
297, 163054061, 0.69570565, -0.26318973, -0.6160302, -0.25929058, 9.993924140930176, -0.6679328680038452, 1.4225125312805176, 20.310361862182617, 39.92575454711914, 5.53567361831665, -1.027587890625, 0.22705078125, 0.04248046875, 0, 
298, 163070728, 0.7004234, -0.26038206, -0.61209834, -0.25873575, 10.039955139160156, -0.6467911601066589, 1.6156433820724487, 17.248851776123047, 43.28551483154297, 5.369871616363525, -1.0244140625, 0.23291015625, 0.029052734375, 0, 
299, 163087395, 0.705417, -0.25754398, -0.60764253, -0.25851282, 10.088220596313477, -0.7943858504295349, 1.744030475616455, 15.455068588256836, 47.60439682006836, 5.0509843826293945, -1.024169921875, 0.23876953125, 0.015625, 0, 
300, 163104062, 0.7105853, -0.25482884, -0.60287136, -0.2582193, 10.207568168640137, -0.6677308082580566, 1.8859848976135254, 14.786388397216797, 49.50958251953125, 6.746371746063232, -1.021484375, 0.241943359375, 0.0, 0, 
301, 163120729, 0.7158307, -0.2521256, -0.5978962, -0.25795227, 10.199660301208496, -0.4902800917625427, 1.9510942697525024, 14.329654693603516, 50.83938980102539, 7.140521049499512, -1.022216796875, 0.246337890625, -0.01708984375, 0, 
302, 163137396, 0.7212718, -0.24921317, -0.5926505, -0.25773126, 10.212584495544434, -0.6340588331222534, 1.9430911540985107, 15.03786849975586, 53.414894104003906, 6.866480827331543, -1.016845703125, 0.254638671875, -0.033203125, 0, 
303, 163154063, 0.7267649, -0.24638157, -0.5872606, -0.2573602, 10.186748504638672, -0.9546064138412476, 2.016077995300293, 15.077048301696777, 53.93476104736328, 8.267860412597656, -1.01416015625, 0.26025390625, -0.049072265625, 0, 
304, 163170730, 0.7325303, -0.24285118, -0.58190364, -0.25653696, 10.09366226196289, -0.9204256534576416, 2.0517776012420654, 20.913915634155273, 55.33749771118164, 8.112654685974121, -1.01025390625, 0.26416015625, -0.06689453125, 0, 
305, 163187397, 0.7387272, -0.23865074, -0.57639843, -0.25513327, 10.0786771774292, -0.8934227824211121, 2.2971034049987793, 27.12250518798828, 58.01996994018555, 9.35493278503418, -1.008544921875, 0.2685546875, -0.08642578125, 0, 
306, 163204064, 0.745053, -0.23437141, -0.570724, -0.25345677, 9.96926498413086, -0.7579187154769897, 2.6789443492889404, 28.570030212402344, 59.075077056884766, 10.927739143371582, -1.002197265625, 0.27880859375, -0.1044921875, 0, 
307, 163220731, 0.75143194, -0.23008534, -0.56460977, -0.25224355, 9.888528823852539, -0.7228435277938843, 2.8023672103881836, 26.778169631958008, 62.2437744140625, 9.48834228515625, -0.998046875, 0.287109375, -0.12548828125, 0, 
308, 163237398, 0.7578114, -0.22583891, -0.5583517, -0.25092253, 10.04670238494873, -0.8800538778305054, 2.7846851348876953, 26.74722671508789, 62.7400016784668, 10.43193244934082, -0.9931640625, 0.2958984375, -0.146728515625, 0, 
309, 163254065, 0.7641873, -0.22175178, -0.551858, -0.24959299, 10.034700393676758, -0.7854543924331665, 3.018819570541382, 25.545307159423828, 63.66481399536133, 11.446137428283691, -0.987548828125, 0.304931640625, -0.168212890625, 0, 
310, 163270732, 0.7705778, -0.21767956, -0.5450722, -0.24843891, 9.96603775024414, -0.7731279134750366, 3.18306040763855, 24.32735824584961, 65.49624633789062, 11.05519962310791, -0.9794921875, 0.31005859375, -0.187255859375, 0, 
311, 163287399, 0.77707416, -0.21320604, -0.5381974, -0.24706832, 9.982121467590332, -1.011805534362793, 3.3397934436798096, 27.275821685791016, 66.72445678710938, 11.01608657836914, -0.974853515625, 0.318603515625, -0.20654296875, 0, 
312, 163304066, 0.7834773, -0.20917705, -0.5308779, -0.24612409, 10.000873565673828, -0.9080213308334351, 3.6717453002929688, 22.439102172851562, 68.6258316040039, 10.87295913696289, -0.964599609375, 0.32763671875, -0.228759765625, 0, 
313, 163320733, 0.7899553, -0.20542327, -0.52288646, -0.24568713, 9.878388404846191, -0.9741266965866089, 3.8671607971191406, 18.08195686340332, 72.78121185302734, 10.239317893981934, -0.9580078125, 0.333984375, -0.25048828125, 0, 
314, 163337400, 0.79652995, -0.20187227, -0.5144815, -0.24514584, 9.774330139160156, -1.1272250413894653, 4.183826923370361, 16.800395965576172, 74.88253021240234, 12.281526565551758, -0.94677734375, 0.340576171875, -0.273681640625, 0, 
315, 163354067, 0.8031285, -0.19867563, -0.50557303, -0.24476244, 9.72366714477539, -0.8975396752357483, 4.1783881187438965, 13.495902061462402, 77.34251403808594, 13.405230522155762, -0.939208984375, 0.349853515625, -0.296142578125, 0, 
316, 163370734, 0.8096072, -0.19603594, -0.49601325, -0.24510607, 9.456169128417969, -0.897890031337738, 4.248000144958496, 6.6402997970581055, 80.5815200805664, 12.01729965209961, -0.9267578125, 0.35791015625, -0.317138671875, 0, 
317, 163387401, 0.8163931, -0.19203043, -0.48667902, -0.24448004, 9.518056869506836, -1.2215311527252197, 4.309767246246338, 18.35023307800293, 81.37358856201172, 12.97488784790039, -0.917236328125, 0.36328125, -0.341064453125, 0, 
318, 163404068, 0.8233453, -0.18751977, -0.47709638, -0.24355344, 9.337821960449219, -1.037595272064209, 4.439050197601318, 22.00518226623535, 83.78703308105469, 13.575994491577148, -0.90478515625, 0.376708984375, -0.3642578125, 0, 
319, 163420735, 0.8304323, -0.18253656, -0.46721366, -0.24243422, 9.282519340515137, -1.0808674097061157, 4.551424980163574, 24.99264144897461, 86.4841537475586, 13.731393814086914, -0.889892578125, 0.381591796875, -0.392333984375, 0, 
320, 163437402, 0.8376133, -0.1769128, -0.45722288, -0.24094361, 9.134437561035156, -0.9266418218612671, 4.929175853729248, 29.790752410888672, 88.01941680908203, 14.087960243225098, -0.876220703125, 0.39306640625, -0.4140625, 0, 
321, 163454069, 0.84471357, -0.17178704, -0.4464334, -0.24009463, 9.174449920654297, -1.0106885433197021, 5.454403400421143, 23.49142837524414, 92.33354187011719, 12.80243968963623, -0.8583984375, 0.39990234375, -0.4375, 0, 
322, 163470736, 0.85184157, -0.16719106, -0.43479085, -0.23952103, 9.29551887512207, -1.1023870706558228, 5.638124465942383, 18.202835083007812, 96.8304214477539, 13.887598991394043, -0.840087890625, 0.408447265625, -0.46630859375, 0, 
323, 163487403, 0.859119, -0.16242257, -0.42246962, -0.2388584, 9.144062995910645, -0.9762216210365295, 6.009158134460449, 18.54395866394043, 101.4491195678711, 14.923707008361816, -0.824462890625, 0.419189453125, -0.49072265625, 0, 
324, 163504070, 0.8664258, -0.15719625, -0.40958607, -0.23840116, 8.9813814163208, -0.939629852771759, 6.2916789054870605, 19.76945686340332, 105.84831237792969, 13.063863754272461, -0.801025390625, 0.42822265625, -0.521728515625, 0, 
325, 163520737, 0.8735948, -0.15225552, -0.39604014, -0.23833294, 8.79964542388916, -0.9991928935050964, 6.432455539703369, 15.744453430175781, 109.37047576904297, 12.049519538879395, -0.783203125, 0.433837890625, -0.54541015625, 0, 
326, 163537404, 0.88060486, -0.14711407, -0.38251784, -0.23785062, 8.504240036010742, -1.1051656007766724, 6.392529487609863, 17.959190368652344, 108.70635986328125, 13.712471008300781, -0.758056640625, 0.44384765625, -0.5693359375, 0, 
327, 163554071, 0.88748085, -0.14153616, -0.3690294, -0.23698725, 8.240100860595703, -1.0782997608184814, 6.555263042449951, 21.535017013549805, 108.49732208251953, 14.62375259399414, -0.73095703125, 0.453369140625, -0.597412109375, 0, 
328, 163570738, 0.894168, -0.13523561, -0.35574716, -0.2358369, 7.900935649871826, -1.1366803646087646, 6.772049903869629, 26.83468246459961, 107.67876434326172, 14.039566993713379, -0.7099609375, 0.46142578125, -0.626220703125, 0, 
329, 163587405, 0.9006652, -0.12808442, -0.3428517, -0.23419976, 7.690195083618164, -0.976703405380249, 6.853536128997803, 33.717071533203125, 105.78143310546875, 14.288763999938965, -0.68359375, 0.469482421875, -0.6484375, 0, 
330, 163604072, 0.9068869, -0.12084617, -0.33009043, -0.23236336, 7.544027328491211, -0.8252698183059692, 7.0538458824157715, 34.70987319946289, 104.28675079345703, 14.763556480407715, -0.655029296875, 0.4736328125, -0.67626953125, 0, 
331, 163620739, 0.91273, -0.11331369, -0.31766638, -0.23059133, 7.115752696990967, -0.8775686621665955, 7.230748176574707, 36.62797546386719, 101.87125396728516, 12.818758010864258, -0.628662109375, 0.4833984375, -0.700927734375, 0, 
332, 163637406, 0.91826546, -0.105447456, -0.30546367, -0.2288268, 6.853881359100342, -0.8940384387969971, 7.491511821746826, 38.824398040771484, 100.36418914794922, 11.388068199157715, -0.604248046875, 0.48779296875, -0.7255859375, 0, 
333, 163654073, 0.92357075, -0.09770726, -0.29289678, -0.22733724, 6.7058539390563965, -0.8696093559265137, 7.608475685119629, 36.722190856933594, 102.19720458984375, 9.82542896270752, -0.57421875, 0.49267578125, -0.74560546875, 0, 
334, 163670740, 0.9285644, -0.08935795, -0.28090718, -0.22555414, 6.278727054595947, -0.6701433062553406, 7.839712142944336, 41.88457107543945, 98.67871856689453, 9.593538284301758, -0.5478515625, 0.494873046875, -0.767578125, 0, 
335, 163687407, 0.9332773, -0.08058409, -0.26917967, -0.22370157, 6.103837490081787, -0.6550871729850769, 8.157330513000488, 44.96885681152344, 97.0939712524414, 8.625504493713379, -0.517333984375, 0.499755859375, -0.79150390625, 0, 
336, 163704074, 0.9377495, -0.07187043, -0.25747564, -0.22173658, 5.968338489532471, -0.47997334599494934, 8.348945617675781, 44.701229095458984, 96.35535430908203, 9.080078125, -0.486328125, 0.502197265625, -0.81103515625, 0, 
337, 163720741, 0.9419172, -0.06350706, -0.245712, -0.21996525, 5.625256061553955, -0.3748817443847656, 8.399760246276855, 41.8648681640625, 95.77765655517578, 8.02475643157959, -0.460693359375, 0.50390625, -0.835693359375, 0, 
338, 163737408, 0.9457929, -0.055649094, -0.23375803, -0.21848607, 5.336230754852295, -0.2733713984489441, 8.512113571166992, 37.68782424926758, 95.8933334350586, 6.6340532302856445, -0.431640625, 0.50341796875, -0.85009765625, 0, 
339, 163754075, 0.9494174, -0.04839383, -0.22146699, -0.21729553, 5.232139587402344, -0.41923314332962036, 8.558036804199219, 32.706180572509766, 96.9002456665039, 5.484073638916016, -0.40234375, 0.507568359375, -0.866943359375, 0, 
340, 163770742, 0.95281005, -0.040946797, -0.20951077, -0.21582866, 4.876718521118164, -0.16060324013233185, 8.585022926330566, 34.8115234375, 94.57379150390625, 6.542717456817627, -0.36962890625, 0.5087890625, -0.881591796875, 0, 
341, 163787409, 0.95594215, -0.033395827, -0.19769698, -0.21441926, 4.626402854919434, -0.07323235273361206, 8.745062828063965, 35.55216598510742, 93.45293426513672, 5.5970330238342285, -0.34130859375, 0.508544921875, -0.90185546875, 0, 
342, 163804076, 0.95883, -0.026126621, -0.18597038, -0.21302056, 4.415288925170898, 0.04047265648841858, 8.914654731750488, 33.76237487792969, 92.15020751953125, 5.5352463722229, -0.311279296875, 0.510986328125, -0.913330078125, 0, 
343, 163820743, 0.961502, -0.019195935, -0.17418143, -0.21167533, 4.139503002166748, 0.015883393585681915, 9.04002571105957, 31.336057662963867, 91.81346893310547, 5.317130088806152, -0.284912109375, 0.508544921875, -0.926513671875, 0, 
344, 163837410, 0.96395934, -0.012429965, -0.16229482, -0.21044822, 3.9165003299713135, 0.12716442346572876, 9.208589553833008, 29.939952850341797, 91.99276733398438, 4.439365386962891, -0.25244140625, 0.51318359375, -0.93701171875, 0, 
345, 163854077, 0.96622413, -0.0058470797, -0.15020128, -0.20932393, 3.706993341445923, 0.23343035578727722, 9.353808403015137, 28.301029205322266, 92.90707397460938, 3.7094314098358154, -0.22314453125, 0.510986328125, -0.949462890625, 0, 
346, 163870744, 0.96827805, 7.869475E-4, -0.13841437, -0.20803484, 3.3679089546203613, 0.4449647068977356, 9.534687042236328, 29.247846603393555, 90.73350524902344, 4.440820693969727, -0.192138671875, 0.510986328125, -0.9560546875, 0, 
347, 163887411, 0.97011423, 0.0070730397, -0.12661578, -0.20687473, 3.1377899646759033, 0.42060524225234985, 9.66862964630127, 26.792064666748047, 90.11640930175781, 3.610196828842163, -0.1650390625, 0.511962890625, -0.967529296875, 0, 
348, 163904078, 0.9717383, 0.013143415, -0.11481819, -0.20583712, 2.9376347064971924, 0.39545518159866333, 9.718973159790039, 25.260772705078125, 89.62413024902344, 2.6850998401641846, -0.13232421875, 0.511962890625, -0.97314453125, 0, 
349, 163920745, 0.97317356, 0.019196186, -0.10306228, -0.20479977, 2.752718448638916, 0.49436154961586, 9.767634391784668, 25.22380256652832, 89.18425750732422, 2.4407591819763184, -0.10107421875, 0.51025390625, -0.986328125, 0, 
350, 163937412, 0.9744107, 0.025348589, -0.09128274, -0.20383486, 2.4523086547851562, 0.614569902420044, 9.807489395141602, 25.83434295654297, 89.34757232666016, 1.6091922521591187, -0.075927734375, 0.51025390625, -0.989013671875, 0, 
351, 163954079, 0.9754609, 0.03160341, -0.07971459, -0.20278834, 2.2343132495880127, 0.7199383974075317, 9.844504356384277, 26.902873992919922, 87.98474884033203, 1.8741117715835571, -0.046142578125, 0.5107421875, -0.995849609375, 0, 
352, 163970746, 0.97631294, 0.037883285, -0.06825753, -0.20178914, 2.049478530883789, 0.6228722333908081, 9.82789134979248, 27.243131637573242, 87.1694564819336, 1.2962712049484253, -0.0166015625, 0.510009765625, -1.00244140625, 0, 
353, 163987413, 0.97698015, 0.044380765, -0.056910317, -0.20075217, 1.7818427085876465, 0.6788992881774902, 9.81180191040039, 28.926172256469727, 86.6736831665039, 1.2251428365707397, 0.01416015625, 0.5078125, -1.007568359375, 0, 
354, 164004080, 0.9774247, 0.05118198, -0.045750152, -0.19982153, 1.5843210220336914, 0.7419047355651855, 9.692424774169922, 31.255775451660156, 85.73143005371094, 0.14618878066539764, 0.041748046875, 0.504150390625, -1.010009765625, 0, 
355, 164020747, 0.9776582, 0.058296174, -0.034873046, -0.19892316, 1.397148609161377, 0.8085925579071045, 9.63132381439209, 33.81658172607422, 84.19807434082031, -0.35459887981414795, 0.072998046875, 0.49951171875, -1.0146484375, 0, 
356, 164037414, 0.9776764, 0.06571857, -0.02416298, -0.19810626, 1.1005628108978271, 0.9208546280860901, 9.679443359375, 36.18731689453125, 83.43060302734375, -1.1994458436965942, 0.099853515625, 0.49365234375, -1.01904296875, 0, 
357, 164054081, 0.97746426, 0.07340125, -0.013598099, -0.19746137, 0.8842758536338806, 1.0609307289123535, 9.801141738891602, 38.21457290649414, 82.70884704589844, -2.643378734588623, 0.129150390625, 0.48974609375, -1.02099609375, 0, 
358, 164070748, 0.97706074, 0.081096455, -0.0030590089, -0.19689222, 0.6204836368560791, 1.1225266456604004, 9.938178062438965, 38.425270080566406, 82.51306915283203, -3.3970282077789307, 0.158935546875, 0.482177734375, -1.022705078125, 0, 
359, 164087415, 0.97645956, 0.0887748, 0.007503175, -0.19644283, 0.3655491769313812, 1.255417823791504, 9.9326171875, 38.39289855957031, 82.58978271484375, -4.479619979858398, 0.186767578125, 0.479248046875, -1.024658203125, 0, 
360, 164104082, 0.97568166, 0.09636213, 0.017994974, -0.19605064, 0.1583067774772644, 1.4383764266967773, 9.931159019470215, 37.991477966308594, 81.98365020751953, -5.059518814086914, 0.211669921875, 0.468994140625, -1.027099609375, 0, 
361, 164120749, 0.9747456, 0.10371883, 0.028543107, -0.19570082, -0.163835346698761, 1.5257256031036377, 9.878682136535645, 36.479393005371094, 82.05774688720703, -5.618786334991455, 0.243408203125, 0.463623046875, -1.029541015625, 0, 
362, 164137416, 0.9736038, 0.11116779, 0.039022073, -0.19548619, -0.4225090444087982, 1.5134903192520142, 9.85800838470459, 37.365543365478516, 81.6759262084961, -6.732100963592529, 0.266357421875, 0.456298828125, -1.0244140625, 0, 
363, 164154083, 0.9722106, 0.11899785, 0.049400855, -0.19546305, -0.736972987651825, 1.603659987449646, 9.727960586547852, 40.29883575439453, 81.45109558105469, -8.168213844299316, 0.294921875, 0.448974609375, -1.028564453125, 0, 
364, 164170750, 0.97056705, 0.12711698, 0.059686214, -0.19564937, -0.8630314469337463, 1.8754312992095947, 9.766030311584473, 42.63524627685547, 81.13961791992188, -9.72673225402832, 0.32421875, 0.439697265625, -1.025146484375, 0, 
365, 164187417, 0.96876466, 0.13485801, 0.07011329, -0.1959409, -1.052149772644043, 1.9618885517120361, 9.683720588684082, 40.10350036621094, 81.56352996826172, -10.919635772705078, 0.3525390625, 0.432373046875, -1.02392578125, 0, 
366, 164204084, 0.96676236, 0.14249897, 0.0804897, -0.19643381, -1.3607672452926636, 2.0867297649383545, 9.532519340515137, 39.787391662597656, 81.01502990722656, -12.528247833251953, 0.37255859375, 0.4248046875, -1.021484375, 0, 
367, 164220751, 0.9645315, 0.15024815, 0.09072695, -0.19716354, -1.518810510635376, 2.1303586959838867, 9.421137809753418, 41.04750061035156, 80.1430435180664, -14.211758613586426, 0.404296875, 0.4150390625, -1.015625, 0, 
368, 164237418, 0.96211433, 0.15793218, 0.10088624, -0.19802897, -1.7498536109924316, 2.2798681259155273, 9.377493858337402, 40.99714279174805, 79.5265121459961, -15.322861671447754, 0.428955078125, 0.40478515625, -1.01171875, 0, 
369, 164254085, 0.9595208, 0.1654249, 0.11101928, -0.19907121, -1.9680547714233398, 2.406395673751831, 9.328388214111328, 40.0795783996582, 79.03617858886719, -16.83451271057129, 0.45458984375, 0.398681640625, -1.0107421875, 0, 
370, 164270752, 0.9567697, 0.17268826, 0.12121879, -0.20019172, -2.1798036098480225, 2.4425339698791504, 9.27556324005127, 38.7104606628418, 79.20654296875, -17.8164005279541, 0.476806640625, 0.386962890625, -1.003173828125, 0, 
371, 164287419, 0.953819, 0.1799758, 0.13132232, -0.20147659, -2.4407241344451904, 2.4543159008026123, 9.125445365905762, 39.374202728271484, 78.59272766113281, -19.036174774169922, 0.50390625, 0.379638671875, -0.9990234375, 0, 
372, 164304086, 0.9506009, 0.18768306, 0.1412091, -0.20296086, -2.667116165161133, 2.579887628555298, 9.0093994140625, 42.935935974121094, 77.76065826416016, -20.064220428466797, 0.52685546875, 0.369873046875, -0.988525390625, 0, 
373, 164320753, 0.94717443, 0.19547847, 0.15099004, -0.20457545, -2.8611743450164795, 2.6241605281829834, 8.783052444458008, 44.053401947021484, 77.23848724365234, -20.984159469604492, 0.553955078125, 0.361328125, -0.9833984375, 0, 
374, 164337420, 0.943597, 0.20306133, 0.16060813, -0.20638877, -2.977780818939209, 2.8549444675445557, 8.773452758789062, 43.304473876953125, 75.77957916259766, -22.491662979125977, 0.57763671875, 0.3486328125, -0.97607421875, 0, 
375, 164354087, 0.9399074, 0.21028219, 0.17030855, -0.20820817, -3.1194937229156494, 2.8470020294189453, 8.85293960571289, 40.99700927734375, 75.9300765991211, -23.204776763916016, 0.598876953125, 0.340576171875, -0.967041015625, 0, 
376, 164370754, 0.9361245, 0.2171411, 0.18006693, -0.20999244, -3.4175405502319336, 2.8604347705841064, 8.648904800415039, 38.66688919067383, 75.96367645263672, -23.61965560913086, 0.6201171875, 0.330322265625, -0.960205078125, 0, 
377, 164387421, 0.9322261, 0.2237344, 0.18981552, -0.21182063, -3.7426669597625732, 2.8828048706054688, 8.438751220703125, 37.19520568847656, 75.60967254638672, -24.3817138671875, 0.64111328125, 0.32275390625, -0.951171875, 0, 
378, 164404088, 0.92813283, 0.23042646, 0.19941506, -0.21379198, -4.016209125518799, 2.9543657302856445, 8.366336822509766, 38.52924728393555, 74.8431396484375, -25.222721099853516, 0.66259765625, 0.31298828125, -0.937255859375, 0, 
379, 164420755, 0.9238754, 0.23712593, 0.20889452, -0.21584474, -4.165428638458252, 3.082005023956299, 8.259089469909668, 39.12257766723633, 74.1937255859375, -25.78076171875, 0.68603515625, 0.303955078125, -0.92724609375, 0, 
380, 164437422, 0.91965336, 0.24309826, 0.21850719, -0.21770601, -4.26781702041626, 3.069216251373291, 8.115483283996582, 33.96964645385742, 74.23320770263672, -25.772247314453125, 0.705078125, 0.296875, -0.915283203125, 0, 
381, 164454089, 0.9154516, 0.24847522, 0.22816767, -0.2194267, -4.502730369567871, 2.8996825218200684, 8.00461483001709, 29.884382247924805, 73.86211395263672, -25.825069427490234, 0.727783203125, 0.29296875, -0.90185546875, 0, 
382, 164470756, 0.9110772, 0.253623, 0.2380882, -0.22119609, -4.724345684051514, 3.0360405445098877, 7.809401035308838, 28.421316146850586, 75.3534927368164, -27.190664291381836, 0.7509765625, 0.287109375, -0.88623046875, 0, 
383, 164487423, 0.9066235, 0.25875318, 0.24775255, -0.22293343, -5.069990158081055, 2.9945828914642334, 7.570380687713623, 28.783912658691406, 73.9179458618164, -26.687942504882812, 0.767578125, 0.2802734375, -0.874755859375, 0, 
384, 164504090, 0.90195537, 0.26431343, 0.2571261, -0.22472511, -5.20656681060791, 2.8408188819885254, 7.254724025726318, 32.38148498535156, 73.04009246826172, -26.09966278076172, 0.78759765625, 0.2763671875, -0.860107421875, 0, 
385, 164520757, 0.89717746, 0.2699893, 0.2661458, -0.22659451, -5.461660861968994, 2.915497303009033, 6.942777156829834, 33.98038864135742, 71.08309936523438, -25.897672653198242, 0.802001953125, 0.26904296875, -0.846923828125, 0, 
386, 164537424, 0.89244497, 0.27510744, 0.27491704, -0.22864562, -5.673922061920166, 3.409761428833008, 6.804399013519287, 31.171630859375, 68.26212310791016, -27.500890731811523, 0.820556640625, 0.264892578125, -0.835205078125, 0, 
387, 164554091, 0.88795066, 0.2791624, 0.2836311, -0.23057748, -5.7808990478515625, 3.525965929031372, 6.716771602630615, 24.052270889282227, 66.01509857177734, -28.29414176940918, 0.8388671875, 0.258544921875, -0.81982421875, 0, 
388, 164570758, 0.8836024, 0.28252816, 0.2921698, -0.23251194, -6.021396636962891, 3.1635870933532715, 6.574148178100586, 19.834625244140625, 63.563087463378906, -29.08521270751953, 0.853759765625, 0.259033203125, -0.806640625, 0, 
389, 164587425, 0.87918466, 0.2860182, 0.30021316, -0.23473403, -6.223565101623535, 3.1115646362304688, 6.3859453201293945, 22.086898803710938, 60.33371353149414, -29.726675033569336, 0.86669921875, 0.254638671875, -0.79345703125, 0, 
390, 164604092, 0.8745416, 0.290024, 0.3078357, -0.23727708, -6.298679828643799, 3.1163432598114014, 6.382308483123779, 26.981914520263672, 58.45555877685547, -30.133066177368164, 0.8828125, 0.248291015625, -0.77783203125, 0, 
391, 164620759, 0.8696396, 0.29463562, 0.3150327, -0.24014899, -6.4484028816223145, 3.0839076042175293, 6.415852069854736, 32.52467346191406, 56.778770446777344, -30.398391723632812, 0.896240234375, 0.246826171875, -0.766357421875, 0, 
392, 164637426, 0.86454666, 0.2995683, 0.32196027, -0.24322727, -6.486444473266602, 3.1481430530548096, 6.49342679977417, 35.71797561645508, 55.697452545166016, -30.704200744628906, 0.908203125, 0.241943359375, -0.752197265625, 0, 
393, 164654093, 0.8594124, 0.3044328, 0.32874107, -0.24629347, -6.51359748840332, 3.3009836673736572, 6.479894638061523, 35.61045837402344, 54.83695983886719, -30.549705505371094, 0.92041015625, 0.234375, -0.73779296875, 0, 
394, 164670760, 0.8543984, 0.3087676, 0.33543724, -0.24929494, -6.629420280456543, 3.319991111755371, 6.317471504211426, 32.21908187866211, 53.31535720825195, -30.98491859436035, 0.933349609375, 0.232177734375, -0.725341796875, 0, 
395, 164687427, 0.84947664, 0.3125149, 0.34222156, -0.2522072, -6.7599406242370605, 3.240896701812744, 6.103960990905762, 28.208786010742188, 52.814422607421875, -31.846904754638672, 0.9453125, 0.224853515625, -0.708984375, 0, 
396, 164704094, 0.84465516, 0.31593323, 0.34888673, -0.25499427, -6.879612445831299, 3.2128968238830566, 5.948829174041748, 25.976821899414062, 51.59114456176758, -31.459671020507812, 0.957763671875, 0.222412109375, -0.701171875, 0, 
397, 164720761, 0.8399635, 0.31888288, 0.3555305, -0.25763017, -6.867160320281982, 3.162386417388916, 5.7869648933410645, 22.6409912109375, 50.671478271484375, -31.43140411376953, 0.966796875, 0.223876953125, -0.68603515625, 0, 
398, 164737428, 0.8352902, 0.32166097, 0.3620892, -0.26022345, -6.966026782989502, 3.034456729888916, 5.5904459953308105, 21.649024963378906, 49.934288024902344, -31.386568069458008, 0.97607421875, 0.219970703125, -0.67236328125, 0, 
399, 164754095, 0.8305543, 0.32474196, 0.36818388, -0.26298866, -7.02741813659668, 2.9476819038391113, 5.438138961791992, 24.77851104736328, 47.59682846069336, -30.70427131652832, 0.982177734375, 0.220458984375, -0.66162109375, 0, 
400, 164770762, 0.8257997, 0.32805145, 0.37390098, -0.26577318, -7.068108558654785, 2.9685585498809814, 5.3993024826049805, 26.85016441345215, 45.86627197265625, -29.426340103149414, 0.998046875, 0.216796875, -0.648193359375, 0, 
401, 164787429, 0.8211052, 0.3312862, 0.37940165, -0.2684965, -7.179037094116211, 3.0485072135925293, 5.253378391265869, 26.522979736328125, 44.494873046875, -28.673572540283203, 1.003662109375, 0.214599609375, -0.637939453125, 0, 
402, 164804096, 0.81665254, 0.33406022, 0.38488612, -0.27082357, -7.282265663146973, 3.065185070037842, 5.1326117515563965, 22.360095977783203, 43.83446502685547, -27.15695571899414, 1.0126953125, 0.21337890625, -0.624755859375, 0, 
403, 164820763, 0.8124729, 0.33636165, 0.39026693, -0.2728379, -7.440004348754883, 2.9645307064056396, 5.076611518859863, 18.4378662109375, 42.37637710571289, -25.906278610229492, 1.0224609375, 0.212646484375, -0.61279296875, 0, 
404, 164837430, 0.80838096, 0.33858174, 0.3955152, -0.27468237, -7.6012282371521, 2.875607490539551, 4.991092681884766, 17.567033767700195, 41.649356842041016, -24.70516014099121, 1.030029296875, 0.213134765625, -0.605224609375, 0, 
405, 164854097, 0.8042382, 0.34094977, 0.40066463, -0.27644557, -7.846480369567871, 2.7582478523254395, 4.870792865753174, 18.468658447265625, 41.71489334106445, -23.715490341186523, 1.034423828125, 0.210205078125, -0.586181640625, 0, 
406, 164870764, 0.79997337, 0.34377944, 0.40551704, -0.27823427, -8.020591735839844, 2.6630282402038574, 4.853553771972656, 21.93790626525879, 41.233375549316406, -22.116947174072266, 1.044189453125, 0.210693359375, -0.577392578125, 0, 
407, 164887431, 0.79565537, 0.3467532, 0.41029385, -0.27991778, -8.013853073120117, 2.7411580085754395, 4.811508655548096, 22.704450607299805, 41.496376037597656, -21.056406021118164, 1.049560546875, 0.206787109375, -0.56396484375, 0, 
408, 164904098, 0.79152876, 0.34928235, 0.41519, -0.2812496, -8.034674644470215, 2.841249704360962, 4.7208781242370605, 18.59031867980957, 41.60102462768555, -20.300640106201172, 1.058837890625, 0.2060546875, -0.552978515625, 0, 
409, 164920765, 0.7878354, 0.35095108, 0.42015588, -0.28216642, -8.23665714263916, 2.9135169982910156, 4.499993324279785, 11.542526245117188, 40.086273193359375, -19.826457977294922, 1.06298828125, 0.2041015625, -0.5380859375, 0, 
410, 164937432, 0.78467953, 0.35160062, 0.4251008, -0.28274503, -8.470602035522461, 2.9204800128936768, 4.263150691986084, 3.784287691116333, 37.264461517333984, -19.843122482299805, 1.0693359375, 0.2099609375, -0.5283203125, 0, 
411, 164954099, 0.7816909, 0.3519352, 0.42987496, -0.2833877, -8.49824047088623, 2.7514216899871826, 4.108981609344482, 2.19297194480896, 35.08829879760742, -20.367290496826172, 1.07763671875, 0.21142578125, -0.514404296875, 0, 
412, 164970766, 0.7787094, 0.35250276, 0.43428084, -0.28417215, -8.423952102661133, 2.4983396530151367, 4.006778717041016, 4.559866905212402, 33.19939422607422, -19.531768798828125, 1.08056640625, 0.213623046875, -0.507080078125, 0, 
413, 164987433, 0.7756484, 0.3535713, 0.43809745, -0.2853555, -8.334134101867676, 2.5038163661956787, 3.7787766456604004, 9.771688461303711, 30.29520606994629, -18.89275360107422, 1.08544921875, 0.215087890625, -0.49658203125, 0, 
414, 165004100, 0.7725206, 0.35503864, 0.44137773, -0.28695893, -8.276660919189453, 2.6381072998046875, 3.6586854457855225, 14.374001502990723, 27.39716911315918, -18.756834030151367, 1.08837890625, 0.215087890625, -0.489013671875, 0, 
415, 165020767, 0.7696268, 0.3563244, 0.44437835, -0.28850585, -8.324470520019531, 2.538545608520508, 3.7193257808685303, 13.212581634521484, 24.980165481567383, -17.863554000854492, 1.0908203125, 0.21826171875, -0.48095703125, 0, 
416, 165037434, 0.7669121, 0.35739353, 0.44725427, -0.2899645, -8.382488250732422, 2.5185699462890625, 3.863725185394287, 11.600723266601562, 23.561765670776367, -17.396081924438477, 1.09912109375, 0.217041015625, -0.47607421875, 0, 
417, 165054101, 0.7643055, 0.3583376, 0.4500873, -0.2912951, -8.481180191040039, 2.656109094619751, 3.8929202556610107, 10.362903594970703, 23.07368278503418, -16.784597396850586, 1.099853515625, 0.217041015625, -0.46728515625, 0, 
418, 165070768, 0.76194096, 0.35897765, 0.4528693, -0.2923877, -8.476508140563965, 2.574709892272949, 3.712160348892212, 7.529795169830322, 22.04065704345703, -15.864900588989258, 1.103759765625, 0.2197265625, -0.457275390625, 0, 
419, 165087435, 0.75978917, 0.35935813, 0.45557174, -0.29332015, -8.513070106506348, 2.4109737873077393, 3.572061061859131, 5.301726341247559, 20.839195251464844, -15.209888458251953, 1.104736328125, 0.220703125, -0.455078125, 0, 
420, 165104102, 0.75772357, 0.35980648, 0.45811507, -0.294152, -8.4867525100708, 2.258375406265259, 3.5397961139678955, 5.446193695068359, 20.126502990722656, -13.902558326721191, 1.107177734375, 0.222412109375, -0.44384765625, 0, 
421, 165120769, 0.7555342, 0.36075464, 0.46032834, -0.29516524, -8.600006103515625, 2.2803640365600586, 3.4605860710144043, 9.592398643493652, 19.36220359802246, -12.703638076782227, 1.109619140625, 0.22216796875, -0.43994140625, 0, 
422, 165137436, 0.7533662, 0.3619929, 0.46213654, -0.29636234, -8.839751243591309, 2.282979726791382, 3.3085503578186035, 12.447491645812988, 17.325170516967773, -11.69060230255127, 1.113525390625, 0.22412109375, -0.437744140625, 0, 
423, 165154103, 0.75133604, 0.36322594, 0.46371776, -0.29753533, -8.9118070602417, 2.2571144104003906, 3.226435661315918, 12.460102081298828, 15.76004695892334, -10.73517894744873, 1.11572265625, 0.223876953125, -0.433349609375, 0, 
424, 165170770, 0.7493829, 0.36446086, 0.4651817, -0.29866326, -8.813440322875977, 2.312281370162964, 3.2940850257873535, 12.371672630310059, 15.02291202545166, -10.043697357177734, 1.11767578125, 0.222412109375, -0.42578125, 0, 
425, 165187437, 0.74760884, 0.36545646, 0.46656594, -0.2997314, -8.774774551391602, 2.3217010498046875, 3.322380304336548, 10.659624099731445, 13.699010848999023, -9.933561325073242, 1.120849609375, 0.221435546875, -0.423828125, 0, 
426, 165204104, 0.74609524, 0.36599854, 0.4679911, -0.30061883, -8.813128471374512, 2.3327956199645996, 3.287771463394165, 7.0079498291015625, 12.596044540405273, -10.023585319519043, 1.120849609375, 0.220703125, -0.417724609375, 0, 
427, 165220771, 0.744675, 0.36636063, 0.46939895, -0.30150276, -8.899724960327148, 2.2760581970214844, 3.3118791580200195, 5.871089458465576, 11.844963073730469, -10.347559928894043, 1.12353515625, 0.225341796875, -0.416748046875, 0, 
428, 165237438, 0.7430555, 0.3671503, 0.47065213, -0.30258223, -8.907403945922852, 2.2135283946990967, 3.321296215057373, 9.512706756591797, 12.09242057800293, -9.990878105163574, 1.121337890625, 0.22216796875, -0.411376953125, 0, 
429, 165254105, 0.74131113, 0.36834425, 0.4716637, -0.3038318, -8.859207153320312, 2.199678659439087, 3.321136951446533, 12.943934440612793, 11.678396224975586, -9.200895309448242, 1.124755859375, 0.22265625, -0.40625, 0, 
430, 165270772, 0.73961043, 0.36950427, 0.47259614, -0.3051165, -8.85090446472168, 2.441833972930908, 3.2797725200653076, 12.937926292419434, 10.978590965270996, -9.19766616821289, 1.124267578125, 0.22314453125, -0.405517578125, 0, 
431, 165287439, 0.7380267, 0.37030295, 0.4736919, -0.30628207, -8.786543846130371, 2.5268564224243164, 3.319986343383789, 10.071642875671387, 10.977999687194824, -9.938435554504395, 1.12646484375, 0.21923828125, -0.39990234375, 0, 
432, 165304106, 0.7366292, 0.37070337, 0.47493938, -0.30722836, -8.80272388458252, 2.302565813064575, 3.2606966495513916, 6.540720462799072, 10.86682415008545, -10.119963645935059, 1.130126953125, 0.222900390625, -0.395263671875, 0, 
433, 165320773, 0.73516077, 0.37127778, 0.47613055, -0.30820683, -8.884023666381836, 2.1168923377990723, 3.1364331245422363, 7.824623107910156, 11.1043701171875, -9.722890853881836, 1.129638671875, 0.22314453125, -0.396240234375, 0, 
434, 165337440, 0.7335103, 0.37228182, 0.47708923, -0.3094429, -8.904755592346191, 2.1316094398498535, 3.017592668533325, 11.794520378112793, 10.78170394897461, -9.409457206726074, 1.1318359375, 0.221923828125, -0.390625, 0, 
435, 165354107, 0.73171085, 0.37348804, 0.47797704, -0.31087664, -9.068197250366211, 2.218146562576294, 3.1330182552337646, 13.993618965148926, 10.839129447937012, -9.87841510772705, 1.130615234375, 0.22021484375, -0.390869140625, 0, 
436, 165370774, 0.7299503, 0.37455937, 0.4790247, -0.3121111, -9.035258293151855, 2.219284772872925, 3.3755099773406982, 12.215800285339355, 11.742413520812988, -9.648488998413086, 1.131103515625, 0.22021484375, -0.385009765625, 0, 
437, 165387441, 0.7283258, 0.3753593, 0.48030427, -0.31297782, -8.924216270446777, 2.202927350997925, 3.3330471515655518, 8.794475555419922, 12.831822395324707, -9.0016508102417, 1.135498046875, 0.220703125, -0.380615234375, 0, 
438, 165404108, 0.72683257, 0.37589926, 0.48162088, -0.31377637, -8.986971855163574, 2.208684206008911, 3.033970594406128, 6.846447467803955, 12.21009635925293, -9.33344841003418, 1.134521484375, 0.222412109375, -0.376708984375, 0, 
439, 165420775, 0.72550666, 0.3761054, 0.48296952, -0.31452405, -8.991901397705078, 2.148300886154175, 2.954630136489868, 4.5070576667785645, 11.231600761413574, -9.90548324584961, 1.1357421875, 0.2236328125, -0.373046875, 0, 
440, 165437442, 0.72427464, 0.37621033, 0.48426053, -0.31525216, -9.028285026550293, 2.064152956008911, 2.9942102432250977, 3.8171916007995605, 10.467317581176758, -9.791633605957031, 1.13623046875, 0.222412109375, -0.37158203125, 0, 
441, 165454109, 0.72303426, 0.37655193, 0.48524538, -0.316176, -9.070030212402344, 2.0092804431915283, 2.915170431137085, 6.331066131591797, 8.981047630310059, -9.20273208618164, 1.13818359375, 0.22607421875, -0.36767578125, 0, 
442, 165470776, 0.7217056, 0.37711605, 0.48598623, -0.31739894, -9.034781455993652, 2.0474557876586914, 2.822624921798706, 9.192815780639648, 7.7755231857299805, -9.507589340209961, 1.139404296875, 0.227783203125, -0.362548828125, 0, 
443, 165487443, 0.72036797, 0.37779164, 0.48656473, -0.31874505, -9.009866714477539, 2.0641121864318848, 2.925436496734619, 10.532872200012207, 6.925038814544678, -9.344179153442383, 1.14111328125, 0.225341796875, -0.36376953125, 0, 
444, 165504110, 0.7191232, 0.37840682, 0.4870388, -0.3200993, -8.99975872039795, 1.9797900915145874, 2.9300343990325928, 10.248391151428223, 5.94843864440918, -9.114023208618164, 1.1396484375, 0.224365234375, -0.360595703125, 0, 
445, 165520777, 0.7180087, 0.37876555, 0.48757428, -0.32135898, -8.990011215209961, 2.0518150329589844, 2.9015724658966064, 8.188014030456543, 5.502418518066406, -9.377897262573242, 1.14208984375, 0.2255859375, -0.35986328125, 0, 
446, 165537444, 0.71714634, 0.37876517, 0.4881755, -0.3223706, -8.95730209350586, 2.0613625049591064, 2.9324052333831787, 4.780458927154541, 4.838624954223633, -8.971357345581055, 1.14404296875, 0.224365234375, -0.35791015625, 0, 
447, 165554111, 0.71636707, 0.3787606, 0.4886726, -0.32335418, -9.060744285583496, 2.059227705001831, 2.9085230827331543, 4.678750991821289, 4.115667819976807, -8.393035888671875, 1.143798828125, 0.2265625, -0.357421875, 0, 
448, 165570778, 0.7154469, 0.3789712, 0.48907593, -0.32453257, -9.157230377197266, 1.9492141008377075, 2.7701194286346436, 6.967657566070557, 4.102747440338135, -8.69886589050293, 1.143798828125, 0.227294921875, -0.357177734375, 0, 
449, 165587445, 0.71444345, 0.3793527, 0.48942053, -0.3257757, -9.154645919799805, 1.8236169815063477, 2.6973531246185303, 8.373885154724121, 4.308020114898682, -8.475791931152344, 1.14306640625, 0.228515625, -0.355224609375, 0, 
450, 165604112, 0.71330434, 0.379984, 0.48965344, -0.32718298, -9.172897338867188, 1.78225576877594, 2.6663613319396973, 10.75534439086914, 4.348783493041992, -8.452792167663574, 1.1455078125, 0.228515625, -0.353271484375, 0, 
451, 165620779, 0.7121971, 0.38072404, 0.4897366, -0.3286072, -9.144804954528809, 1.8749372959136963, 2.6747801303863525, 11.600691795349121, 3.7077741622924805, -7.706027984619141, 1.142822265625, 0.22802734375, -0.351806640625, 0, 
452, 165637446, 0.7111551, 0.38131276, 0.48998317, -0.32981175, -9.104252815246582, 1.8645435571670532, 2.6063921451568604, 9.578207015991211, 4.522500514984131, -7.421315670013428, 1.144287109375, 0.226806640625, -0.349365234375, 0, 
453, 165654113, 0.71023154, 0.3817727, 0.4903144, -0.33077607, -9.133188247680664, 1.8694078922271729, 2.628974676132202, 7.636582851409912, 4.875315189361572, -6.633223533630371, 1.1416015625, 0.22802734375, -0.3525390625, 0, 
454, 165670780, 0.7094699, 0.38203642, 0.49066204, -0.33158934, -9.139426231384277, 1.8340879678726196, 2.4994752407073975, 5.707010269165039, 4.360307216644287, -6.232204914093018, 1.1455078125, 0.22900390625, -0.346923828125, 0, 
455, 165687447, 0.7088486, 0.38229278, 0.4910068, -0.3321123, -9.12346363067627, 1.8837666511535645, 2.4497368335723877, 4.3293538093566895, 4.61686897277832, -4.512542724609375, 1.14453125, 0.230712890625, -0.344970703125, 0, 
456, 165704114, 0.7085364, 0.3821229, 0.49128625, -0.33256054, -9.34852123260498, 1.7111151218414307, 2.5549428462982178, 1.33749520778656, 2.4759669303894043, -4.709259986877441, 1.144775390625, 0.229736328125, -0.345703125, 0, 
457, 165720781, 0.708165, 0.382034, 0.4914868, -0.33315665, -9.120111465454102, 1.5186201333999634, 2.678009510040283, 2.568108558654785, 2.086000680923462, -5.081015586853027, 1.147216796875, 0.230712890625, -0.345947265625, 0, 
458, 165737448, 0.7076457, 0.38235697, 0.49141547, -0.3339938, -9.098814010620117, 1.5555192232131958, 2.7708418369293213, 6.400320053100586, 1.5748226642608643, -4.482767105102539, 1.146240234375, 0.23095703125, -0.343994140625, 0, 
459, 165754115, 0.7070408, 0.38299173, 0.491135, -0.33495864, -9.14320182800293, 1.6327250003814697, 2.75105881690979, 9.054475784301758, 1.2310490608215332, -3.6941912174224854, 1.145751953125, 0.23095703125, -0.34423828125, 0, 
460, 165770782, 0.7066026, 0.38344562, 0.49085775, -0.33576936, -9.123023986816406, 1.7024881839752197, 2.7082295417785645, 7.209386825561523, 0.6772767305374146, -3.178696393966675, 1.145263671875, 0.22802734375, -0.34521484375, 0, 
461, 165787449, 0.70640093, 0.38352317, 0.49070624, -0.33632585, -9.127128601074219, 1.6491729021072388, 2.6969563961029053, 3.6099441051483154, 0.29353436827659607, -2.997051239013672, 1.145263671875, 0.2275390625, -0.34521484375, 0, 
462, 165804116, 0.7064062, 0.38331434, 0.49062222, -0.33667535, -9.226399421691895, 1.6376160383224487, 2.713866949081421, 0.8218218684196472, -0.191000297665596, -2.6551215648651123, 1.14697265625, 0.229248046875, -0.34423828125, 0, 
463, 165820783, 0.7064309, 0.3830654, 0.490525, -0.33704853, -9.376141548156738, 1.5580289363861084, 2.6592633724212646, 0.6868557333946228, -0.47389256954193115, -2.8220009803771973, 1.143798828125, 0.230224609375, -0.341796875, 0, 
464, 165837450, 0.70638686, 0.38300827, 0.49029937, -0.33753386, -9.323408126831055, 1.4552617073059082, 2.649632215499878, 2.4777472019195557, -0.7157917022705078, -2.5364065170288086, 1.146240234375, 0.232421875, -0.34375, 0, 
465, 165854117, 0.70628, 0.38315332, 0.48994198, -0.3381112, -9.267006874084473, 1.5052404403686523, 2.680452823638916, 4.242706298828125, -0.9161727428436279, -2.0965473651885986, 1.14306640625, 0.229248046875, -0.343017578125, 0, 
466, 165870784, 0.7062066, 0.3833334, 0.48950619, -0.338691, -9.272491455078125, 1.7027006149291992, 2.7011237144470215, 4.518016338348389, -1.3333908319473267, -1.701176404953003, 1.1455078125, 0.232421875, -0.348388671875, 0, 
467, 165887451, 0.7062543, 0.3832787, 0.48918548, -0.339117, -9.31826400756836, 1.7581977844238281, 2.6811699867248535, 2.2750093936920166, -1.322518229484558, -1.7648365497589111, 1.143798828125, 0.229736328125, -0.34619140625, 0, 
468, 165904118, 0.7064141, 0.38301465, 0.4889337, -0.33944485, -9.269974708557129, 1.6243021488189697, 2.586420774459839, 0.4744112193584442, -1.5936542749404907, -1.9107266664505005, 1.145263671875, 0.231689453125, -0.347900390625, 0, 
469, 165920785, 0.70654184, 0.38293162, 0.48853076, -0.33985266, -9.232917785644531, 1.4927361011505127, 2.5709939002990723, 2.061924934387207, -2.0095789432525635, -1.364356517791748, 1.1435546875, 0.232177734375, -0.3486328125, 0, 
470, 165937452, 0.7065178, 0.38316327, 0.48793697, -0.34049392, -9.259623527526855, 1.4872328042984009, 2.667010545730591, 5.2220072746276855, -2.3076083660125732, -1.2887862920761108, 1.1435546875, 0.230224609375, -0.350341796875, 0, 
471, 165954119, 0.70636344, 0.38373375, 0.48714522, -0.3413048, -9.25723648071289, 1.6202820539474487, 2.7701416015625, 8.24700927734375, -2.484861373901367, -0.7577582597732544, 1.14208984375, 0.231689453125, -0.35009765625, 0, 
472, 165970786, 0.7062272, 0.3843055, 0.48635888, -0.34206396, -9.211060523986816, 1.7323570251464844, 2.7645843029022217, 8.022385597229004, -2.377838611602783, -0.47280409932136536, 1.140869140625, 0.230712890625, -0.35205078125, 0, 
473, 165987453, 0.7061988, 0.38467515, 0.4856891, -0.34265798, -9.192272186279297, 1.6835051774978638, 2.7310233116149902, 5.932516098022461, -2.209831953048706, -0.4010372459888458, 1.143310546875, 0.22802734375, -0.35595703125, 0, 
474, 166004120, 0.70621246, 0.38495308, 0.485061, -0.34320718, -9.260934829711914, 1.5936349630355835, 2.783233880996704, 5.129980564117432, -2.244511365890503, -0.4999919533729553, 1.141845703125, 0.230224609375, -0.3525390625, 0, 
475, 166020787, 0.7062552, 0.38523194, 0.48444235, -0.34367952, -9.22675609588623, 1.5943078994750977, 2.8002796173095703, 4.782429218292236, -2.0881333351135254, -0.07701099663972855, 1.13916015625, 0.22509765625, -0.35498046875, 0, 
476, 166037454, 0.70640385, 0.38539776, 0.4838316, -0.34404838, -9.232576370239258, 1.6658744812011719, 2.8521745204925537, 3.592411994934082, -2.3937437534332275, 0.2800748646259308, 1.14013671875, 0.2275390625, -0.355224609375, 0, 
477, 166054121, 0.70662934, 0.3854807, 0.4832159, -0.3443576, -9.188634872436523, 1.760637879371643, 2.838188409805298, 2.803361415863037, -2.7096123695373535, 0.4917895197868347, 1.138427734375, 0.226318359375, -0.356201171875, 0, 
478, 166070788, 0.706873, 0.3855201, 0.4826382, -0.34462345, -9.179393768310547, 1.70647132396698, 2.863924741744995, 2.3130316734313965, -2.5704712867736816, 0.5001903772354126, 1.14111328125, 0.22900390625, -0.357421875, 0, 
479, 166087455, 0.70700467, 0.38569656, 0.4820623, -0.34496173, -9.249122619628906, 1.6605263948440552, 2.7543694972991943, 3.514868974685669, -2.0558865070343018, 0.33451464772224426, 1.136474609375, 0.227294921875, -0.360595703125, 0, 
480, 166104122, 0.70705396, 0.38606602, 0.4813893, -0.34538692, -9.205911636352539, 1.6524773836135864, 2.7900118827819824, 5.193244457244873, -2.027533531188965, 0.615562915802002, 1.142333984375, 0.2255859375, -0.3603515625, 0, 
481, 166120789, 0.706987, 0.38659602, 0.48071533, -0.34586954, -9.114599227905273, 1.6799674034118652, 2.8965611457824707, 6.477811813354492, -1.418117880821228, 0.5955978631973267, 1.135986328125, 0.223876953125, -0.361572265625, 0, 
482, 166137456, 0.7069155, 0.38709366, 0.48008895, -0.346329, -9.115493774414062, 1.6826599836349487, 2.8912129402160645, 6.1464338302612305, -1.1839535236358643, 0.46511390805244446, 1.138916015625, 0.22412109375, -0.36083984375, 0, 
483, 166154123, 0.70696425, 0.38740045, 0.47954807, -0.34663564, -9.196022987365723, 1.7481509447097778, 2.8151721954345703, 4.194976329803467, -1.2106547355651855, 0.6381276249885559, 1.13623046875, 0.222900390625, -0.3623046875, 0, 
484, 166170790, 0.7070565, 0.38764608, 0.4790572, -0.3468515, -9.193211555480957, 1.7825545072555542, 2.822331190109253, 3.3658158779144287, -1.014807105064392, 0.849393904209137, 1.1376953125, 0.22314453125, -0.3623046875, 0, 
485, 166187457, 0.7071687, 0.38784847, 0.47855777, -0.34708592, -9.195381164550781, 1.7486242055892944, 2.8518381118774414, 3.1877951622009277, -1.2738925218582153, 0.6884821057319641, 1.138427734375, 0.2216796875, -0.363037109375, 0, 
486, 166204124, 0.70726085, 0.38809067, 0.47800493, -0.3473894, -9.193445205688477, 1.7376554012298584, 2.8965861797332764, 3.79386830329895, -1.5554143190383911, 0.5775406956672668, 1.140625, 0.221923828125, -0.36767578125, 0, 
487, 166220791, 0.70730036, 0.3885144, 0.47734475, -0.34774277, -9.155805587768555, 1.7184001207351685, 2.8478386402130127, 5.2400126457214355, -1.6023625135421753, 1.09498131275177, 1.13671875, 0.220703125, -0.365478515625, 0, 
488, 166237458, 0.7072312, 0.3891271, 0.47661367, -0.34820077, -9.142481803894043, 1.7041536569595337, 2.8093628883361816, 6.966578006744385, -1.4176950454711914, 1.1365764141082764, 1.137451171875, 0.2177734375, -0.369873046875, 0, 
489, 166254125, 0.7071332, 0.3898427, 0.47576934, -0.34875354, -9.142894744873047, 1.7797659635543823, 2.821230888366699, 8.129676818847656, -1.880516767501831, 1.2469031810760498, 1.1396484375, 0.2158203125, -0.369384765625, 0, 
490, 166270792, 0.70709896, 0.3904501, 0.47494853, -0.3492618, -9.147698402404785, 1.8610517978668213, 2.864067316055298, 7.234692573547363, -2.1150264739990234, 1.2000960111618042, 1.13720703125, 0.21630859375, -0.37109375, 0, 
491, 166287459, 0.70719075, 0.39081737, 0.47427288, -0.34958318, -9.120559692382812, 1.8451811075210571, 2.8740921020507812, 4.7731451988220215, -1.8945907354354858, 1.2359280586242676, 1.13671875, 0.21533203125, -0.37353515625, 0, 
492, 166304126, 0.7073534, 0.3910707, 0.47361875, -0.3498575, -9.122209548950195, 1.8792237043380737, 2.871196985244751, 3.8282155990600586, -2.16780161857605, 1.2070242166519165, 1.14111328125, 0.214599609375, -0.37255859375, 0, 
493, 166320793, 0.7074581, 0.3913972, 0.47290924, -0.35024032, -9.107548713684082, 1.8831859827041626, 2.8367972373962402, 4.830081462860107, -2.3636233806610107, 0.9267187714576721, 1.135986328125, 0.214111328125, -0.3720703125, 0, 
494, 166337460, 0.7075134, 0.391865, 0.47210738, -0.35068697, -9.097697257995605, 1.8758556842803955, 2.784914493560791, 6.084181785583496, -2.483823776245117, 1.2044116258621216, 1.13818359375, 0.214111328125, -0.375244140625, 0, 
495, 166354127, 0.70755076, 0.39242694, 0.471154, -0.351265, -9.073919296264648, 1.8793607950210571, 2.7719714641571045, 7.387216091156006, -3.290982723236084, 1.2357746362686157, 1.1337890625, 0.211181640625, -0.373779296875, 0, 
496, 166370794, 0.7075472, 0.3931398, 0.47002712, -0.35198408, -9.036791801452637, 1.9305684566497803, 2.75854229927063, 9.11114501953125, -4.019434452056885, 1.4063042402267456, 1.135009765625, 0.209716796875, -0.375, 0, 
497, 166387461, 0.70751905, 0.3939528, 0.46874052, -0.35284635, -9.074586868286133, 2.0148065090179443, 2.813734531402588, 10.518025398254395, -4.862796783447266, 1.4036403894424438, 1.134765625, 0.210205078125, -0.379150390625, 0, 
498, 166404128, 0.7074676, 0.39482227, 0.46734974, -0.3538215, -9.029622077941895, 1.9885202646255493, 2.887971878051758, 11.4766845703125, -5.464529991149902, 1.2606321573257446, 1.13330078125, 0.2041015625, -0.381103515625, 0, 
499, 166420795, 0.7073524, 0.39580023, 0.46584958, -0.3549353, -9.077486991882324, 1.9822485446929932, 2.9853508472442627, 12.893417358398438, -5.90331506729126, 1.0719178915023804, 1.132568359375, 0.201171875, -0.3798828125, 0, 
500, 166437462, 0.70721376, 0.3968682, 0.46419114, -0.3561895, -9.06322956085205, 1.9967788457870483, 2.996215581893921, 14.235511779785156, -6.7590107917785645, 1.049378752708435, 1.133544921875, 0.19970703125, -0.3896484375, 0, 
501, 166454129, 0.70707786, 0.3979146, 0.4624877, -0.35750565, -9.035621643066406, 2.0651586055755615, 2.998093366622925, 14.435434341430664, -7.206593990325928, 0.806134819984436, 1.13330078125, 0.197509765625, -0.3896484375, 0, 
502, 166470796, 0.70693976, 0.3989219, 0.46077725, -0.358862, -9.029217720031738, 2.080188274383545, 3.016216516494751, 14.400765419006348, -7.437799453735352, 0.49648982286453247, 1.12939453125, 0.193115234375, -0.395263671875, 0, 
503, 166487463, 0.70684123, 0.39986718, 0.45900607, -0.36027122, -9.023691177368164, 2.085886001586914, 3.0617165565490723, 14.312119483947754, -8.154969215393066, 0.30454808473587036, 1.129150390625, 0.191650390625, -0.3935546875, 0, 
504, 166504130, 0.70671993, 0.40080464, 0.45718855, -0.36177537, -9.049556732177734, 2.09319806098938, 3.051980495452881, 14.755182266235352, -8.586492538452148, -0.11540453135967255, 1.12841796875, 0.187744140625, -0.398193359375, 0, 
505, 166520797, 0.70656276, 0.40176594, 0.45528963, -0.36340722, -9.065035820007324, 2.087775468826294, 3.090346336364746, 15.57892894744873, -9.160679817199707, -0.5278463363647461, 1.130126953125, 0.1845703125, -0.40234375, 0, 
506, 166537464, 0.7063617, 0.40270117, 0.45336637, -0.36516306, -9.015995979309082, 2.126556396484375, 3.16473650932312, 16.026138305664062, -9.54704761505127, -1.2581932544708252, 1.126220703125, 0.181640625, -0.40478515625, 0, 
507, 166554131, 0.7061129, 0.4036398, 0.45141584, -0.36701977, -8.970239639282227, 2.1222052574157715, 3.1736083030700684, 16.56201171875, -9.799501419067383, -1.786545753479004, 1.127197265625, 0.178466796875, -0.41064453125, 0, 
508, 166570798, 0.70587265, 0.4044998, 0.44944745, -0.3689457, -8.95584487915039, 2.1347410678863525, 3.171421766281128, 16.420555114746094, -10.300705909729004, -2.297865629196167, 1.123779296875, 0.178955078125, -0.412109375, 0, 
509, 166587465, 0.705638, 0.40533227, 0.44745043, -0.37090307, -8.948180198669434, 2.194664716720581, 3.199707269668579, 16.445423126220703, -10.611654281616211, -2.4462015628814697, 1.121337890625, 0.176025390625, -0.418701171875, 0, 
