sep=,
DeviceTag:,Xsens_5,,,,,,,,,,,,,,,,,
FirmwareVersion:,2.2.1,,,,,,,,,,,,,,,,,
AppVersion:,2023.0.0,,,,,,,,,,,,,,,,,
StartTime:,2023-07-03 13:37:04.000 +0200,,,,,,,,,,,,,,,,,
© Movella Technologies B. V. 2005-2023,,,,,,,,,,,,,,,,,,,

PacketCounter,SampleTimeFine,Quat_W,Quat_X,Quat_Y,Quat_Z,Acc_X,Acc_Y,Acc_Z,Gyr_X,Gyr_Y,Gyr_Z,Mag_X,Mag_Y,Mag_Z,Status,
0, 2072460621, 0.14958908, -0.6092215, -0.21043052, -0.7497941, 0.0, 0.0, 0.0, 0.0, 0.0, 0.0, -0.7890625, -1.115966796875, 0.492431640625, 0, 
1, 2072477288, 0.1486624, -0.6094513, -0.21054447, -0.7497598, 9.724605560302734, 1.3963305950164795, 1.6643638610839844, -2.1257898807525635, -1.2093931436538696, 1.4412585496902466, -0.790283203125, -1.115234375, 0.49462890625, 0, 
2, 2072493955, 0.1481695, -0.609592, -0.21079512, -0.74967253, 9.706550598144531, 1.3632768392562866, 1.6796587705612183, -2.036888360977173, -0.8703196048736572, 1.7274806499481201, -0.78955078125, -1.110107421875, 0.4951171875, 0, 
3, 2072510622, 0.14806224, -0.6096651, -0.21086085, -0.74961585, 9.719613075256348, 1.3675198554992676, 1.7129476070404053, -2.1753122806549072, -0.8268804550170898, 1.780959963798523, -0.787841796875, -1.11474609375, 0.491943359375, 0, 
4, 2072527289, 0.14782393, -0.6097212, -0.21055092, -0.7497045, 9.702597618103027, 1.4050732851028442, 1.7438127994537354, -2.4121272563934326, -0.7578414082527161, 1.7846354246139526, -0.78955078125, -1.113525390625, 0.492919921875, 0, 
5, 2072543956, 0.14766136, -0.60969925, -0.21030442, -0.7498235, 9.66091251373291, 1.3922876119613647, 1.7916690111160278, -2.5444931983947754, -1.1429153680801392, 1.78578782081604, -0.7900390625, -1.113037109375, 0.48974609375, 0, 
6, 2072560623, 0.14735039, -0.60964894, -0.20988487, -0.7500431, 9.677733421325684, 1.4339953660964966, 1.7337028980255127, -3.58370304107666, -1.4040625095367432, 1.5229374170303345, -0.792724609375, -1.111328125, 0.488037109375, 0, 
7, 2072577290, 0.14701518, -0.6096338, -0.20949107, -0.75023127, 9.657148361206055, 1.4545092582702637, 1.7214895486831665, -3.9877688884735107, -1.4149478673934937, 1.5342838764190674, -0.792236328125, -1.11181640625, 0.489013671875, 0, 
8, 2072593957, 0.14668192, -0.6096535, -0.20913182, -0.7503807, 9.679739952087402, 1.464219331741333, 1.7384607791900635, -4.2441911697387695, -1.4335942268371582, 1.615040898323059, -0.79296875, -1.113525390625, 0.4912109375, 0, 
9, 2072610624, 0.14645542, -0.60967606, -0.20894243, -0.7504592, 9.653593063354492, 1.410238265991211, 1.752890706062317, -3.238252639770508, -1.6057757139205933, 1.5269590616226196, -0.792236328125, -1.115234375, 0.485595703125, 0, 
10, 2072627291, 0.14629178, -0.6097032, -0.2088789, -0.75048673, 9.630020141601562, 1.38275945186615, 1.7300893068313599, -1.3260976076126099, -1.671151876449585, 1.2458850145339966, -0.792236328125, -1.115234375, 0.488037109375, 0, 
11, 2072643958, 0.14625376, -0.60975957, -0.20897146, -0.7504227, 9.624774932861328, 1.4417400360107422, 1.7748771905899048, -0.22203651070594788, -2.0636537075042725, 0.994521975517273, -0.792236328125, -1.11083984375, 0.488525390625, 0, 
12, 2072660625, 0.14618203, -0.60983074, -0.20907551, -0.75034976, 9.592741012573242, 1.5052289962768555, 1.7903534173965454, -0.6095182299613953, -2.311418294906616, 0.7232450842857361, -0.792236328125, -1.113525390625, 0.485595703125, 0, 
13, 2072677292, 0.14593768, -0.60994464, -0.20903865, -0.7503151, 9.60788631439209, 1.5083287954330444, 1.7575092315673828, -1.600947380065918, -2.4569876194000244, 0.6946612596511841, -0.79052734375, -1.11474609375, 0.486328125, 0, 
14, 2072693959, 0.14567722, -0.610064, -0.209068, -0.7502606, 9.608241081237793, 1.4463952779769897, 1.7549384832382202, -1.3129326105117798, -2.5860116481781006, 0.4274439811706543, -0.792724609375, -1.11474609375, 0.48681640625, 0, 
15, 2072710626, 0.14544287, -0.6101872, -0.20919965, -0.7501691, 9.642730712890625, 1.4311641454696655, 1.7600802183151245, -0.6921192407608032, -2.771038055419922, 0.03471161052584648, -0.79296875, -1.115234375, 0.489013671875, 0, 
16, 2072727293, 0.14531213, -0.6102771, -0.20951258, -0.7500338, 9.636785507202148, 1.4141453504562378, 1.76779305934906, 0.4959450662136078, -2.7984049320220947, -0.4026188552379608, -0.791259765625, -1.1142578125, 0.48681640625, 0, 
17, 2072743960, 0.14516315, -0.6103758, -0.20979527, -0.7499033, 9.65128231048584, 1.450149655342102, 1.7828303575515747, 0.53094482421875, -2.7505605220794678, -0.479597806930542, -0.78955078125, -1.11474609375, 0.486328125, 0, 
18, 2072760627, 0.14501432, -0.61047816, -0.21009775, -0.74976426, 9.644307136535645, 1.4224315881729126, 1.8005720376968384, 0.8572378158569336, -2.787750244140625, -0.6011428833007812, -0.791259765625, -1.115234375, 0.489013671875, 0, 
19, 2072777294, 0.14490053, -0.61055547, -0.2104324, -0.7496295, 9.6790771484375, 1.3687875270843506, 1.794268012046814, 1.0182008743286133, -2.6628754138946533, -0.7465205788612366, -0.791748046875, -1.1142578125, 0.489501953125, 0, 
20, 2072793961, 0.14481425, -0.6106118, -0.21082129, -0.749491, 9.692394256591797, 1.379922866821289, 1.813636302947998, 1.4026347398757935, -2.586216688156128, -1.0468037128448486, -0.7900390625, -1.116455078125, 0.48681640625, 0, 
21, 2072810628, 0.1446518, -0.61065423, -0.21109928, -0.7494093, 9.725787162780762, 1.3790696859359741, 1.7785228490829468, 1.0106194019317627, -2.2064058780670166, -1.0966718196868896, -0.79248046875, -1.11572265625, 0.4912109375, 0, 
22, 2072827295, 0.14456895, -0.61065805, -0.21135394, -0.74935055, 9.732121467590332, 1.3719617128372192, 1.791723608970642, 0.676860511302948, -1.8156203031539917, -0.8837278485298157, -0.791748046875, -1.11572265625, 0.49072265625, 0, 
23, 2072843962, 0.14447728, -0.6106255, -0.21150039, -0.74935335, 9.745006561279297, 1.3945581912994385, 1.7546194791793823, 0.18938671052455902, -1.2302676439285278, -0.6753940582275391, -0.7890625, -1.116455078125, 0.48974609375, 0, 
24, 2072860629, 0.1444206, -0.6105639, -0.21155713, -0.7493985, 9.731603622436523, 1.3600637912750244, 1.7695896625518799, -0.0048408000729978085, -0.6833211779594421, -0.2528614103794098, -0.788330078125, -1.1181640625, 0.489013671875, 0, 
25, 2072877296, 0.14442714, -0.6104555, -0.21156089, -0.74948454, 9.720959663391113, 1.3460911512374878, 1.777764916419983, 0.048158276826143265, -0.07760647684335709, 0.10832250863313675, -0.78955078125, -1.1181640625, 0.48974609375, 0, 
26, 2072893963, 0.14445463, -0.61032367, -0.21151929, -0.74959826, 9.682428359985352, 1.3065993785858154, 1.7768421173095703, -0.11236290633678436, 0.2630360424518585, 0.25927093625068665, -0.7890625, -1.1181640625, 0.48974609375, 0, 
27, 2072910630, 0.14449213, -0.610167, -0.21143958, -0.749741, 9.658422470092773, 1.301417350769043, 1.7678619623184204, -0.3088763356208801, 0.5853462219238281, 0.30876749753952026, -0.788818359375, -1.115234375, 0.486328125, 0, 
28, 2072927297, 0.14447509, -0.61005414, -0.21130076, -0.74987525, 9.674138069152832, 1.2981185913085938, 1.7988611459732056, -0.7857719659805298, 0.34627726674079895, 0.2841152548789978, -0.790771484375, -1.116455078125, 0.490234375, 0, 
29, 2072943964, 0.14449033, -0.609912, -0.21113664, -0.7500342, 9.703620910644531, 1.3067089319229126, 1.7520617246627808, -1.025391697883606, 0.6520801186561584, 0.3822247385978699, -0.788330078125, -1.11767578125, 0.485107421875, 0, 
30, 2072960631, 0.14450267, -0.60974425, -0.21090609, -0.75023293, 9.666805267333984, 1.3634861707687378, 1.7443944215774536, -0.9926074147224426, 1.1190766096115112, 0.5890344977378845, -0.791748046875, -1.116455078125, 0.484619140625, 0, 
31, 2072977298, 0.14461371, -0.609574, -0.2106548, -0.7504207, 9.651540756225586, 1.3469274044036865, 1.7263598442077637, -0.856475830078125, 1.2677453756332397, 1.151092290878296, -0.79052734375, -1.11767578125, 0.482421875, 0, 
32, 2072993965, 0.14475283, -0.6094144, -0.21042797, -0.75058687, 9.706808090209961, 1.262012243270874, 1.7262239456176758, -0.39940446615219116, 1.217006802558899, 1.2494324445724487, -0.78955078125, -1.116943359375, 0.485107421875, 0, 
33, 2073010632, 0.14495525, -0.60925215, -0.21027693, -0.750722, 9.685478210449219, 1.239092230796814, 1.7281311750411987, 0.0655364990234375, 1.1324591636657715, 1.1935583353042603, -0.79052734375, -1.115966796875, 0.482421875, 0, 
34, 2073027299, 0.14516309, -0.60913324, -0.2101802, -0.7508054, 9.696159362792969, 1.303973913192749, 1.7537013292312622, 0.5522034168243408, 0.7120010852813721, 1.0843329429626465, -0.789306640625, -1.11474609375, 0.48291015625, 0, 
35, 2073043966, 0.14536196, -0.6090321, -0.21006082, -0.75088245, 9.672446250915527, 1.3352172374725342, 1.7405283451080322, 0.4065055847167969, 0.638326108455658, 1.1521168947219849, -0.787109375, -1.116455078125, 0.47998046875, 0, 
36, 2073060633, 0.14555158, -0.60899544, -0.20991144, -0.75091726, 9.657033920288086, 1.3551785945892334, 1.72380530834198, 0.3082040250301361, 0.19327984750270844, 1.3841807842254639, -0.789306640625, -1.115478515625, 0.481201171875, 0, 
37, 2073077300, 0.14575396, -0.6089814, -0.2097832, -0.75092524, 9.663578033447266, 1.3258346319198608, 1.6952744722366333, 0.4389312267303467, -0.008964444510638714, 1.4250712394714355, -0.787841796875, -1.1142578125, 0.481689453125, 0, 
38, 2073093967, 0.14605023, -0.60895234, -0.20976816, -0.75089514, 9.659796714782715, 1.2882057428359985, 1.664391279220581, 1.4044275283813477, -0.03698473796248436, 1.4395554065704346, -0.789794921875, -1.11328125, 0.4794921875, 0, 
39, 2073110634, 0.14632432, -0.6089192, -0.20975445, -0.75087255, 9.678766250610352, 1.3235421180725098, 1.6530098915100098, 1.5870460271835327, 0.06928875297307968, 1.3454924821853638, -0.789306640625, -1.112060546875, 0.478515625, 0, 
40, 2073127301, 0.14661671, -0.6089112, -0.20979726, -0.7508101, 9.668081283569336, 1.335986614227295, 1.6981849670410156, 2.0315163135528564, -0.20514492690563202, 1.2908223867416382, -0.79150390625, -1.11328125, 0.476806640625, 0, 
41, 2073143968, 0.14683309, -0.60893863, -0.2097562, -0.75075704, 9.720352172851562, 1.3838417530059814, 1.6872780323028564, 1.3894951343536377, -0.3215161859989166, 1.3287162780761719, -0.792236328125, -1.11376953125, 0.47900390625, 0, 
42, 2073160635, 0.14706436, -0.60898036, -0.20969915, -0.75069374, 9.709449768066406, 1.3667267560958862, 1.7188054323196411, 1.2903485298156738, -0.3799643814563751, 1.508620023727417, -0.788330078125, -1.112548828125, 0.47900390625, 0, 
43, 2073177302, 0.14726909, -0.6090162, -0.2096082, -0.7506502, 9.727081298828125, 1.3754680156707764, 1.6725915670394897, 1.018815517425537, -0.24677833914756775, 1.5066604614257812, -0.7919921875, -1.1142578125, 0.47607421875, 0, 
44, 2073193969, 0.14748952, -0.60906345, -0.20953172, -0.7505897, 9.700447082519531, 1.3236124515533447, 1.7069205045700073, 1.5621122121810913, -0.28504374623298645, 1.644956350326538, -0.791015625, -1.11328125, 0.47509765625, 0, 
45, 2073210636, 0.14766395, -0.60910976, -0.20948184, -0.75053173, 9.702019691467285, 1.3664021492004395, 1.666410207748413, 1.5785682201385498, -0.3357184827327728, 1.3086488246917725, -0.789794921875, -1.112548828125, 0.47607421875, 0, 
46, 2073227303, 0.14788076, -0.609127, -0.20947494, -0.75047714, 9.680460929870605, 1.3625520467758179, 1.7202365398406982, 1.6232624053955078, -0.18169647455215454, 1.2506232261657715, -0.79052734375, -1.11328125, 0.477294921875, 0, 
47, 2073243970, 0.14805362, -0.60917735, -0.20942086, -0.7504173, 9.686602592468262, 1.4219499826431274, 1.7421362400054932, 1.1946340799331665, -0.37704455852508545, 1.2905151844024658, -0.788818359375, -1.109375, 0.477294921875, 0, 
48, 2073260637, 0.14823592, -0.6092041, -0.2093717, -0.75037336, 9.664904594421387, 1.3721815347671509, 1.7453553676605225, 1.0231953859329224, -0.2087947279214859, 1.2526979446411133, -0.790283203125, -1.111083984375, 0.47509765625, 0, 
49, 2073277304, 0.14832169, -0.60928386, -0.20930119, -0.75031143, 9.670037269592285, 1.370759129524231, 1.744088888168335, 0.7519313097000122, -0.6345162391662598, 1.0001696348190308, -0.79052734375, -1.1103515625, 0.478515625, 0, 
50, 2073293971, 0.14840686, -0.60933715, -0.2092404, -0.75026816, 9.673925399780273, 1.3295406103134155, 1.7343695163726807, 0.5487968921661377, -0.46335935592651367, 0.8674700260162354, -0.793212890625, -1.11083984375, 0.477294921875, 0, 
51, 2073310638, 0.148434, -0.60939455, -0.2091943, -0.75022906, 9.687138557434082, 1.3730683326721191, 1.7376765012741089, 0.45505446195602417, -0.5505706071853638, 0.5261041522026062, -0.790283203125, -1.1103515625, 0.477294921875, 0, 
52, 2073327305, 0.148449, -0.6094416, -0.20911674, -0.7502094, 9.667656898498535, 1.3585617542266846, 1.7276231050491333, 0.20133502781391144, -0.39995506405830383, 0.5682624578475952, -0.79052734375, -1.11083984375, 0.477783203125, 0, 
53, 2073343972, 0.14846282, -0.6094912, -0.2090813, -0.75017625, 9.673834800720215, 1.3651851415634155, 1.7382763624191284, 0.3798171579837799, -0.5171076059341431, 0.40289419889450073, -0.79150390625, -1.1103515625, 0.47607421875, 0, 
54, 2073360639, 0.1484262, -0.60953444, -0.20904858, -0.7501574, 9.683937072753906, 1.3375909328460693, 1.7318534851074219, 0.2273063212633133, -0.48936906456947327, 0.1269429475069046, -0.79150390625, -1.111572265625, 0.47509765625, 0, 
55, 2073377306, 0.14835314, -0.60958445, -0.2089975, -0.7501455, 9.679891586303711, 1.3446789979934692, 1.7414591312408447, 0.012531012296676636, -0.5189772844314575, 0.030831284821033478, -0.788818359375, -1.109375, 0.47900390625, 0, 
56, 2073393973, 0.14828807, -0.6096284, -0.20897888, -0.75012785, 9.689249992370605, 1.3316471576690674, 1.7462260723114014, 0.04011588543653488, -0.5574347376823425, -0.09565062075853348, -0.79150390625, -1.108642578125, 0.473876953125, 0, 
57, 2073410640, 0.14814706, -0.60969824, -0.20893283, -0.75011176, 9.685626029968262, 1.332798957824707, 1.7107477188110352, -0.292868435382843, -0.745111882686615, -0.30760854482650757, -0.791015625, -1.109375, 0.47509765625, 0, 
58, 2073427307, 0.14802268, -0.6097709, -0.2089399, -0.7500753, 9.681306838989258, 1.3135712146759033, 1.7289458513259888, 0.03335413709282875, -0.8747376799583435, -0.42495307326316833, -0.79150390625, -1.1103515625, 0.47509765625, 0, 
59, 2073443974, 0.14792557, -0.60984164, -0.20897068, -0.7500284, 9.677116394042969, 1.3367857933044434, 1.7156752347946167, 0.28520381450653076, -0.8927818536758423, -0.37845322489738464, -0.789794921875, -1.111083984375, 0.472900390625, 0, 
60, 2073460641, 0.14782898, -0.6099197, -0.20897351, -0.7499832, 9.675318717956543, 1.346145749092102, 1.6835728883743286, 0.25285497307777405, -0.874020516872406, -0.2257247120141983, -0.789306640625, -1.1103515625, 0.477294921875, 0, 
61, 2073477308, 0.14778563, -0.60997874, -0.2089905, -0.74993896, 9.701610565185547, 1.3139164447784424, 1.687118649482727, 0.39920592308044434, -0.7260303497314453, -0.06587585806846619, -0.789306640625, -1.108642578125, 0.473876953125, 0, 
62, 2073493975, 0.14777009, -0.6100326, -0.20905976, -0.7498789, 9.681783676147461, 1.3083590269088745, 1.7360926866531372, 0.8599527478218079, -0.7647695541381836, -0.12602727115154266, -0.789794921875, -1.111083984375, 0.473876953125, 0, 
63, 2073510642, 0.14774512, -0.6101015, -0.20912044, -0.74981076, 9.692468643188477, 1.3263356685638428, 1.7371397018432617, 0.8324447274208069, -0.87530118227005, -0.10141348093748093, -0.789306640625, -1.112060546875, 0.473876953125, 0, 
64, 2073527309, 0.14770223, -0.6101884, -0.2091628, -0.74973667, 9.663311004638672, 1.3090322017669678, 1.7291425466537476, 0.6966718435287476, -0.9958218336105347, -0.07677406817674637, -0.791015625, -1.1103515625, 0.47509765625, 0, 
65, 2073543976, 0.14761797, -0.61029416, -0.20914608, -0.7496719, 9.651782035827637, 1.306861162185669, 1.7157903909683228, 0.08751218765974045, -1.0668329000473022, -0.04496309533715248, -0.7890625, -1.111083984375, 0.47119140625, 0, 
66, 2073560643, 0.14747767, -0.6104215, -0.20907289, -0.7496163, 9.680490493774414, 1.2937557697296143, 1.7135177850723267, -0.34910109639167786, -1.1453487873077393, -0.05545149743556976, -0.790283203125, -1.112548828125, 0.473388671875, 0, 
67, 2073577310, 0.14739147, -0.6105383, -0.20904095, -0.74954695, 9.714494705200195, 1.2603639364242554, 1.7058379650115967, 0.08625716716051102, -1.1194030046463013, 0.039334703236818314, -0.789794921875, -1.11328125, 0.4755859375, 0, 
68, 2073593977, 0.14737381, -0.6106292, -0.20904607, -0.74947494, 9.715362548828125, 1.3251153230667114, 1.7286009788513184, 0.545121431350708, -0.940421462059021, 0.1856984794139862, -0.789794921875, -1.111572265625, 0.473876953125, 0, 
69, 2073610644, 0.14741614, -0.6107274, -0.20906729, -0.74938077, 9.68140697479248, 1.3039822578430176, 1.7625569105148315, 0.9274806976318359, -0.9996764063835144, 0.46427497267723083, -0.78857421875, -1.11279296875, 0.473876953125, 0, 
70, 2073627311, 0.14746752, -0.6108556, -0.2090962, -0.74925816, 9.663239479064941, 1.3132522106170654, 1.7635722160339355, 1.0684657096862793, -1.2678542137145996, 0.5561221241950989, -0.789794921875, -1.112548828125, 0.473876953125, 0, 
71, 2073643978, 0.1475141, -0.61099166, -0.20913054, -0.7491284, 9.621432304382324, 1.2551329135894775, 1.7694144248962402, 1.078301191329956, -1.3580622673034668, 0.5272438526153564, -0.789794921875, -1.112060546875, 0.472900390625, 0, 
72, 2073660645, 0.1475172, -0.61116016, -0.2092099, -0.7489682, 9.667346000671387, 1.2687326669692993, 1.759128212928772, 1.1768075227737427, -1.7632423639297485, 0.19152536988258362, -0.789306640625, -1.111572265625, 0.473388671875, 0, 
73, 2073677312, 0.14748569, -0.6113265, -0.20924076, -0.74882996, 9.700642585754395, 1.3076845407485962, 1.7463016510009766, 0.7396114468574524, -1.6695125102996826, 0.1834317296743393, -0.789794921875, -1.111572265625, 0.47216796875, 0, 
74, 2073693979, 0.14748152, -0.61148494, -0.20921773, -0.7487079, 9.687335968017578, 1.3868169784545898, 1.7534748315811157, 0.5679168701171875, -1.4711551666259766, 0.5237349271774292, -0.79150390625, -1.112548828125, 0.47509765625, 0, 
75, 2073710646, 0.14748174, -0.61163235, -0.20912772, -0.74861264, 9.691157341003418, 1.3930758237838745, 1.7434961795806885, 0.17116327583789825, -1.2392960786819458, 0.7851893305778503, -0.790283203125, -1.112548828125, 0.473388671875, 0, 
76, 2073727313, 0.14754546, -0.61173266, -0.20902763, -0.748546, 9.724513053894043, 1.3533354997634888, 1.7534878253936768, 0.455784410238266, -0.771672248840332, 1.0752532482147217, -0.789794921875, -1.11279296875, 0.47216796875, 0, 
77, 2073743980, 0.14765415, -0.611794, -0.20892169, -0.74850404, 9.687753677368164, 1.327977180480957, 1.7564070224761963, 0.6576893329620361, -0.3977139890193939, 1.2611116170883179, -0.79248046875, -1.11474609375, 0.473876953125, 0, 
78, 2073760647, 0.14776535, -0.61183953, -0.20882137, -0.7484728, 9.6421537399292, 1.3291196823120117, 1.784881591796875, 0.6776543259620667, -0.28223916888237, 1.214227557182312, -0.7880859375, -1.11279296875, 0.472900390625, 0, 
79, 2073777314, 0.14781433, -0.6118887, -0.20872214, -0.74845064, 9.62247371673584, 1.345190405845642, 1.8012839555740356, 0.4213353097438812, -0.3622916340827942, 0.8914307355880737, -0.791015625, -1.1142578125, 0.477783203125, 0, 
80, 2073793981, 0.14784819, -0.611926, -0.20858823, -0.7484507, 9.657336235046387, 1.359226942062378, 1.807880163192749, 0.038028452545404434, -0.22188280522823334, 0.9036223888397217, -0.789794921875, -1.11376953125, 0.473388671875, 0, 
81, 2073810648, 0.1478722, -0.6119616, -0.20848194, -0.74844646, 9.668336868286133, 1.338356614112854, 1.7957199811935425, 0.27479225397109985, -0.26781922578811646, 0.7650962471961975, -0.79150390625, -1.112060546875, 0.474365234375, 0, 
82, 2073827315, 0.14787701, -0.6120021, -0.20837799, -0.74844146, 9.722660064697266, 1.3127648830413818, 1.7826355695724487, 0.14197759330272675, -0.34386327862739563, 0.6582399010658264, -0.79150390625, -1.11328125, 0.473388671875, 0, 
83, 2073843982, 0.14791532, -0.6120202, -0.20830797, -0.74843854, 9.657602310180664, 1.3031829595565796, 1.7914164066314697, 0.535683274269104, -0.20663046836853027, 0.6632089018821716, -0.790283203125, -1.1103515625, 0.473388671875, 0, 
84, 2073860649, 0.1479656, -0.6120508, -0.20826702, -0.74841505, 9.679569244384766, 1.3292404413223267, 1.79824697971344, 0.7086202502250671, -0.3841521143913269, 0.6343177556991577, -0.7919921875, -1.112060546875, 0.474365234375, 0, 
85, 2073877316, 0.14801145, -0.61205137, -0.20821829, -0.74841905, 9.694668769836426, 1.2934616804122925, 1.7804522514343262, 0.6387102603912354, -0.12215976417064667, 0.5760487914085388, -0.78857421875, -1.115478515625, 0.47119140625, 0, 
86, 2073893983, 0.1480718, -0.6120623, -0.20819208, -0.7484054, 9.695924758911133, 1.2854743003845215, 1.7927238941192627, 1.0342344045639038, -0.23260174691677094, 0.6210631728172302, -0.79150390625, -1.115478515625, 0.47216796875, 0, 
87, 2073910650, 0.14813976, -0.61207384, -0.20820676, -0.7483785, 9.681855201721191, 1.2865965366363525, 1.8019884824752808, 1.1991546154022217, -0.3429156541824341, 0.48573845624923706, -0.79248046875, -1.112060546875, 0.4716796875, 0, 
88, 2073927317, 0.14821732, -0.61208445, -0.20821832, -0.7483512, 9.688215255737305, 1.3140995502471924, 1.8032002449035645, 1.206390142440796, -0.3347707986831665, 0.5430340766906738, -0.789794921875, -1.112060546875, 0.473388671875, 0, 
89, 2073943984, 0.1482935, -0.6120816, -0.2081852, -0.7483477, 9.666818618774414, 1.296634554862976, 1.7795393466949463, 0.9323856234550476, -0.1325073093175888, 0.6786404848098755, -0.790771484375, -1.11328125, 0.4716796875, 0, 
90, 2073960651, 0.14835668, -0.6120866, -0.2081492, -0.74834096, 9.66205883026123, 1.2650811672210693, 1.7770053148269653, 0.9093596339225769, -0.2028525471687317, 0.6477899551391602, -0.79150390625, -1.112548828125, 0.473876953125, 0, 
91, 2073977318, 0.14844882, -0.61206, -0.20814906, -0.74834454, 9.650794982910156, 1.264186143875122, 1.7519381046295166, 1.1733241081237793, -0.006697720382362604, 0.5776111483573914, -0.793701171875, -1.111572265625, 0.469482421875, 0, 
92, 2073993985, 0.14852472, -0.6120185, -0.208119, -0.7483717, 9.667583465576172, 1.302181601524353, 1.7696226835250854, 1.0356943607330322, 0.18460994958877563, 0.5895594954490662, -0.79296875, -1.11376953125, 0.470458984375, 0, 
93, 2074010652, 0.14860532, -0.6119804, -0.20806861, -0.74840105, 9.684157371520996, 1.306978702545166, 1.762096643447876, 0.9468822479248047, 0.19941407442092896, 0.7036000490188599, -0.793701171875, -1.11328125, 0.469970703125, 0, 
94, 2074027319, 0.14868852, -0.6119301, -0.20797448, -0.7484518, 9.70000171661377, 1.2628014087677002, 1.7596338987350464, 0.7190830111503601, 0.3958122730255127, 0.8639740347862244, -0.793701171875, -1.112548828125, 0.47216796875, 0, 
95, 2074043986, 0.1487942, -0.6118779, -0.20789048, -0.7484968, 9.716449737548828, 1.2743598222732544, 1.7856608629226685, 0.8156171441078186, 0.39013901352882385, 0.9277238845825195, -0.790771484375, -1.11328125, 0.4677734375, 0, 
96, 2074060653, 0.14889893, -0.6118345, -0.20778224, -0.74854136, 9.70308780670166, 1.2897828817367554, 1.7820621728897095, 0.8276166915893555, 0.3803934156894684, 1.0628565549850464, -0.794189453125, -1.11083984375, 0.47216796875, 0, 
97, 2074077320, 0.14905308, -0.6117883, -0.20771922, -0.748566, 9.684946060180664, 1.2898131608963013, 1.7758376598358154, 1.1332403421401978, 0.3072691559791565, 1.1146838665008545, -0.794189453125, -1.1142578125, 0.47119140625, 0, 
98, 2074093987, 0.14922377, -0.6117516, -0.20768446, -0.7485717, 9.667160987854004, 1.2907183170318604, 1.7864601612091064, 1.4289132356643677, 0.17673403024673462, 1.1257869005203247, -0.793701171875, -1.11328125, 0.46826171875, 0, 
99, 2074110654, 0.14937742, -0.6117214, -0.20764518, -0.74857664, 9.666902542114258, 1.2945672273635864, 1.7515485286712646, 1.409934401512146, 0.12353647500276566, 1.0826551914215088, -0.79248046875, -1.112060546875, 0.469482421875, 0, 
100, 2074127321, 0.14954805, -0.61167926, -0.2075944, -0.74859107, 9.674524307250977, 1.3004686832427979, 1.7870551347732544, 1.405746579170227, 0.2565944194793701, 1.190599799156189, -0.794677734375, -1.111572265625, 0.4677734375, 0, 
101, 2074143988, 0.14970581, -0.6116287, -0.20753194, -0.748618, 9.654644966125488, 1.3375693559646606, 1.7930997610092163, 1.3177030086517334, 0.34424108266830444, 1.1568808555603027, -0.794189453125, -1.112060546875, 0.46728515625, 0, 
102, 2074160655, 0.14981861, -0.61160696, -0.20746778, -0.7486311, 9.651654243469238, 1.3367375135421753, 1.8060872554779053, 1.128169059753418, 0.07108164578676224, 0.9972367882728577, -0.7919921875, -1.11328125, 0.4677734375, 0, 
103, 2074177322, 0.14991376, -0.6115769, -0.20739798, -0.748656, 9.678521156311035, 1.3025426864624023, 1.7964589595794678, 1.0517919063568115, 0.13964684307575226, 0.9166849255561829, -0.79345703125, -1.1103515625, 0.46728515625, 0, 
104, 2074193989, 0.1500033, -0.6115308, -0.20732245, -0.7486966, 9.672636985778809, 1.3170456886291504, 1.7939057350158691, 0.9584208130836487, 0.27732789516448975, 0.8705307841300964, -0.79248046875, -1.1103515625, 0.470458984375, 0, 
105, 2074210656, 0.15009889, -0.61149174, -0.20728637, -0.74871933, 9.662199974060059, 1.3556689023971558, 1.771199345588684, 1.1392849683761597, 0.11941280961036682, 0.756861686706543, -0.796875, -1.109375, 0.465576171875, 0, 
106, 2074227323, 0.15017653, -0.6114606, -0.20721823, -0.748748, 9.686971664428711, 1.3654603958129883, 1.7934261560440063, 0.9612510800361633, 0.11569897830486298, 0.8250811100006104, -0.794189453125, -1.108642578125, 0.46826171875, 0, 
107, 2074243990, 0.15025231, -0.6114263, -0.20719586, -0.7487671, 9.682010650634766, 1.3283989429473877, 1.7990773916244507, 1.1657682657241821, 0.03179176151752472, 0.6290158629417419, -0.795166015625, -1.112060546875, 0.46435546875, 0, 
108, 2074260657, 0.15032351, -0.61139345, -0.20717907, -0.74878424, 9.68228530883789, 1.32736074924469, 1.8014472723007202, 1.2924487590789795, 0.012364529073238373, 0.6113942861557007, -0.79296875, -1.11279296875, 0.466064453125, 0, 
109, 2074277324, 0.15037072, -0.6113979, -0.20718655, -0.74876904, 9.657737731933594, 1.3515549898147583, 1.8077399730682373, 1.3213270902633667, -0.3818853199481964, 0.4756598174571991, -0.795166015625, -1.1103515625, 0.46435546875, 0, 
110, 2074293991, 0.15038383, -0.61140496, -0.20718795, -0.7487604, 9.63370418548584, 1.324257254600525, 1.8099277019500732, 1.1301285028457642, -0.4164752960205078, 0.329398512840271, -0.7939453125, -1.111083984375, 0.46484375, 0, 
111, 2074310658, 0.15038, -0.61143154, -0.20725143, -0.7487217, 9.642276763916016, 1.3282209634780884, 1.8440446853637695, 1.4189115762710571, -0.736301064491272, 0.0473770909011364, -0.791259765625, -1.11328125, 0.465576171875, 0, 
112, 2074327325, 0.15035711, -0.611461, -0.2073703, -0.7486693, 9.641339302062988, 1.3333079814910889, 1.8602533340454102, 1.6558159589767456, -0.8999406099319458, -0.25767651200294495, -0.794189453125, -1.112060546875, 0.46826171875, 0, 
113, 2074343992, 0.15027201, -0.6115129, -0.20746407, -0.7486182, 9.675232887268066, 1.3676373958587646, 1.8066941499710083, 1.1787924766540527, -1.092445731163025, -0.4468775987625122, -0.795166015625, -1.111083984375, 0.465576171875, 0, 
114, 2074360659, 0.1501757, -0.61156535, -0.20752214, -0.7485784, 9.684968948364258, 1.3539955615997314, 1.8237985372543335, 0.9854550957679749, -1.025225043296814, -0.3500487804412842, -0.794189453125, -1.1142578125, 0.466552734375, 0, 
115, 2074377326, 0.15003477, -0.611651, -0.20755993, -0.74852633, 9.695908546447754, 1.3486597537994385, 1.8036606311798096, 0.6916004419326782, -1.2971038818359375, -0.42588794231414795, -0.794189453125, -1.11279296875, 0.46728515625, 0, 
116, 2074393993, 0.14990571, -0.61172754, -0.20764153, -0.748467, 9.700420379638672, 1.3118592500686646, 1.8141721487045288, 0.9646062850952148, -1.3161472082138062, -0.5534008741378784, -0.79345703125, -1.11376953125, 0.46728515625, 0, 
117, 2074410660, 0.149769, -0.61180115, -0.20772155, -0.74841195, 9.6766357421875, 1.3373733758926392, 1.8094847202301025, 0.9381483793258667, -1.298858404159546, -0.5900781750679016, -0.79296875, -1.114501953125, 0.466064453125, 0, 
118, 2074427327, 0.14959122, -0.6118769, -0.20776875, -0.74837255, 9.668584823608398, 1.3289196491241455, 1.802764654159546, 0.6269540190696716, -1.2681615352630615, -0.6637402772903442, -0.79296875, -1.114501953125, 0.466064453125, 0, 
119, 2074443994, 0.14939071, -0.6119529, -0.20779388, -0.7483434, 9.64187240600586, 1.3319408893585205, 1.8131637573242188, 0.3816740810871124, -1.2461603879928589, -0.6978948712348938, -0.794189453125, -1.115478515625, 0.469970703125, 0, 
120, 2074460661, 0.14915743, -0.6120191, -0.20779864, -0.7483345, 9.649870872497559, 1.3213599920272827, 1.8005952835083008, 0.05408761650323868, -1.1525585651397705, -0.8240630030632019, -0.7919921875, -1.115478515625, 0.466064453125, 0, 
121, 2074477328, 0.14893363, -0.61209565, -0.20776503, -0.74832577, 9.672089576721191, 1.3054407835006714, 1.7692947387695312, 0.0013894890435039997, -1.1433252096176147, -0.5767339468002319, -0.79296875, -1.11328125, 0.46826171875, 0, 
122, 2074493995, 0.14876318, -0.61214745, -0.20778853, -0.7483107, 9.664941787719727, 1.2881890535354614, 1.7747480869293213, 0.45141738653182983, -1.0437431335449219, -0.5892585515975952, -0.79296875, -1.115966796875, 0.46875, 0, 
123, 2074510662, 0.14857116, -0.61222357, -0.20779298, -0.7482855, 9.681276321411133, 1.2861697673797607, 1.7923698425292969, 0.26130715012550354, -1.226233720779419, -0.5728280544281006, -0.794189453125, -1.1142578125, 0.466552734375, 0, 
124, 2074527329, 0.14835921, -0.6123234, -0.20777652, -0.74825037, 9.667119979858398, 1.2563077211380005, 1.7718815803527832, 0.10102289170026779, -1.399093747138977, -0.5379307866096497, -0.79345703125, -1.1142578125, 0.4677734375, 0, 
125, 2074543996, 0.14811924, -0.6124489, -0.20771576, -0.7482121, 9.639837265014648, 1.261907696723938, 1.788071632385254, -0.299489289522171, -1.5481210947036743, -0.46403804421424866, -0.791259765625, -1.11669921875, 0.4677734375, 0, 
126, 2074560663, 0.14784089, -0.612596, -0.20759083, -0.7481813, 9.665263175964355, 1.2922594547271729, 1.7659294605255127, -0.7973360419273376, -1.6215269565582275, -0.367068350315094, -0.7919921875, -1.118896484375, 0.46728515625, 0, 
127, 2074577330, 0.14756545, -0.61274284, -0.20744216, -0.74815655, 9.692760467529297, 1.2519731521606445, 1.765068769454956, -0.8830235004425049, -1.5668314695358276, -0.25310471653938293, -0.7919921875, -1.115966796875, 0.466552734375, 0, 
128, 2074593997, 0.14733374, -0.6128856, -0.20729351, -0.7481267, 9.696733474731445, 1.2466480731964111, 1.7808313369750977, -0.7173733115196228, -1.5140178203582764, -0.038355015218257904, -0.7919921875, -1.115478515625, 0.466552734375, 0, 
129, 2074610664, 0.14714357, -0.6130182, -0.20716092, -0.7480922, 9.698854446411133, 1.2663280963897705, 1.7753093242645264, -0.46744459867477417, -1.4476937055587769, 0.08989417552947998, -0.790771484375, -1.11669921875, 0.4677734375, 0, 
130, 2074627331, 0.14697687, -0.6131552, -0.20697466, -0.7480643, 9.645048141479492, 1.2967389822006226, 1.79582679271698, -0.6553394198417664, -1.3605722188949585, 0.4347051680088043, -0.7919921875, -1.11767578125, 0.466064453125, 0, 
131, 2074643998, 0.14678977, -0.6133067, -0.20677185, -0.74803275, 9.662496566772461, 1.2592322826385498, 1.7895967960357666, -0.7892041802406311, -1.4650720357894897, 0.4305046796798706, -0.79296875, -1.119873046875, 0.4677734375, 0, 
132, 2074660665, 0.14655733, -0.61344415, -0.20651183, -0.7480376, 9.702527046203613, 1.285401701927185, 1.7941616773605347, -1.3413113355636597, -1.257583498954773, 0.37420791387557983, -0.79248046875, -1.11767578125, 0.46728515625, 0, 
133, 2074677332, 0.14629175, -0.613568, -0.2061582, -0.7480855, 9.709955215454102, 1.3138610124588013, 1.7761765718460083, -2.0256571769714355, -0.9682625532150269, 0.5327121615409851, -0.79248046875, -1.11767578125, 0.46826171875, 0, 
134, 2074693999, 0.14602149, -0.6137068, -0.20573166, -0.7481419, 9.694818496704102, 1.3485172986984253, 1.7689790725708008, -2.498429298400879, -0.9558787941932678, 0.8214825391769409, -0.7919921875, -1.118896484375, 0.466064453125, 0, 
135, 2074710666, 0.14576755, -0.6138493, -0.20527656, -0.7481996, 9.665227890014648, 1.3518606424331665, 1.7874538898468018, -2.5202128887176514, -0.9154363870620728, 1.0429812669754028, -0.791259765625, -1.115478515625, 0.4638671875, 0, 
136, 2074727333, 0.14553908, -0.613971, -0.2048471, -0.74826187, 9.676812171936035, 1.3501826524734497, 1.7756016254425049, -2.3035550117492676, -0.7906128168106079, 1.0303541421890259, -0.79345703125, -1.12060546875, 0.46337890625, 0, 
137, 2074744000, 0.14531882, -0.61408216, -0.20440608, -0.748334, 9.664270401000977, 1.3802086114883423, 1.794775366783142, -2.256004810333252, -0.6686963438987732, 1.1128525733947754, -0.79345703125, -1.118408203125, 0.4609375, 0, 
138, 2074760667, 0.14509024, -0.61419135, -0.20397107, -0.7484075, 9.619322776794434, 1.3823883533477783, 1.791463017463684, -2.2636499404907227, -0.6786724925041199, 1.045785665512085, -0.79345703125, -1.118896484375, 0.461669921875, 0, 
139, 2074777334, 0.14478068, -0.61432314, -0.20352438, -0.7484808, 9.60682201385498, 1.4214556217193604, 1.838135838508606, -2.7351291179656982, -0.9115303754806519, 0.7108612656593323, -0.79248046875, -1.118896484375, 0.462646484375, 0, 
140, 2074794001, 0.14439851, -0.61448187, -0.20307116, -0.74854743, 9.619243621826172, 1.4170790910720825, 1.8278048038482666, -3.144317388534546, -1.1907342672348022, 0.4094894528388977, -0.7939453125, -1.122314453125, 0.459228515625, 0, 
141, 2074810668, 0.14396149, -0.6146488, -0.20261216, -0.74861896, 9.664360046386719, 1.4246022701263428, 1.8307079076766968, -3.369427442550659, -1.2863209247589111, 0.17622175812721252, -0.79296875, -1.121826171875, 0.4609375, 0, 
142, 2074827335, 0.14354476, -0.61479324, -0.2022125, -0.7486886, 9.670473098754883, 1.4087363481521606, 1.8337445259094238, -3.017406463623047, -1.2263745069503784, -6.275111227296293E-4, -0.79296875, -1.122314453125, 0.458251953125, 0, 
143, 2074844002, 0.14314596, -0.61491966, -0.20187959, -0.74875087, 9.634428977966309, 1.4266599416732788, 1.847222089767456, -2.510300636291504, -1.2073185443878174, -0.18979009985923767, -0.79345703125, -1.12060546875, 0.4599609375, 0, 
144, 2074860669, 0.14278556, -0.6150379, -0.2016099, -0.74879515, 9.636627197265625, 1.432470679283142, 1.8356856107711792, -2.0949010848999023, -1.274872064590454, -0.2611471116542816, -0.79296875, -1.122314453125, 0.45703125, 0, 
145, 2074877336, 0.14241484, -0.61513716, -0.20136428, -0.74885035, 9.638413429260254, 1.3984612226486206, 1.864899754524231, -1.9111428260803223, -1.1653650999069214, -0.42642587423324585, -0.79443359375, -1.12109375, 0.45703125, 0, 
146, 2074894003, 0.14203106, -0.6152664, -0.20119506, -0.74886256, 9.64699935913086, 1.3678017854690552, 1.8771750926971436, -1.6340645551681519, -1.6182743310928345, -0.7400404810905457, -0.79345703125, -1.1240234375, 0.45654296875, 0, 
147, 2074910670, 0.14162113, -0.61537856, -0.20110251, -0.7488728, 9.640055656433105, 1.3497587442398071, 1.8815809488296509, -1.2362098693847656, -1.6484718322753906, -1.1999549865722656, -0.79296875, -1.126220703125, 0.4560546875, 0, 
148, 2074927337, 0.14120941, -0.61550134, -0.20106605, -0.7488596, 9.63467025756836, 1.361354947090149, 1.8880056142807007, -0.9444041848182678, -1.8743116855621338, -1.4066237211227417, -0.790771484375, -1.12451171875, 0.457763671875, 0, 
149, 2074944004, 0.14078291, -0.61559284, -0.20100552, -0.7488808, 9.643932342529297, 1.378038763999939, 1.869060754776001, -1.2204324007034302, -1.5862712860107422, -1.4648287296295166, -0.79296875, -1.1240234375, 0.45654296875, 0, 
150, 2074960671, 0.14041156, -0.61568326, -0.20097768, -0.74888366, 9.659831047058105, 1.3273812532424927, 1.8675376176834106, -0.8122043609619141, -1.6281098127365112, -1.3006129264831543, -0.79296875, -1.126708984375, 0.45654296875, 0, 
151, 2074977338, 0.14005983, -0.61573523, -0.20099823, -0.74890125, 9.684873580932617, 1.2935694456100464, 1.8848544359207153, -0.439091295003891, -1.396237850189209, -1.4659428596496582, -0.79345703125, -1.126708984375, 0.45703125, 0, 
152, 2074994005, 0.13974155, -0.61575466, -0.20102467, -0.7489378, 9.676300048828125, 1.2780802249908447, 1.8782408237457275, -0.3180329203605652, -1.1253067255020142, -1.3923832178115845, -0.79296875, -1.12841796875, 0.4560546875, 0, 
153, 2075010672, 0.13946725, -0.61577344, -0.20105894, -0.74896413, 9.670455932617188, 1.2775211334228516, 1.8887476921081543, 0.019600117579102516, -1.1122187376022339, -1.1762632131576538, -0.7900390625, -1.12744140625, 0.455322265625, 0, 
154, 2075027339, 0.13917264, -0.61578894, -0.20104425, -0.74901026, 9.686949729919434, 1.2823385000228882, 1.880521535873413, -0.3634186387062073, -1.0072323083877563, -1.1028317213058472, -0.7890625, -1.1279296875, 0.45703125, 0, 
155, 2075044006, 0.13888635, -0.6157868, -0.20100416, -0.7490759, 9.682852745056152, 1.2891095876693726, 1.8623467683792114, -0.5264178514480591, -0.8173524737358093, -1.0070146322250366, -0.788818359375, -1.126220703125, 0.453857421875, 0, 
156, 2075060673, 0.13860926, -0.6157748, -0.20088543, -0.74916893, 9.714319229125977, 1.2780705690383911, 1.8482098579406738, -0.8555665612220764, -0.5648753046989441, -0.6572090983390808, -0.791259765625, -1.12841796875, 0.453857421875, 0, 
157, 2075077340, 0.13837302, -0.61575973, -0.20072798, -0.74926716, 9.684749603271484, 1.2832356691360474, 1.8352164030075073, -0.8822934031486511, -0.442139208316803, -0.29503268003463745, -0.7900390625, -1.1279296875, 0.45263671875, 0, 
158, 2075094007, 0.1382344, -0.6156964, -0.20058541, -0.74938303, 9.709288597106934, 1.283017873764038, 1.803763508796692, -0.3859705626964569, -0.008272902108728886, 0.05710992217063904, -0.7890625, -1.128662109375, 0.453857421875, 0, 
159, 2075110674, 0.13822724, -0.61559314, -0.20045733, -0.7495033, 9.678467750549316, 1.3041855096817017, 1.8270809650421143, 0.2488337755203247, 0.3740798234939575, 0.6066687703132629, -0.7890625, -1.128662109375, 0.454345703125, 0, 
160, 2075127341, 0.13823655, -0.61547005, -0.20027922, -0.7496503, 9.706488609313965, 1.2978554964065552, 1.8446296453475952, 0.0030543142929673195, 0.6463683843612671, 0.8435733914375305, -0.788330078125, -1.128662109375, 0.453125, 0, 
161, 2075144008, 0.13826789, -0.6153482, -0.20002265, -0.7498131, 9.678885459899902, 1.2878248691558838, 1.8715417385101318, -0.29166460037231445, 0.8098030686378479, 1.2804107666015625, -0.7900390625, -1.128662109375, 0.4521484375, 0, 
162, 2075160675, 0.13829252, -0.61524487, -0.19975883, -0.74996364, 9.649772644042969, 1.2852474451065063, 1.9013645648956299, -0.3415965437889099, 0.6527844667434692, 1.3155386447906494, -0.787841796875, -1.128662109375, 0.450927734375, 0, 
163, 2075177342, 0.13826042, -0.6151709, -0.1994787, -0.75010484, 9.688704490661621, 1.3056858777999878, 1.8490656614303589, -0.6610637903213501, 0.39117634296417236, 1.1430370807647705, -0.792236328125, -1.12744140625, 0.4521484375, 0, 
164, 2075194009, 0.13829437, -0.61508185, -0.19924323, -0.7502341, 9.661258697509766, 1.321829915046692, 1.8350061178207397, -0.2633369565010071, 0.4405704140663147, 1.2621747255325317, -0.788330078125, -1.128173828125, 0.44921875, 0, 
165, 2075210676, 0.13832118, -0.615006, -0.19899523, -0.7503572, 9.669726371765137, 1.3354973793029785, 1.800278902053833, -0.19974063336849213, 0.36279746890068054, 1.3297663927078247, -0.788818359375, -1.125732421875, 0.44921875, 0, 
166, 2075227343, 0.13835818, -0.6149181, -0.19874708, -0.7504881, 9.691123008728027, 1.3442305326461792, 1.7695889472961426, -0.22794020175933838, 0.4597543478012085, 1.3501030206680298, -0.789306640625, -1.126953125, 0.447021484375, 0, 
167, 2075244010, 0.13842662, -0.61481524, -0.19851102, -0.75062233, 9.6943359375, 1.3703311681747437, 1.7833807468414307, 0.037439361214637756, 0.5889447927474976, 1.4505302906036377, -0.788818359375, -1.12646484375, 0.446533203125, 0, 
168, 2075260677, 0.13847971, -0.6147076, -0.19823664, -0.7507732, 9.675682067871094, 1.387799859046936, 1.8087550401687622, -0.201136514544487, 0.7035360336303711, 1.522207498550415, -0.788818359375, -1.128662109375, 0.446533203125, 0, 
169, 2075277344, 0.1384927, -0.61464626, -0.19795975, -0.75089407, 9.659724235534668, 1.3796135187149048, 1.8164496421813965, -0.3941282033920288, 0.2810289263725281, 1.4232271909713745, -0.792724609375, -1.125732421875, 0.4453125, 0, 
170, 2075294011, 0.13850965, -0.6145524, -0.1977464, -0.751024, 9.685759544372559, 1.3475435972213745, 1.8118027448654175, -0.09147575497627258, 0.42106640338897705, 1.117270827293396, -0.788330078125, -1.128173828125, 0.44482421875, 0, 
171, 2075310678, 0.13854958, -0.6144729, -0.19760433, -0.75111884, 9.681257247924805, 1.3748379945755005, 1.7881454229354858, 0.4455777108669281, 0.16390205919742584, 0.9983125329017639, -0.789306640625, -1.12353515625, 0.4453125, 0, 
172, 2075327345, 0.13864431, -0.6143916, -0.19751742, -0.7511909, 9.690996170043945, 1.4494963884353638, 1.8019288778305054, 0.896604597568512, 0.08515582978725433, 1.055838704109192, -0.79150390625, -1.12744140625, 0.4453125, 0, 
173, 2075344012, 0.1387567, -0.6143108, -0.19742745, -0.75125974, 9.703832626342773, 1.4433335065841675, 1.7894095182418823, 1.03273606300354, 0.10474953055381775, 1.1871165037155151, -0.79052734375, -1.12744140625, 0.444091796875, 0, 
174, 2075360679, 0.1388499, -0.61424, -0.19736387, -0.7513172, 9.686336517333984, 1.4163801670074463, 1.8151930570602417, 1.1569321155548096, -0.039020948112010956, 1.0207622051239014, -0.789794921875, -1.124267578125, 0.44482421875, 0, 
175, 2075377346, 0.13889067, -0.6141861, -0.1973419, -0.7513594, 9.670049667358398, 1.4216852188110352, 1.8314602375030518, 1.0480780601501465, -0.31758466362953186, 0.6017512083053589, -0.791015625, -1.124755859375, 0.444091796875, 0, 
176, 2075394013, 0.13884686, -0.6141516, -0.19735014, -0.7513937, 9.662240982055664, 1.4131420850753784, 1.8343158960342407, 0.8809808492660522, -0.5921655893325806, 0.08707677572965622, -0.791015625, -1.12353515625, 0.444091796875, 0, 
177, 2075410680, 0.13870448, -0.61417395, -0.19736205, -0.75139856, 9.622265815734863, 1.4549404382705688, 1.831769347190857, 0.4376378059387207, -1.1539673805236816, -0.3311721980571747, -0.79052734375, -1.126953125, 0.44580078125, 0, 
178, 2075427347, 0.13851516, -0.6142118, -0.19742617, -0.7513857, 9.640655517578125, 1.4362488985061646, 1.8032456636428833, 0.5239526033401489, -1.4250779151916504, -0.7436903715133667, -0.792724609375, -1.126953125, 0.444091796875, 0, 
179, 2075444014, 0.13835868, -0.6142328, -0.19764629, -0.75133944, 9.618232727050781, 1.4311431646347046, 1.7807880640029907, 1.5532501935958862, -1.5804702043533325, -1.2116471529006958, -0.788818359375, -1.124755859375, 0.446533203125, 0, 
180, 2075460681, 0.1381884, -0.6142762, -0.19792762, -0.7512613, 9.636021614074707, 1.4799022674560547, 1.8006917238235474, 1.717325210571289, -1.923142433166504, -1.4927722215652466, -0.788330078125, -1.126953125, 0.44482421875, 0, 
181, 2075477348, 0.13793927, -0.6143298, -0.19821438, -0.75118774, 9.659353256225586, 1.4474589824676514, 1.7943977117538452, 1.5950884819030762, -2.044649124145508, -1.8684591054916382, -0.79052734375, -1.1279296875, 0.44873046875, 0, 
182, 2075494015, 0.13766876, -0.6143876, -0.19852781, -0.75110734, 9.668661117553711, 1.4409453868865967, 1.8157579898834229, 1.4259676933288574, -2.1781039237976074, -2.1104094982147217, -0.788818359375, -1.129150390625, 0.447021484375, 0, 
183, 2075510682, 0.13733573, -0.614472, -0.19885494, -0.7510126, 9.651576042175293, 1.4283450841903687, 1.8202182054519653, 1.36981201171875, -2.4579484462738037, -2.4093611240386963, -0.787841796875, -1.128662109375, 0.44873046875, 0, 
184, 2075527349, 0.13700591, -0.6145564, -0.19929007, -0.75088847, 9.66143798828125, 1.4050120115280151, 1.815838098526001, 1.9053350687026978, -2.6929447650909424, -2.828000545501709, -0.787109375, -1.128662109375, 0.44873046875, 0, 
185, 2075544016, 0.13664882, -0.61464435, -0.19977754, -0.750752, 9.659971237182617, 1.3780268430709839, 1.8044475317001343, 2.081486463546753, -2.852243185043335, -3.1683297157287598, -0.788330078125, -1.129638671875, 0.44921875, 0, 
186, 2075560683, 0.13629296, -0.6147164, -0.2002685, -0.75062686, 9.668371200561523, 1.3880736827850342, 1.8173528909683228, 2.1047942638397217, -2.7254862785339355, -3.208221912384033, -0.783935546875, -1.132568359375, 0.4521484375, 0, 
187, 2075577350, 0.13591552, -0.6148125, -0.20072047, -0.75049585, 9.638077735900879, 1.398447036743164, 1.8247170448303223, 1.806291103363037, -2.869621515274048, -3.113313913345337, -0.78515625, -1.13134765625, 0.451416015625, 0, 
188, 2075594017, 0.13553987, -0.61491835, -0.20118074, -0.7503538, 9.665547370910645, 1.3301032781600952, 1.8376119136810303, 1.8463366031646729, -2.9782321453094482, -3.116438388824463, -0.784423828125, -1.133056640625, 0.45263671875, 0, 
189, 2075610684, 0.1352138, -0.6150118, -0.20169207, -0.75019884, 9.641813278198242, 1.3228843212127686, 1.848900318145752, 2.3744699954986572, -2.9503395557403564, -3.0802855491638184, -0.783447265625, -1.13427734375, 0.454345703125, 0, 
190, 2075627351, 0.13489, -0.6150994, -0.20216794, -0.7500571, 9.636493682861328, 1.3489885330200195, 1.8300930261611938, 2.151102066040039, -2.8378360271453857, -2.949341058731079, -0.7822265625, -1.13134765625, 0.4560546875, 0, 
191, 2075644018, 0.13459994, -0.6151809, -0.20260917, -0.74992335, 9.629366874694824, 1.3480116128921509, 1.820934534072876, 1.9843759536743164, -2.717226028442383, -2.6687793731689453, -0.783447265625, -1.134765625, 0.45703125, 0, 
192, 2075660685, 0.1342686, -0.61527663, -0.20295277, -0.74981123, 9.629597663879395, 1.3644722700119019, 1.8060979843139648, 1.2759544849395752, -2.67036771774292, -2.469935417175293, -0.78076171875, -1.134765625, 0.458740234375, 0, 
193, 2075677352, 0.1339798, -0.6153569, -0.2032215, -0.7497243, 9.677721977233887, 1.3598220348358154, 1.8018630743026733, 1.010248064994812, -2.36570405960083, -1.9874941110610962, -0.779541015625, -1.136474609375, 0.45947265625, 0, 
194, 2075694019, 0.13379039, -0.6154173, -0.20350125, -0.74963266, 9.670394897460938, 1.3452755212783813, 1.7900876998901367, 1.5787348747253418, -2.1504039764404297, -1.5382859706878662, -0.779052734375, -1.135986328125, 0.458251953125, 0, 
195, 2075710686, 0.13369735, -0.61545473, -0.20382808, -0.7495297, 9.67189884185791, 1.3393735885620117, 1.806464672088623, 2.313486337661743, -1.98311448097229, -1.2611693143844604, -0.7802734375, -1.1376953125, 0.45947265625, 0, 
196, 2075727353, 0.13362882, -0.6154947, -0.20414366, -0.7494232, 9.63943862915039, 1.3855417966842651, 1.8085732460021973, 2.380207061767578, -1.9697318077087402, -1.0816370248794556, -0.77978515625, -1.135986328125, 0.461669921875, 0, 
197, 2075744020, 0.13356005, -0.61553735, -0.20439672, -0.7493315, 9.622509002685547, 1.4014397859573364, 1.7965648174285889, 1.864623785018921, -1.8948277235031128, -0.8586401343345642, -0.779296875, -1.13916015625, 0.46337890625, 0, 
198, 2075760687, 0.13345586, -0.61559856, -0.20453635, -0.7492617, 9.62765121459961, 1.3948068618774414, 1.771262764930725, 1.1882179975509644, -1.831000804901123, -0.5396980047225952, -0.77978515625, -1.138671875, 0.461669921875, 0, 
199, 2075777354, 0.1333962, -0.6156372, -0.20468879, -0.7491989, 9.645195007324219, 1.3572245836257935, 1.7626557350158691, 1.5010387897491455, -1.6311066150665283, -0.3975091278553009, -0.779296875, -1.139892578125, 0.465576171875, 0, 
200, 2075794021, 0.13341025, -0.6156626, -0.2049091, -0.74911535, 9.650503158569336, 1.3764058351516724, 1.7553635835647583, 2.0206308364868164, -1.6416587829589844, -0.33920177817344666, -0.778076171875, -1.138671875, 0.465087890625, 0, 
201, 2075810688, 0.13348112, -0.61566824, -0.20510697, -0.7490439, 9.661968231201172, 1.4284076690673828, 1.7712063789367676, 2.214608669281006, -1.3793463706970215, 0.016155211254954338, -0.779052734375, -1.136474609375, 0.462158203125, 0, 
202, 2075827355, 0.13356505, -0.6156804, -0.20522712, -0.74898595, 9.679400444030762, 1.4415066242218018, 1.7675552368164062, 1.9666904211044312, -1.2505273818969727, 0.4268548786640167, -0.778564453125, -1.140380859375, 0.46435546875, 0, 
203, 2075844022, 0.13363466, -0.6156897, -0.20524167, -0.74896187, 9.705551147460938, 1.4192947149276733, 1.745513916015625, 1.3701194524765015, -1.010292887687683, 0.772959291934967, -0.779296875, -1.140380859375, 0.46728515625, 0, 
204, 2075860689, 0.1337757, -0.6156803, -0.20527552, -0.7489353, 9.666275978088379, 1.4030792713165283, 1.7305091619491577, 1.6508474349975586, -0.8669130206108093, 1.0100048780441284, -0.779296875, -1.13916015625, 0.466064453125, 0, 
205, 2075877356, 0.13394457, -0.6156285, -0.20526731, -0.7489499, 9.664219856262207, 1.4447097778320312, 1.7340233325958252, 1.5757253170013428, -0.3896331489086151, 1.2386877536773682, -0.778076171875, -1.137451171875, 0.46337890625, 0, 
206, 2075894023, 0.13414572, -0.6155557, -0.20517787, -0.7489982, 9.617042541503906, 1.4415777921676636, 1.7647379636764526, 1.366098165512085, -0.004341352730989456, 1.702559471130371, -0.7802734375, -1.136962890625, 0.46435546875, 0, 
207, 2075910690, 0.13442585, -0.6154906, -0.20510425, -0.7490217, 9.612733840942383, 1.4172533750534058, 1.792908787727356, 1.733512282371521, -0.06728456169366837, 2.0647871494293213, -0.782470703125, -1.136962890625, 0.466796875, 0, 
208, 2075927357, 0.134675, -0.6154172, -0.20501786, -0.7490609, 9.660861015319824, 1.382583498954773, 1.7918927669525146, 1.4208709001541138, -0.010667689144611359, 1.9159899950027466, -0.781005859375, -1.13916015625, 0.4677734375, 0, 
209, 2075944024, 0.1349373, -0.6153477, -0.2049837, -0.7490802, 9.610405921936035, 1.3929086923599243, 1.823731541633606, 1.8375253677368164, -0.13878238201141357, 1.7953028678894043, -0.781494140625, -1.13818359375, 0.46337890625, 0, 
210, 2075960691, 0.13510579, -0.6153314, -0.20491314, -0.74908245, 9.614428520202637, 1.4521706104278564, 1.7973674535751343, 1.4060797691345215, -0.5605595707893372, 1.5816291570663452, -0.7802734375, -1.1357421875, 0.465087890625, 0, 
211, 2075977358, 0.13527362, -0.61530167, -0.2048444, -0.7490953, 9.64113998413086, 1.4185501337051392, 1.7869726419448853, 1.3035902976989746, -0.4709022641181946, 1.5271122455596924, -0.7841796875, -1.136962890625, 0.465087890625, 0, 
212, 2075994025, 0.13545823, -0.61529726, -0.20477912, -0.74908346, 9.668627738952637, 1.429718255996704, 1.7784745693206787, 1.410485029220581, -0.6863179206848145, 1.658736228942871, -0.781494140625, -1.13525390625, 0.465576171875, 0, 
213, 2076010692, 0.1356722, -0.61528844, -0.20473447, -0.74906415, 9.690810203552246, 1.4182024002075195, 1.7631843090057373, 1.620355486869812, -0.6825144290924072, 1.7179527282714844, -0.78369140625, -1.136474609375, 0.46435546875, 0, 
214, 2076027359, 0.13592152, -0.61527336, -0.20469965, -0.74904096, 9.673669815063477, 1.4483882188796997, 1.7702304124832153, 1.9265936613082886, -0.6131552457809448, 1.8683760166168213, -0.781494140625, -1.1357421875, 0.466064453125, 0, 
215, 2076044026, 0.13617103, -0.6152594, -0.20467, -0.7490151, 9.655022621154785, 1.4539605379104614, 1.7896283864974976, 1.9134544134140015, -0.6435959339141846, 1.8451964855194092, -0.78369140625, -1.13232421875, 0.465576171875, 0, 
216, 2076060693, 0.1364253, -0.6152345, -0.20462559, -0.74900144, 9.632874488830566, 1.4431533813476562, 1.7655677795410156, 1.7969677448272705, -0.5258030295372009, 1.8989830017089844, -0.781494140625, -1.134765625, 0.465576171875, 0, 
217, 2076077360, 0.13668476, -0.61521333, -0.20462166, -0.7489726, 9.615645408630371, 1.4471508264541626, 1.7951105833053589, 2.1639978885650635, -0.6241174340248108, 1.7949059009552002, -0.78369140625, -1.133544921875, 0.466064453125, 0, 
218, 2076094027, 0.13693723, -0.61517864, -0.20463906, -0.74895024, 9.627601623535156, 1.4434528350830078, 1.7920621633529663, 2.155122756958008, -0.5738781094551086, 1.6315226554870605, -0.78369140625, -1.132568359375, 0.46337890625, 0, 
219, 2076110694, 0.13711238, -0.6151406, -0.20459767, -0.7489606, 9.659664154052734, 1.4442740678787231, 1.7685763835906982, 1.6089962720870972, -0.4557651877403259, 1.4688307046890259, -0.7841796875, -1.134033203125, 0.465576171875, 0, 
220, 2076127361, 0.13726194, -0.61510146, -0.20452936, -0.74898404, 9.675531387329102, 1.4121739864349365, 1.801391839981079, 1.3206740617752075, -0.4116472899913788, 1.434394359588623, -0.78125, -1.13427734375, 0.461669921875, 0, 
221, 2076144028, 0.1373608, -0.6150565, -0.2044124, -0.74903476, 9.711565017700195, 1.4284907579421997, 1.7509976625442505, 1.0352460145950317, -0.2627478837966919, 1.3799803256988525, -0.785400390625, -1.133056640625, 0.465576171875, 0, 
222, 2076160695, 0.137557, -0.6149809, -0.20434202, -0.7490801, 9.691048622131348, 1.415312647819519, 1.7513405084609985, 1.4456769227981567, -0.07669723778963089, 1.6031821966171265, -0.78466796875, -1.133544921875, 0.465087890625, 0, 
223, 2076177362, 0.13775599, -0.6148972, -0.20428158, -0.74912876, 9.688788414001465, 1.4210889339447021, 1.7606500387191772, 1.5461043119430542, -0.022321470081806183, 1.5671322345733643, -0.785888671875, -1.13232421875, 0.466064453125, 0, 
224, 2076194029, 0.13795434, -0.61482024, -0.20420319, -0.7491767, 9.683577537536621, 1.3935906887054443, 1.7616472244262695, 1.390417456626892, -0.05278777703642845, 1.643009901046753, -0.785888671875, -1.130126953125, 0.46337890625, 0, 
225, 2076210696, 0.13814597, -0.6147278, -0.20409554, -0.7492466, 9.69118881225586, 1.383589744567871, 1.7903074026107788, 1.2537736892700195, 0.14761239290237427, 1.698730230331421, -0.7841796875, -1.129150390625, 0.466064453125, 0, 
226, 2076227363, 0.13835137, -0.61465317, -0.20404138, -0.7492846, 9.675606727600098, 1.360408902168274, 1.7691068649291992, 1.4919462203979492, -0.1317005157470703, 1.578837275505066, -0.78515625, -1.129150390625, 0.4599609375, 0, 
227, 2076244030, 0.13851315, -0.6145898, -0.20398389, -0.74932253, 9.6736421585083, 1.3668516874313354, 1.765157699584961, 1.4907294511795044, -0.21631203591823578, 1.4157993793487549, -0.786376953125, -1.13134765625, 0.465576171875, 0, 
228, 2076260697, 0.13870296, -0.6145353, -0.20393594, -0.74934506, 9.647442817687988, 1.408078670501709, 1.7570579051971436, 1.5500614643096924, -0.3165986239910126, 1.5276503562927246, -0.785888671875, -1.130126953125, 0.465087890625, 0, 
229, 2076277364, 0.13888969, -0.61450994, -0.20386635, -0.74935037, 9.656595230102539, 1.398802399635315, 1.7391464710235596, 1.4383515119552612, -0.5204372406005859, 1.664204478263855, -0.786865234375, -1.12890625, 0.465576171875, 0, 
230, 2076294031, 0.13909252, -0.6144552, -0.20380116, -0.7493752, 9.670772552490234, 1.3712865114212036, 1.7225948572158813, 1.4838078022003174, -0.2741711735725403, 1.6634297370910645, -0.785888671875, -1.12841796875, 0.4638671875, 0, 
231, 2076310698, 0.13930319, -0.6144142, -0.20376445, -0.7493797, 9.674470901489258, 1.3885749578475952, 1.7488805055618286, 1.7764521837234497, -0.4312794804573059, 1.6367733478546143, -0.787353515625, -1.12744140625, 0.46337890625, 0, 
232, 2076327365, 0.13953236, -0.61437196, -0.20376569, -0.7493714, 9.650290489196777, 1.3572711944580078, 1.7533867359161377, 2.089336633682251, -0.48565515875816345, 1.5870589017868042, -0.7880859375, -1.12841796875, 0.465576171875, 0, 
233, 2076344032, 0.13973914, -0.614383, -0.20383829, -0.74930406, 9.644791603088379, 1.3661378622055054, 1.7768670320510864, 2.303785562515259, -1.121797800064087, 1.2864233255386353, -0.78759765625, -1.12890625, 0.466064453125, 0, 
234, 2076360699, 0.13988197, -0.614402, -0.2038887, -0.749248, 9.648904800415039, 1.372780442237854, 1.758891224861145, 1.9244295358657837, -1.1798874139785767, 1.056530237197876, -0.789794921875, -1.125, 0.46435546875, 0, 
235, 2076377366, 0.14002813, -0.614443, -0.20396043, -0.74916774, 9.681253433227539, 1.4039850234985352, 1.756330132484436, 2.0463716983795166, -1.4137953519821167, 1.0348619222640991, -0.786865234375, -1.126220703125, 0.466552734375, 0, 
236, 2076394033, 0.14017926, -0.61445034, -0.20400497, -0.7491212, 9.693307876586914, 1.4094455242156982, 1.7319886684417725, 1.9041059017181396, -1.0659621953964233, 1.0965884923934937, -0.7880859375, -1.12841796875, 0.465087890625, 0, 
237, 2076410700, 0.14038797, -0.6144369, -0.20407966, -0.7490729, 9.696075439453125, 1.3962171077728271, 1.7320711612701416, 2.444751262664795, -0.8952534794807434, 1.2594980001449585, -0.78759765625, -1.125732421875, 0.465087890625, 0, 
238, 2076427367, 0.1406312, -0.6143929, -0.20414002, -0.7490469, 9.699323654174805, 1.393476963043213, 1.754604458808899, 2.518669366836548, -0.5797178149223328, 1.435943841934204, -0.78759765625, -1.127197265625, 0.4677734375, 0, 
239, 2076444034, 0.14084634, -0.6143717, -0.20420928, -0.7490049, 9.645591735839844, 1.3774818181991577, 1.812768816947937, 2.3537495136260986, -0.8256894946098328, 1.2875056266784668, -0.78857421875, -1.125732421875, 0.46728515625, 0, 
240, 2076460701, 0.14094079, -0.6143771, -0.20422034, -0.74897975, 9.651450157165527, 1.35294771194458, 1.8273118734359741, 1.509772539138794, -1.0048117637634277, 0.9360480904579163, -0.786865234375, -1.126708984375, 0.46728515625, 0, 
241, 2076477368, 0.14097138, -0.6144133, -0.20421334, -0.7489462, 9.643836975097656, 1.350274682044983, 1.7852848768234253, 1.216366171836853, -1.2627315521240234, 0.7497925162315369, -0.786865234375, -1.126220703125, 0.466064453125, 0, 
242, 2076494035, 0.1410012, -0.61444855, -0.2042153, -0.74891114, 9.64597225189209, 1.3837980031967163, 1.7847859859466553, 1.2658370733261108, -1.2747055292129517, 0.7075442671775818, -0.790771484375, -1.125, 0.46728515625, 0, 
243, 2076510702, 0.14109783, -0.6144822, -0.2043111, -0.74883914, 9.650346755981445, 1.3729993104934692, 1.7648392915725708, 1.9629123210906982, -1.4374871253967285, 0.6701370477676392, -0.786865234375, -1.126708984375, 0.46728515625, 0, 
244, 2076527369, 0.1412097, -0.61448324, -0.20443231, -0.7487841, 9.677874565124512, 1.3531237840652466, 1.7549370527267456, 2.2586112022399902, -1.1885573863983154, 0.5945412516593933, -0.7890625, -1.126708984375, 0.465576171875, 0, 
245, 2076544036, 0.14128028, -0.6144711, -0.20451148, -0.7487592, 9.686075210571289, 1.3863946199417114, 1.7525891065597534, 1.8916451930999756, -1.0033262968063354, 0.521224856376648, -0.78857421875, -1.1240234375, 0.46728515625, 0, 
246, 2076560703, 0.1412864, -0.61445975, -0.20452607, -0.74876326, 9.678117752075195, 1.376816749572754, 1.7761517763137817, 1.1615808010101318, -0.923286497592926, 0.42256471514701843, -0.789794921875, -1.12451171875, 0.468994140625, 0, 
247, 2076577370, 0.14124462, -0.61446536, -0.20447367, -0.7487809, 9.69338321685791, 1.3693490028381348, 1.7764487266540527, 0.5166273713111877, -0.9652273058891296, 0.4595622420310974, -0.7880859375, -1.1240234375, 0.469482421875, 0, 
248, 2076594037, 0.14125763, -0.6144334, -0.20448747, -0.7488009, 9.67136001586914, 1.3327645063400269, 1.751768946647644, 1.0969983339309692, -0.753781795501709, 0.4035857021808624, -0.7919921875, -1.125, 0.46826171875, 0, 
249, 2076610704, 0.14128862, -0.6144012, -0.20449087, -0.7488206, 9.673049926757812, 1.3633191585540771, 1.733694314956665, 1.1559460163116455, -0.7121355533599854, 0.5446988940238953, -0.789794921875, -1.12451171875, 0.469482421875, 0, 
250, 2076627371, 0.14137311, -0.6143442, -0.20454982, -0.7488353, 9.659700393676758, 1.3188008069992065, 1.723158597946167, 1.6705178022384644, -0.586594820022583, 0.5501415133476257, -0.78857421875, -1.125732421875, 0.4677734375, 0, 
251, 2076644038, 0.14139727, -0.61430013, -0.20456517, -0.74886274, 9.667631149291992, 1.3386296033859253, 1.7403154373168945, 1.2516862154006958, -0.6290991306304932, 0.44288837909698486, -0.789306640625, -1.12548828125, 0.468994140625, 0, 
252, 2076660705, 0.14138913, -0.6142782, -0.20454495, -0.74888784, 9.680986404418945, 1.3350390195846558, 1.7414119243621826, 0.8908929228782654, -0.7655123472213745, 0.4569113850593567, -0.790283203125, -1.126708984375, 0.47216796875, 0, 
253, 2076677372, 0.14136025, -0.6142733, -0.20450392, -0.7489085, 9.714900970458984, 1.312016487121582, 1.7381430864334106, 0.543136477470398, -0.8993387222290039, 0.44021186232566833, -0.790771484375, -1.125, 0.468994140625, 0, 
254, 2076694039, 0.14133656, -0.6143009, -0.20450373, -0.7488902, 9.698995590209961, 1.3071064949035645, 1.7349659204483032, 0.8966172933578491, -1.2490161657333374, 0.3920215964317322, -0.790771484375, -1.1240234375, 0.4677734375, 0, 
255, 2076710706, 0.14132738, -0.6143448, -0.20452957, -0.7488489, 9.708606719970703, 1.3549611568450928, 1.732927918434143, 1.1197936534881592, -1.432582139968872, 0.4023178517818451, -0.790771484375, -1.1240234375, 0.46728515625, 0, 
256, 2076727373, 0.14133348, -0.6143784, -0.20450298, -0.7488275, 9.653735160827637, 1.3672574758529663, 1.7240535020828247, 0.9535160064697266, -1.2137089967727661, 0.6775774955749512, -0.790283203125, -1.1240234375, 0.468994140625, 0, 
257, 2076744040, 0.14141193, -0.6143898, -0.20453155, -0.74879557, 9.651052474975586, 1.3423876762390137, 1.7038251161575317, 1.5030620098114014, -1.1043809652328491, 0.7832939624786377, -0.789794921875, -1.1240234375, 0.469482421875, 0, 
258, 2076760707, 0.14149545, -0.61439633, -0.20460671, -0.74875385, 9.66235065460205, 1.3374918699264526, 1.7539753913879395, 1.785813570022583, -1.1567336320877075, 0.6163248419761658, -0.789794921875, -1.123291015625, 0.46826171875, 0, 
259, 2076777374, 0.14154477, -0.6144187, -0.20465967, -0.7487117, 9.699530601501465, 1.3542317152023315, 1.733903408050537, 1.5396625995635986, -1.26315438747406, 0.5603482127189636, -0.790283203125, -1.123779296875, 0.469970703125, 0, 
260, 2076794041, 0.14158651, -0.6144424, -0.20466629, -0.7486826, 9.68323040008545, 1.391550898551941, 1.7602143287658691, 1.2213351726531982, -1.1819363832473755, 0.7009363174438477, -0.789794921875, -1.123779296875, 0.469970703125, 0, 
261, 2076810708, 0.14162697, -0.6144643, -0.20462017, -0.7486696, 9.687959671020508, 1.4067579507827759, 1.7490158081054688, 0.9417853355407715, -1.054193139076233, 0.9026491045951843, -0.789794921875, -1.12451171875, 0.470458984375, 0, 
262, 2076827375, 0.14172933, -0.6144646, -0.20460208, -0.7486549, 9.676399230957031, 1.372107982635498, 1.753150463104248, 1.3731415271759033, -0.8894265294075012, 1.0778014659881592, -0.78857421875, -1.122314453125, 0.470458984375, 0, 
263, 2076844042, 0.1418949, -0.61444926, -0.20466082, -0.7486201, 9.675409317016602, 1.3306734561920166, 1.771095633506775, 2.0307862758636475, -0.8851108551025391, 1.068235158920288, -0.791015625, -1.125, 0.47119140625, 0, 
264, 2076860709, 0.14203317, -0.61448103, -0.20483792, -0.74851936, 9.621240615844727, 1.3072795867919922, 1.8343689441680908, 2.6350409984588623, -1.5530771017074585, 0.5678527355194092, -0.78759765625, -1.12451171875, 0.469970703125, 0, 
265, 2076877376, 0.14205788, -0.614531, -0.2050545, -0.7484143, 9.653493881225586, 1.3299692869186401, 1.8035593032836914, 2.398789882659912, -1.8594692945480347, -0.14692726731300354, -0.793212890625, -1.122802734375, 0.4716796875, 0, 
266, 2076894043, 0.14208592, -0.6145706, -0.2052857, -0.74831295, 9.632624626159668, 1.3660249710083008, 1.7713462114334106, 2.3944993019104004, -1.8158892393112183, -0.22555825114250183, -0.7919921875, -1.122802734375, 0.473388671875, 0, 
267, 2076910710, 0.14214154, -0.6146352, -0.20553537, -0.74818087, 9.65119743347168, 1.3987854719161987, 1.79342782497406, 2.5833797454833984, -2.0592477321624756, -0.10293743759393692, -0.791015625, -1.1259765625, 0.474609375, 0, 
268, 2076927377, 0.14218313, -0.614666, -0.20578317, -0.74807954, 9.708268165588379, 1.3745735883712769, 1.7329635620117188, 2.5813632011413574, -1.7649518251419067, -0.23114819824695587, -0.789306640625, -1.125, 0.473388671875, 0, 
269, 2076944044, 0.14229323, -0.61463904, -0.20601396, -0.7480172, 9.682275772094727, 1.3774702548980713, 1.7395422458648682, 2.8852131366729736, -1.1756869554519653, 0.09009907394647598, -0.79150390625, -1.124267578125, 0.474609375, 0, 
270, 2076960711, 0.1424025, -0.61459905, -0.20621921, -0.7479728, 9.696009635925293, 1.3472405672073364, 1.7825775146484375, 2.6648285388946533, -1.0184506177902222, 0.1466263085603714, -0.79052734375, -1.125, 0.47509765625, 0, 
271, 2076977378, 0.14247629, -0.61451477, -0.20638943, -0.7479811, 9.710752487182617, 1.2958784103393555, 1.7448928356170654, 2.3288795948028564, -0.5823560357093811, 0.001594390720129013, -0.788818359375, -1.123291015625, 0.473388671875, 0, 
272, 2076994045, 0.14258677, -0.61441463, -0.20660208, -0.7479836, 9.690382957458496, 1.3191008567810059, 1.7657041549682617, 2.7787795066833496, -0.5066831707954407, -4.7383495257236063E-4, -0.79150390625, -1.125, 0.473876953125, 0, 
273, 2077010712, 0.14265586, -0.61433244, -0.20675874, -0.7479947, 9.679364204406738, 1.3859610557556152, 1.7675492763519287, 2.271219253540039, -0.5684354305267334, 0.035319916903972626, -0.788330078125, -1.12548828125, 0.47607421875, 0, 
274, 2077027379, 0.14270215, -0.6142781, -0.20683017, -0.7480107, 9.670245170593262, 1.3838647603988647, 1.7623554468154907, 1.670562744140625, -0.6462148427963257, 0.30933740735054016, -0.78662109375, -1.123291015625, 0.47509765625, 0, 
275, 2077044046, 0.14272846, -0.6142394, -0.20683417, -0.7480363, 9.693239212036133, 1.3123061656951904, 1.745493769645691, 1.2186074256896973, -0.6475915312767029, 0.5060237050056458, -0.788818359375, -1.123779296875, 0.473388671875, 0, 
276, 2077060713, 0.14280632, -0.61416715, -0.20686898, -0.7480711, 9.7055025100708, 1.2836953401565552, 1.7030986547470093, 1.7058889865875244, -0.3801308870315552, 0.5955912470817566, -0.78662109375, -1.12548828125, 0.473876953125, 0, 
277, 2077077380, 0.14298517, -0.6140696, -0.20700903, -0.74807835, 9.716814041137695, 1.3184491395950317, 1.721644639968872, 2.736121416091919, -0.3246537446975708, 0.6592260599136353, -0.788818359375, -1.12451171875, 0.473388671875, 0, 
278, 2077094047, 0.14322633, -0.6139489, -0.20711993, -0.7481006, 9.722352027893066, 1.3907302618026733, 1.7043259143829346, 2.8405065536499023, -0.024933965876698494, 1.0505242347717285, -0.789794921875, -1.123291015625, 0.47509765625, 0, 
279, 2077110714, 0.14351495, -0.6138352, -0.20720562, -0.7481149, 9.672232627868652, 1.4196810722351074, 1.740105390548706, 2.825836420059204, -0.01280634943395853, 1.4060219526290894, -0.7880859375, -1.123291015625, 0.474609375, 0, 
280, 2077127381, 0.1437672, -0.6137504, -0.20721683, -0.74813294, 9.636112213134766, 1.3837957382202148, 1.754915475845337, 2.3314788341522217, -0.11261902749538422, 1.585381031036377, -0.79052734375, -1.1220703125, 0.474609375, 0, 
281, 2077144048, 0.14401536, -0.6136857, -0.20725422, -0.7481278, 9.600360870361328, 1.336287021636963, 1.7396904230117798, 2.4412426948547363, -0.34876811504364014, 1.5030620098114014, -0.79052734375, -1.119384765625, 0.47607421875, 0, 
282, 2077160715, 0.14424737, -0.6136317, -0.20734143, -0.7481032, 9.606228828430176, 1.324554681777954, 1.7228275537490845, 2.545358180999756, -0.5725334882736206, 1.2278920412063599, -0.79150390625, -1.120361328125, 0.47509765625, 0, 
283, 2077177382, 0.14450084, -0.6135729, -0.20751593, -0.74805415, 9.626258850097656, 1.3374743461608887, 1.7124212980270386, 3.1850860118865967, -0.6971007585525513, 0.9950341582298279, -0.79052734375, -1.12109375, 0.47607421875, 0, 
284, 2077194049, 0.1447453, -0.6135268, -0.20773652, -0.74798346, 9.664612770080566, 1.384910225868225, 1.7093020677566528, 3.4340550899505615, -0.9068176746368408, 0.8000191450119019, -0.7900390625, -1.119873046875, 0.478515625, 0, 
285, 2077210716, 0.14500076, -0.6134901, -0.20794848, -0.74790514, 9.666484832763672, 1.3753775358200073, 1.7120859622955322, 3.362658977508545, -0.9726294279098511, 0.9027387499809265, -0.7900390625, -1.12109375, 0.477783203125, 0, 
286, 2077227383, 0.14521016, -0.6134819, -0.20811938, -0.7478238, 9.62967586517334, 1.4023867845535278, 1.7585333585739136, 2.9966540336608887, -1.1453744173049927, 0.8930956721305847, -0.792724609375, -1.11865234375, 0.4794921875, 0, 
287, 2077244050, 0.14537813, -0.61347467, -0.20821156, -0.74777144, 9.624161720275879, 1.3751345872879028, 1.728817343711853, 2.2985541820526123, -1.0191421508789062, 0.9746465682983398, -0.789306640625, -1.120361328125, 0.480712890625, 0, 
288, 2077260717, 0.14552332, -0.61348003, -0.20831017, -0.7477113, 9.604079246520996, 1.3223177194595337, 1.728281855583191, 2.278416156768799, -1.149927020072937, 0.8633401393890381, -0.789794921875, -1.119384765625, 0.477294921875, 0, 
289, 2077277384, 0.14565192, -0.6134539, -0.20844132, -0.7476711, 9.65804672241211, 1.3144307136535645, 1.7136858701705933, 2.4710745811462402, -0.9478427767753601, 0.5907312035560608, -0.789794921875, -1.11767578125, 0.478515625, 0, 
290, 2077294051, 0.14583068, -0.6134068, -0.20864604, -0.7476179, 9.670312881469727, 1.3265106678009033, 1.737945556640625, 3.057586669921875, -0.9016823172569275, 0.5129391551017761, -0.791015625, -1.11865234375, 0.478515625, 0, 
291, 2077310718, 0.14597026, -0.6133595, -0.20879073, -0.74758905, 9.72053050994873, 1.3684598207473755, 1.7901216745376587, 2.600553274154663, -0.7857335805892944, 0.5462868809700012, -0.79150390625, -1.11767578125, 0.47900390625, 0, 
292, 2077327385, 0.14609662, -0.61333054, -0.20882589, -0.7475783, 9.742985725402832, 1.3390867710113525, 1.7712160348892212, 1.8829625844955444, -0.7215610146522522, 0.9408121705055237, -0.787841796875, -1.120361328125, 0.4794921875, 0, 
293, 2077344052, 0.14625072, -0.6132837, -0.20885374, -0.74757886, 9.729949951171875, 1.2920327186584473, 1.755953311920166, 2.0106163024902344, -0.5293248891830444, 1.08318030834198, -0.788818359375, -1.11767578125, 0.4794921875, 0, 
294, 2077360719, 0.14647888, -0.61319965, -0.20894694, -0.74757713, 9.694936752319336, 1.2862931489944458, 1.7457129955291748, 2.6828598976135254, -0.30900442600250244, 1.1321773529052734, -0.789794921875, -1.119384765625, 0.477294921875, 0, 
295, 2077377386, 0.14674626, -0.6131093, -0.20909218, -0.7475581, 9.655841827392578, 1.3080862760543823, 1.7148628234863281, 3.2215847969055176, -0.33480918407440186, 1.1317931413650513, -0.7919921875, -1.11767578125, 0.476806640625, 0, 
296, 2077394053, 0.14694495, -0.61303496, -0.20918329, -0.7475546, 9.683381080627441, 1.344383716583252, 1.746963381767273, 2.6047534942626953, -0.39658698439598083, 1.0121946334838867, -0.791015625, -1.1181640625, 0.480712890625, 0, 
297, 2077410720, 0.14708145, -0.61294895, -0.20912057, -0.7476158, 9.706558227539062, 1.3391824960708618, 1.6918599605560303, 1.4011362791061401, -0.006736139301210642, 1.2466789484024048, -0.793212890625, -1.116455078125, 0.4794921875, 0, 
298, 2077427387, 0.14723074, -0.6128643, -0.20900784, -0.7476872, 9.700563430786133, 1.347760796546936, 1.69481360912323, 1.1755653619766235, 0.09875616431236267, 1.5132430791854858, -0.788818359375, -1.116455078125, 0.47998046875, 0, 
299, 2077444054, 0.1474161, -0.6127416, -0.20888436, -0.7477858, 9.701074600219727, 1.317336082458496, 1.6471308469772339, 1.2711902856826782, 0.4749939441680908, 1.662027359008789, -0.79150390625, -1.115478515625, 0.47509765625, 0, 
300, 2077460721, 0.14767303, -0.61260206, -0.2088251, -0.7478661, 9.678861618041992, 1.3168718814849854, 1.6898231506347656, 2.052762031555176, 0.5392305850982666, 1.7707661390304565, -0.794921875, -1.1181640625, 0.477294921875, 0, 
301, 2077477388, 0.14790103, -0.6124534, -0.20873795, -0.74796706, 9.684285163879395, 1.3466356992721558, 1.7029719352722168, 1.72836434841156, 0.6574332118034363, 1.6973086595535278, -0.792724609375, -1.11865234375, 0.47900390625, 0, 
302, 2077494055, 0.14807814, -0.6123165, -0.20854597, -0.7480976, 9.696574211120605, 1.3225113153457642, 1.7167538404464722, 0.8874737024307251, 0.752853274345398, 1.859591007232666, -0.7919921875, -1.11474609375, 0.477294921875, 0, 
303, 2077510722, 0.14825055, -0.6122016, -0.20839016, -0.74820095, 9.676446914672852, 1.2953401803970337, 1.7146822214126587, 1.0722565650939941, 0.48256248235702515, 1.742003083229065, -0.792724609375, -1.1171875, 0.477294921875, 0, 
304, 2077527389, 0.14838935, -0.6120989, -0.20828149, -0.74828774, 9.665913581848145, 1.278176188468933, 1.712354302406311, 1.2109298706054688, 0.26025065779685974, 1.4078789949417114, -0.794189453125, -1.115478515625, 0.4755859375, 0, 
305, 2077544056, 0.1485349, -0.6119901, -0.2082321, -0.7483615, 9.685235977172852, 1.304471492767334, 1.7009245157241821, 1.57787024974823, 0.18815088272094727, 1.1978163719177246, -0.792724609375, -1.115966796875, 0.474365234375, 0, 
306, 2077560723, 0.14863743, -0.61194247, -0.20817572, -0.7483958, 9.700050354003906, 1.2996113300323486, 1.697564959526062, 1.3997081518173218, -0.3377097547054291, 1.1410584449768066, -0.793212890625, -1.115966796875, 0.474365234375, 0, 
307, 2077577390, 0.14870818, -0.611905, -0.20812733, -0.7484259, 9.681134223937988, 1.2985044717788696, 1.6778169870376587, 1.29469633102417, -0.45962628722190857, 0.960898756980896, -0.7958984375, -1.1142578125, 0.476806640625, 0, 
308, 2077594057, 0.14879312, -0.61186713, -0.20811516, -0.7484434, 9.734635353088379, 1.3128010034561157, 1.6343352794647217, 1.478115439414978, -0.5352926850318909, 0.8789446353912354, -0.794921875, -1.115478515625, 0.473876953125, 0, 
309, 2077610724, 0.14891763, -0.6118194, -0.20810837, -0.7484595, 9.730039596557617, 1.3094857931137085, 1.6373323202133179, 1.772731900215149, -0.42232778668403625, 1.0616592168807983, -0.794677734375, -1.112060546875, 0.472900390625, 0, 
310, 2077627391, 0.14909157, -0.6117712, -0.20815574, -0.7484512, 9.7117338180542, 1.3048107624053955, 1.6412793397903442, 2.2674665451049805, -0.507163405418396, 1.1076852083206177, -0.793701171875, -1.115966796875, 0.477783203125, 0, 
311, 2077644058, 0.14926875, -0.6117166, -0.20823075, -0.74843955, 9.67954158782959, 1.3037025928497314, 1.6423025131225586, 2.4096174240112305, -0.5099936723709106, 0.9976402521133423, -0.794189453125, -1.11083984375, 0.474365234375, 0, 
312, 2077660725, 0.14945392, -0.6116836, -0.20832784, -0.7484026, 9.656002044677734, 1.2922074794769287, 1.6806347370147705, 2.5747933387756348, -0.7342967987060547, 1.0036206245422363, -0.793212890625, -1.11474609375, 0.4755859375, 0, 
313, 2077677392, 0.14959937, -0.6116673, -0.2084386, -0.7483559, 9.677478790283203, 1.2870838642120361, 1.687057375907898, 2.5299265384674072, -0.9215705394744873, 0.7844080924987793, -0.7919921875, -1.11376953125, 0.47607421875, 0, 
314, 2077694059, 0.14970799, -0.6116715, -0.20857583, -0.7482925, 9.684395790100098, 1.296546459197998, 1.6985455751419067, 2.4902396202087402, -1.1777873039245605, 0.5248618721961975, -0.793701171875, -1.11376953125, 0.47900390625, 0, 
315, 2077710726, 0.14982133, -0.6116742, -0.20870973, -0.7482302, 9.720807075500488, 1.318269968032837, 1.6646839380264282, 2.4448795318603516, -1.1594101190567017, 0.5521265864372253, -0.797119140625, -1.116455078125, 0.476806640625, 0, 
316, 2077727393, 0.14992636, -0.6116741, -0.20881602, -0.7481796, 9.72829818725586, 1.3353737592697144, 1.7037901878356934, 2.3388426303863525, -1.0641820430755615, 0.6231761574745178, -0.7919921875, -1.1142578125, 0.476806640625, 0, 
317, 2077744060, 0.14999063, -0.6116938, -0.2088751, -0.7481342, 9.73082447052002, 1.348494529724121, 1.7142419815063477, 1.8857285976409912, -1.1536473035812378, 0.633959174156189, -0.798095703125, -1.11474609375, 0.477294921875, 0, 
318, 2077760727, 0.15002058, -0.6117197, -0.20891444, -0.748096, 9.734731674194336, 1.3427661657333374, 1.731682300567627, 1.5974960327148438, -1.1850610971450806, 0.5381420254707336, -0.797607421875, -1.113525390625, 0.47900390625, 0, 
319, 2077777394, 0.15006651, -0.61173475, -0.20894442, -0.7480661, 9.72014331817627, 1.3252633810043335, 1.7421221733093262, 1.5839917659759521, -1.06398344039917, 0.6302515864372253, -0.797607421875, -1.113037109375, 0.481689453125, 0, 
320, 2077794061, 0.1500999, -0.6117573, -0.20898499, -0.74802965, 9.701473236083984, 1.3014582395553589, 1.751638412475586, 1.5485436916351318, -1.1644619703292847, 0.5334996581077576, -0.793701171875, -1.113037109375, 0.47900390625, 0, 
321, 2077810728, 0.15014577, -0.6117775, -0.20906173, -0.7479825, 9.697609901428223, 1.3097357749938965, 1.72794771194458, 1.8833147287368774, -1.2068065404891968, 0.46520349383354187, -0.796630859375, -1.1142578125, 0.47998046875, 0, 
322, 2077827395, 0.15020777, -0.611759, -0.2091463, -0.74796146, 9.719422340393066, 1.3357681035995483, 1.7201379537582397, 1.964116096496582, -0.8850083947181702, 0.42791780829429626, -0.797119140625, -1.116455078125, 0.4794921875, 0, 
323, 2077844062, 0.15026687, -0.61175174, -0.20921099, -0.7479376, 9.692055702209473, 1.34328293800354, 1.74323308467865, 1.8977793455123901, -0.9290751218795776, 0.5248618721961975, -0.796630859375, -1.116455078125, 0.4794921875, 0, 
324, 2077860729, 0.15028901, -0.6117209, -0.20918205, -0.7479664, 9.687592506408691, 1.343481421470642, 1.706321358680725, 1.2191964387893677, -0.5409145951271057, 0.6431156396865845, -0.79833984375, -1.116943359375, 0.482421875, 0, 
325, 2077877396, 0.15030512, -0.61169016, -0.20910661, -0.7480094, 9.621638298034668, 1.3556493520736694, 1.7679353952407837, 0.8586785197257996, -0.4516415596008301, 0.7805342078208923, -0.79541015625, -1.115966796875, 0.4794921875, 0, 
326, 2077894063, 0.15026249, -0.61165494, -0.20896997, -0.74808496, 9.62498664855957, 1.348705768585205, 1.76266610622406, 0.3059949278831482, -0.30598852038383484, 0.7071154117584229, -0.7978515625, -1.11474609375, 0.481689453125, 0, 
327, 2077910730, 0.15021335, -0.61159086, -0.20880634, -0.7481928, 9.623202323913574, 1.3508944511413574, 1.7413053512573242, 0.06731657683849335, -0.011474489234387875, 0.7031390070915222, -0.796142578125, -1.116943359375, 0.47998046875, 0, 
328, 2077927397, 0.15016831, -0.61151856, -0.208668, -0.7482996, 9.619139671325684, 1.3329418897628784, 1.7805471420288086, 0.28649085760116577, 0.01538042537868023, 0.6191229820251465, -0.79833984375, -1.113525390625, 0.481201171875, 0, 
329, 2077944064, 0.1501152, -0.6114429, -0.2085433, -0.74840677, 9.61229133605957, 1.3548604249954224, 1.8179292678833008, 0.22060216963291168, -0.006627285853028297, 0.4976676106452942, -0.797119140625, -1.1181640625, 0.481689453125, 0, 
330, 2077960731, 0.14997284, -0.6113903, -0.20836337, -0.7485284, 9.625133514404297, 1.3502006530761719, 1.8170959949493408, -0.4509819746017456, -0.13298752903938293, 0.29555773735046387, -0.797119140625, -1.117431640625, 0.4794921875, 0, 
331, 2077977398, 0.14977984, -0.611343, -0.20813823, -0.7486683, 9.634757995605469, 1.325282335281372, 1.834522008895874, -0.88327956199646, -0.10489680618047714, 0.22296494245529175, -0.79931640625, -1.117431640625, 0.47998046875, 0, 
332, 2077994065, 0.149548, -0.61130255, -0.20792301, -0.74880755, 9.672106742858887, 1.3357951641082764, 1.8085843324661255, -1.0618000030517578, -0.21903979778289795, -0.017954502254724503, -0.797607421875, -1.116943359375, 0.478515625, 0, 
333, 2078010732, 0.14931141, -0.6112222, -0.20772299, -0.7489758, 9.683436393737793, 1.3248813152313232, 1.7959682941436768, -0.9887142777442932, 0.08784516155719757, -0.19089145958423615, -0.797607421875, -1.119140625, 0.476806640625, 0, 
334, 2078027399, 0.14910148, -0.6111289, -0.20755163, -0.7491413, 9.688668251037598, 1.3630499839782715, 1.8288187980651855, -0.6714560985565186, 0.15612217783927917, -0.1817156970500946, -0.797119140625, -1.120361328125, 0.477783203125, 0, 
335, 2078044066, 0.14889744, -0.6110363, -0.20738159, -0.7493045, 9.704445838928223, 1.3260397911071777, 1.8218451738357544, -0.6675693392753601, 0.1445900946855545, -0.15842734277248383, -0.800048828125, -1.11865234375, 0.4794921875, 0, 
336, 2078060733, 0.14874172, -0.6108949, -0.20725858, -0.7494847, 9.724483489990234, 1.300795316696167, 1.8393971920013428, -0.2995789349079132, 0.4745200276374817, -0.21109986305236816, -0.797119140625, -1.1181640625, 0.4794921875, 0, 
337, 2078077400, 0.1486068, -0.61073023, -0.20717002, -0.74967015, 9.697239875793457, 1.3274774551391602, 1.8317869901657104, -0.019337588921189308, 0.6093581914901733, -0.2891802191734314, -0.797119140625, -1.11865234375, 0.472900390625, 0, 
338, 2078094067, 0.14846125, -0.61057526, -0.20705076, -0.7498582, 9.687948226928711, 1.3087451457977295, 1.801574945449829, -0.08992619067430496, 0.6054137945175171, -0.1771758645772934, -0.798583984375, -1.120849609375, 0.47216796875, 0, 
339, 2078110734, 0.14836009, -0.61040807, -0.20698367, -0.7500327, 9.663673400878906, 1.292759656906128, 1.8146605491638184, 0.4033103287220001, 0.6226447224617004, -0.170907124876976, -0.7998046875, -1.120361328125, 0.47607421875, 0, 
340, 2078127401, 0.14826183, -0.61024886, -0.20697051, -0.7501854, 9.661463737487793, 1.269178032875061, 1.8458272218704224, 0.5963277220726013, 0.4224814772605896, -0.37004587054252625, -0.7998046875, -1.119873046875, 0.4755859375, 0, 
341, 2078144068, 0.14817275, -0.610075, -0.20696001, -0.75034726, 9.644732475280762, 1.280710220336914, 1.8364663124084473, 0.637090265750885, 0.5447436571121216, -0.36800965666770935, -0.798095703125, -1.120361328125, 0.472900390625, 0, 
342, 2078160735, 0.14807904, -0.60990185, -0.20692348, -0.75051665, 9.666754722595215, 1.3181487321853638, 1.8318294286727905, 0.543271005153656, 0.6012965440750122, -0.2779938578605652, -0.79833984375, -1.1220703125, 0.4755859375, 0, 
343, 2078177402, 0.1479911, -0.6097348, -0.20684068, -0.75069237, 9.653534889221191, 1.3008346557617188, 1.8139417171478271, 0.27002188563346863, 0.6456449031829834, -0.06014501303434372, -0.797607421875, -1.12158203125, 0.474365234375, 0, 
344, 2078194069, 0.14788908, -0.60958165, -0.20675199, -0.7508613, 9.64607048034668, 1.3096860647201538, 1.8385708332061768, 0.16623923182487488, 0.5297858715057373, -0.08390079438686371, -0.795166015625, -1.12158203125, 0.46728515625, 0, 
345, 2078210736, 0.14775102, -0.60944504, -0.20662704, -0.7510339, 9.68010139465332, 1.2835580110549927, 1.8504080772399902, 0.026317046955227852, 0.47416791319847107, -0.05769900605082512, -0.797607421875, -1.12158203125, 0.470458984375, 0, 
346, 2078227403, 0.1476589, -0.60930085, -0.2064902, -0.75120646, 9.693603515625, 1.3216410875320435, 1.8506121635437012, 0.003963565453886986, 0.5694279670715332, 0.1874273419380188, -0.79931640625, -1.12255859375, 0.473388671875, 0, 
347, 2078244070, 0.14762864, -0.60917497, -0.20639254, -0.7513414, 9.681315422058105, 1.3189016580581665, 1.8523752689361572, 0.40279170870780945, 0.3525651693344116, 0.38870471715927124, -0.7998046875, -1.1220703125, 0.469482421875, 0, 
348, 2078260737, 0.14760749, -0.60906446, -0.20633864, -0.7514499, 9.731364250183105, 1.2910783290863037, 1.813765525817871, 0.7794135808944702, 0.1422337144613266, 0.31803926825523376, -0.797607421875, -1.120361328125, 0.46826171875, 0, 
349, 2078277404, 0.14760728, -0.6089597, -0.20627034, -0.75155365, 9.7121000289917, 1.324412226676941, 1.827468991279602, 0.8049495220184326, 0.14036400616168976, 0.49941563606262207, -0.799072265625, -1.12158203125, 0.46826171875, 0, 
350, 2078294071, 0.14763804, -0.60887146, -0.20616022, -0.7516493, 9.685101509094238, 1.3456827402114868, 1.8425824642181396, 0.7126221060752869, 0.10747087746858597, 0.8669770359992981, -0.798095703125, -1.123291015625, 0.470458984375, 0, 
351, 2078310738, 0.14767848, -0.6088028, -0.2060282, -0.7517331, 9.672876358032227, 1.3144943714141846, 1.8290305137634277, 0.5962764024734497, -0.011935517191886902, 1.0408872365951538, -0.798583984375, -1.123291015625, 0.46875, 0, 
352, 2078327405, 0.14771332, -0.6087614, -0.20594922, -0.75178146, 9.659157752990723, 1.2785687446594238, 1.8347396850585938, 0.9076499938964844, -0.35690656304359436, 0.8711903095245361, -0.7998046875, -1.1220703125, 0.4677734375, 0, 
353, 2078344072, 0.14775763, -0.60874903, -0.20590512, -0.7517947, 9.668197631835938, 1.3223483562469482, 1.8137991428375244, 1.1669658422470093, -0.6734411120414734, 0.8533895015716553, -0.7998046875, -1.120361328125, 0.46875, 0, 
354, 2078360739, 0.14783466, -0.6087513, -0.20588139, -0.7517843, 9.64261531829834, 1.3418370485305786, 1.853403925895691, 1.3504421710968018, -0.831112802028656, 0.9677245020866394, -0.798095703125, -1.12255859375, 0.46875, 0, 
355, 2078377406, 0.14793457, -0.60880667, -0.20589732, -0.75171536, 9.634037017822266, 1.3573496341705322, 1.8692491054534912, 1.7445707321166992, -1.3500518798828125, 1.0678702592849731, -0.797607421875, -1.122802734375, 0.46826171875, 0, 
356, 2078394073, 0.14809868, -0.6088715, -0.20598193, -0.75160754, 9.607039451599121, 1.326805830001831, 1.8372304439544678, 2.4127037525177, -1.5409433841705322, 1.1654547452926636, -0.80029296875, -1.12158203125, 0.46875, 0, 
357, 2078410740, 0.14828826, -0.60896504, -0.20615502, -0.751447, 9.610034942626953, 1.3811438083648682, 1.8637034893035889, 3.0341062545776367, -1.961990475654602, 1.0234835147857666, -0.798583984375, -1.120849609375, 0.47119140625, 0, 
358, 2078427407, 0.14846398, -0.60907483, -0.20633227, -0.7512745, 9.603899955749512, 1.3853399753570557, 1.8615694046020508, 2.945620536804199, -2.1273653507232666, 0.9620707035064697, -0.798095703125, -1.12255859375, 0.4716796875, 0, 
359, 2078444074, 0.14854649, -0.6092198, -0.20642601, -0.75111485, 9.632506370544434, 1.4191969633102417, 1.8598039150238037, 2.1212501525878906, -2.295640707015991, 0.8788164854049683, -0.80029296875, -1.120849609375, 0.47216796875, 0, 
360, 2078460741, 0.14859329, -0.6094006, -0.20653693, -0.75092864, 9.618335723876953, 1.3646705150604248, 1.8749604225158691, 2.0161354541778564, -2.666806936264038, 0.6944562792778015, -0.802001953125, -1.123046875, 0.473876953125, 0, 
361, 2078477408, 0.14861621, -0.60955495, -0.20667268, -0.75076133, 9.648528099060059, 1.396744728088379, 1.8432201147079468, 2.0627379417419434, -2.5088021755218506, 0.4143686294555664, -0.79931640625, -1.12158203125, 0.469970703125, 0, 
362, 2078494075, 0.14861345, -0.6097146, -0.20680149, -0.75059676, 9.645119667053223, 1.4457570314407349, 1.8566205501556396, 2.0710556507110596, -2.534024238586426, 0.3478076756000519, -0.801513671875, -1.120361328125, 0.473876953125, 0, 
363, 2078510742, 0.1486589, -0.6098627, -0.206968, -0.7504214, 9.63960075378418, 1.4194238185882568, 1.8369643688201904, 2.3119304180145264, -2.5141360759735107, 0.4023627042770386, -0.800537109375, -1.120361328125, 0.476806640625, 0, 
364, 2078527409, 0.14868778, -0.6100119, -0.20715016, -0.7502442, 9.65013599395752, 1.3852317333221436, 1.839316725730896, 2.2780511379241943, -2.5732438564300537, 0.24774523079395294, -0.79638671875, -1.12109375, 0.47216796875, 0, 
365, 2078544076, 0.14869124, -0.61013937, -0.20736611, -0.75008017, 9.674352645874023, 1.3568521738052368, 1.802071213722229, 2.531085252761841, -2.452953815460205, -0.032797060906887054, -0.797119140625, -1.1220703125, 0.474365234375, 0, 
366, 2078560743, 0.14864865, -0.61022025, -0.20754862, -0.7499724, 9.6340970993042, 1.398613691329956, 1.7793900966644287, 2.103724479675293, -2.011589527130127, -0.2593989968299866, -0.801025390625, -1.121337890625, 0.4755859375, 0, 
367, 2078577410, 0.14853239, -0.61030114, -0.20765682, -0.7498997, 9.65653133392334, 1.4275031089782715, 1.7477725744247437, 1.3202003240585327, -1.8994379043579102, -0.3701547682285309, -0.798095703125, -1.1220703125, 0.474365234375, 0, 
368, 2078594077, 0.1483494, -0.61038184, -0.20767695, -0.7498645, 9.72424602508545, 1.3542276620864868, 1.7462687492370605, 0.5586449503898621, -1.739768147468567, -0.37448325753211975, -0.79931640625, -1.119873046875, 0.4755859375, 0, 
369, 2078610744, 0.14819413, -0.61043364, -0.2077391, -0.74983597, 9.723653793334961, 1.3287123441696167, 1.777766227722168, 0.8406279683113098, -1.573733925819397, -0.47058209776878357, -0.798828125, -1.121337890625, 0.476806640625, 0, 
370, 2078627411, 0.14800811, -0.6105022, -0.20780791, -0.74979776, 9.747200012207031, 1.3358583450317383, 1.7781116962432861, 0.741071343421936, -1.7512296438217163, -0.6237587928771973, -0.797607421875, -1.119873046875, 0.4755859375, 0, 
371, 2078644078, 0.14784765, -0.61054766, -0.20788717, -0.7497704, 9.697134017944336, 1.3078395128250122, 1.7576844692230225, 0.9186569452285767, -1.5583404302597046, -0.5796793103218079, -0.798095703125, -1.119873046875, 0.47607421875, 0, 
372, 2078660745, 0.14765365, -0.6106171, -0.2079656, -0.74973035, 9.679701805114746, 1.3415076732635498, 1.737147331237793, 0.7408792972564697, -1.7845265865325928, -0.7068080306053162, -0.796630859375, -1.123291015625, 0.474365234375, 0, 
373, 2078677412, 0.14747356, -0.61066616, -0.2080146, -0.7497123, 9.679502487182617, 1.3157658576965332, 1.7303400039672852, 0.8051288723945618, -1.5140564441680908, -0.5341528654098511, -0.794921875, -1.123779296875, 0.47509765625, 0, 
374, 2078694079, 0.14731438, -0.6107367, -0.20809431, -0.7496639, 9.676285743713379, 1.347773790359497, 1.7699849605560303, 1.029624104499817, -1.7564678192138672, -0.5017784237861633, -0.797607421875, -1.123779296875, 0.476806640625, 0, 
375, 2078710746, 0.14719935, -0.61080843, -0.20819782, -0.74959946, 9.646933555603027, 1.3391681909561157, 1.7842527627944946, 1.2664583921432495, -1.803550124168396, -0.37345239520072937, -0.793701171875, -1.119873046875, 0.477783203125, 0, 
376, 2078727413, 0.14706536, -0.61088264, -0.20827554, -0.74954355, 9.672904968261719, 1.3486193418502808, 1.7679351568222046, 0.9757668972015381, -1.7900331020355225, -0.37958019971847534, -0.79443359375, -1.125, 0.476806640625, 0, 
377, 2078744080, 0.14699776, -0.610912, -0.20835426, -0.74951094, 9.66102409362793, 1.3647757768630981, 1.767190933227539, 1.3944257497787476, -1.349648356437683, -0.10770139843225479, -0.79443359375, -1.12158203125, 0.476806640625, 0, 
378, 2078760747, 0.14697312, -0.6109336, -0.2084884, -0.7494609, 9.656082153320312, 1.361021876335144, 1.786812663078308, 1.8306870460510254, -1.3858774900436401, -0.12422160059213638, -0.794921875, -1.12255859375, 0.478515625, 0, 
379, 2078777414, 0.14696701, -0.61092937, -0.20858034, -0.74943995, 9.677727699279785, 1.3764934539794922, 1.761019229888916, 1.6454108953475952, -1.0641754865646362, 0.07719667255878448, -0.79541015625, -1.123779296875, 0.4755859375, 0, 
380, 2078794081, 0.14696088, -0.6109492, -0.20865254, -0.74940485, 9.650378227233887, 1.407810926437378, 1.8087289333343506, 1.6043281555175781, -1.2201313972473145, 0.220819890499115, -0.793212890625, -1.123291015625, 0.47998046875, 0, 
381, 2078810748, 0.14690325, -0.6109566, -0.20866604, -0.74940646, 9.686259269714355, 1.3812754154205322, 1.7835488319396973, 0.9678399562835693, -1.0267491340637207, 0.13405686616897583, -0.793701171875, -1.120849609375, 0.477294921875, 0, 
382, 2078827415, 0.14687763, -0.6109233, -0.20869018, -0.74943197, 9.709434509277344, 1.3704845905303955, 1.783159852027893, 1.2012100219726562, -0.6755926012992859, 0.17914803326129913, -0.7939453125, -1.123779296875, 0.478515625, 0, 
383, 2078844082, 0.14683703, -0.61088055, -0.20865653, -0.74948406, 9.703691482543945, 1.4021399021148682, 1.7836875915527344, 0.8198240399360657, -0.47877177596092224, 0.3052649199962616, -0.79443359375, -1.1220703125, 0.477294921875, 0, 
384, 2078860749, 0.14675726, -0.6108184, -0.20853558, -0.74958414, 9.680990219116211, 1.4257231950759888, 1.7600659132003784, 0.1493348628282547, -0.14502552151679993, 0.39274516701698303, -0.79541015625, -1.123779296875, 0.477294921875, 0, 
385, 2078877416, 0.14664835, -0.61073774, -0.20834914, -0.74972296, 9.690938949584961, 1.38726806640625, 1.767622709274292, -0.3162015676498413, 0.1416061967611313, 0.4593189060688019, -0.793212890625, -1.123291015625, 0.47607421875, 0, 
386, 2078894083, 0.14650433, -0.61064756, -0.20816302, -0.74987626, 9.691389083862305, 1.3285434246063232, 1.776055932044983, -0.4835037589073181, 0.20092523097991943, 0.24711774289608002, -0.7939453125, -1.120849609375, 0.47900390625, 0, 
387, 2078910750, 0.14631385, -0.6105665, -0.20800453, -0.7500233, 9.709628105163574, 1.310125708580017, 1.7859472036361694, -0.6809520125389099, 0.01255662553012371, -0.11580781638622284, -0.792724609375, -1.124267578125, 0.472900390625, 0, 
388, 2078927417, 0.14609922, -0.61050594, -0.20786987, -0.7501519, 9.69701099395752, 1.337683916091919, 1.7406080961227417, -0.437772274017334, -0.19876734912395477, -0.2557172179222107, -0.79150390625, -1.12158203125, 0.4755859375, 0, 
389, 2078944084, 0.14589848, -0.61044294, -0.20774397, -0.7502771, 9.700883865356445, 1.377483606338501, 1.7391061782836914, -0.4771581292152405, -0.2089547961950302, -0.24860325455665588, -0.793212890625, -1.123291015625, 0.474609375, 0, 
390, 2078960751, 0.14577013, -0.6104034, -0.20767033, -0.7503545, 9.65619945526123, 1.3375444412231445, 1.7473312616348267, 0.1660599410533905, -0.4744240343570709, -0.007837486453354359, -0.792724609375, -1.124267578125, 0.4755859375, 0, 
391, 2078977418, 0.14564912, -0.61035216, -0.20763254, -0.75043017, 9.674084663391113, 1.313148021697998, 1.6994460821151733, 0.38019490242004395, -0.4472425878047943, -0.1401975154876709, -0.793212890625, -1.12109375, 0.472900390625, 0, 
392, 2078994085, 0.14554983, -0.6103247, -0.20762374, -0.7504743, 9.664130210876465, 1.3172568082809448, 1.7339147329330444, 0.6400485038757324, -0.700129508972168, -0.08514301478862762, -0.792724609375, -1.123779296875, 0.47509765625, 0, 
393, 2079010752, 0.14545779, -0.61033887, -0.2075999, -0.7504871, 9.67711353302002, 1.3270795345306396, 1.733501672744751, 0.570478081703186, -1.021780252456665, 0.10033135116100311, -0.792724609375, -1.123779296875, 0.473388671875, 0, 
394, 2079027419, 0.14539224, -0.6103684, -0.20759754, -0.75047636, 9.681379318237305, 1.3319388628005981, 1.725137710571289, 0.8561941981315613, -1.1755141019821167, 0.19980467855930328, -0.789794921875, -1.123291015625, 0.473876953125, 0, 
395, 2079044086, 0.14538744, -0.61042345, -0.20769162, -0.75040656, 9.675678253173828, 1.3272079229354858, 1.735121488571167, 1.6640443801879883, -1.5645197629928589, 0.20202018320560455, -0.793701171875, -1.1220703125, 0.47216796875, 0, 
396, 2079060753, 0.14535657, -0.6105212, -0.2077964, -0.7503041, 9.683124542236328, 1.3483691215515137, 1.7380503416061401, 1.6338789463043213, -1.9652751684188843, 0.11929754167795181, -0.792724609375, -1.123779296875, 0.472900390625, 0, 
397, 2079077420, 0.14534652, -0.61064327, -0.20786715, -0.7501869, 9.67612361907959, 1.4063985347747803, 1.7089004516601562, 1.5674716234207153, -2.084259033203125, 0.42202043533325195, -0.793212890625, -1.123291015625, 0.473876953125, 0, 
398, 2079094087, 0.14539397, -0.61077183, -0.20791359, -0.75006026, 9.641901969909668, 1.4197415113449097, 1.7093559503555298, 1.649534821510315, -2.0547726154327393, 0.8334757089614868, -0.791015625, -1.1220703125, 0.477783203125, 0, 
399, 2079110754, 0.14547986, -0.6108847, -0.20800158, -0.7499273, 9.649420738220215, 1.4193799495697021, 1.698285460472107, 1.9371076822280884, -2.001030445098877, 0.8210214376449585, -0.791015625, -1.1220703125, 0.476806640625, 0, 
400, 2079127421, 0.14557298, -0.61099726, -0.2081019, -0.74978966, 9.6622953414917, 1.4392296075820923, 1.71576988697052, 2.0913987159729004, -2.0123515129089355, 0.821828305721283, -0.79150390625, -1.122802734375, 0.4755859375, 0, 
401, 2079144088, 0.14565766, -0.61112446, -0.20818216, -0.7496472, 9.639204025268555, 1.4403798580169678, 1.770872712135315, 2.029390335083008, -2.0865514278411865, 0.9055435061454773, -0.789306640625, -1.122314453125, 0.473388671875, 0, 
402, 2079160755, 0.1456072, -0.6112873, -0.20818098, -0.7495246, 9.659311294555664, 1.4533675909042358, 1.768397331237793, 1.094897985458374, -2.2833850383758545, 0.6047094464302063, -0.79150390625, -1.123291015625, 0.47607421875, 0, 
403, 2079177422, 0.1455514, -0.61142313, -0.2081907, -0.749422, 9.6563720703125, 1.448330283164978, 1.7183884382247925, 1.0237716436386108, -2.0923912525177, 0.4559124708175659, -0.792724609375, -1.120361328125, 0.477783203125, 0, 
404, 2079194089, 0.14550878, -0.61155415, -0.20822, -0.7493152, 9.62907600402832, 1.4967774152755737, 1.6927045583724976, 1.0669289827346802, -2.1028027534484863, 0.41740378737449646, -0.79150390625, -1.122802734375, 0.4755859375, 0, 
405, 2079210756, 0.1454143, -0.61168724, -0.20825969, -0.74921393, 9.641148567199707, 1.476015567779541, 1.716738224029541, 1.0514270067214966, -2.1498148441314697, 0.13528627157211304, -0.79052734375, -1.12109375, 0.4755859375, 0, 
406, 2079227423, 0.14508423, -0.61185193, -0.20809235, -0.7491898, 9.712151527404785, 1.5775794982910156, 1.698811411857605, -1.1401108503341675, -2.1179912090301514, -0.23645642399787903, -0.7900390625, -1.12158203125, 0.47900390625, 0, 
407, 2079244090, 0.14460777, -0.61203015, -0.20765956, -0.7492567, 9.685976028442383, 1.5058246850967407, 1.644477128982544, -3.4415535926818848, -1.7715411186218262, 0.02765531837940216, -0.79150390625, -1.122802734375, 0.4755859375, 0, 
408, 2079260757, 0.14409351, -0.6122202, -0.20713125, -0.74934655, 9.70533275604248, 1.4418466091156006, 1.6396397352218628, -4.052197456359863, -1.6821907758712769, 0.24635574221611023, -0.789794921875, -1.122802734375, 0.4755859375, 0, 
409, 2079277424, 0.14356115, -0.61232674, -0.20659292, -0.7495103, 9.681575775146484, 1.4811021089553833, 1.6178265810012817, -4.264604091644287, -0.9624483585357666, -0.007402069866657257, -0.789306640625, -1.122802734375, 0.4755859375, 0, 
410, 2079294091, 0.14286081, -0.6125092, -0.20588115, -0.749691, 9.733057022094727, 1.5352894067764282, 1.5871130228042603, -6.039961338043213, -1.3584975004196167, -0.06250779330730438, -0.7880859375, -1.123291015625, 0.47216796875, 0, 
411, 2079310758, 0.1419187, -0.6127508, -0.20475419, -0.74998087, 9.760127067565918, 1.5866625308990479, 1.513857364654541, -9.388749122619629, -1.131006121635437, 0.4222191572189331, -0.792724609375, -1.12548828125, 0.473388671875, 0, 
412, 2079327425, 0.14093982, -0.61301, -0.2036283, -0.7502603, 9.639286994934082, 1.3424606323242188, 1.5762215852737427, -9.8247652053833, -1.3540029525756836, 0.21665148437023163, -0.78857421875, -1.125, 0.470458984375, 0, 
413, 2079344092, 0.13993798, -0.6132942, -0.20290038, -0.7504126, 9.55778694152832, 1.1563977003097534, 1.6386387348175049, -7.645878791809082, -2.4228081703186035, -1.4090827703475952, -0.78857421875, -1.122314453125, 0.469970703125, 0, 
414, 2079360759, 0.13899158, -0.61359215, -0.20266247, -0.75040925, 9.58496379852295, 1.317358374595642, 1.68329918384552, -4.880090713500977, -3.5722546577453613, -3.059654951095581, -0.791015625, -1.1279296875, 0.468994140625, 0, 
415, 2079377426, 0.13795471, -0.613992, -0.20238309, -0.75034904, 9.589056015014648, 1.5160244703292847, 1.6695985794067383, -5.487368106842041, -4.421802520751953, -3.1553828716278076, -0.78857421875, -1.12841796875, 0.468994140625, 0, 
416, 2079394093, 0.13656728, -0.61460906, -0.2016628, -0.7502915, 9.590274810791016, 1.4904965162277222, 1.6935153007507324, -9.476447105407715, -5.603996753692627, -2.804361581802368, -0.78759765625, -1.129638671875, 0.465087890625, 0, 
417, 2079410760, 0.13517107, -0.6153436, -0.20109197, -0.7500955, 9.653046607971191, 1.2020398378372192, 1.5854896306991577, -8.609136581420898, -6.940763473510742, -3.1770780086517334, -0.786376953125, -1.130615234375, 0.46728515625, 0, 
418, 2079427427, 0.13409065, -0.6159035, -0.2011112, -0.7498247, 9.715713500976562, 1.1535285711288452, 1.5783107280731201, -4.148207664489746, -6.49337100982666, -4.251913547515869, -0.786376953125, -1.133544921875, 0.466064453125, 0, 
419, 2079444094, 0.13324133, -0.6163841, -0.20146193, -0.749487, 9.71093463897705, 1.443496823310852, 1.5747522115707397, -1.484499454498291, -6.378344535827637, -4.547279357910156, -0.785888671875, -1.13525390625, 0.469482421875, 0, 
420, 2079460761, 0.13265438, -0.6168376, -0.20187022, -0.7491081, 9.725635528564453, 1.426692008972168, 1.6086034774780273, 0.12409356236457825, -6.085649490356445, -3.4174842834472656, -0.785400390625, -1.134521484375, 0.470703125, 0, 
421, 2079477428, 0.13211776, -0.6172979, -0.20226087, -0.74871814, 9.744817733764648, 1.1579241752624512, 1.5348402261734009, 0.13625319302082062, -6.097591400146484, -3.082322359085083, -0.78271484375, -1.13525390625, 0.472412109375, 0, 
422, 2079494095, 0.13169849, -0.6176943, -0.20296119, -0.74827546, 9.716065406799316, 1.3467762470245361, 1.5527950525283813, 2.4294676780700684, -6.099531173706055, -3.8261473178863525, -0.781494140625, -1.13916015625, 0.472900390625, 0, 
423, 2079510762, 0.13115238, -0.61807996, -0.20367783, -0.74785805, 9.624009132385254, 1.5510501861572266, 1.6378262042999268, 1.969015121459961, -6.125175476074219, -4.583188533782959, -0.7822265625, -1.14013671875, 0.473388671875, 0, 
424, 2079527429, 0.13028471, -0.61858284, -0.2040104, -0.7475032, 9.693387985229492, 1.6222652196884155, 1.6313339471817017, -1.5625158548355103, -6.565342903137207, -4.491789817810059, -0.7822265625, -1.1396484375, 0.477294921875, 0, 
425, 2079544096, 0.12921259, -0.61911213, -0.20400271, -0.7472531, 9.66872501373291, 1.4711352586746216, 1.6963512897491455, -4.413427829742432, -6.250639915466309, -4.157390117645264, -0.77880859375, -1.141845703125, 0.473876953125, 0, 
426, 2079560763, 0.12792069, -0.61971205, -0.20389201, -0.7470084, 9.614054679870605, 1.5840203762054443, 1.7175782918930054, -5.622949600219727, -6.758732795715332, -4.7044782638549805, -0.776611328125, -1.14306640625, 0.47412109375, 0, 
427, 2079577430, 0.12656581, -0.6203329, -0.2038053, -0.74674743, 9.588784217834473, 1.6243445873260498, 1.7170162200927734, -5.781543731689453, -7.050359725952148, -5.086465835571289, -0.77783203125, -1.144775390625, 0.47509765625, 0, 
428, 2079594097, 0.12519374, -0.62097114, -0.20400138, -0.74639463, 9.639839172363281, 1.4837095737457275, 1.6715812683105469, -4.310286521911621, -7.808009624481201, -6.276599884033203, -0.775634765625, -1.148193359375, 0.477294921875, 0, 
429, 2079610764, 0.12384573, -0.6214944, -0.20425487, -0.7461146, 9.722365379333496, 1.5809015035629272, 1.5837894678115845, -3.8396267890930176, -6.913496971130371, -6.612381935119629, -0.77294921875, -1.14990234375, 0.478515625, 0, 
430, 2079627431, 0.12242622, -0.6219978, -0.20424373, -0.7459325, 9.774983406066895, 1.735927939414978, 1.516676902770996, -5.622924327850342, -6.2683258056640625, -5.959244728088379, -0.771728515625, -1.152587890625, 0.47900390625, 0, 
431, 2079644098, 0.121105716, -0.6224843, -0.2040744, -0.7457884, 9.772892951965332, 1.4908416271209717, 1.4634357690811157, -6.032714366912842, -5.744161605834961, -4.824997901916504, -0.76953125, -1.152587890625, 0.477294921875, 0, 
432, 2079660765, 0.12001183, -0.6228485, -0.20407052, -0.7456623, 9.798860549926758, 1.3362994194030762, 1.395814061164856, -4.130253791809082, -4.856975555419922, -4.558664321899414, -0.76904296875, -1.156005859375, 0.478515625, 0, 
433, 2079677432, 0.119087845, -0.62322366, -0.20432542, -0.7454272, 9.736664772033691, 1.4591383934020996, 1.4449268579483032, -1.9515979290008545, -5.357638835906982, -4.698470592498779, -0.767333984375, -1.156005859375, 0.47900390625, 0, 
434, 2079694099, 0.11815595, -0.6236294, -0.20463204, -0.745152, 9.711050033569336, 1.4807707071304321, 1.53033447265625, -1.7021944522857666, -5.740383148193359, -4.888556003570557, -0.766845703125, -1.1572265625, 0.47802734375, 0, 
435, 2079710766, 0.11741291, -0.62403613, -0.20503527, -0.74481803, 9.633283615112305, 1.4075714349746704, 1.5585485696792603, -0.3093630075454712, -5.810971260070801, -4.2877197265625, -0.766357421875, -1.159423828125, 0.47900390625, 0, 
436, 2079727433, 0.11665315, -0.6244772, -0.20543948, -0.7444562, 9.622682571411133, 1.5605781078338623, 1.6475645303726196, -0.3647761642932892, -6.133102893829346, -4.309542655944824, -0.7646484375, -1.160400390625, 0.483642578125, 0, 
437, 2079744100, 0.11582074, -0.624955, -0.2057528, -0.7440986, 9.536540985107422, 1.6377142667770386, 1.7036556005477905, -1.213875651359558, -6.342563152313232, -4.248878479003906, -0.76416015625, -1.162841796875, 0.484130859375, 0, 
438, 2079760767, 0.11504914, -0.6253519, -0.20613168, -0.7437799, 9.500298500061035, 1.7025883197784424, 1.7105706930160522, -0.61403888463974, -5.734620094299316, -4.365287780761719, -0.759765625, -1.162841796875, 0.4814453125, 0, 
439, 2079777434, 0.11438585, -0.62563765, -0.20668688, -0.74348783, 9.507125854492188, 1.7762261629104614, 1.872555136680603, 0.842164933681488, -5.036891460418701, -4.740694046020508, -0.761474609375, -1.163330078125, 0.484130859375, 0, 
440, 2079794101, 0.11391442, -0.6257714, -0.20755136, -0.74320674, 9.516371726989746, 1.7878893613815308, 2.030911684036255, 3.3151867389678955, -4.199112892150879, -5.317286491394043, -0.7607421875, -1.1650390625, 0.484619140625, 0, 
441, 2079810768, 0.11359178, -0.6257743, -0.20880327, -0.742903, 9.533112525939941, 1.8085402250289917, 2.2744367122650146, 6.085239887237549, -3.727609157562256, -6.388116359710693, -0.75634765625, -1.166259765625, 0.486328125, 0, 
442, 2079827435, 0.11329721, -0.6255336, -0.21026272, -0.742739, 9.606560707092285, 1.8483107089996338, 2.3007309436798096, 7.269572734832764, -2.0180766582489014, -7.5924272537231445, -0.754150390625, -1.166259765625, 0.487548828125, 0, 
443, 2079844102, 0.11303845, -0.6250804, -0.21190043, -0.7426945, 9.654417991638184, 1.8681515455245972, 2.528031349182129, 8.33863353729248, -0.5208344459533691, -8.57170295715332, -0.75146484375, -1.169677734375, 0.487548828125, 0, 
444, 2079860769, 0.112462625, -0.6244197, -0.21353404, -0.74286973, 9.824373245239258, 1.828283667564392, 2.5641286373138428, 6.845529079437256, 1.0135270357131958, -10.637971878051758, -0.749755859375, -1.1689453125, 0.4892578125, 0, 
445, 2079877436, 0.111605935, -0.6234397, -0.214976, -0.7434058, 9.977557182312012, 1.9907430410385132, 2.599675416946411, 4.355844974517822, 3.9038450717926025, -11.999403953552246, -0.744384765625, -1.169677734375, 0.488037109375, 0, 
446, 2079894103, 0.11053777, -0.622123, -0.21580513, -0.7444277, 9.972935676574707, 2.2291791439056396, 2.687039375305176, -0.12158354371786118, 7.84915018081665, -11.321242332458496, -0.741455078125, -1.17041015625, 0.48583984375, 0, 
447, 2079910770, 0.10916993, -0.6204904, -0.21581, -0.7459891, 10.088629722595215, 2.063422441482544, 2.862412214279175, -6.19254207611084, 11.931822776794434, -10.20499324798584, -0.738525390625, -1.172119140625, 0.478515625, 0, 
448, 2079927437, 0.10767877, -0.61852294, -0.21536586, -0.74796546, 10.170036315917969, 1.534592628479004, 2.9062185287475586, -9.372623443603516, 15.552957534790039, -9.73011302947998, -0.732421875, -1.174072265625, 0.472412109375, 0, 
449, 2079944104, 0.10629948, -0.61617535, -0.2148498, -0.75024533, 10.133076667785645, 1.416765570640564, 2.967404842376709, -9.437581062316895, 18.99441909790039, -9.647003173828125, -0.72998046875, -1.174072265625, 0.464599609375, 0, 
450, 2079960771, 0.105153315, -0.61334574, -0.21419106, -0.75290906, 10.059799194335938, 1.5080324411392212, 3.0158848762512207, -9.413268089294434, 23.529327392578125, -8.848774909973145, -0.728759765625, -1.1748046875, 0.455078125, 0, 
451, 2079977438, 0.10417289, -0.6102097, -0.21325001, -0.75585496, 9.915617942810059, 1.4795405864715576, 3.1495308876037598, -10.365554809570312, 26.732894897460938, -7.467854022979736, -0.724609375, -1.175048828125, 0.445068359375, 0, 
452, 2079994105, 0.10338673, -0.6068096, -0.21191372, -0.7590692, 10.009708404541016, 1.2040640115737915, 3.20707631111145, -11.80945873260498, 29.77688217163086, -5.392172336578369, -0.71826171875, -1.1728515625, 0.4287109375, 0, 
453, 2080010772, 0.10292068, -0.6030374, -0.2102077, -0.7626047, 10.187355041503906, 0.8304497599601746, 3.26106333732605, -12.531749725341797, 33.78116226196289, -2.955437421798706, -0.71240234375, -1.17138671875, 0.419677734375, 0, 
454, 2080027439, 0.10320967, -0.5987834, -0.20850812, -0.76637506, 10.149006843566895, 0.6847938895225525, 3.4219396114349365, -9.393329620361328, 38.343570709228516, 0.08369635045528412, -0.71142578125, -1.1689453125, 0.404052734375, 0, 
455, 2080044106, 0.10420013, -0.59415615, -0.20663443, -0.7703397, 10.016386985778809, 0.7112106680870056, 3.6843819618225098, -7.374481678009033, 42.23078155517578, 3.809664011001587, -0.710693359375, -1.16162109375, 0.390625, 0, 
456, 2080060773, 0.106156506, -0.5889953, -0.20465447, -0.77455276, 10.081374168395996, 0.5897866487503052, 3.80734920501709, -3.7779552936553955, 47.538143157958984, 8.439421653747559, -0.705810546875, -1.160888671875, 0.373779296875, 0, 
457, 2080077440, 0.10903968, -0.5831776, -0.20233674, -0.7791497, 10.152740478515625, 0.6871786117553711, 4.079870223999023, -1.8760229349136353, 54.1197509765625, 13.516733169555664, -0.703857421875, -1.153076171875, 0.359619140625, 0, 
458, 2080094107, 0.11246642, -0.5767027, -0.19923124, -0.78426564, 10.290868759155273, 0.6772205233573914, 4.403216361999512, -4.138879299163818, 61.047916412353516, 18.264850616455078, -0.70458984375, -1.143798828125, 0.33837890625, 0, 
459, 2080110774, 0.11641567, -0.56949097, -0.19506443, -0.7899858, 10.460991859436035, 0.523492693901062, 4.622091770172119, -8.039671897888184, 68.9306411743164, 23.79429817199707, -0.701416015625, -1.13623046875, 0.31884765625, 0, 
460, 2080127441, 0.12125369, -0.56138843, -0.19005789, -0.79625285, 10.656075477600098, 0.5495517253875732, 4.654450416564941, -9.133554458618164, 77.75314331054688, 30.257431030273438, -0.700927734375, -1.12646484375, 0.29638671875, 0, 
461, 2080144108, 0.12709233, -0.55211055, -0.18415625, -0.8031862, 10.648842811584473, 0.7831168174743652, 4.655506134033203, -10.056723594665527, 88.7957534790039, 37.080718994140625, -0.69970703125, -1.11376953125, 0.27001953125, 0, 
462, 2080160775, 0.13370137, -0.54168814, -0.17679094, -0.81082857, 10.65691089630127, 1.1153943538665771, 4.8754425048828125, -15.109395027160645, 100.05077362060547, 44.809486389160156, -0.702880859375, -1.097900390625, 0.236328125, 0, 
463, 2080177442, 0.14143221, -0.53000224, -0.16821182, -0.81902355, 10.707222938537598, 0.9732062220573425, 5.147061347961426, -17.209232330322266, 111.62220764160156, 53.53518295288086, -0.7021484375, -1.08544921875, 0.20361328125, 0, 
464, 2080194109, 0.15022756, -0.5168417, -0.1584011, -0.82777756, 10.915464401245117, 1.0387886762619019, 5.320133209228516, -19.47926139831543, 124.38658142089844, 61.764007568359375, -0.70361328125, -1.0673828125, 0.16943359375, 0, 
465, 2080210776, 0.16015293, -0.50195825, -0.14685012, -0.8371523, 11.106841087341309, 1.2975159883499146, 5.445950508117676, -24.26997184753418, 139.4254913330078, 71.86170959472656, -0.702880859375, -1.0458984375, 0.129638671875, 0, 
466, 2080227443, 0.17136708, -0.48513606, -0.13319781, -0.8470742, 11.011247634887695, 1.4094842672348022, 5.697193622589111, -30.345563888549805, 156.09510803222656, 83.97801208496094, -0.70068359375, -1.021240234375, 0.08642578125, 0, 
467, 2080244110, 0.18365125, -0.46674794, -0.117542446, -0.85708946, 10.773331642150879, 1.065089225769043, 5.954031944274902, -36.69900131225586, 168.88101196289062, 95.35842895507812, -0.69970703125, -0.995849609375, 0.039794921875, 0, 
468, 2080260777, 0.19708331, -0.4466437, -0.10084097, -0.86689025, 10.814900398254395, 0.5904590487480164, 6.283934593200684, -36.85663986206055, 180.57115173339844, 104.37351989746094, -0.69482421875, -0.968017578125, -0.008544921875, 0, 
469, 2080277444, 0.21144438, -0.42434412, -0.08311707, -0.8765359, 10.808292388916016, 0.1473572552204132, 6.471828937530518, -37.032066345214844, 195.23313903808594, 111.74781799316406, -0.686279296875, -0.93505859375, -0.057373046875, 0, 
470, 2080294111, 0.22671321, -0.3998971, -0.06468861, -0.88571954, 10.380256652832031, -0.016483016312122345, 6.851387023925781, -35.25919723510742, 208.40396118164062, 118.72693634033203, -0.671875, -0.9033203125, -0.109130859375, 0, 
471, 2080310778, 0.2427074, -0.37351638, -0.046055205, -0.894124, 9.958230018615723, -0.6589040756225586, 7.291515350341797, -31.168920516967773, 218.71495056152344, 124.07355499267578, -0.65576171875, -0.872314453125, -0.162353515625, 0, 
472, 2080327445, 0.25966427, -0.34483472, -0.02843368, -0.9015848, 9.609349250793457, -1.2426968812942505, 7.706005573272705, -18.347993850708008, 229.09072875976562, 128.247314453125, -0.634521484375, -0.836181640625, -0.207275390625, 0, 
473, 2080344112, 0.277221, -0.31395072, -0.011982925, -0.90798676, 9.069611549377441, -1.3546785116195679, 8.084498405456543, -5.536057949066162, 238.30030822753906, 130.65773010253906, -0.60791015625, -0.807861328125, -0.256591796875, 0, 
474, 2080360779, 0.29451945, -0.2813951, 0.0038684576, -0.91326904, 8.384374618530273, -1.2112122774124146, 8.457271575927734, 0.9184899926185608, 245.1968536376953, 129.75906372070312, -0.580322265625, -0.78369140625, -0.297607421875, 0, 
475, 2080377446, 0.31122556, -0.24785961, 0.02008261, -0.9172248, 7.590030193328857, -0.9977325201034546, 8.80020523071289, -0.5707907676696777, 249.57708740234375, 129.4660186767578, -0.54248046875, -0.75830078125, -0.343994140625, 0, 
476, 2080394113, 0.32769844, -0.2136827, 0.03626888, -0.91958576, 6.828545570373535, -1.2441197633743286, 9.044754028320312, 0.3424874544143677, 250.91773986816406, 131.4632568359375, -0.50439453125, -0.73583984375, -0.3837890625, 0, 
477, 2080410780, 0.3438414, -0.17849901, 0.051653527, -0.9204581, 6.118828773498535, -1.8021446466445923, 9.068191528320312, 6.807560920715332, 253.4163360595703, 131.81800842285156, -0.458740234375, -0.714599609375, -0.41796875, 0, 
478, 2080427447, 0.35918698, -0.14240062, 0.06601095, -0.9199725, 5.2117390632629395, -1.9177645444869995, 9.14938735961914, 14.002840042114258, 255.4393768310547, 129.0541534423828, -0.417236328125, -0.69482421875, -0.45166015625, 0, 
479, 2080444114, 0.3735848, -0.10563192, 0.079546526, -0.91812235, 4.01752233505249, -1.7703533172607422, 9.185225486755371, 19.303314208984375, 256.7868957519531, 125.93665313720703, -0.36767578125, -0.682861328125, -0.478515625, 0, 
480, 2080460781, 0.38693437, -0.06905435, 0.0926348, -0.91484, 2.9150540828704834, -1.6059011220932007, 9.231611251831055, 20.084354400634766, 254.00025939941406, 122.57283782958984, -0.3173828125, -0.672607421875, -0.500244140625, 0, 
481, 2080477448, 0.39918578, -0.033191524, 0.105568714, -0.91016734, 2.2258574962615967, -1.6311100721359253, 9.081583976745605, 17.73634147644043, 249.1624298095703, 118.83797454833984, -0.266845703125, -0.66259765625, -0.523193359375, 0, 
482, 2080494115, 0.4104562, 0.0025335834, 0.11778014, -0.9042386, 1.4186058044433594, -1.826448678970337, 8.8776216506958, 20.737716674804688, 246.77517700195312, 115.88243865966797, -0.217041015625, -0.656005859375, -0.535400390625, 0, 
483, 2080510782, 0.42049983, 0.037886083, 0.12889668, -0.8972904, 0.6386802196502686, -1.8068768978118896, 8.744853973388672, 25.68849754333496, 242.40858459472656, 110.84923553466797, -0.166259765625, -0.652587890625, -0.54931640625, 0, 
484, 2080527449, 0.4295751, 0.072621696, 0.13927612, -0.8892657, -0.05189652740955353, -1.5664610862731934, 8.349721908569336, 27.752363204956055, 237.63682556152344, 107.63227844238281, -0.115966796875, -0.655029296875, -0.555419921875, 0, 
485, 2080544116, 0.43776053, 0.10620361, 0.1495215, -0.8801875, -0.5623312592506409, -1.400473952293396, 8.228792190551758, 24.599313735961914, 231.58889770507812, 104.26338195800781, -0.06591796875, -0.654052734375, -0.559326171875, 0, 
486, 2080560783, 0.44534388, 0.13894069, 0.15980822, -0.8699574, -0.7720308303833008, -1.237130880355835, 7.8150529861450195, 21.06191062927246, 228.08702087402344, 103.18790435791016, -0.019287109375, -0.652587890625, -0.559814453125, 0, 
487, 2080577450, 0.45270056, 0.17098853, 0.16998298, -0.85844696, -1.278078556060791, -1.2922989130020142, 7.502546310424805, 18.43255043029785, 225.12513732910156, 105.10184478759766, 0.024658203125, -0.655517578125, -0.5546875, 0, 
488, 2080594117, 0.45984143, 0.20234852, 0.18023214, -0.84564614, -1.919216513633728, -1.2078583240509033, 7.160956859588623, 14.603361129760742, 223.0948486328125, 106.95528411865234, 0.07177734375, -0.658447265625, -0.553955078125, 0, 
489, 2080610784, 0.46675506, 0.23261966, 0.19046131, -0.83171654, -2.436131715774536, -0.9810808300971985, 6.962656021118164, 10.200641632080078, 218.57748413085938, 107.88136291503906, 0.114990234375, -0.66015625, -0.547607421875, 0, 
490, 2080627451, 0.4733197, 0.26244333, 0.20027514, -0.81668967, -2.8295772075653076, -0.9730791449546814, 6.32525110244751, 10.267325401306152, 216.92251586914062, 109.48673248291016, 0.154296875, -0.663330078125, -0.536865234375, 0, 
491, 2080644118, 0.47936386, 0.29211068, 0.20973577, -0.80055773, -3.32515287399292, -0.9251276254653931, 5.912036418914795, 11.170013427734375, 217.62814331054688, 110.58515930175781, 0.197021484375, -0.665771484375, -0.53173828125, 0, 
492, 2080660785, 0.48494127, 0.32149363, 0.21814637, -0.7835089, -3.9957938194274902, -0.5819396376609802, 5.638664245605469, 15.640178680419922, 215.1338348388672, 112.74100494384766, 0.232666015625, -0.6728515625, -0.518798828125, 0, 
493, 2080677452, 0.4903372, 0.34945738, 0.22638983, -0.76563495, -4.321000099182129, -0.4985976219177246, 5.326477527618408, 10.980672836303711, 209.0379180908203, 112.7549057006836, 0.266357421875, -0.679931640625, -0.5068359375, 0, 
494, 2080694119, 0.49562642, 0.37635788, 0.23442487, -0.74682957, -4.785186767578125, -0.08752667903900146, 4.795568943023682, 7.309532165527344, 205.15345764160156, 114.18329620361328, 0.301025390625, -0.685302734375, -0.4921875, 0, 
495, 2080710786, 0.50096154, 0.40238726, 0.24135597, -0.7272341, -5.407315731048584, 0.15870004892349243, 4.318412780761719, 8.626670837402344, 198.89505004882812, 118.5658950805664, 0.33349609375, -0.693603515625, -0.4775390625, 0, 
496, 2080727453, 0.50591457, 0.42709142, 0.24736565, -0.70742756, -5.884866237640381, 0.2339479625225067, 3.8898563385009766, 9.385296821594238, 190.31224060058594, 117.7325210571289, 0.36279296875, -0.7021484375, -0.462890625, 0, 
497, 2080744120, 0.5105451, 0.45007885, 0.2528094, -0.6876485, -6.194273948669434, 0.42538198828697205, 3.4026081562042236, 7.16865348815918, 180.456298828125, 114.8110122680664, 0.387451171875, -0.71142578125, -0.446044921875, 0, 
498, 2080760787, 0.51472, 0.471842, 0.2571954, -0.66804135, -6.629608154296875, 0.6385168433189392, 3.005976438522339, 9.589439392089844, 171.20751953125, 113.20136260986328, 0.410400390625, -0.723876953125, -0.4326171875, 0, 
499, 2080777454, 0.51844764, 0.4922393, 0.26065046, -0.64882505, -6.930262565612793, 0.8250137567520142, 2.58514404296875, 11.181668281555176, 161.15179443359375, 110.37226867675781, 0.431640625, -0.733642578125, -0.41845703125, 0, 
500, 2080794121, 0.52162206, 0.5115591, 0.2629524, -0.6301381, -7.361921310424805, 1.3302569389343262, 2.3581390380859375, 15.312727928161621, 151.42282104492188, 107.9931869506836, 0.44970703125, -0.74658203125, -0.402587890625, 0, 
501, 2080810788, 0.52445835, 0.5292825, 0.2645557, -0.6122206, -7.629822254180908, 1.7440930604934692, 2.0262904167175293, 15.198646545410156, 139.8914031982422, 103.34104919433594, 0.4638671875, -0.756591796875, -0.38623046875, 0, 
502, 2080827455, 0.526782, 0.5455967, 0.26558074, -0.5952244, -7.88545036315918, 1.9263181686401367, 1.638961911201477, 16.09442138671875, 129.4412841796875, 97.40119171142578, 0.4794921875, -0.771240234375, -0.3740234375, 0, 
503, 2080844122, 0.5288832, 0.5601183, 0.26626217, -0.5793569, -8.233011245727539, 2.3655803203582764, 1.304038405418396, 13.904884338378906, 117.0169448852539, 90.41959381103516, 0.48974609375, -0.78466796875, -0.362060546875, 0, 
504, 2080860789, 0.53094506, 0.57321525, 0.2664452, -0.5643835, -8.518845558166504, 3.183194398880005, 0.9508464336395264, 12.497998237609863, 106.14264678955078, 86.3221664428711, 0.501220703125, -0.793701171875, -0.350341796875, 0, 
