sep=,
DeviceTag:,Xsens_3,,,,,,,,,,,,,,,,,
FirmwareVersion:,2.4.0,,,,,,,,,,,,,,,,,
AppVersion:,2022.0.1,,,,,,,,,,,,,,,,,
SyncStatus:,Synced,,,,,,,,,,,,,,,,,
OutputRate:,60Hz,,,,,,,,,,,,,,,,,
FilterProfile:,General,,,,,,,,,,,,,,,,,
Measurement Mode:,Sensor fusion Mode - Extended (Quaternion),,,,,,,,,,,,,,,,,
StartTime:,2020-11-25 10:46:50.651 +0100,,,,,,,,,,,,,,,,,
© Xsens Technologies B. V. 2005-2020,,,,,,,,,,,,,,,,,,,

PacketCounter,SampleTimeFine,Quat_W,Quat_X,Quat_Y,Quat_Z,FreeAcc_X,FreeAcc_Y,FreeAcc_Z,Status
1, 775131663, 0.9957662, 0.0044766874, 0.0044936608, 0.091703705, 0.10436252, -0.250457, 0.016465187, 0
2, 775148330, 0.9957641, 0.0044767032, 0.004489991, 0.091726355, 0.08403211, -0.24036466, 0.020154953, 0
3, 775164997, 0.99576235, 0.0044867527, 0.0044887215, 0.09174524, 0.104919806, -0.24837442, 0.016357422, 0
4, 775181664, 0.99576026, 0.004484788, 0.0044879317, 0.09176829, 0.10433199, -0.2576418, 0.027765274, 0
5, 775198331, 0.99575603, 0.004494568, 0.004484828, 0.09181312, 0.11441776, -0.2382911, 0.022965431, 0
6, 775214998, 0.99575496, 0.00451215, 0.0044785906, 0.09182402, 0.08898474, -0.24301966, 0.022332191, 0
7, 775231665, 0.9957544, 0.00451412, 0.0044769812, 0.091829754, 0.08690135, -0.23886709, 0.0115327835, 0
8, 775248332, 0.99574953, 0.0045277695, 0.0044852383, 0.09188167, 0.100074336, -0.2484575, -0.004807472, 0
9, 775264999, 0.995748, 0.0045358604, 0.004479611, 0.09189951, 0.11410815, -0.24955621, 0.02885151, 0
10, 775281666, 0.995746, 0.0045494204, 0.0044723577, 0.09191908, 0.10351099, -0.2352617, 0.029554367, 0
11, 775298333, 0.9957451, 0.0045516, 0.004466232, 0.09192936, 0.108435646, -0.2527186, 0.007499695, 0
12, 775315000, 0.9957428, 0.004558254, 0.0044671325, 0.09195473, 0.08935344, -0.24397981, 0.03477955, 0
13, 775331667, 0.99574095, 0.004561139, 0.004467208, 0.09197545, 0.10819505, -0.2437485, 0.029611588, 0
14, 775348334, 0.9957373, 0.004571117, 0.0044624223, 0.092013076, 0.088555776, -0.25708336, 0.042469025, 0
15, 775365001, 0.9957395, 0.0045730392, 0.0044645923, 0.09199038, 0.09328074, -0.23872387, 0.032774925, 0
16, 775381668, 0.9957378, 0.004586055, 0.0044552013, 0.09200806, 0.08878522, -0.2506236, 0.0197258, 0
17, 775398335, 0.99573696, 0.00459264, 0.004445643, 0.092017815, 0.095312335, -0.24190843, 0.0039949417, 0
20, 775448336, 0.99572945, 0.004610305, 0.0044507207, 0.092097476, 0.10441387, -0.25596705, 0.032057762, 0
23, 775498337, 0.99572325, 0.004641339, 0.004431033, 0.092163056, 0.095982485, -0.25907132, 0.012191772, 0
26, 775548338, 0.9957184, 0.0046535875, 0.004443251, 0.092215426, 0.092519306, -0.24974237, 0.038528442, 0
28, 775581672, 0.9957144, 0.004664808, 0.0044233054, 0.09225826, 0.09999009, -0.25258163, 0.05338478, 0
31, 775631673, 0.99570966, 0.004675606, 0.004423965, 0.09230986, 0.0946072, -0.2549628, 0.019312859, 0
34, 775681674, 0.99570566, 0.0046981326, 0.0044073905, 0.09235299, 0.097204246, -0.24865085, 0.009047508, 0
36, 775715008, 0.99569815, 0.0047113076, 0.0044175186, 0.09243151, 0.101925865, -0.24290083, 0.013300896, 0
39, 775765009, 0.99569255, 0.004723277, 0.004410647, 0.0924918, 0.10240101, -0.25203708, 0.036715508, 0
42, 775815010, 0.9956816, 0.0047358987, 0.004417473, 0.09260851, 0.09956703, -0.24923179, 0.03520298, 0
45, 775865011, 0.9956744, 0.004763594, 0.00440865, 0.092685275, 0.0876944, -0.24871057, 0.009282112, 0
49, 775931679, 0.99566066, 0.00477783, 0.0044082487, 0.09283207, 0.095703036, -0.24770634, 0.028170586, 0
51, 775965013, 0.99565786, 0.004783649, 0.0044103996, 0.09286144, 0.1001528, -0.24565041, 0.014504433, 0
54, 776015014, 0.99565053, 0.0047970987, 0.0043913047, 0.09293996, 0.104799375, -0.2638131, 0.031641006, 0
57, 776065015, 0.99564475, 0.0048177047, 0.004372007, 0.09300062, 0.10767256, -0.26394498, 0.023209572, 0
59, 776098349, 0.99564135, 0.004832378, 0.004364853, 0.09303674, 0.11290873, -0.25406307, 0.031106949, 0
62, 776148350, 0.9956363, 0.0048352955, 0.0043573654, 0.09309192, 0.1144458, -0.26250988, 0.018943787, 0
65, 776198351, 0.99562746, 0.0048653665, 0.0043502864, 0.09318601, 0.09389654, -0.25849158, 0.026898384, 0
68, 776248352, 0.99562436, 0.004880751, 0.0043520345, 0.09321703, 0.08910915, -0.25968745, 0.018847466, 0
70, 776281686, 0.9956203, 0.004903138, 0.0043481025, 0.09325913, 0.09820511, -0.2606316, 0.01627922, 0
73, 776331687, 0.99561393, 0.004918093, 0.0043354915, 0.09332877, 0.08985642, -0.25947842, 0.0372715, 0
76, 776381688, 0.99560696, 0.004934232, 0.004321767, 0.09340257, 0.09397964, -0.2602192, -8.9645386E-4, 0
78, 776415022, 0.99560064, 0.004951273, 0.0043338, 0.09346755, 0.10346664, -0.2556869, 0.018033028, 0
81, 776465023, 0.9955974, 0.004959629, 0.0043449737, 0.093501136, 0.1118335, -0.24871321, 0.033888817, 0
84, 776515024, 0.9955888, 0.0049827322, 0.0043349788, 0.09359238, 0.10909885, -0.26403514, 0.013525963, 0
86, 776548358, 0.99558216, 0.005012599, 0.0043329443, 0.09366164, 0.095367454, -0.2562035, 0.016160965, 0
89, 776598359, 0.9955752, 0.0050189146, 0.004328266, 0.09373467, 0.10061905, -0.27064168, 0.018774033, 0
92, 776648360, 0.99557084, 0.005049853, 0.0043038214, 0.09378045, 0.09590031, -0.26651892, -0.0038375854, 0
95, 776698361, 0.995563, 0.005057403, 0.004292952, 0.0938653, 0.10217082, -0.2574491, 0.036478043, 0
97, 776731695, 0.99556303, 0.005073879, 0.004285028, 0.09386332, 0.10756737, -0.2564311, 0.02292347, 0
101, 776798363, 0.9955524, 0.0050823856, 0.0042856582, 0.09397426, 0.089829154, -0.2693252, 0.020752907, 0
104, 776848364, 0.99554837, 0.005101737, 0.0042877025, 0.09401675, 0.09910141, -0.25050163, 0.03328991, 0
107, 776898365, 0.9955433, 0.005113438, 0.0042718444, 0.09407032, 0.09797848, -0.2613671, 0.0029268265, 0
109, 776931699, 0.9955394, 0.0051200064, 0.0042656325, 0.09411152, 0.106526725, -0.2538327, 0.040114403, 0
112, 776981700, 0.9955378, 0.0051439526, 0.004259412, 0.09412837, 0.10144484, -0.26324472, 0.00439167, 0
115, 777031701, 0.9955288, 0.0051463605, 0.004247204, 0.09422336, 0.09841288, -0.27072027, 0.038991928, 0
117, 777065035, 0.9955289, 0.0051508103, 0.0042423997, 0.09422237, 0.10148238, -0.2643954, 0.02372551, 0
120, 777115036, 0.9955219, 0.0051788706, 0.004245392, 0.094294496, 0.10329889, -0.2664701, 0.0053167343, 0
123, 777165037, 0.9955131, 0.005188394, 0.004243079, 0.09438689, 0.09625717, -0.25800437, 0.018470764, 0
126, 777215038, 0.9955058, 0.00520797, 0.004243693, 0.094462655, 0.091631696, -0.2595575, 0.03660965, 0
130, 777281706, 0.99549735, 0.005244926, 0.0042425296, 0.09454949, 0.1147981, -0.25145906, 0.030457497, 0
132, 777315040, 0.99549395, 0.005242229, 0.0042474056, 0.094585106, 0.09237958, -0.25252774, 0.015529633, 0
135, 777365041, 0.9954886, 0.0052530454, 0.004246244, 0.0946415, 0.09770725, -0.25750795, 0.02403164, 0
138, 777415042, 0.99548197, 0.0052631935, 0.004243337, 0.09471012, 0.10206937, -0.26687086, 0.010412216, 0
140, 777448376, 0.99547905, 0.005264679, 0.004250736, 0.09474104, 0.09084786, -0.25965694, 0.0114917755, 0
143, 777498377, 0.99547166, 0.005290826, 0.00422808, 0.09481818, 0.10341252, -0.2665776, 0.030076027, 0
146, 777548378, 0.9954581, 0.00530286, 0.0042404896, 0.094958626, 0.10031106, -0.2619047, 0.027314186, 0
149, 777598379, 0.99544704, 0.0053262217, 0.0042465227, 0.095073104, 0.09966142, -0.26788235, 0.011958122, 0
151, 777631713, 0.9954429, 0.00533109, 0.00423286, 0.09511694, 0.09800857, -0.26604736, 0.034337997, 0
154, 777681714, 0.9954324, 0.005351839, 0.004224177, 0.095226176, 0.109923616, -0.25005567, 0.016656876, 0
158, 777748382, 0.9954268, 0.0053516612, 0.0042133103, 0.09528468, 0.09152531, -0.26031217, 0.019534111, 0
161, 777798383, 0.9954231, 0.0053605717, 0.0042153774, 0.095322214, 0.09111006, -0.26204914, 0.036911964, 0
163, 777831717, 0.99542004, 0.0053637177, 0.0042130975, 0.095355466, 0.09192933, -0.28638497, 0.0212574, 0
166, 777881718, 0.99540734, 0.0053764232, 0.004210912, 0.09548672, 0.10094484, -0.2680841, 0.02204132, 0
169, 777931719, 0.99539983, 0.005381559, 0.004199108, 0.09556555, 0.11078631, -0.26896912, 0.02392292, 0
171, 777965053, 0.9953962, 0.005377938, 0.004186971, 0.09560307, 0.095586054, -0.26859728, 0.019237518, 0
174, 778015054, 0.9953904, 0.0053955964, 0.004195763, 0.09566285, 0.103452235, -0.25071418, 0.0194664, 0
177, 778065055, 0.995383, 0.0054034223, 0.004179035, 0.09574032, 0.10349825, -0.27271092, 0.022403717, 0
180, 778115056, 0.9953757, 0.0054272264, 0.004183465, 0.09581463, 0.109541744, -0.26545373, 0.0253582, 0
182, 778148390, 0.99537414, 0.0054344684, 0.004197095, 0.095829666, 0.10743709, -0.26505253, 0.01681614, 0
185, 778198391, 0.99536854, 0.00545171, 0.0041853054, 0.095886655, 0.09353068, -0.25904676, 0.019871712, 0
188, 778248392, 0.99536157, 0.0054754703, 0.004178366, 0.09595877, 0.10722837, -0.24997854, 0.007569313, 0
190, 778281726, 0.99535733, 0.005503273, 0.004177434, 0.09600009, 0.09011953, -0.26864174, 0.015036583, 0
193, 778331727, 0.995347, 0.0055179563, 0.0041795177, 0.09610682, 0.10689572, -0.26455003, 0.03565216, 0
196, 778381728, 0.9953413, 0.005511391, 0.004194695, 0.09616588, 0.091677025, -0.26701385, 0.028827667, 0
198, 778415062, 0.9953343, 0.0055278745, 0.004192906, 0.096237674, 0.09839067, -0.25671086, 0.013314247, 0
201, 778465063, 0.99532753, 0.005546651, 0.00419336, 0.09630597, 0.09737773, -0.2679159, 0.009073257, 0
205, 778531731, 0.9953165, 0.0055801566, 0.004195592, 0.096417546, 0.090779394, -0.2644721, 0.02171421, 0
208, 778581732, 0.995317, 0.0055864905, 0.0041828076, 0.09641365, 0.09266966, -0.26752946, 0.026189804, 0
211, 778631733, 0.99531174, 0.0055929692, 0.0041762656, 0.096466765, 0.09878964, -0.28398037, -0.007361412, 0
213, 778665067, 0.99530786, 0.005597575, 0.0041656457, 0.096507564, 0.09585067, -0.2744264, 0.028094292, 0
216, 778715068, 0.9952989, 0.0056174654, 0.0041541294, 0.096599616, 0.08690224, -0.2819952, 0.025950432, 0
219, 778765069, 0.9952902, 0.005623382, 0.0041595027, 0.09668738, 0.1083683, -0.2808853, 0.02955246, 0
223, 778831737, 0.99528307, 0.0056341477, 0.0041527143, 0.09676161, 0.09506217, -0.28329697, 0.01598072, 0
225, 778865071, 0.9952781, 0.005636767, 0.004141815, 0.09681188, 0.09625634, -0.27448598, 0.0339365, 0
228, 778915072, 0.9952718, 0.0056665195, 0.004120881, 0.096877106, 0.101949416, -0.26953024, 0.02713871, 0
231, 778965073, 0.9952609, 0.005684137, 0.004111271, 0.096988626, 0.10084609, -0.2851972, 0.0074796677, 0
234, 779015074, 0.995254, 0.0056888387, 0.00409469, 0.09705853, 0.089613676, -0.2678758, -0.0034475327, 0
236, 779048408, 0.995249, 0.0057094395, 0.0041043335, 0.09710935, 0.091754414, -0.2605374, 0.026296616, 0
240, 779115076, 0.99523824, 0.0057352944, 0.004100061, 0.0972179, 0.09493538, -0.2581726, 0.02763176, 0
243, 779165077, 0.9952296, 0.005758941, 0.004088938, 0.097304314, 0.086020835, -0.2772716, 0.027802467, 0
246, 779215078, 0.99522436, 0.005754296, 0.0041033616, 0.097358026, 0.08732157, -0.27724758, 0.025958061, 0
248, 779248412, 0.99522316, 0.005760714, 0.0041011837, 0.09737088, 0.102217816, -0.27065238, 0.02560997, 0
251, 779298413, 0.995214, 0.005766613, 0.0041041, 0.09746352, 0.10969875, -0.26937208, 0.019958496, 0
254, 779348414, 0.9952099, 0.0057790275, 0.004114126, 0.097504094, 0.10863131, -0.28139633, 0.03668785, 0
257, 779398415, 0.9952018, 0.0057810885, 0.004111033, 0.09758663, 0.0888272, -0.27515393, 0.037511826, 0
259, 779431749, 0.9951919, 0.005801415, 0.004103572, 0.09768724, 0.09943319, -0.26603863, 0.02780819, 0
262, 779481750, 0.99518603, 0.005806878, 0.0041190637, 0.09774525, 0.097914696, -0.26425958, 0.01856041, 0
265, 779531751, 0.99518144, 0.005828362, 0.004112948, 0.09779048, 0.09683045, -0.28855348, 0.033999443, 0
269, 779598419, 0.9951759, 0.005814753, 0.0041128625, 0.09784881, 0.10466363, -0.26015934, 0.028755188, 0
271, 779631753, 0.99517035, 0.0058201323, 0.004106187, 0.09790516, 0.09821244, -0.26670077, 0.026862144, 0
274, 779681754, 0.9951625, 0.005830378, 0.004088573, 0.09798472, 0.097414166, -0.28073195, 0.019794464, 0
277, 779731755, 0.99515694, 0.00582936, 0.004073206, 0.09804181, 0.0847472, -0.27961114, 0.017699242, 0
279, 779765089, 0.9951509, 0.0058367224, 0.0040737614, 0.09810235, 0.09397757, -0.27830064, 0.008213043, 0
282, 779815090, 0.99514407, 0.00583481, 0.0040786555, 0.09817143, 0.103511505, -0.27887762, 0.007736206, 0
285, 779865091, 0.9951369, 0.005850382, 0.0040767286, 0.09824368, 0.08894838, -0.27532354, 0.02801609, 0
288, 779915092, 0.9951305, 0.0058630267, 0.00406514, 0.098308615, 0.093302004, -0.27808157, 0.022375107, 0
290, 779948426, 0.9951264, 0.005879233, 0.0040607704, 0.09834851, 0.10429448, -0.2754433, 0.031496048, 0
293, 779998427, 0.9951223, 0.005884791, 0.004043638, 0.09839, 0.097704776, -0.27913553, 0.022964478, 0
297, 780065095, 0.99511904, 0.00590353, 0.0040545007, 0.098421685, 0.09245608, -0.2907076, 0.019010544, 0
300, 780115096, 0.99511343, 0.005923684, 0.0040666712, 0.0984767, 0.09744545, -0.28380033, 0.013525009, 0
302, 780148430, 0.9951094, 0.005921776, 0.004058369, 0.09851809, 0.09975732, -0.285802, 0.038711548, 0
305, 780198431, 0.99510616, 0.005939216, 0.0040382403, 0.098551005, 0.09268275, -0.27828196, 0.025185585, 0
308, 780248432, 0.99510336, 0.005953991, 0.0040489114, 0.0985773, 0.09845768, -0.2802583, 0.024983406, 0
311, 780298433, 0.995093, 0.005967919, 0.0040383656, 0.09868137, 0.10871292, -0.27002457, 0.020277977, 0
313, 780331767, 0.99509114, 0.005976226, 0.0040446375, 0.0987, 0.09684618, -0.27789715, 0.03327465, 0
316, 780381768, 0.99508286, 0.0059974506, 0.004039351, 0.098782584, 0.09151317, -0.2771755, 0.028324127, 0
319, 780431769, 0.9950707, 0.0060033384, 0.0040274425, 0.09890487, 0.09697748, -0.2728536, 0.019961357, 0
321, 780465103, 0.99506474, 0.0060143033, 0.004029991, 0.098963365, 0.0964157, -0.27431503, 0.026202202, 0
324, 780515104, 0.99505925, 0.00601863, 0.0040427665, 0.09901849, 0.10943231, -0.27830487, 0.019589424, 0
327, 780565105, 0.9950534, 0.006024429, 0.0040450306, 0.09907611, 0.10757089, -0.28356296, 0.044121742, 0
329, 780598439, 0.99504864, 0.006035963, 0.0040517133, 0.09912286, 0.10333882, -0.27828845, -2.0122528E-4, 0
332, 780648440, 0.99504423, 0.006051011, 0.004050568, 0.099167354, 0.101038836, -0.28745311, 0.025177002, 0
335, 780698441, 0.9950378, 0.0060685435, 0.004050016, 0.099230655, 0.09922919, -0.27066863, 0.029615402, 0
338, 780748442, 0.9950301, 0.006082266, 0.0040560625, 0.09930664, 0.09408303, -0.28042808, 0.012441635, 0
340, 780781776, 0.9950261, 0.0060950182, 0.004059351, 0.09934592, 0.08825737, -0.26777768, 0.03040123, 0
343, 780831777, 0.99501914, 0.006111424, 0.004058238, 0.09941459, 0.09368349, -0.27201408, 0.026638031, 0
346, 780881778, 0.99501616, 0.006126868, 0.0040591364, 0.09944357, 0.10063834, -0.2895795, 0.03469467, 0
348, 780915112, 0.99500954, 0.0061257295, 0.004052211, 0.09950898, 0.09448224, -0.28768557, 0.022592545, 0
351, 780965113, 0.9950031, 0.0061183814, 0.0040493174, 0.099575065, 0.107273296, -0.27562046, 0.023448944, 0
354, 781015114, 0.9949932, 0.006141539, 0.0040443633, 0.099671714, 0.09993998, -0.27223116, 0.031200409, 0
356, 781048448, 0.9949877, 0.006154697, 0.0040390766, 0.09972621, 0.09959389, -0.27990144, 0.029416084, 0
359, 781098449, 0.9949794, 0.006168891, 0.004053042, 0.09980775, 0.086411186, -0.27568662, 0.033589363, 0
362, 781148450, 0.99497277, 0.006188777, 0.0040425486, 0.09987321, 0.099289045, -0.27897394, 0.036335945, 0
365, 781198451, 0.99497014, 0.006196539, 0.004056715, 0.09989776, 0.10749751, -0.28115433, 0.029738426, 0
367, 781231785, 0.99496424, 0.006201033, 0.0040576644, 0.09995652, 0.10027961, -0.2834058, 0.023656845, 0
370, 781281786, 0.9949583, 0.006219686, 0.004042312, 0.10001613, 0.090900995, -0.29411936, 0.035355568, 0
373, 781331787, 0.9949504, 0.0062346878, 0.004031207, 0.10009308, 0.09288681, -0.2944325, 0.023207664, 0
377, 781398455, 0.9949432, 0.006255586, 0.0040280144, 0.10016448, 0.10616016, -0.2886871, 0.027330399, 0
379, 781431789, 0.99493545, 0.0062761893, 0.0040295064, 0.10023982, 0.0911149, -0.29466328, 0.031484604, 0
382, 781481790, 0.9949261, 0.0062938975, 0.0040136827, 0.10033202, 0.09851854, -0.27141783, 0.015805244, 0
385, 781531791, 0.99492013, 0.006325123, 0.003983387, 0.10039051, 0.0955537, -0.28340662, 0.015136719, 0
387, 781565125, 0.99491596, 0.006331781, 0.0039822026, 0.10043125, 0.09079202, -0.2973781, 0.03026104, 0
390, 781615126, 0.9949104, 0.006342078, 0.0039739474, 0.10048553, 0.087800674, -0.280906, 0.032245636, 0
393, 781665127, 0.994899, 0.0063525713, 0.003952127, 0.10059908, 0.09949672, -0.2940777, 0.042056084, 0
396, 781715128, 0.9948954, 0.0063658473, 0.0039475635, 0.10063414, 0.09819843, -0.29198548, 0.02803421, 0
398, 781748462, 0.9948914, 0.0063721584, 0.0039494107, 0.1006734, 0.10377028, -0.28361803, 0.0113630295, 0
401, 781798463, 0.9948837, 0.006370121, 0.0039542587, 0.10074902, 0.09039621, -0.28821585, 0.033446312, 0
405, 781865131, 0.9948739, 0.0064019784, 0.0039359652, 0.10084462, 0.10995041, -0.2902164, 0.04045391, 0
408, 781915132, 0.99486923, 0.0064272084, 0.003933172, 0.10088892, 0.099770166, -0.28054664, 0.04364872, 0
410, 781948466, 0.99486387, 0.0064409096, 0.0039352514, 0.100941025, 0.10732202, -0.27422085, 0.021347046, 0
413, 781998467, 0.99486023, 0.0064560864, 0.0039354917, 0.100975506, 0.105778836, -0.28054398, 0.025720596, 0
416, 782048468, 0.9948577, 0.0064618853, 0.0039503523, 0.10099923, 0.10386823, -0.28551802, 0.025198936, 0
419, 782098469, 0.99484915, 0.006487265, 0.0039359783, 0.10108273, 0.113053925, -0.28786638, 0.0334692, 0
421, 782131803, 0.9948439, 0.0064800736, 0.0039186226, 0.10113578, 0.10065743, -0.28950745, 0.021456718, 0
424, 782181804, 0.9948368, 0.0064984914, 0.003923479, 0.10120443, 0.103152975, -0.30033416, 0.02114296, 0
427, 782231805, 0.99482894, 0.006505251, 0.0039367243, 0.10128014, 0.10607882, -0.29468295, 0.025182724, 0
429, 782265139, 0.9948233, 0.0065087997, 0.003930013, 0.10133525, 0.099403255, -0.29160568, 0.03009224, 0
433, 782331807, 0.99481356, 0.00649925, 0.0039358307, 0.10143125, 0.097401835, -0.27529168, 0.0042972565, 0
436, 782381808, 0.99480456, 0.006508717, 0.003946369, 0.101519, 0.104108565, -0.28478977, 0.020199776, 0
439, 782431809, 0.99479824, 0.006536824, 0.0039421376, 0.10157841, 0.09336272, -0.29659984, 0.028323174, 0
441, 782465143, 0.9947939, 0.0065456135, 0.0039396267, 0.10162054, 0.09104082, -0.28440487, 0.009426117, 0
444, 782515144, 0.9947853, 0.0065599727, 0.0039144936, 0.1017049, 0.10403683, -0.28023693, 0.014050484, 0
447, 782565145, 0.9947762, 0.0065622404, 0.0039023005, 0.10179402, 0.105707474, -0.275061, 0.007539749, 0
450, 782615146, 0.99476707, 0.0065768436, 0.003877613, 0.101884834, 0.08696879, -0.2798754, 0.02191925, 0
452, 782648480, 0.99476475, 0.0065760636, 0.0038755992, 0.101906225, 0.09561102, -0.29162377, 0.009822845, 0
455, 782698481, 0.9947551, 0.006603284, 0.0038726062, 0.10199931, 0.09694144, -0.27931708, 0.01607418, 0
458, 782748482, 0.994748, 0.0066112657, 0.003884232, 0.10206767, 0.09052941, -0.2844719, 0.02955246, 0
460, 782781816, 0.9947439, 0.0066174893, 0.0038826715, 0.10210703, 0.09985733, -0.28737488, 0.01417923, 0
463, 782831817, 0.9947381, 0.006625273, 0.0038872852, 0.10216315, 0.117870435, -0.2974936, 0.026134491, 0
466, 782881818, 0.99473536, 0.0066285613, 0.0038847458, 0.10218901, 0.088259414, -0.29533947, 0.026000977, 0
468, 782915152, 0.9947322, 0.0066439942, 0.0038741988, 0.10221938, 0.10195545, -0.29672837, 0.03794861, 0
471, 782965153, 0.9947255, 0.006653094, 0.0038679643, 0.10228437, 0.09438522, -0.30339536, 0.0286417, 0
474, 783015154, 0.9947212, 0.0066612796, 0.0038631267, 0.1023259, 0.08946134, -0.3024217, 0.011424065, 0
477, 783065155, 0.99471295, 0.0066732913, 0.003849146, 0.10240632, 0.08880843, -0.28604612, 0.02276802, 0
479, 783098489, 0.9947075, 0.006687419, 0.0038621535, 0.10245618, 0.10758096, -0.30257675, 0.019789696, 0
482, 783148490, 0.99470335, 0.0066880314, 0.0038552766, 0.10249844, 0.09325744, -0.30557567, 0.02393341, 0
485, 783198491, 0.99469405, 0.006704558, 0.0038298916, 0.1025878, 0.10248692, -0.3054416, 0.03732586, 0
487, 783231825, 0.9946874, 0.0067140525, 0.0038340222, 0.10265129, 0.08715065, -0.29748538, 0.010748863, 0
490, 783281826, 0.9946817, 0.0067201857, 0.0038363156, 0.10270549, 0.096345454, -0.30027908, 0.04261589, 0
493, 783331827, 0.9946743, 0.0067223012, 0.0038422076, 0.102777846, 0.08951408, -0.2823847, 0.0062561035, 0
495, 783365161, 0.9946673, 0.006721333, 0.0038384122, 0.10284562, 0.10068988, -0.29037014, 0.010246277, 0
498, 783415162, 0.99466276, 0.006727107, 0.0038445827, 0.10288908, 0.09617971, -0.29307517, 0.019002914, 0
501, 783465163, 0.9946554, 0.0067458157, 0.0038494752, 0.10295896, 0.09961494, -0.29277223, 0.023302078, 0
504, 783515164, 0.9946515, 0.006753838, 0.0038539413, 0.10299502, 0.09213888, -0.3017353, 0.014247894, 0
506, 783548498, 0.9946447, 0.006758065, 0.0038541215, 0.10306169, 0.078391485, -0.30134, 0.015325546, 0
509, 783598499, 0.9946385, 0.006764462, 0.0038564869, 0.10312058, 0.09305526, -0.28730983, 0.024785995, 0
513, 783665167, 0.99462473, 0.0067845625, 0.003852355, 0.10325201, 0.081648864, -0.29365322, 0.027119637, 0
516, 783715168, 0.99461526, 0.0067990855, 0.0038462968, 0.103342704, 0.09863059, -0.28995445, 0.032826424, 0
518, 783748502, 0.99461114, 0.006798157, 0.0038359235, 0.10338195, 0.10514948, -0.2971654, 0.0074825287, 0
521, 783798503, 0.99460584, 0.0068260455, 0.0038457315, 0.10343006, 0.09287442, -0.29998204, 0.042687416, 0
524, 783848504, 0.9946007, 0.0068397066, 0.0038410963, 0.10347923, 0.09206056, -0.2901167, 0.031154633, 0
526, 783881838, 0.9945955, 0.0068407347, 0.0038173688, 0.103530005, 0.09002947, -0.2984541, 0.02457714, 0
529, 783931839, 0.9945901, 0.006848147, 0.003796855, 0.10358234, 0.09817129, -0.2919154, 0.02858162, 0
532, 783981840, 0.99458647, 0.006870875, 0.0037984732, 0.103616014, 0.089269675, -0.27541545, 0.0022449493, 0
535, 784031841, 0.99457777, 0.006874318, 0.0037662925, 0.10370086, 0.099216886, -0.29228687, 0.025970459, 0
537, 784065175, 0.9945723, 0.006868683, 0.0037585055, 0.10375351, 0.09523696, -0.29031318, 0.016745567, 0
541, 784131843, 0.994569, 0.0068871034, 0.0037351083, 0.10378527, 0.09920568, -0.28720987, 0.03197384, 0
544, 784181844, 0.9945584, 0.0068874415, 0.0037215047, 0.1038863, 0.10112979, -0.29489672, 0.012647629, 0
547, 784231845, 0.9945519, 0.0068743704, 0.0037215138, 0.103950724, 0.09879907, -0.2937512, 0.016565323, 0
549, 784265179, 0.9945516, 0.006877486, 0.0037109354, 0.10395387, 0.10944258, -0.30043265, 0.04544449, 0
552, 784315180, 0.9945453, 0.00687113, 0.0037249369, 0.10401362, 0.08605896, -0.29037994, 0.011273384, 0
555, 784365181, 0.99453557, 0.0068699056, 0.003727721, 0.10410562, 0.10188011, -0.28983155, 0.032382965, 0
558, 784415182, 0.99452734, 0.0068970076, 0.0037157384, 0.10418315, 0.093558654, -0.29638228, 0.043216705, 0
560, 784448516, 0.99452513, 0.00690664, 0.0036998494, 0.104205094, 0.097902834, -0.30032715, 0.03166485, 0
563, 784498517, 0.99451905, 0.006914521, 0.0036915082, 0.10426219, 0.092866786, -0.29964092, 0.008166313, 0
566, 784548518, 0.99450815, 0.0069215936, 0.0036926095, 0.10436533, 0.102031015, -0.28971246, 0.021341324, 0
570, 784615186, 0.9944971, 0.0069298726, 0.003685394, 0.10447006, 0.09153621, -0.2803349, 0.036818504, 0
572, 784648520, 0.9944934, 0.0069274707, 0.0036833908, 0.10450556, 0.10610072, -0.28934002, 0.03430462, 0
575, 784698521, 0.994485, 0.006941345, 0.0036863454, 0.10458508, 0.09593637, -0.28190315, 0.039423943, 0
578, 784748522, 0.9944778, 0.0069424524, 0.0036742238, 0.10465244, 0.09112181, -0.2963213, 0.0142354965, 0
581, 784798523, 0.9944716, 0.0069424585, 0.003659103, 0.10471295, 0.09963565, -0.28847215, 0.00637722, 0
583, 784831857, 0.9944716, 0.0069424524, 0.0036713965, 0.10471249, 0.08931176, -0.3045486, 0.023439407, 0
586, 784881858, 0.99446476, 0.006957361, 0.0036718254, 0.10477646, 0.09973046, -0.29167783, 0.019353867, 0
589, 784931859, 0.99445647, 0.006960783, 0.0036521065, 0.10485508, 0.09443063, -0.2908429, 0.038104057, 0
591, 784965193, 0.9944539, 0.0069735334, 0.0036704852, 0.10487866, 0.09149875, -0.29647458, 0.018302917, 0
594, 785015194, 0.9944461, 0.006988708, 0.0036838092, 0.104950584, 0.10116602, -0.30406708, 0.016805649, 0
597, 785065195, 0.9944377, 0.006999411, 0.0036871855, 0.10502954, 0.08882276, -0.29398417, 0.022687912, 0
599, 785098529, 0.9944322, 0.0069994535, 0.003681227, 0.10508142, 0.092392586, -0.28517324, 0.016025543, 0
602, 785148530, 0.9944215, 0.0070224646, 0.0037009362, 0.105181, 0.11541349, -0.293134, 0.019806862, 0
605, 785198531, 0.99441934, 0.0070322957, 0.00369174, 0.10520095, 0.09237261, -0.28357816, 0.010131836, 0
608, 785248532, 0.9944162, 0.007033366, 0.0036967339, 0.10523061, 0.09886222, -0.29216167, 0.028593063, 0
610, 785281866, 0.9944088, 0.00705191, 0.003693366, 0.10529907, 0.0994136, -0.29315022, 0.036432266, 0
613, 785331867, 0.9944024, 0.0070502716, 0.0036845284, 0.10535963, 0.09811041, -0.29316828, -3.8528442E-4, 0
616, 785381868, 0.9943941, 0.0070577078, 0.0036734182, 0.10543785, 0.08675464, -0.30537838, 0.008708954, 0
618, 785415202, 0.99438834, 0.007051735, 0.003673918, 0.105492786, 0.0954532, -0.31069493, 0.033254623, 0
621, 785465203, 0.9943814, 0.007050782, 0.0036583478, 0.10555877, 0.10047591, -0.28768566, 0.029371262, 0
624, 785515204, 0.9943745, 0.007052792, 0.003656665, 0.105624445, 0.09173311, -0.28665602, 0.031316757, 0
626, 785548538, 0.994369, 0.007056542, 0.0036635336, 0.10567646, 0.10012768, -0.29015872, 0.00850296, 0
629, 785598539, 0.994359, 0.0070579355, 0.0036583128, 0.10576832, 0.09718166, -0.30162737, 0.002453804, 0
632, 785648540, 0.9943508, 0.0070579234, 0.0036549033, 0.10584654, 0.07815798, -0.30389476, 0.015781403, 0
635, 785698541, 0.99434286, 0.007053305, 0.0036586334, 0.10592173, 0.087186694, -0.2907764, 0.021297455, 0
637, 785731875, 0.9943391, 0.007049578, 0.003648995, 0.1059567, 0.084451005, -0.28743023, 0.02350521, 0
640, 785781876, 0.994332, 0.00705428, 0.0036538052, 0.10602338, 0.09504726, -0.2953465, 0.030485153, 0
643, 785831877, 0.9943234, 0.007050094, 0.003648277, 0.106104545, 0.09811621, -0.29269642, 0.0016822815, 0
645, 785865211, 0.99431413, 0.0070625185, 0.0036650125, 0.10618951, 0.09314476, -0.2804786, 0.014662743, 0
649, 785931879, 0.994302, 0.007069423, 0.0036862479, 0.10630269, 0.091737725, -0.29169947, 0.018788338, 0
652, 785981880, 0.99429715, 0.007067135, 0.0036838332, 0.10634842, 0.0938304, -0.30463865, 0.02503395, 0
655, 786031881, 0.99428916, 0.007078743, 0.0036779481, 0.10642157, 0.10393057, -0.29295295, 0.024169922, 0
657, 786065215, 0.994278, 0.007094919, 0.003673168, 0.106525674, 0.0859723, -0.30566922, 0.012229919, 0
660, 786115216, 0.99427086, 0.007097262, 0.0036725793, 0.10659108, 0.10279585, -0.30765095, 0.025681496, 0
663, 786165217, 0.9942642, 0.007125402, 0.0036603573, 0.10665208, 0.09942468, -0.29975137, 0.033783913, 0
666, 786215218, 0.99425656, 0.007118107, 0.003658261, 0.10672384, 0.08601239, -0.30379987, 0.015637398, 0
668, 786248552, 0.99425423, 0.0071374136, 0.0036542395, 0.10674465, 0.09161728, -0.30453473, 0.009277344, 0
671, 786298553, 0.99424136, 0.0071525867, 0.0036495454, 0.10686369, 0.09700708, -0.2996123, 0.028057098, 0
674, 786348554, 0.9942277, 0.0071438574, 0.003646822, 0.10699117, 0.08932756, -0.29097587, 0.0046167374, 0
678, 786415222, 0.9942171, 0.0071954606, 0.0036526537, 0.10708592, 0.10177675, -0.30575234, 0.03893566, 0
680, 786448556, 0.9942147, 0.007212962, 0.0036543384, 0.10710776, 0.10749605, -0.2953523, 0.018258095, 0
683, 786498557, 0.9942072, 0.0072222594, 0.0036431924, 0.10717679, 0.09411094, -0.29972756, 0.02422905, 0
686, 786548558, 0.994201, 0.007224384, 0.003626499, 0.107233934, 0.09078683, -0.30395687, 0.017856598, 0
688, 786581892, 0.9941914, 0.007218967, 0.0036320155, 0.10732319, 0.1047191, -0.2879967, 0.02335453, 0
691, 786631893, 0.9941841, 0.007219517, 0.0036325478, 0.10739121, 0.1002937, -0.29574242, 0.027597427, 0
694, 786681894, 0.99417585, 0.0072187735, 0.0036316044, 0.10746732, 0.08575859, -0.29116112, 0.023428917, 0
697, 786731895, 0.99416405, 0.0072185495, 0.003641294, 0.1075759, 0.09610643, -0.3031589, 0.0010986328, 0
699, 786765229, 0.99415827, 0.0072316937, 0.0036502948, 0.107628874, 0.104174644, -0.3029237, 0.031155586, 0
702, 786815230, 0.99415463, 0.0072321747, 0.0036429383, 0.10766234, 0.10138496, -0.28794402, 0.029462814, 0
706, 786881898, 0.9941413, 0.007235956, 0.0036271901, 0.10778502, 0.09877419, -0.30751035, 0.015583038, 0
709, 786931899, 0.9941286, 0.0072359852, 0.003639415, 0.1079029, 0.095970064, -0.29514796, 0.037617683, 0
711, 786965233, 0.99412423, 0.007232603, 0.003647651, 0.107942455, 0.10681307, -0.3065156, 0.016654015, 0
714, 787015234, 0.9941162, 0.007263954, 0.003640799, 0.10801409, 0.07653405, -0.29423857, 0.034008026, 0
717, 787065235, 0.99410164, 0.0072640837, 0.0036454753, 0.108147435, 0.09422365, -0.3015691, 0.028090477, 0
720, 787115236, 0.9940943, 0.0072787497, 0.0036472306, 0.108214244, 0.0934201, -0.295026, 0.017501831, 0
722, 787148570, 0.99409103, 0.007272596, 0.0036516755, 0.10824454, 0.10367946, -0.3057445, 0.040699005, 0
725, 787198571, 0.99408257, 0.007271609, 0.003644946, 0.10832259, 0.098924614, -0.3061229, 0.03812313, 0
728, 787248572, 0.99407655, 0.007268963, 0.003659246, 0.108378366, 0.092814736, -0.31583402, 0.028327942, 0
730, 787281906, 0.99407077, 0.0072855493, 0.0036647876, 0.10842939, 0.09879693, -0.30541566, 0.028286934, 0
733, 787331907, 0.99405974, 0.0073021697, 0.003664094, 0.10853049, 0.100951746, -0.3105923, 0.035248756, 0
736, 787381908, 0.9940537, 0.0073094713, 0.0036616176, 0.10858464, 0.09249912, -0.31717566, 0.0066461563, 0
738, 787415242, 0.9940451, 0.0073209605, 0.0036605075, 0.10866296, 0.099755965, -0.30188262, 0.021169662, 0
741, 787465243, 0.9940368, 0.007325752, 0.0036683958, 0.108738005, 0.092033096, -0.31365663, 0.04351902, 0
744, 787515244, 0.994031, 0.00732889, 0.0036793824, 0.10878988, 0.093895085, -0.3090931, 0.014635086, 0
747, 787565245, 0.9940241, 0.007330647, 0.0036838327, 0.10885343, 0.09747372, -0.29896924, 0.025910378, 0
749, 787598579, 0.99402046, 0.0073442524, 0.0036771463, 0.108885124, 0.10165407, -0.30688414, 0.02035904, 0
752, 787648580, 0.99401665, 0.007347826, 0.003669207, 0.10892077, 0.08348471, -0.30105585, 0.008220673, 0
755, 787698581, 0.9940103, 0.0073471274, 0.0036577987, 0.1089782, 0.09484923, -0.30920833, 0.018766403, 0
757, 787731915, 0.99400496, 0.0073514115, 0.0036635052, 0.10902656, 0.10069126, -0.30820602, 0.03902912, 0
760, 787781916, 0.99399805, 0.007357989, 0.003670169, 0.10908953, 0.10348696, -0.31065065, 0.029542923, 0
763, 787831917, 0.9939889, 0.0073841643, 0.0036681225, 0.109170325, 0.10738651, -0.31152186, 0.014192581, 0
765, 787865251, 0.9939861, 0.0073938053, 0.0036629138, 0.10919551, 0.09786627, -0.3005116, 0.008634567, 0
768, 787915252, 0.9939814, 0.007403045, 0.0036760285, 0.10923719, 0.10040665, -0.28143126, 0.023674965, 0
771, 787965253, 0.9939765, 0.0073975753, 0.0036660547, 0.10928258, 0.10606321, -0.29144272, 0.004252434, 0
774, 788015254, 0.9939705, 0.007403035, 0.0036658554, 0.10933728, 0.09610317, -0.30484122, 0.015013695, 0
776, 788048588, 0.99396545, 0.0074156183, 0.0036754697, 0.10938141, 0.08159607, -0.30828142, 0.030195236, 0
779, 788098589, 0.9939621, 0.0074169836, 0.003672835, 0.109412014, 0.11244519, -0.30414513, 0.018044472, 0
782, 788148590, 0.99395514, 0.0074155238, 0.003674407, 0.10947515, 0.09656551, -0.29885447, 0.0027484894, 0
786, 788215258, 0.993946, 0.0074114166, 0.003697705, 0.10955717, 0.10670198, -0.30112636, 0.020612717, 0
788, 788248592, 0.993939, 0.0074049016, 0.0037146008, 0.10962087, 0.08997374, -0.3021819, 0.02631855, 0
791, 788298593, 0.99393207, 0.007390629, 0.0037085402, 0.1096848, 0.08732217, -0.29644483, 5.8174133E-4, 0
794, 788348594, 0.99392444, 0.007396258, 0.0037143042, 0.109754436, 0.11294017, -0.30943877, 0.03549385, 0
797, 788398595, 0.9939182, 0.00738667, 0.0037183529, 0.10981097, 0.097058125, -0.3060014, 0.005282402, 0
799, 788431929, 0.9939136, 0.0073916744, 0.0037061071, 0.1098529, 0.09184783, -0.31926656, 0.031929016, 0
802, 788481930, 0.99390316, 0.0073977327, 0.003694641, 0.10994651, 0.09278118, -0.31450775, 0.037244797, 0
805, 788531931, 0.9938944, 0.0073975143, 0.003688148, 0.11002628, 0.099015094, -0.2966898, 0.01964569, 0
807, 788565265, 0.9938879, 0.007399527, 0.003697007, 0.11008416, 0.094661385, -0.3051836, 0.020376205, 0
810, 788615266, 0.9938767, 0.0073997015, 0.003702153, 0.11018472, 0.10853955, -0.30023038, 0.024406433, 0
814, 788681934, 0.99387, 0.0074097808, 0.0036924083, 0.11024422, 0.104775235, -0.30711043, 0.02575016, 0
817, 788731935, 0.9938633, 0.007406402, 0.003681423, 0.11030673, 0.0957242, -0.29685387, 3.8051605E-4, 0
819, 788765269, 0.99385846, 0.0074154995, 0.0036776362, 0.110348746, 0.0921462, -0.30700827, 0.021614075, 0
822, 788815270, 0.9938456, 0.007437258, 0.0036856653, 0.110463746, 0.09805946, -0.29932863, 0.01851654, 0
825, 788865271, 0.9938358, 0.0074199415, 0.0036771258, 0.11055282, 0.10759873, -0.3082869, 0.028114319, 0
828, 788915272, 0.99383193, 0.0074241627, 0.0036745071, 0.1105877, 0.092980735, -0.3134722, 0.03153038, 0
830, 788948606, 0.99382204, 0.007431082, 0.0036596349, 0.11067617, 0.10408117, -0.30404842, 0.03299427, 0
833, 788998607, 0.99380785, 0.007421942, 0.0036633909, 0.11080469, 0.09181159, -0.31378633, 0.03227806, 0
836, 789048608, 0.99380803, 0.007439703, 0.0036753248, 0.11080126, 0.08901401, -0.2884189, 0.021404266, 0
838, 789081942, 0.9938013, 0.007453165, 0.003665411, 0.11086056, 0.103841305, -0.3053999, 0.013370514, 0
842, 789148610, 0.993794, 0.007452942, 0.0036501067, 0.11092699, 0.09814698, -0.31165513, 0.03579235, 0
845, 789198611, 0.99378455, 0.0074518668, 0.0036341483, 0.11101181, 0.09808272, -0.29285136, 0.02267456, 0
848, 789248612, 0.99378043, 0.0074628736, 0.0036401765, 0.11104732, 0.09329207, -0.29879284, 0.021053314, 0
850, 789281946, 0.99377376, 0.0074728355, 0.003643193, 0.11110627, 0.09942708, -0.31147638, 0.048318863, 0
853, 789331947, 0.9937636, 0.0074747466, 0.0036427763, 0.111197755, 0.09772318, -0.29135948, 0.015030861, 0
856, 789381948, 0.99375576, 0.0074892156, 0.0036357464, 0.11126683, 0.09585532, -0.3022852, 0.024067879, 0
859, 789431949, 0.99374926, 0.007489453, 0.0036303329, 0.11132511, 0.09699905, -0.31218934, 0.016025543, 0
861, 789465283, 0.99374515, 0.0074971477, 0.0036091765, 0.111362174, 0.095572025, -0.29022834, 0.019673347, 0
865, 789531951, 0.9937342, 0.007495964, 0.0036037965, 0.11145977, 0.08076075, -0.31021142, 0.025048256, 0
868, 789581952, 0.99372834, 0.0074899294, 0.0035960916, 0.11151353, 0.105245195, -0.2996076, 0.01473999, 0
871, 789631953, 0.9937222, 0.0074954894, 0.0035886026, 0.11156723, 0.104934916, -0.3058629, 0.02186203, 0
873, 789665287, 0.9937183, 0.007496008, 0.0035821763, 0.111601576, 0.08779492, -0.29495564, 0.04046917, 0
876, 789715288, 0.99370885, 0.007498346, 0.0035725664, 0.11168579, 0.10751179, -0.30363095, 0.040460587, 0
879, 789765289, 0.99370164, 0.007509225, 0.0035566364, 0.1117506, 0.09303349, -0.30092365, 0.027418137, 0
882, 789815290, 0.9936936, 0.007505913, 0.0035608641, 0.11182228, 0.09764964, -0.29888335, 0.04677868, 0
884, 789848624, 0.9936897, 0.0075026886, 0.0035724859, 0.111856066, 0.10612119, -0.3049807, 0.032204628, 0
887, 789898625, 0.99368304, 0.0074977917, 0.0035741064, 0.11191641, 0.09557749, -0.31023592, 0.017855644, 0
890, 789948626, 0.9936698, 0.0074839653, 0.003609468, 0.11203331, 0.08718625, -0.3130413, 0.06945419, 0
892, 789981960, 0.99366665, 0.007491355, 0.0035867922, 0.112060755, 0.08233712, -0.3067741, 0.0342865, 0
895, 790031961, 0.993656, 0.007497713, 0.0035579558, 0.11215686, 0.10267322, -0.31743538, 0.028388023, 0
898, 790081962, 0.9936507, 0.0074984855, 0.00356589, 0.11220301, 0.11130558, -0.30582651, 0.027798653, 0
900, 790115296, 0.9936471, 0.0075086593, 0.0035576287, 0.11223334, 0.083523594, -0.30634436, 0.022472382, 0
903, 790165297, 0.99363834, 0.007486783, 0.003579685, 0.112312555, 0.09226676, -0.30246562, 0.012280464, 0
906, 790215298, 0.9936296, 0.0074773924, 0.0035898555, 0.112390354, 0.10489856, -0.3019468, 0.03113556, 0
909, 790265299, 0.99362534, 0.0074693067, 0.0035949096, 0.1124279, 0.08959713, -0.30620372, 0.029356956, 0
911, 790298633, 0.99362075, 0.007460884, 0.0036085846, 0.112468146, 0.09909706, -0.30397666, 0.020921707, 0
914, 790348634, 0.9936159, 0.0074598445, 0.0036172979, 0.11251181, 0.09924136, -0.29910773, 0.014574051, 0
917, 790398635, 0.9936135, 0.0074505103, 0.0035919175, 0.11253498, 0.10875994, -0.29737136, 0.038121223, 0
919, 790431969, 0.993609, 0.0074510146, 0.0035858443, 0.1125742, 0.099032134, -0.29526192, 0.025361061, 0
923, 790498637, 0.9935968, 0.0074398317, 0.0035932404, 0.11268165, 0.098454945, -0.30882627, 0.021360397, 0
926, 790548638, 0.9935892, 0.007463522, 0.003613315, 0.11274713, 0.10387184, -0.3082747, 0.04257965, 0
929, 790598639, 0.99358046, 0.007459401, 0.003618788, 0.11282407, 0.085203834, -0.3113029, 0.054632187, 0
932, 790648640, 0.9935744, 0.0074651423, 0.003592027, 0.11287826, 0.10443908, -0.31353697, 0.028580666, 0
934, 790681974, 0.99356675, 0.0074617616, 0.003592693, 0.112944834, 0.10132549, -0.29931816, 0.014904976, 0
937, 790731975, 0.9935675, 0.00741768, 0.0036276176, 0.11293921, 0.21758246, -0.2536616, -0.026340485, 0
940, 790781976, 0.9935652, 0.007444179, 0.0036248437, 0.11295949, 0.061231334, -0.312244, 0.069924355, 0
942, 790815310, 0.9935641, 0.0074595097, 0.0035944516, 0.11296841, 0.10540235, -0.30308607, 0.028339386, 0
945, 790865311, 0.9939784, 0.0075513143, 0.0036925569, 0.10925458, 0.117094204, -0.12884873, 0.08823013, 0
948, 790915312, 0.99472326, 0.007678394, 0.003928296, 0.10223235, 0.3597683, -0.3854511, 0.04837036, 0
952, 790981980, 0.9951103, 0.0077710776, 0.003972685, 0.09838466, -0.027271602, -0.2619774, 0.029287338, 0
954, 791015314, 0.99573916, 0.007873009, 0.0042053517, 0.09178326, 0.2779654, -0.23855379, 0.004430771, 0
957, 791065315, 0.9967266, 0.008066056, 0.004557884, 0.08031426, 0.2535866, -0.42179585, 0.048678398, 0
960, 791115316, 0.997458, 0.008262495, 0.004716465, 0.070621155, -0.03853131, -0.36379513, 0.09152794, 0
963, 791165317, 0.9984587, 0.008528612, 0.00531291, 0.054586627, 0.047748685, -0.29644117, 0.0586195, 0
965, 791198651, 0.999074, 0.008767724, 0.0057567274, 0.041727882, 0.06829033, -0.38836527, 0.04977417, 0
968, 791248652, 0.9997714, 0.009211333, 0.0062863533, 0.018241977, 0.5315929, -0.38842395, -0.078639984, 0
971, 791298653, 0.99981, 0.009797093, 0.0070469766, -0.015315124, 0.4813851, -0.46465605, 0.083958626, 0
973, 791331987, 0.9991129, 0.010212561, 0.0075093447, -0.040161233, 0.51681954, -0.5252199, -0.1265049, 0
976, 791381988, 0.99650556, 0.010917865, 0.008468679, -0.08237825, 0.28946325, -0.76198226, -0.12966537, 0
980, 791448656, 0.98856217, 0.011933163, 0.009630951, -0.15003313, 0.05700997, -0.72879094, -0.3342123, 0
983, 791498657, 0.97915816, 0.012641398, 0.010679982, -0.20242396, 0.050681893, -0.45740902, -0.4255314, 0
986, 791548658, 0.96670747, 0.013360483, 0.011894384, -0.25525844, 0.5225967, -1.237458, 0.026259422, 0
988, 791581992, 0.9563345, 0.013653531, 0.0130714625, -0.29166284, -0.12285243, -0.63560945, -1.0750942, 0
991, 791631993, 0.93927157, 0.014213193, 0.014256818, -0.34258384, -1.2091187, -0.14206003, 0.8732872, 0
994, 791681994, 0.92199284, 0.014738188, 0.015354493, -0.3866222, -0.9306102, -0.34950468, -0.64954185, 0
996, 791715328, 0.911839, 0.015045213, 0.015944317, -0.40996242, -0.16459863, -0.40657553, -0.4329424, 0
999, 791765329, 0.896443, 0.015524988, 0.016812531, -0.44256836, -0.44360787, 0.0020999182, 0.01884842, 0
1002, 791815330, 0.87879556, 0.016272485, 0.01824043, -0.4765722, -0.8642514, 0.6484816, 0.14958382, 0
1004, 791848664, 0.8685345, 0.016707491, 0.018961497, -0.4949842, 0.3454529, 0.4210415, 0.033456802, 0
1007, 791898665, 0.85476714, 0.017094856, 0.019434458, -0.51836604, 0.3606201, -0.23843719, -0.027441978, 0
1010, 791948666, 0.84303916, 0.017677376, 0.020802472, -0.5371591, 0.22430371, -0.53386205, 0.25793934, 0
1012, 791982000, 0.8375908, 0.017663114, 0.02057522, -0.54562485, 0.62953395, -0.621956, 0.3941927, 0
1015, 792032001, 0.82847965, 0.017835882, 0.020824136, -0.5593479, 0.15887758, -0.63573605, -0.24353886, 0
1018, 792082002, 0.81946236, 0.017994912, 0.021107357, -0.5724616, -0.047775503, -0.650015, -0.0956707, 0
1021, 792132003, 0.81054574, 0.01815413, 0.021315925, -0.58500606, -0.059072517, -0.5506882, 0.029661179, 0
1023, 792165337, 0.80429584, 0.01827342, 0.02148272, -0.5935597, -0.49168733, -0.24209622, -0.0464859, 0
1026, 792215338, 0.79807794, 0.018425241, 0.02164347, -0.60188353, 0.15357192, -0.60338175, -0.004647255, 0
1029, 792265339, 0.79390377, 0.01852494, 0.02174044, -0.6073725, 0.053905185, -0.6932212, -0.014130592, 0
1031, 792298673, 0.79215854, 0.0185659, 0.021718608, -0.60964644, 0.10485159, -0.6216882, -0.09037113, 0
1034, 792348674, 0.79043216, 0.018630281, 0.021682713, -0.6118822, -0.03792833, -0.45011765, 0.049396515, 0
1037, 792398675, 0.789358, 0.01867158, 0.021702409, -0.6132655, -0.05661115, -0.49215844, -0.013480186, 0
1039, 792432009, 0.78939396, 0.01868246, 0.021706767, -0.6132186, -0.0132487165, -0.47886404, -0.0046901703, 0
1042, 792482010, 0.7894359, 0.018715795, 0.021672525, -0.6131648, -0.012726213, -0.4741416, 0.016802788, 0
1045, 792532011, 0.78947675, 0.018754726, 0.021686621, -0.61311066, -0.018051997, -0.49353758, 0.028126717, 0
1048, 792582012, 0.7895185, 0.018779155, 0.02171197, -0.6130551, -0.037737817, -0.49643028, -0.06875992, 0
1050, 792615346, 0.7895415, 0.018795682, 0.021690514, -0.6130257, -0.014078522, -0.4679048, 0.042654037, 0
1053, 792665347, 0.78957474, 0.018796893, 0.021614667, -0.6129856, -0.02758196, -0.4850026, 0.05450058, 0
1056, 792715348, 0.7896112, 0.018812006, 0.021550566, -0.61294043, -0.022068439, -0.48541403, 0.017529488, 0
1060, 792782016, 0.789668, 0.018792344, 0.021465579, -0.612871, -0.022059765, -0.48969805, 0.01143074, 0
1062, 792815350, 0.78969896, 0.018783836, 0.021427007, -0.61283255, -0.027019294, -0.476883, 0.019799232, 0
1065, 792865351, 0.78975064, 0.018772168, 0.021348773, -0.61276895, -0.023195308, -0.4758482, 0.006541252, 0
1068, 792915352, 0.78978574, 0.018749394, 0.021273922, -0.61272705, -0.015487464, -0.46729702, 0.02823639, 0
1071, 792965353, 0.7898244, 0.018738303, 0.0212119, -0.61267966, -0.029694268, -0.47677034, 0.012127876, 0
1073, 792998687, 0.78985333, 0.018735614, 0.021158855, -0.61264426, -0.030166622, -0.46566498, 0.025267601, 0
1076, 793048688, 0.7898814, 0.018714715, 0.021093048, -0.6126112, -0.015512902, -0.48181006, 0.0026006699, 0
1079, 793098689, 0.7899295, 0.018705009, 0.021044945, -0.61255103, -0.020537991, -0.4863306, 0.0053977966, 0
1081, 793132023, 0.78994834, 0.018694686, 0.020998584, -0.6125286, -0.032267142, -0.47631308, 0.021241188, 0
1084, 793182024, 0.79000443, 0.01868578, 0.020938804, -0.6124586, -0.028239759, -0.47626615, 0.012036324, 0
1088, 793248692, 0.79006094, 0.018664902, 0.020842062, -0.6123895, -0.022331668, -0.48292467, 0.0155181885, 0
1091, 793298693, 0.7901129, 0.018638024, 0.02076003, -0.61232626, -0.021303816, -0.4758421, 0.014782906, 0
1094, 793348694, 0.7901564, 0.018618314, 0.020682314, -0.61227316, -0.044246584, -0.46854138, 0.014019012, 0
1096, 793382028, 0.7901852, 0.018610373, 0.020629253, -0.6122381, -0.024347812, -0.4671024, 0.029755592, 0
1099, 793432029, 0.7902247, 0.018600559, 0.020544896, -0.61219025, -0.034565147, -0.46194115, -0.0066375732, 0
1102, 793482030, 0.7902707, 0.018578464, 0.02047415, -0.612134, -0.037108667, -0.4677692, 0.03685856, 0
1104, 793515364, 0.79029775, 0.018562362, 0.020441948, -0.61210066, -0.026993632, -0.47413546, 0.015459061, 0
1107, 793565365, 0.7903381, 0.018539065, 0.020353595, -0.6120521, -0.039454926, -0.467361, 0.0096178055, 0
1110, 793615366, 0.790383, 0.018492853, 0.020274265, -0.61199826, -0.022434093, -0.46543416, 0.015013695, 0
1112, 793648700, 0.790413, 0.01847936, 0.020240096, -0.61196095, -0.02737394, -0.45383877, 0.011971474, 0
1116, 793715368, 0.79047567, 0.018429775, 0.020140883, -0.6118847, -0.022659464, -0.46452296, 0.042796135, 0
1119, 793765369, 0.7905172, 0.01841742, 0.0200518, -0.6118342, -0.04417264, -0.47161636, 0.03234768, 0
1122, 793815370, 0.79056364, 0.018371077, 0.019964734, -0.61177856, -0.033552535, -0.456865, 0.02067089, 0
1125, 793865371, 0.79061276, 0.018333724, 0.0198682, -0.6117194, -0.04223319, -0.45482522, 0.0080394745, 0
1127, 793898705, 0.7906476, 0.018320134, 0.019815713, -0.61167663, -0.048100825, -0.4484304, 0.033966064, 0
1130, 793948706, 0.7906911, 0.01830051, 0.019735493, -0.61162347, -0.029012583, -0.4545674, 0.018696785, 0
1133, 793998707, 0.7907382, 0.018259801, 0.019639503, -0.61156684, -0.044085417, -0.45080552, 0.014256477, 0
1135, 794032041, 0.7907737, 0.018248672, 0.019580524, -0.6115231, -0.054935295, -0.46029282, 0.020586967, 0
1138, 794082042, 0.7908137, 0.0182114, 0.019492919, -0.61147547, -0.041180894, -0.4545792, 0.02990055, 0
1141, 794132043, 0.79085875, 0.018186605, 0.019397011, -0.6114208, -0.059733473, -0.4273699, 0.011209488, 0
1143, 794165377, 0.79089236, 0.018159164, 0.0193352, -0.6113802, -0.036914967, -0.43806982, 0.028671265, 0
1146, 794215378, 0.79093194, 0.018130537, 0.019237615, -0.61133295, -0.049986076, -0.44038317, 0.0074481964, 0
1149, 794265379, 0.7909777, 0.018097056, 0.019135289, -0.6112779, -0.051758602, -0.44763666, 0.015630722, 0
1152, 794315380, 0.7910115, 0.018069902, 0.019042239, -0.611238, -0.069539, -0.44750166, 0.020202637, 0
1154, 794348714, 0.79104346, 0.018049771, 0.018993964, -0.61119854, -0.04589038, -0.4470044, 0.0051584244, 0
1157, 794398715, 0.7910909, 0.018028637, 0.018917574, -0.6111403, -0.054354146, -0.43882847, 0.0116147995, 0
1160, 794448716, 0.7911347, 0.018001055, 0.01881575, -0.61108744, -0.06578756, -0.4286676, 0.02116394, 0
1162, 794482050, 0.79116976, 0.017978515, 0.018759241, -0.6110445, -0.040848866, -0.4419348, 0.015891075, 0
1165, 794532051, 0.7912135, 0.017937489, 0.0186593, -0.61099213, -0.046813406, -0.4231359, 0.025016785, 0
1168, 794582052, 0.79126024, 0.017895157, 0.018555185, -0.61093587, -0.047737826, -0.43843853, 0.010808945, 0
1170, 794615386, 0.7912831, 0.017862437, 0.018477622, -0.61090976, -0.06811355, -0.43408087, 0.0056056976, 0
1173, 794665387, 0.7913249, 0.017819103, 0.018398313, -0.6108592, -0.06713582, -0.4416246, 0.038701057, 0
1176, 794715388, 0.7913635, 0.017756728, 0.01828919, -0.6108143, -0.05630005, -0.4264601, 0.007376671, 0
1179, 794765389, 0.79140675, 0.017718188, 0.01817625, -0.6107629, -0.063717045, -0.43108228, 0.008997917, 0
1181, 794798723, 0.7914299, 0.017692933, 0.01811133, -0.6107355, -0.06432918, -0.43026647, 0.013475418, 0
1184, 794848724, 0.7914657, 0.017644193, 0.01799658, -0.6106938, -0.051100343, -0.4238271, 0.03417778, 0
1187, 794898725, 0.7915205, 0.017596826, 0.01790298, -0.610627, -0.0683427, -0.42764378, 0.020036697, 0
1189, 794932059, 0.79154956, 0.017553214, 0.017845355, -0.6105921, -0.07577851, -0.4285834, 0.01530838, 0
1192, 794982060, 0.7915889, 0.017501038, 0.017717112, -0.61054635, -0.05709081, -0.42392364, 0.003824234, 0
1196, 795048728, 0.7916519, 0.01743267, 0.017588658, -0.6104704, -0.0728657, -0.4190754, 0.025284767, 0
1199, 795098729, 0.79170215, 0.017377023, 0.01748351, -0.61040986, -0.072215706, -0.4102614, 0.040905, 0
1201, 795132063, 0.7917305, 0.017340865, 0.017423773, -0.6103759, -0.078844324, -0.41401663, 0.022936821, 0
1204, 795182064, 0.7917787, 0.017296417, 0.017307252, -0.6103178, -0.067808636, -0.40210402, 0.029956818, 0
1207, 795232065, 0.7918299, 0.017232245, 0.017193858, -0.6102565, -0.0729282, -0.42369518, 0.0602417, 0
1210, 795282066, 0.7918742, 0.017161401, 0.017105948, -0.6102034, -0.08098334, -0.41367054, 0.026883125, 0
1212, 795315400, 0.7919005, 0.017113267, 0.017023368, -0.6101729, -0.07290955, -0.41647437, 0.019203186, 0
1215, 795365401, 0.7919462, 0.01706561, 0.016919637, -0.61011803, -0.06682678, -0.4005494, -9.4890594E-4, 0
1218, 795415402, 0.7919889, 0.016998637, 0.016814124, -0.6100672, -0.059928153, -0.4006416, 0.029158592, 0
1220, 795448736, 0.79201484, 0.016961707, 0.016748969, -0.61003643, -0.07905631, -0.40006933, 0.031327248, 0
1224, 795515404, 0.7920717, 0.01689966, 0.01663456, -0.6099674, -0.07261179, -0.39476028, 0.022406578, 0
1227, 795565405, 0.7921148, 0.016821593, 0.01652766, -0.6099167, -0.08161422, -0.385268, 0.022183418, 0
1230, 795615406, 0.7921636, 0.016762633, 0.016453594, -0.6098566, -0.07273226, -0.3823401, 7.801056E-4, 0
1233, 795665407, 0.7922069, 0.016685136, 0.016330482, -0.60980594, -0.0748312, -0.3849904, 0.025258064, 0
1235, 795698741, 0.7922318, 0.016637301, 0.0162499, -0.60977703, -0.08459369, -0.38141412, 0.035651207, 0
1238, 795748742, 0.7922845, 0.016566755, 0.01614781, -0.60971326, -0.093632035, -0.38076505, 0.036185265, 0
1241, 795798743, 0.79232377, 0.016504593, 0.016050423, -0.60966665, -0.08158187, -0.39109024, 0.013360977, 0
1243, 795832077, 0.7923608, 0.016446916, 0.015940072, -0.609623, -0.05598963, -0.37642178, 0.021956444, 0
1246, 795882078, 0.7924658, 0.01644066, 0.01595465, -0.6094861, 0.043512076, -0.5752439, 0.019534111, 0
1249, 795932079, 0.7942154, 0.017504243, 0.018416587, -0.6071052, -0.32141006, -0.03851515, 0.03230095, 0
1253, 795998747, 0.7943995, 0.016037358, 0.015353858, -0.6069899, -0.14332226, -0.22250278, 0.24189663, 0
1256, 796048748, 0.7944322, 0.016042378, 0.015278267, -0.6069489, -0.07249199, -0.42877278, -0.15314674, 0
1258, 796082082, 0.7944712, 0.015990842, 0.015222678, -0.6069005, -0.069004275, -0.39950952, -0.10300541, 0
1261, 796132083, 0.794515, 0.015940318, 0.015168668, -0.6068458, -0.079758786, -0.35505107, 0.08148289, 0
1264, 796182084, 0.79455173, 0.015858559, 0.015074077, -0.60680217, -0.08535822, -0.36363402, -0.015832901, 0
1266, 796215418, 0.79457355, 0.015940608, 0.015305003, -0.60676575, -0.083456375, -0.35150462, 0.033467293, 0
1269, 796265419, 0.7946049, 0.016074894, 0.015634554, -0.60671276, -0.08953813, -0.36980268, -0.033223152, 0
1272, 796315420, 0.7942799, 0.016140886, 0.015757266, -0.6071333, -0.28879252, -0.08479074, 0.039515495, 0
1274, 796348754, 0.7929057, 0.016243527, 0.015920488, -0.60892004, -0.063487165, -0.39726922, 0.016771317, 0
1277, 796398755, 0.7898764, 0.017092694, 0.017585788, -0.61277574, -0.11667307, -0.3200956, 0.0053339005, 0
1280, 796448756, 0.78703254, 0.016570883, 0.016355844, -0.616472, -0.14387538, -0.30081177, -0.06522274, 0
1283, 796498757, 0.7828469, 0.017863832, 0.018798668, -0.62167394, -0.115527466, -0.31056204, 0.025101662, 0
1285, 796532091, 0.7798669, 0.018944891, 0.020793375, -0.62531316, 0.020771198, -0.7267298, -0.0129060745, 0
1288, 796582092, 0.770413, 0.019934328, 0.022212375, -0.6368464, 0.1255064, -1.3168223, -0.058674812, 0
1291, 796632093, 0.74881226, 0.020632863, 0.022365341, -0.66208357, -0.46444115, -1.1539372, 0.07873058, 0
1293, 796665427, 0.7255395, 0.02137359, 0.022460112, -0.6874818, -0.43719822, -1.2277501, -0.13201332, 0
1296, 796715428, 0.6837701, 0.021607717, 0.021064213, -0.72907335, -0.8030252, 0.0334954, 0.2882805, 0
1299, 796765429, 0.64073795, 0.02030535, 0.017970607, -0.76728064, -0.110534325, 0.09198314, 0.101210594, 0
1301, 796798763, 0.6144112, 0.020059915, 0.017169464, -0.7885442, 0.52582616, 0.62622535, 0.081822395, 0
1304, 796848764, 0.582475, 0.022366751, 0.019126995, -0.81231576, -0.17472234, 0.6781478, 0.022364616, 0
1307, 796898765, 0.5576802, 0.025548114, 0.02176247, -0.82937723, 0.039423905, -0.47615898, 0.28112316, 0
1310, 796948766, 0.5282678, 0.026161067, 0.021675443, -0.8483979, -0.6163297, -0.78746635, -0.03130436, 0
1312, 796982100, 0.5052263, 0.0267592, 0.021603351, -0.8623016, -0.4434322, -0.45594633, 0.029325485, 0
1315, 797032101, 0.46481735, 0.02800335, 0.021537969, -0.88470167, 0.046067193, -0.4824107, 0.14499569, 0
1318, 797082102, 0.43034297, 0.029049806, 0.021593321, -0.9019395, 0.61320066, 0.22970292, 0.040641785, 0
1320, 797115436, 0.41149107, 0.029510174, 0.021438079, -0.9106837, 0.74219996, 0.16741082, -0.08059025, 0
1323, 797165437, 0.39471862, 0.030096784, 0.021458233, -0.91805845, 0.26752278, -0.11937845, 0.07676411, 0
1326, 797215438, 0.38198826, 0.030122431, 0.021083161, -0.92343557, -0.12746857, -0.6610817, 0.048357964, 0
1328, 797248772, 0.37275732, 0.030369012, 0.021018827, -0.9271937, -0.3266004, -0.6402908, -0.027280807, 0
1332, 797315440, 0.35255873, 0.03069932, 0.020691605, -0.9350572, -0.8165452, -0.5739065, -0.0010700226, 0
1335, 797365441, 0.3329924, 0.031017968, 0.020394366, -0.94219863, -0.5441246, -0.37071475, -0.04941559, 0
1338, 797415442, 0.30879357, 0.03065735, 0.019642515, -0.950432, -0.59808946, -0.29812908, -0.11771393, 0
1341, 797465443, 0.28154147, 0.02775105, 0.017616559, -0.958986, -0.58072275, -0.4701664, 0.032214165, 0
1343, 797498777, 0.26408836, 0.024652785, 0.015750993, -0.9640548, 0.11878258, 0.063631915, -0.097286224, 0
1346, 797548778, 0.24588881, 0.024685059, 0.015553694, -0.968859, 0.8165217, 0.32856825, 0.093006134, 0
1349, 797598779, 0.24567495, 0.023428546, 0.014817725, -0.96895593, -0.32573986, -0.26241335, -0.050644875, 0
1351, 797632113, 0.24573256, 0.023410587, 0.014713794, -0.9689433, -0.2951751, -0.22146352, -0.03866768, 0
1354, 797682114, 0.24579313, 0.023327949, 0.0145318825, -0.9689326, -0.2738725, -0.21936615, 0.025354385, 0
1357, 797732115, 0.24587673, 0.023193425, 0.014330997, -0.9689176, -0.28845203, -0.22421327, 0.031078339, 0
1361, 797798783, 0.24597017, 0.02300679, 0.014061436, -0.96890235, -0.28521255, -0.2155281, 0.004599571, 0
1363, 797832117, 0.24600866, 0.023000954, 0.01394394, -0.9688944, -0.28483942, -0.20628324, 0.033896446, 0
1366, 797882118, 0.24608028, 0.022976901, 0.01380219, -0.96887875, -0.2682852, -0.21590523, 0.018562317, 0
1369, 797932119, 0.24612886, 0.023166623, 0.01374223, -0.9688629, -0.27331293, -0.19903703, 0.047340393, 0
1372, 797982120, 0.24618432, 0.023329614, 0.013662249, -0.968846, -0.26317328, -0.21798576, 0.009523392, 0
1374, 798015454, 0.24554421, 0.025800504, 0.01469729, -0.96893066, -0.26532885, -0.18022484, -0.009231567, 0
1377, 798065455, 0.2430081, 0.030623721, 0.01678799, -0.9693956, -0.8260685, -0.58996105, 0.0056056976, 0
1380, 798115456, 0.23645386, 0.02972254, 0.016138174, -0.97105414, -0.047389966, -0.046483442, 0.024097443, 0
1382, 798148790, 0.2321057, 0.032275926, 0.017114507, -0.9720045, 0.09068435, -0.16432004, 0.50083256, 0
1385, 798198791, 0.22775412, 0.032228917, 0.016916672, -0.9730382, -0.30173832, -0.2411528, -0.04503441, 0
1389, 798265459, 0.21462713, 0.032341655, 0.016566023, -0.97602, -0.6073877, -0.2355712, 0.0010023117, 0
1392, 798315460, 0.19749084, 0.032105707, 0.01601439, -0.97964805, 0.10842791, 0.020766973, 0.091454506, 0
1395, 798365461, 0.1871785, 0.026953135, 0.013684202, -0.9818608, 0.26648527, 0.20543416, -0.10856247, 0
1397, 798398795, 0.18379807, 0.030602697, 0.01499944, -0.982373, 0.090353936, -0.04828654, 0.13218784, 0
1400, 798448796, 0.1831922, 0.03248492, 0.0155854635, -0.9824166, -0.25101772, -0.11761825, 0.0353117, 0
1403, 798498797, 0.18325694, 0.031706627, 0.015116968, -0.98243743, -0.34002212, -0.18550047, -0.014308929, 0
1405, 798532131, 0.1829195, 0.032885347, 0.015509092, -0.98245543, -0.14532383, -0.08206329, 0.0045928955, 0
1408, 798582132, 0.18249342, 0.032718953, 0.015279125, -0.9825438, -0.23104566, -0.1247719, 0.057840347, 0
1411, 798632133, 0.1825098, 0.024688713, 0.012017883, -0.98282063, -0.26880684, -0.14340964, 0.048750877, 0
1413, 798665467, 0.18255042, 0.02325974, 0.011384277, -0.98285556, -0.3636667, -0.14281082, -0.14199162, 0
1416, 798715468, 0.18262726, 0.022900024, 0.011146215, -0.9828524, -0.30419302, -0.12894978, -0.10162926, 0
1419, 798765469, 0.1827042, 0.022990504, 0.011008662, -0.9828375, -0.2508023, -0.11833831, 0.11378765, 0
1422, 798815470, 0.18275285, 0.022933278, 0.010846758, -0.9828316, -0.28081104, -0.12010893, 0.0028905869, 0
1424, 798848804, 0.18279456, 0.022875002, 0.010737958, -0.98282635, -0.2953017, -0.12050113, 0.020724297, 0
1427, 798898805, 0.18286826, 0.02284345, 0.010586656, -0.98281497, -0.27782065, -0.11745524, 0.022695541, 0
1430, 798948806, 0.18293214, 0.022785077, 0.010422444, -0.9828064, -0.26778787, -0.11320497, 0.02063179, 0
1432, 798982140, 0.18297635, 0.022744324, 0.010327455, -0.98279995, -0.27493313, -0.112425804, 0.021775246, 0
1435, 799032141, 0.18303882, 0.02268525, 0.010174567, -0.98279124, -0.29158092, -0.104411975, 0.026834488, 0
1438, 799082142, 0.18310429, 0.022618432, 0.010020449, -0.98278224, -0.2899875, -0.123321734, 0.035354614, 0
1440, 799115476, 0.18314052, 0.022582471, 0.00991052, -0.9827774, -0.288297, -0.11870555, 0.025590897, 0
1443, 799165477, 0.1831939, 0.02252813, 0.00977305, -0.9827701, -0.2793739, -0.109519936, 0.02205658, 0
1446, 799215478, 0.18324572, 0.022468355, 0.009617202, -0.9827633, -0.27974153, -0.101461045, 0.039381027, 0
1449, 799265479, 0.18330638, 0.022422396, 0.009456775, -0.9827546, -0.27936548, -0.09936306, 0.036485672, 0
1451, 799298813, 0.1833526, 0.02239396, 0.009373172, -0.98274744, -0.2733437, -0.08596564, 0.030496597, 0
1454, 799348814, 0.1834226, 0.022346495, 0.009224569, -0.9827369, -0.27283937, -0.093359195, 0.029107094, 0
1457, 799398815, 0.18349211, 0.022289883, 0.009070548, -0.9827267, -0.26896128, -0.08019748, 0.002603531, 0
1459, 799432149, 0.18354507, 0.022235505, 0.0089695025, -0.98271894, -0.28350636, -0.09161236, 0.026597023, 0
1462, 799482150, 0.18361849, 0.022169128, 0.008812356, -0.98270816, -0.2690654, -0.0933787, 0.0316391, 0
1465, 799532151, 0.18368079, 0.022114074, 0.008672238, -0.982699, -0.2766808, -0.066152215, -0.054501534, 0
1469, 799598819, 0.18377557, 0.022049705, 0.008469321, -0.9826845, -0.2608655, -0.07165909, 0.0057373047, 0
1472, 799648820, 0.18384081, 0.02199053, 0.008339779, -0.98267466, -0.27535367, -0.07966633, 0.010720253, 0
1474, 799682154, 0.1838861, 0.021945857, 0.008243734, -0.982668, -0.26934505, -0.091328345, 0.0011367798, 0
1477, 799732155, 0.1839537, 0.021899108, 0.008093698, -0.98265773, -0.27013296, -0.07983694, 0.018123627, 0
1480, 799782156, 0.18401763, 0.021857124, 0.007951067, -0.9826477, -0.26580697, -0.074966736, 0.020433426, 0
1482, 799815490, 0.18405505, 0.02182973, 0.007866059, -0.9826421, -0.25764385, -0.07449296, 0.034832, 0
1485, 799865491, 0.18411878, 0.021775566, 0.0077344268, -0.9826324, -0.26504266, -0.07401886, 0.057435036, 0
1488, 799915492, 0.18418798, 0.02169336, 0.007587225, -0.98262227, -0.26726645, -0.060151905, 0.024909973, 0
1490, 799948826, 0.18422984, 0.021657359, 0.0074956985, -0.982616, -0.27210855, -0.07635619, 0.033949852, 0
1493, 799998827, 0.18430223, 0.021584459, 0.007359903, -0.9826051, -0.2648028, -0.045941632, 0.030370712, 0
1497, 800065495, 0.18438941, 0.02151685, 0.0071742064, -0.9825916, -0.26573554, -0.05928688, 0.03357792, 0
1500, 800115496, 0.1844604, 0.02145301, 0.0070342645, -0.9825808, -0.26792562, -0.03806587, 0.028865814, 0
1503, 800165497, 0.18451864, 0.021396719, 0.006899048, -0.98257196, -0.2834689, -0.05222537, 0.029536247, 0
1505, 800198831, 0.18456478, 0.021338819, 0.006824457, -0.98256505, -0.25023067, -0.05243121, 0.019485474, 0
1508, 800248832, 0.184623, 0.021261372, 0.0066950945, -0.98255664, -0.26660585, -0.049248096, 0.026325226, 0
1511, 800298833, 0.18467794, 0.02121732, 0.006573074, -0.9825482, -0.2672048, -0.052132186, 0.043213844, 0
1513, 800332167, 0.18472399, 0.021180319, 0.0064877314, -0.9825408, -0.2527453, -0.041058432, 0.02827549, 0
1516, 800382168, 0.18479405, 0.02111969, 0.006351758, -0.9825298, -0.26124814, -0.039373755, 0.021232605, 0
1519, 800432169, 0.1848611, 0.02105518, 0.006217076, -0.98251945, -0.2548174, -0.03209602, 0.046378136, 0
1521, 800465503, 0.18489009, 0.021009417, 0.0061425706, -0.98251545, -0.26461485, -0.032880418, 0.026769638, 0
1525, 800532171, 0.18496984, 0.02094283, 0.0059807184, -0.98250276, -0.25112242, -0.025127927, 0.010879517, 0
1528, 800582172, 0.18505417, 0.020868458, 0.0058666053, -0.9824893, -0.25890765, -0.03584319, 0.035959244, 0
1531, 800632173, 0.185125, 0.020820588, 0.005751764, -0.9824776, -0.24921283, -0.029203726, 0.02392292, 0
1534, 800682174, 0.1851739, 0.020760465, 0.00562217, -0.9824704, -0.22211185, -0.016652465, 0.054885864, 0
1536, 800715508, 0.1852203, 0.02070907, 0.00553358, -0.9824633, -0.25447422, -0.02220276, -0.008022308, 0
1539, 800765509, 0.1852807, 0.020657307, 0.005422613, -0.9824536, -0.27313077, -0.024743723, 0.013162613, 0
1542, 800815510, 0.18535715, 0.020536656, 0.0053119315, -0.9824423, -0.25777805, -0.012317167, 0.024316788, 0
1544, 800848844, 0.18539914, 0.020490922, 0.0052318303, -0.9824358, -0.24793166, -0.012262867, 0.040768623, 0
1547, 800898845, 0.1854489, 0.020412553, 0.005113801, -0.98242855, -0.25731742, -0.008674648, -5.302429E-4, 0
1550, 800948846, 0.18551935, 0.02040758, 0.0050229114, -0.982416, -0.26472232, -0.0121890465, 0.03526783, 0
1552, 800982180, 0.18558669, 0.022047054, 0.005585597, -0.9823646, -0.39230704, -0.09308278, -0.13339233, 0
1555, 801032181, 0.1857409, 0.028135099, 0.007903199, -0.9821642, -0.23217116, 0.02377917, 0.022768974, 0
1558, 801082182, 0.18583484, 0.029730799, 0.008422863, -0.982095, -0.26448914, -0.033762705, 0.088804245, 0
1561, 801132183, 0.1859016, 0.029641218, 0.008322152, -0.982086, -0.25400886, 0.006801482, -0.024147034, 0
1563, 801165517, 0.1859497, 0.029605726, 0.008259488, -0.9820785, -0.25365978, 0.004839457, 0.038071632, 0
1566, 801215518, 0.1860109, 0.029526211, 0.008158593, -0.9820702, -0.2570328, 0.010873556, 0.029895782, 0
1569, 801265519, 0.18606217, 0.029462902, 0.008047515, -0.98206323, -0.24966443, 7.3619233E-4, 0.006914139, 0
1571, 801298853, 0.18602982, 0.024279209, 0.0059401747, -0.9822262, 0.21972466, 0.302052, 0.49773216, 0
1574, 801348854, 0.1860503, 0.020001367, 0.004292739, -0.9823273, -0.51940435, -0.1937663, -0.18706799, 0
1577, 801398855, 0.18607697, 0.019802952, 0.004072804, -0.9823273, -0.23740183, 0.017608522, 0.011249542, 0
1579, 801432189, 0.18611674, 0.01972773, 0.0039749956, -0.98232156, -0.25146288, 0.016793901, 0.073140144, 0
1582, 801482190, 0.18618372, 0.019669298, 0.003871087, -0.9823104, -0.24088961, 0.020114545, 0.01914978, 0
1585, 801532191, 0.186273, 0.020600783, 0.0041363714, -0.9822734, -0.27176642, 0.0046404083, 0.04104328, 0
1588, 801582192, 0.18636818, 0.022150535, 0.0046651857, -0.9822193, -0.25143823, 0.024142703, 0.012897491, 0
1590, 801615526, 0.18642522, 0.02321676, 0.0050313068, -0.9821821, -0.25235316, -0.002873357, 0.0046844482, 0
1593, 801665527, 0.1865125, 0.024484865, 0.0054524387, -0.98213243, -0.27323905, 5.681839E-4, 0.0031585693, 0
1596, 801715528, 0.1848243, 0.026172362, 0.0059987516, -0.9824047, -0.18834503, 0.06527249, 0.04387188, 0
1598, 801748862, 0.18250792, 0.026832597, 0.006152516, -0.982819, -0.39180562, -0.052922543, 0.009462357, 0
1601, 801798863, 0.17804694, 0.02704088, 0.0060292487, -0.983632, -0.34776092, -0.020628713, -0.014704704, 0
1605, 801865531, 0.16809264, 0.028199503, 0.0061421716, -0.98534864, -0.70065486, -0.16371489, -0.04038334, 0
1608, 801915532, 0.15680109, 0.029328965, 0.0062511237, -0.98717505, -0.74495435, -0.23403497, 0.063054085, 0
1611, 801965533, 0.14171636, 0.029729437, 0.005953459, -0.98944294, -0.5374464, -0.06561163, 0.04507065, 0
1613, 801998867, 0.12842193, 0.030172957, 0.0057484997, -0.991244, -0.35086784, -0.046947002, 0.06436539, 0
1616, 802048868, 0.10322564, 0.031082055, 0.0054298206, -0.9941577, -0.7889365, 0.35061413, 0.09271526, 0
1619, 802098869, 0.07534482, 0.03138291, 0.0048800563, -0.99665177, -0.13867404, 0.24010067, -0.1762886, 0
1621, 802132203, 0.055095185, 0.032183103, 0.0045702765, -0.99795187, -0.73657477, 0.14895342, -3.8146973E-5, 0
1624, 802182204, 0.019086402, 0.03370925, 0.004147864, -0.99924093, -0.4549335, 0.46119562, -0.3791399, 0
1627, 802232205, -0.014720823, 0.031499743, 0.0029822683, -0.999391, -1.0311337, -0.70812184, 0.3398552, 0
1629, 802265539, -0.04097028, 0.031359613, 0.002533064, -0.9986651, -0.2303114, -0.10772119, -0.06532478, 0
1633, 802332207, -0.09437278, 0.03335584, 0.0018276797, -0.9949764, -0.039202888, 1.3585182, 0.41727924, 0
1636, 802382208, -0.12827766, 0.03358782, 0.0010941513, -0.99116886, 0.39799842, -0.11014739, -0.11750984, 0
1639, 802432209, -0.15830739, 0.033434384, 3.9531334E-4, -0.9868236, 0.5687667, 0.7376838, 0.07972717, 0
1642, 802482210, -0.19380511, 0.033016343, -2.779647E-4, -0.9804845, 0.103243925, 0.13898176, 0.079250336, 0
1644, 802515544, -0.22323012, 0.03314608, -8.487351E-4, -0.9742018, 0.007606543, 0.60931313, -0.04288006, 0
1647, 802565545, -0.27672213, 0.032980565, -0.0018620479, -0.9603821, -0.23114629, -0.13268664, 0.25446224, 0
1650, 802615546, -0.32018262, 0.03348944, -0.0027444088, -0.94675994, -1.1293795, 0.39306483, -0.05840683, 0
1652, 802648880, -0.33875695, 0.03375047, -0.0032416005, -0.940263, -1.1067853, 1.5644438, -0.165102, 0
1655, 802698881, -0.36885944, 0.034035616, -0.0039012185, -0.9288538, 0.26447752, 0.8525172, -0.010185242, 0
1658, 802748882, -0.40250924, 0.03453798, -0.004772056, -0.9147518, -0.5335722, -0.07849688, -0.044665337, 0
1662, 802815550, -0.45106727, 0.027766764, -0.0039075534, -0.8920495, 0.153951, 0.33858642, 0.16498375, 0
1665, 802865551, -0.48351654, 0.02720239, -0.0041704862, -0.8749026, 0.32821947, -0.20983471, 0.024748802, 0
1667, 802898885, -0.50103945, 0.026354644, -0.0041344264, -0.86501336, -0.058536004, 0.5703502, 0.15357494, 0
1670, 802948886, -0.53023565, 0.025127923, -0.003995841, -0.8474686, 0.057925038, 0.24332936, -0.05864334, 0
1673, 802998887, -0.5539614, 0.025447045, -0.004617207, -0.83214074, 0.8521025, 0.84285426, 0.09057236, 0
1675, 803032221, -0.56839913, 0.032102756, -0.007734431, -0.82209015, -0.5406389, -0.3147701, 1.9527807, 0
1678, 803082222, -0.5896556, 0.032653533, -0.0086079845, -0.80694866, 0.20896813, 0.033300664, 0.27609634, 0
1681, 803132223, -0.60324126, 0.032623682, -0.00907105, -0.7968396, 0.8347451, 0.46727923, 0.19339085, 0
1683, 803165557, -0.6057393, 0.032574397, -0.009098707, -0.79494417, -0.43939736, -0.9242284, 0.35275078, 0
1686, 803215558, -0.6058125, 0.032853898, -0.009463552, -0.79487264, -0.08002809, 0.2837121, -0.122021675, 0
1689, 803265559, -0.60575396, 0.032812707, -0.0095455935, -0.7949178, -0.11313814, 0.2745973, 0.011306763, 0
1692, 803315560, -0.60517406, 0.032778222, -0.009608103, -0.7953602, 0.0663101, -0.17602107, 0.014006615, 0
1694, 803348894, -0.6039333, 0.032790598, -0.009666462, -0.79630154, -0.2484978, 0.6246537, 0.046710968, 0
1697, 803398895, -0.6035753, 0.03273422, -0.009728187, -0.79657453, 0.0060161655, 0.064022884, -0.0047187805, 0
1700, 803448896, -0.6010513, 0.032604177, -0.009695997, -0.7984864, -0.17728041, 0.45934728, 0.050192833, 0
1702, 803482230, -0.60003453, 0.032529484, -0.009690334, -0.7992539, -0.18503894, 0.49458182, 0.021008492, 0
1705, 803532231, -0.5991696, 0.03247218, -0.0097413715, -0.79990417, -0.13009006, 0.38003165, 0.02419281, 0
1708, 803582232, -0.5988366, 0.032445353, -0.009814486, -0.8001537, -0.10471034, 0.27825916, 0.014092445, 0
1710, 803615566, -0.5987544, 0.032388985, -0.009855003, -0.800217, -0.09425502, 0.25578427, 0.008135796, 0
1713, 803665567, -0.5986826, 0.032369666, -0.0099257715, -0.80027056, -0.106547445, 0.28538805, 0.03762722, 0
1716, 803715568, -0.59863675, 0.032317612, -0.010002912, -0.800306, -0.093517475, 0.27639282, 0.032361984, 0
1719, 803765569, -0.5985901, 0.032227512, -0.010081055, -0.8003436, -0.09606913, 0.2851975, 0.029624939, 0
1721, 803798903, -0.5985517, 0.0322021, -0.010129353, -0.80037254, -0.09892485, 0.2903116, 0.02733612, 0
1724, 803848904, -0.59849995, 0.032091625, -0.010174085, -0.80041534, -0.09655106, 0.2681491, 0.040979385, 0
1727, 803898905, -0.59851855, 0.029906666, -0.009207122, -0.8004977, -0.109511614, 0.3320092, -0.013142586, 0
1729, 803932239, -0.5985216, 0.028844444, -0.008761469, -0.80053955, -0.10562579, 0.28456622, 0.005223274, 0
1732, 803982240, -0.5984231, 0.03023588, -0.009544768, -0.80055285, -0.11318069, 0.3044259, -0.0087451935, 0
1735, 804032241, -0.5983224, 0.031671774, -0.010341197, -0.80056256, -0.06805448, 0.25249442, 0.045498848, 0
1737, 804065575, -0.59829354, 0.0312515, -0.0102060465, -0.8006025, -0.1069754, 0.31187412, 0.022081375, 0
1741, 804132243, -0.59824467, 0.026407681, -0.0079909125, -0.80083853, -0.02092528, 0.06532216, -0.0729475, 0
1744, 804182244, -0.5948403, 0.025389602, -0.007558512, -0.80340755, -0.53039455, 1.3504778, -0.1323824, 0
1747, 804232245, -0.5947901, 0.025711978, -0.007810326, -0.8034319, -0.095663406, 0.3195467, -0.030236244, 0
1750, 804282246, -0.59476286, 0.0246862, -0.0074205594, -0.8034879, 0.2221708, -0.3197952, 0.59630203, 0
1752, 804315580, -0.59462047, 0.022495054, -0.006322044, -0.8036672, -0.090856105, 0.18923758, 0.30755997, 0
1755, 804365581, -0.59459054, 0.022536034, -0.006540585, -0.80368626, -0.12005455, 0.3817399, -0.10413742, 0
1758, 804415582, -0.59453845, 0.022501133, -0.006605896, -0.80372524, -0.07382162, 0.29979503, -0.023571968, 0
1760, 804448916, -0.594508, 0.022461543, -0.006638568, -0.8037486, -0.09391328, 0.30280748, -0.011104584, 0
1763, 804498917, -0.5944501, 0.022393042, -0.0066952375, -0.8037929, -0.08005087, 0.27516523, 0.059309006, 0
1766, 804548918, -0.5943978, 0.022334682, -0.0067347893, -0.8038329, -0.081751816, 0.3004199, 0.027762413, 0
1770, 804615586, -0.5943003, 0.022253837, -0.006803803, -0.8039066, -0.061466306, 0.29540578, 0.03282833, 0
1773, 804665587, -0.594243, 0.022193074, -0.006848666, -0.80395025, -0.063896276, 0.28740153, 0.01362896, 0
1775, 804698921, -0.59421116, 0.0221437, -0.006868116, -0.8039749, -0.055408746, 0.2816141, 0.03908062, 0
1778, 804748922, -0.59415466, 0.022085939, -0.006903309, -0.804018, -0.054599997, 0.28608844, 0.043561935, 0
1781, 804798923, -0.5940844, 0.022007896, -0.006958998, -0.8040717, -0.052875172, 0.29121754, 0.009561539, 0
1783, 804832257, -0.5940512, 0.021971533, -0.0069724806, -0.80409706, -0.0669601, 0.2980418, 0.038027763, 0
1786, 804882258, -0.5939949, 0.021899313, -0.007002338, -0.8041404, -0.08569443, 0.2851961, 0.015425682, 0
1789, 804932259, -0.5939401, 0.021837087, -0.0070561464, -0.80418193, -0.07542916, 0.28623322, 0.012212753, 0
1791, 804965593, -0.5939062, 0.021805244, -0.0070934915, -0.8042075, -0.07648128, 0.28967524, 0.020986557, 0
1794, 805015594, -0.5938502, 0.02173714, -0.0071462775, -0.8042502, -0.060285203, 0.28840095, 0.0095825195, 0
1798, 805082262, -0.59378433, 0.021660468, -0.0072225956, -0.8043004, -0.062998734, 0.2896645, 0.018188477, 0
1801, 805132263, -0.5937511, 0.021603221, -0.0072672684, -0.804326, -0.066695586, 0.2812313, 0.028591156, 0
1804, 805182264, -0.5936961, 0.02153618, -0.0073127146, -0.80436784, -0.058692086, 0.27683696, 0.040766716, 0
1806, 805215598, -0.5936531, 0.02148134, -0.007334523, -0.80440104, -0.044566773, 0.28447434, 0.020841599, 0
1809, 805265599, -0.5936053, 0.02141487, -0.0073665665, -0.8044378, -0.044155546, 0.29268748, 0.027647972, 0
1812, 805315600, -0.5935429, 0.02134508, -0.0073981574, -0.8044853, -0.050944272, 0.2874378, 0.02374363, 0
1814, 805348934, -0.5935029, 0.021311006, -0.007433098, -0.8045154, -0.045015458, 0.27745953, 0.0052814484, 0
1817, 805398935, -0.59344685, 0.021242632, -0.0074878563, -0.8045581, -0.057192393, 0.2880046, 0.020614624, 0
1820, 805448936, -0.5933971, 0.021166084, -0.0075196587, -0.8045964, -0.06289358, 0.28710333, 0.023352623, 0
1822, 805482270, -0.59336835, 0.02112419, -0.0075485776, -0.8046186, -0.051596813, 0.29238385, 0.023379326, 0
1825, 805532271, -0.5933089, 0.021055933, -0.00757565, -0.8046639, -0.040217258, 0.2883138, 0.005671501, 0
1828, 805582272, -0.5932488, 0.020981742, -0.0076059056, -0.80470985, -0.036141526, 0.28340992, 0.02552414, 0
1831, 805632273, -0.5932069, 0.020903869, -0.007644016, -0.80474234, -0.044019528, 0.28246552, 0.0044727325, 0
1833, 805665607, -0.59316903, 0.020853052, -0.0076723373, -0.80477154, -0.04572997, 0.29547974, 0.023875237, 0
1836, 805715608, -0.5931155, 0.02077913, -0.0076986244, -0.8048126, -0.044146772, 0.2882443, 0.02199459, 0
1839, 805765609, -0.59306365, 0.020706506, -0.0077437707, -0.8048522, -0.036123786, 0.28794485, 0.020503044, 0
1841, 805798943, -0.59302175, 0.020661615, -0.0077724042, -0.8048839, -0.03321626, 0.28888932, 0.018589973, 0
1844, 805848944, -0.5929662, 0.020578548, -0.007805034, -0.8049266, -0.03383872, 0.28221902, 0.035912514, 0
1847, 805898945, -0.592899, 0.020505965, -0.007838784, -0.8049776, -0.03916245, 0.2832197, 0.001581192, 0
1849, 805932279, -0.5928585, 0.020448806, -0.00786826, -0.80500877, -0.03766377, 0.28470644, 0.027819633, 0
1852, 805982280, -0.59280115, 0.020374415, -0.00788894, -0.80505264, -0.033994105, 0.28736815, 0.010336876, 0
1855, 806032281, -0.5927431, 0.020313244, -0.007927105, -0.80509645, -0.012474929, 0.28166622, 0.037937164, 0
1858, 806082282, -0.59269416, 0.020244302, -0.007962184, -0.80513394, -0.026715312, 0.28694445, 0.022657394, 0
1860, 806115616, -0.5926631, 0.020194778, -0.00798771, -0.8051577, -0.026857141, 0.2970532, 0.0030975342, 0
1863, 806165617, -0.5926126, 0.02012558, -0.008002065, -0.8051964, -0.017146157, 0.27693465, 0.011043549, 0
1866, 806215618, -0.5925521, 0.020053064, -0.008026683, -0.80524254, -0.034089513, 0.2807544, 0.031773567, 0
1868, 806248952, -0.5925235, 0.019987533, -0.008047279, -0.805265, -0.01916324, 0.2790957, 0.025697708, 0
1871, 806298953, -0.59247625, 0.019929565, -0.008071101, -0.805301, -0.017967977, 0.28923014, 0.023893356, 0
1874, 806348954, -0.59242326, 0.019857256, -0.008088719, -0.80534166, -0.02308721, 0.2769723, 0.03897953, 0
1878, 806415622, -0.592358, 0.019767236, -0.008105447, -0.80539167, -0.018322464, 0.26785713, 0.012966156, 0
1881, 806465623, -0.59230715, 0.019689694, -0.008113724, -0.8054308, -0.008900625, 0.28344297, 0.03409195, 0
1883, 806498957, -0.5922637, 0.01963445, -0.008136362, -0.805464, -0.004569789, 0.2912506, 0.04096985, 0
1886, 806548958, -0.592213, 0.019563217, -0.008164525, -0.80550265, -0.0030229464, 0.28531486, 0.010894775, 0
1889, 806598959, -0.5921599, 0.019496545, -0.008194311, -0.805543, -0.026924849, 0.28118837, 0.033133507, 0
1891, 806632293, -0.59211487, 0.019436846, -0.008205481, -0.80557746, -0.024233302, 0.28572005, 0.024646759, 0
1894, 806682294, -0.59205186, 0.019364888, -0.0082132695, -0.8056254, 0.001107374, 0.27502275, 0.012041092, 0
1897, 806732295, -0.5920052, 0.019300966, -0.008231738, -0.8056611, -0.0029314144, 0.27189896, 0.011551857, 0
1899, 806765629, -0.59195817, 0.01925171, -0.008239003, -0.80569667, -0.013042753, 0.282177, 0.019753456, 0
1902, 806815630, -0.59190834, 0.019197715, -0.00823618, -0.8057346, -0.010066845, 0.29119906, 0.029932976, 0
1906, 806882298, -0.5918432, 0.019105975, -0.008245647, -0.80578464, -0.0040601688, 0.28043935, 0.05161667, 0
1909, 806932299, -0.59179026, 0.019041002, -0.00826858, -0.80582476, -0.006661367, 0.276916, 0.01351738, 0
1912, 806982300, -0.59173447, 0.018971262, -0.00827524, -0.8058672, -0.0068185283, 0.2725344, 0.033345222, 0
1914, 807015634, -0.5917053, 0.01891802, -0.008281, -0.8058899, -0.0042269025, 0.2725967, 0.018949509, 0
1917, 807065635, -0.5916624, 0.018851615, -0.008279897, -0.8059229, -0.011524213, 0.27990353, 0.04407692, 0
1920, 807115636, -0.5916047, 0.018764509, -0.008287299, -0.8059672, 0.00585525, 0.27015314, 0.059625626, 0
1922, 807148970, -0.59151036, 0.018662907, -0.008278508, -0.8060391, 0.018363057, 0.27614447, 0.026871681, 0
1925, 807198971, -0.59143066, 0.020149466, -0.009025121, -0.8060539, 0.04150874, 0.22067475, 0.048700333, 0
1928, 807248972, -0.5937477, 0.02137223, -0.009690774, -0.8043092, -0.3352078, 1.1589082, 0.037441254, 0
1930, 807282306, -0.60361725, 0.020950489, -0.009699329, -0.79694, -0.063690275, 1.1679695, 0.041119576, 0
1935, 807365641, -0.66287374, 0.019532368, -0.010030606, -0.7484094, -0.07425434, 2.050934, 0.15220547, 0
1937, 807398975, -0.7017495, 0.021570072, -0.012119743, -0.71199423, 0.75852114, 1.0762746, -0.33454227, 0
1940, 807448976, -0.75935113, 0.025877554, -0.017144017, -0.6499402, 0.6340615, 0.11117429, -1.449585E-4, 0
1943, 807498977, -0.80925226, 0.027335905, -0.020317927, -0.5864733, 0.4240935, -0.5119942, 0.62389565, 0
1945, 807532311, -0.83654064, 0.026980914, -0.021363912, -0.5468234, 0.5881453, -0.1388547, -0.5857353, 0
1948, 807582312, -0.8687796, 0.026028048, -0.021959482, -0.4940265, 0.04088823, 0.055631887, 0.048862457, 0
1951, 807632313, -0.89582783, 0.02537276, -0.023125567, -0.44307336, 0.78643984, 0.0076746666, -0.18848705, 0
1953, 807665647, -0.9125937, 0.02503577, -0.024027446, -0.40739277, 0.42023218, 0.17921029, 0.22359848, 0
1956, 807715648, -0.9334543, 0.023973292, -0.024251005, -0.35707232, 0.13178475, -0.59613836, -0.014872551, 0
1959, 807765649, -0.9490601, 0.022211934, -0.02305908, -0.3134647, -0.14073738, -0.3296028, 0.016084671, 0
1962, 807815650, -0.9594618, 0.022325821, -0.024824584, -0.2798543, -0.539367, -0.40473452, 0.0864048, 0
1964, 807848984, -0.96401685, 0.021116322, -0.023285342, -0.2639767, 0.24029782, -0.3701016, 0.13173866, 0
1967, 807898985, -0.9698643, 0.019194935, -0.020386811, -0.24203126, -0.019565444, -0.0028069594, 0.21141052, 0
1970, 807948986, -0.97534865, 0.019217148, -0.021562278, -0.21877152, 0.021518612, 0.06712699, -0.0018281937, 0
1972, 807982320, -0.97900885, 0.01939065, -0.022875499, -0.20159988, -0.1306325, -0.5648413, 0.20253563, 0
1975, 808032321, -0.98426664, 0.017559849, -0.019633105, -0.17471567, 0.620172, 0.6317981, -0.12012482, 0
1978, 808082322, -0.9884427, 0.018894887, -0.024741255, -0.14836453, -0.5298766, -0.120242596, 0.041606903, 0
1980, 808115656, -0.98989236, 0.019058226, -0.026164122, -0.13807844, -0.3358748, 0.17529306, 0.04214096, 0
1983, 808165657, -0.99047667, 0.018062636, -0.023648778, -0.13442796, 0.26278475, 0.16636771, -0.008019447, 0
1986, 808215658, -0.99049723, 0.017641336, -0.022673504, -0.13450143, 0.21821013, 0.15701832, 0.07436657, 0
1989, 808265659, -0.9906775, 0.01507469, -0.015392782, -0.13451613, -0.06278647, 0.019652795, 0.25465488, 0
1991, 808298993, -0.9907058, 0.0143760685, -0.013591173, -0.13457909, -0.28674752, -0.13143024, 0.27236176, 0
1994, 808348994, -0.9907105, 0.014048015, -0.012840373, -0.13465336, 0.27359903, 0.18585655, -0.08637428, 0
1997, 808398995, -0.9907067, 0.013903682, -0.012564692, -0.13472255, 0.21381034, 0.1446375, 0.020895004, 0
1999, 808432329, -0.9907002, 0.013857768, -0.012546671, -0.13477682, 0.2245703, 0.14569189, 0.0049524307, 0
2002, 808482330, -0.99059945, 0.0141644105, -0.013655487, -0.1353761, 0.88891417, 0.5283842, -0.059577942, 0
2005, 808532331, -0.9894275, 0.013917075, -0.012859793, -0.14379099, 0.07850507, 0.09309614, 0.08088875, 0
2007, 808565665, -0.9888998, 0.013965724, -0.01306631, -0.14735346, -0.8571216, -0.5558599, 0.028111458, 0
2010, 808615666, -0.988897, 0.0137953805, -0.012778141, -0.14741361, 0.26447237, 0.15177085, -0.052527428, 0
2014, 808682334, -0.98888445, 0.01369551, -0.012790121, -0.14750679, 0.19555531, 0.16026886, 0.0811739, 0
2017, 808732335, -0.9888752, 0.013606394, -0.012763645, -0.14757934, 0.21177256, 0.15533261, 0.0238657, 0
2020, 808782336, -0.988865, 0.013529362, -0.0127598755, -0.14765422, 0.22679634, 0.1518233, 0.03493023, 0
2022, 808815670, -0.98885995, 0.013476976, -0.012779795, -0.14769047, 0.20759551, 0.16028266, 0.0420599, 0
2025, 808865671, -0.9888512, 0.013385876, -0.012783686, -0.14775676, 0.21187788, 0.14001524, 0.038832664, 0
2028, 808915672, -0.9888438, 0.013302083, -0.0127774775, -0.14781289, 0.21866535, 0.12949523, 0.033564568, 0
2030, 808949006, -0.98883843, 0.013261038, -0.012769818, -0.14785306, 0.22356312, 0.14089765, 0.043257713, 0
2033, 808999007, -0.9888299, 0.013162584, -0.012743184, -0.14792082, 0.22741026, 0.13361943, 0.024382591, 0
2036, 809049008, -0.98882306, 0.01308978, -0.012734818, -0.14797299, 0.22460026, 0.13159363, 0.026744843, 0
2038, 809082342, -0.9888178, 0.013027183, -0.012747616, -0.14801234, 0.23092034, 0.12793131, 0.030982018, 0
2043, 809165677, -0.98880297, 0.012888471, -0.012737838, -0.1481237, 0.20823929, 0.12502164, 0.03679657, 0
2045, 809199011, -0.98879737, 0.012827404, -0.012731626, -0.14816718, 0.22920458, 0.13752869, 0.027989388, 0
2048, 809249012, -0.9887883, 0.01274169, -0.012722555, -0.14823546, 0.22704236, 0.14080927, 0.043831825, 0
2051, 809299013, -0.9887792, 0.012650357, -0.012696633, -0.14830542, 0.2116528, 0.13272935, 0.007552147, 0
2053, 809332347, -0.98877347, 0.012599855, -0.012667806, -0.14835045, 0.21514603, 0.1163469, 0.010201454, 0
2056, 809382348, -0.9887659, 0.012512881, -0.012653114, -0.14840914, 0.21670207, 0.1245189, 0.042892456, 0
2059, 809432349, -0.9887592, 0.012426903, -0.012618538, -0.14846382, 0.2239148, 0.13151218, 0.028535843, 0
2061, 809465683, -0.98875314, 0.012372983, -0.012614565, -0.14850886, 0.2115573, 0.11607906, 0.013079643, 0
2064, 809515684, -0.9887436, 0.012293329, -0.012591743, -0.14858088, 0.23951274, 0.11201183, 9.1362E-4, 0
2067, 809565685, -0.9887322, 0.012220018, -0.012588011, -0.14866258, 0.2268704, 0.1032119, 0.01735878, 0
2071, 809632353, -0.9887185, 0.012121887, -0.01254021, -0.14876583, 0.2132904, 0.12227491, 0.047128677, 0
2074, 809682354, -0.98871267, 0.012042284, -0.012512557, -0.14881337, 0.22575569, 0.115079425, -0.0017709732, 0
2076, 809715688, -0.98870814, 0.011996971, -0.012482598, -0.14884965, 0.21500644, 0.09286153, 0.029065132, 0
2079, 809765689, -0.9887003, 0.011913393, -0.012441473, -0.1489117, 0.21762429, 0.1008942, 0.023622513, 0
2082, 809815690, -0.9886904, 0.01183995, -0.012416509, -0.14898486, 0.21551223, 0.1041332, 0.008769989, 0
2084, 809849024, -0.9886867, 0.011773064, -0.01240276, -0.14901552, 0.21382982, 0.12381063, 0.09356117, 0
2087, 809899025, -0.98867464, 0.011706058, -0.012373362, -0.14910252, 0.21057066, 0.12158423, 0.03989601, 0
2090, 809949026, -0.98866516, 0.011617113, -0.012352831, -0.14917424, 0.22127959, 0.108290724, -0.0040540695, 0
2092, 809982360, -0.9886589, 0.011574496, -0.012327486, -0.14922068, 0.22677404, 0.10208932, 0.024598122, 0
2095, 810032361, -0.9886472, 0.011480332, -0.012288943, -0.14930813, 0.22340265, 0.09776742, 7.05719E-4, 0
2098, 810082362, -0.9886384, 0.011385034, -0.012288097, -0.1493736, 0.23204349, 0.11675427, 0.04086685, 0
2101, 810132363, -0.98862827, 0.011322042, -0.01225265, -0.14944719, 0.21288969, 0.09604289, 0.062755585, 0
2103, 810165697, -0.98862284, 0.011263172, -0.012223061, -0.14949054, 0.22437678, 0.07784242, 0.008306503, 0
2106, 810215698, -0.9886153, 0.011200352, -0.01220317, -0.1495472, 0.21614696, 0.098164506, 0.05504322, 0
2109, 810265699, -0.988607, 0.011125193, -0.012171217, -0.14960936, 0.19034421, 0.109916285, 0.04461384, 0
2111, 810299033, -0.9886013, 0.011066776, -0.012137108, -0.1496535, 0.2201741, 0.10389501, 0.038481712, 0
2114, 810349034, -0.9885939, 0.010993928, -0.012110256, -0.14971018, 0.21278204, 0.08555465, 0.0399971, 0
2117, 810399035, -0.9885857, 0.01091275, -0.012090756, -0.14977098, 0.21756458, 0.07311964, 0.02523899, 0
2119, 810432369, -0.98858094, 0.01087688, -0.012076272, -0.14980656, 0.21508445, 0.092878655, 0.04772854, 0
2122, 810482370, -0.98857176, 0.010800475, -0.012051992, -0.14987463, 0.21293342, 0.09466956, 0.033503532, 0
2125, 810532371, -0.98856133, 0.010702993, -0.012020692, -0.14995219, 0.21885435, 0.09166223, 0.03988552, 0
2128, 810582372, -0.9885517, 0.0106237875, -0.011997796, -0.15002356, 0.21147181, 0.08783145, 0.023296356, 0
2130, 810615706, -0.9885463, 0.010567288, -0.011968747, -0.15006524, 0.2150739, 0.08862803, 0.023486137, 0
2133, 810665707, -0.9885376, 0.010476037, -0.011939213, -0.15013053, 0.21821193, 0.091793515, -5.245209E-4, 0
2136, 810715708, -0.98852366, 0.010466101, -0.012024167, -0.15021618, 0.21300507, 0.10452304, 0.09572792, 0
2138, 810749042, -0.98868465, 0.010365048, -0.011941848, -0.14916725, -0.17761645, 0.36308828, 0.06480503, 0
2141, 810799043, -0.98874104, 0.010248986, -0.011908594, -0.14880258, 0.2226652, 0.062417034, 0.019285202, 0
2144, 810849044, -0.98873305, 0.010169853, -0.011873048, -0.14886375, 0.22505707, 0.08096442, 0.04737377, 0
2146, 810882378, -0.9887298, 0.010058772, -0.011696871, -0.14890775, 0.22196165, 0.0829634, 0.08512974, 0
2151, 810965713, -0.9887185, 0.009941849, -0.0116621405, -0.14899233, 0.1741198, 0.06990393, 0.09664726, 0
2153, 810999047, -0.98871124, 0.0098967, -0.011657323, -0.14904371, 0.19661267, 0.05829388, 0.03200817, 0
2156, 811049048, -0.98870385, 0.00979461, -0.0115418555, -0.14910902, 0.18553665, 0.061733063, 0.07542515, 0
2159, 811099049, -0.988697, 0.009694441, -0.011459871, -0.14916731, 0.18948305, 0.06908077, 0.015469551, 0
2161, 811132383, -0.98869586, 0.009702811, -0.011537483, -0.14916773, 0.22325309, 0.064884715, -0.035541534, 0
2164, 811182384, -0.9886933, 0.0096062375, -0.011446132, -0.14919783, 0.1963808, 0.05839067, 0.006204605, 0
2167, 811232385, -0.98875844, 0.009389254, -0.0106633995, -0.14883766, 0.51955426, 0.044182178, 0.22645283, 0
2169, 811265719, -0.9894366, 0.009145487, -0.009704119, -0.1443434, 1.065355, 0.046775304, -0.022583961, 0
2172, 811315720, -0.99237835, 0.009069653, -0.010649091, -0.12242276, 1.1380203, 0.13316625, -0.12635422, 0
2175, 811365721, -0.995867, 0.008878353, -0.0118320985, -0.08959723, 0.59120566, 0.16321984, 0.30644703, 0
2179, 811432389, -0.99934113, 0.008400751, -0.012293001, -0.03306872, 0.6429074, -0.3054998, -0.13208294, 0
2182, 811482390, -0.99976486, 0.007984076, -0.012703983, 0.015588202, 0.3804309, -0.20052859, -0.6139765, 0
2184, 811515724, -0.9987202, 0.0076965718, -0.012954739, 0.04825259, 0.640257, -0.4260695, -0.20698357, 0
2187, 811565725, -0.9945939, 0.007211593, -0.0133703165, 0.10271229, 0.4739905, -0.8280697, -0.017373085, 0
2190, 811615726, -0.98698825, 0.006555603, -0.014379351, 0.16000707, -0.5855498, -0.97804666, 0.29988098, 0
2192, 811649060, -0.98010755, 0.0060524098, -0.014571769, 0.1978337, 0.03695675, -0.7183795, 0.6189852, 0
2195, 811699061, -0.96617347, 0.0054030344, -0.014868492, 0.2574029, -0.12605265, -1.1023089, -0.27544498, 0
2198, 811749062, -0.94534427, 0.0045490926, -0.015262374, 0.32568115, -0.14197245, 0.28905895, 0.75224686, 0
2200, 811782396, -0.92864764, 0.0039969026, -0.015443128, 0.3706168, -0.5615039, -0.1958823, -0.2871542, 0
2203, 811832397, -0.90269035, 0.0022008917, -0.01875527, 0.42987335, -0.490202, 0.8450466, 0.30612564, 0
2207, 811899065, -0.87574106, 0.0018439371, -0.016518041, 0.48249272, -0.27304438, 0.2815105, 0.5675497, 0
2210, 811949066, -0.85539544, 0.001944937, -0.015452123, 0.5177393, -0.69811475, -0.6939296, 0.06918907, 0
2213, 811999067, -0.83309686, 0.0011483057, -0.015677754, 0.5529017, -0.5624255, -0.5046167, 0.39276123, 0
2215, 812032401, -0.81709945, 5.9699384E-4, -0.015780175, 0.5762785, -0.2837319, -0.25455332, -0.06868458, 0
2218, 812082402, -0.7943297, -6.6305295E-4, -0.01638516, 0.60726386, -0.26276413, 0.023277765, -0.2575369, 0
2221, 812132403, -0.77952796, -0.0011067577, -0.016224284, 0.62615454, 0.22551307, 1.7555194, 0.033659935, 0
2223, 812165737, -0.7781403, -0.0011965103, -0.016242187, 0.62787753, 0.10674142, 0.27688274, 0.07679367, 0
2226, 812215738, -0.77818793, -0.0012933987, -0.016270246, 0.6278176, 0.045403652, -0.1627178, 0.027306557, 0
2229, 812265739, -0.7782373, -0.0014243186, -0.016313389, 0.6277549, 0.086878106, -0.15163407, 0.02706623, 0
2231, 812299073, -0.77826864, -0.0014696742, -0.016289327, 0.6277166, 0.10898782, -0.18941006, -0.04261589, 0
2234, 812349074, -0.7783085, -0.0015668484, -0.016266469, 0.62766755, 0.09899059, -0.15358143, 0.02550602, 0
2237, 812399075, -0.77835053, -0.0016456986, -0.016257873, 0.62761545, 0.09103146, -0.14609501, 0.007502556, 0
2240, 812449076, -0.77839446, -0.001716665, -0.016240912, 0.62756115, 0.081377536, -0.16207401, 0.025248528, 0
2242, 812482410, -0.77841836, -0.0017721101, -0.016213963, 0.6275323, 0.086471856, -0.16087222, 0.033216476, 0
2245, 812532411, -0.778468, -0.0018397048, -0.016187714, 0.62747115, 0.087867066, -0.15060253, 0.023906708, 0
2248, 812582412, -0.7785112, -0.0018994989, -0.016149804, 0.6274183, 0.082441926, -0.15831834, 0.037285805, 0
2250, 812615746, -0.7785451, -0.0019493656, -0.01612936, 0.62737656, 0.08749862, -0.16340375, 0.017972946, 0
2253, 812665747, -0.7785885, -0.0020272029, -0.016075896, 0.6273238, 0.081596926, -0.15268709, 0.03447151, 0
2256, 812715748, -0.7786304, -0.0021009694, -0.016043581, 0.62727255, 0.0652897, -0.15248775, 0.0067596436, 0
2259, 812765749, -0.7786744, -0.0021735302, -0.015995452, 0.6272188, 0.058692727, -0.16356295, 0.01994133, 0
2261, 812799083, -0.7787094, -0.0022332557, -0.015960896, 0.627176, 0.061623283, -0.16540515, 0.02891922, 0
2264, 812849084, -0.7787538, -0.0023009793, -0.015918512, 0.6271216, 0.057569854, -0.16807887, 0.008538246, 0
2267, 812899085, -0.7788041, -0.0023472195, -0.015875658, 0.62706006, 0.06687945, -0.15877835, 0.028648376, 0
2269, 812932419, -0.7788421, -0.0023800498, -0.01584605, 0.6270134, 0.07565089, -0.1631821, 0.044299126, 0
2272, 812982420, -0.7788911, -0.0024560206, -0.015805421, 0.6269534, 0.078796044, -0.15826446, 0.028643608, 0
2275, 813032421, -0.778933, -0.002520583, -0.015758267, 0.6269023, 0.08024444, -0.16679452, 0.037094116, 0
2277, 813065755, -0.7789635, -0.0025628186, -0.015737358, 0.62686485, 0.07352016, -0.16230066, 0.029170036, 0
2280, 813115756, -0.779012, -0.002611128, -0.015693665, 0.6268055, 0.059255525, -0.1642391, 0.034864426, 0
2283, 813165757, -0.7790484, -0.002672496, -0.015644774, 0.6267611, 0.05731657, -0.15737501, 0.02175808, 0
2287, 813232425, -0.77909684, -0.0027440088, -0.01557542, 0.6267024, 0.061705697, -0.18004985, 0.018601418, 0
2290, 813282426, -0.77913725, -0.002801927, -0.01552249, 0.6266532, 0.07147865, -0.16153453, 0.03165531, 0
2292, 813315760, -0.77916485, -0.002828727, -0.015492487, 0.62661946, 0.07085603, -0.1581561, 0.04511261, 0
2295, 813365761, -0.7791999, -0.0028928304, -0.015450137, 0.62657666, 0.054438166, -0.16774687, 0.016436577, 0
2298, 813415762, -0.7792494, -0.0029349905, -0.015414034, 0.6265158, 0.06078267, -0.16979668, 0.042092323, 0
2300, 813449096, -0.77927816, -0.0029599622, -0.015399737, 0.6264803, 0.056011572, -0.16753644, 0.038158417, 0
2303, 813499097, -0.77932304, -0.003015423, -0.015342844, 0.62642545, 0.053423326, -0.16889782, 0.02612114, 0
2306, 813549098, -0.7793645, -0.0030545369, -0.015298543, 0.62637484, 0.051672034, -0.17701875, 0.0021381378, 0
2308, 813582432, -0.7793946, -0.0030907854, -0.015269707, 0.6263379, 0.06046043, -0.16904676, 0.026742935, 0
2311, 813632433, -0.77943265, -0.003155837, -0.015220538, 0.6262916, 0.04674955, -0.166623, 0.033498764, 0
2315, 813699101, -0.77948517, -0.0032457463, -0.015131866, 0.6262278, 0.05470648, -0.18368214, 0.008952141, 0
2318, 813749102, -0.77953917, -0.0033078834, -0.015092601, 0.6261612, 0.050875586, -0.16408953, 0.011466026, 0
2321, 813799103, -0.7795847, -0.0033617204, -0.0150225945, 0.626106, 0.05460699, -0.16576058, 0.023104668, 0
2323, 813832437, -0.7796147, -0.0033869867, -0.014969747, 0.6260698, 0.048742495, -0.17078374, 0.02423954, 0
2326, 813882438, -0.77966213, -0.0034331921, -0.0149148675, 0.62601185, 0.038948942, -0.18240124, 0.041184425, 0
2329, 813932439, -0.77969784, -0.003481766, -0.014876632, 0.62596786, 0.036337417, -0.14936642, 0.029593468, 0
2331, 813965773, -0.7797283, -0.0035290483, -0.014837213, 0.62593055, 0.04281768, -0.16432509, 0.038360596, 0
2334, 814015774, -0.7797771, -0.0035740547, -0.014782059, 0.62587076, 0.03931444, -0.17218386, 0.028798103, 0
2337, 814065775, -0.7798235, -0.0036126045, -0.01473407, 0.6258139, 0.04621589, -0.17394528, 0.035019875, 0
2340, 814115776, -0.7798565, -0.003657488, -0.014680209, 0.62577367, 0.039453935, -0.17487015, 0.03605938, 0
2344, 814182444, -0.77991784, -0.003650893, -0.014458957, 0.62570256, 0.025660118, -0.18504001, -0.01881218, 0
2346, 814215778, -0.7799537, -0.0036432182, -0.014362433, 0.62566006, 0.036235332, -0.17683722, 0.008562088, 0
2349, 814265779, -0.7799911, -0.0037547185, -0.01444241, 0.6256111, 0.03844499, -0.22812244, -0.067071915, 0
2352, 814315780, -0.78002864, -0.0038470204, -0.014467328, 0.6255631, 0.04559846, -0.15958282, 0.076841354, 0
2354, 814349114, -0.78005505, -0.0039608683, -0.014558408, 0.62552744, 0.040050205, -0.1703697, -0.0076961517, 0
2357, 814399115, -0.78009236, -0.004243322, -0.014909564, 0.62547094, -0.01567379, -0.078590594, 0.10286236, 0
2360, 814449116, -0.7801277, -0.0061196014, -0.018345779, 0.62532, 0.043003, -0.22797157, -0.01978302, 0
2362, 814482450, -0.78012824, -0.00810733, -0.02201192, 0.62517816, -0.02292884, -0.043292373, 0.10474396, 0
2365, 814532451, -0.7801864, -0.0085478565, -0.022719935, 0.6250743, 0.059513588, -0.23547702, -0.019909859, 0
2368, 814582452, -0.78025407, -0.008919117, -0.023282519, 0.62496406, 0.013890562, -0.18123247, -0.02038765, 0
2371, 814632453, -0.78028953, -0.008922411, -0.023157423, 0.6249242, 0.009373309, -0.15297699, 0.028980255, 0
2373, 814665787, -0.78032655, -0.008484279, -0.022218669, 0.6249186, -0.0049399855, -0.108505905, 0.09686947, 0
2376, 814715788, -0.77763516, -0.009227472, -0.023311125, 0.6282143, -0.3598624, 0.15007786, -0.044862747, 0
2379, 814765789, -0.7579719, -0.010063901, -0.022952482, 0.65180427, -0.55661774, -0.9934061, -0.020997047, 0
2381, 814799123, -0.73812914, -0.010899251, -0.022718934, 0.6741873, -0.63919526, -0.18607189, -0.087670326, 0
2384, 814849124, -0.7005483, -0.012464868, -0.022356747, 0.7131444, -0.4678284, -0.20204331, 0.17756271, 0
2387, 814899125, -0.656978, -0.013891027, -0.021655831, 0.7534694, -0.41917357, -0.71750295, 0.045986176, 0
2389, 814932459, -0.6243494, -0.014697514, -0.020874778, 0.78072673, -0.2736251, -0.6791305, -0.13039875, 0
2392, 814982460, -0.56207293, -0.015806187, -0.01916447, 0.82671344, 0.058399115, 0.13341002, -0.07890892, 0
2395, 815032461, -0.49510562, -0.017058175, -0.017668994, 0.8684847, -0.040252324, -0.28508902, 0.19286537, 0
2398, 815082462, -0.42843792, -0.018580003, -0.016466947, 0.9032291, -0.034685154, -0.033484194, -0.10716534, 0
2400, 815115796, -0.38060564, -0.02032633, -0.01591739, 0.924376, -0.038327597, -0.6558334, 0.036981583, 0
2403, 815165797, -0.30794883, -0.018683221, -0.012795105, 0.9511325, -0.66792476, -0.042328857, 0.21542263, 0
2406, 815215798, -0.24951285, -0.016775047, -0.010637338, 0.9681667, 0.44506294, -0.31441474, 0.03770542, 0
2408, 815249132, -0.21533212, -0.016442545, -0.009932941, 0.9763511, -0.24874091, 0.6985523, -0.06036949, 0
2411, 815299133, -0.19357176, -0.0166878, -0.009660095, 0.9808957, 2.130671, 0.8130822, 0.0041980743, 0
2414, 815349134, -0.19332428, -0.016756648, -0.00963132, 0.9809437, -0.4132919, -0.09609942, 0.023849487, 0
2416, 815382468, -0.19556856, -0.016713003, -0.0095947515, 0.9804998, -0.69509226, -0.11066745, 0.049218178, 0
2419, 815432469, -0.19899803, -0.0169754, -0.009667274, 0.9798042, 0.026159916, -0.7383812, 0.030343056, 0
2423, 815499137, -0.2030227, -0.016782178, -0.009520901, 0.97898304, -0.2372744, 0.030344043, -0.015244484, 0
2426, 815549138, -0.20480055, -0.01661997, -0.009424224, 0.9786164, -0.1738356, -0.018286044, 0.029468536, 0
2429, 815599139, -0.20508172, -0.016678423, -0.009354672, 0.9785571, -0.14414132, -0.14351806, 0.09217739, 0
2431, 815632473, -0.20512708, -0.016740976, -0.009349397, 0.97854656, -0.19220077, -0.088730216, -0.04988289, 0
2434, 815682474, -0.20519789, -0.016765913, -0.009299972, 0.9785317, -0.1592569, -0.060034197, 0.06924534, 0
2437, 815732475, -0.20526396, -0.0167703, -0.009225828, 0.97851855, -0.1769129, -0.07662404, 0.008556366, 0
2439, 815765809, -0.20530154, -0.016761772, -0.009183367, 0.97851115, -0.16497213, -0.07002119, 0.0021781921, 0
2442, 815815810, -0.20537622, -0.016774194, -0.009125614, 0.97849584, -0.17322989, -0.07023153, 0.021654129, 0
2445, 815865811, -0.20545758, -0.016772898, -0.009080469, 0.9784791, -0.16651341, -0.08028197, 0.017697334, 0
2448, 815915812, -0.20550643, -0.016779745, -0.0090331165, 0.9784694, -0.1673709, -0.06379746, 0.023875237, 0
2452, 815982480, -0.20559266, -0.01678604, -0.008940687, 0.9784519, -0.16384569, -0.06913862, 0.030611038, 0
2454, 816015814, -0.20564571, -0.01677987, -0.008897311, 0.9784411, -0.18025318, -0.073921606, 0.02006054, 0
2457, 816065815, -0.20571397, -0.016794756, -0.008820562, 0.97842723, -0.17299841, -0.07342882, 0.02728939, 0
2460, 816115816, -0.2057801, -0.01679394, -0.0087608155, 0.97841406, -0.17458378, -0.06969694, 0.025763512, 0
2462, 816149150, -0.20583175, -0.01679992, -0.0087156845, 0.97840345, -0.17378117, -0.062377878, 0.03727722, 0
2465, 816199151, -0.20590931, -0.016801368, -0.008637095, 0.9783878, -0.17353429, -0.07047989, 0.0082530975, 0
2468, 816249152, -0.20597115, -0.016807865, -0.008566031, 0.97837526, -0.17998469, -0.07808476, 0.018616676, 0
2470, 816282486, -0.20601982, -0.016802866, -0.008516398, 0.9783656, -0.175496, -0.061348032, 0.021354675, 0
2473, 816332487, -0.20608984, -0.016801657, -0.008470319, 0.9783513, -0.18143472, -0.06426892, 0.014104843, 0
2476, 816382488, -0.2061489, -0.016796552, -0.00840795, 0.9783394, -0.17795157, -0.06147911, 0.010281563, 0
2480, 816449156, -0.20623349, -0.016795838, -0.008331015, 0.9783223, -0.17751463, -0.05120561, 0.013961792, 0
2483, 816499157, -0.20628463, -0.016794933, -0.008263732, 0.9783121, -0.19102591, -0.04466719, 0.009250641, 0
2485, 816532491, -0.20632847, -0.016787646, -0.0082337195, 0.97830313, -0.18484513, -0.061210908, 0.011969566, 0
2488, 816582492, -0.20638593, -0.016791748, -0.0081833005, 0.97829133, -0.17340134, -0.055593237, 0.022592545, 0
2491, 816632493, -0.2064383, -0.0167771, -0.008125776, 0.9782811, -0.17497493, -0.061327584, 0.014641762, 0
2493, 816665827, -0.20647818, -0.016776802, -0.0080975145, 0.97827286, -0.18507433, -0.047046136, 0.016579628, 0
2496, 816715828, -0.20655453, -0.01676239, -0.008018024, 0.9782577, -0.16914967, -0.055999618, -0.02942276, 0
2499, 816765829, -0.2066122, -0.01675789, -0.007960104, 0.97824603, -0.19015543, -0.055008713, 0.02195549, 0
2502, 816815830, -0.20668665, -0.016768267, -0.007897442, 0.97823066, -0.17574078, -0.05364894, 0.015158653, 0
2504, 816849164, -0.20673077, -0.016765026, -0.00786123, 0.9782217, -0.16879258, -0.052024357, 0.016475677, 0
2507, 816899165, -0.20678163, -0.016714659, -0.007779843, 0.9782125, -0.1836903, -0.050280027, 0.029186249, 0
2510, 816949166, -0.20683767, -0.016693864, -0.0077161975, 0.97820145, -0.17275324, -0.061177354, 0.03786564, 0
2512, 816982500, -0.20689005, -0.016692407, -0.007683694, 0.97819066, -0.19118904, -0.05569162, 0.030442238, 0
2515, 817032501, -0.20695592, -0.016679887, -0.007624046, 0.9781775, -0.15405159, -0.046685386, 0.04170513, 0
2518, 817082502, -0.20702726, -0.016634446, -0.007550277, 0.97816354, -0.16932829, -0.057282433, 0.055109024, 0
2520, 817115836, -0.20707498, -0.016627777, -0.0075170947, 0.9781539, -0.18583414, -0.042227436, 0.044661522, 0
2523, 817165837, -0.20715946, -0.016621646, -0.007471212, 0.9781365, -0.16804622, -0.043929283, 0.033996582, 0
2526, 817215838, -0.20721626, -0.016689898, -0.007449127, 0.97812337, -0.18922868, -0.03253914, 0.035712242, 0
2529, 817265839, -0.20728645, -0.016980043, -0.007480797, 0.97810334, -0.18288773, -0.059691858, 0.053138733, 0
2531, 817299173, -0.20734288, -0.017682549, -0.007747173, 0.97807705, -0.21060613, -0.04616234, 0.0035676956, 0
2534, 817349174, -0.20675941, -0.018973121, -0.008220885, 0.9781725, -0.90219134, -0.40777162, 0.009305, 0
2537, 817399175, -0.19512151, -0.018795764, -0.007900024, 0.9805663, -0.51497215, -0.1573104, 0.016345978, 0
2539, 817432509, -0.1841284, -0.017573057, -0.007206423, 0.9827177, 0.063025326, 0.09364444, 0.03677559, 0
2542, 817482510, -0.17213786, -0.01762527, -0.006987872, 0.9848894, 0.069786154, 0.043408282, 0.022247314, 0
2545, 817532511, -0.1577611, -0.023096379, -0.008734983, 0.98716766, -0.9463256, -0.2454117, 0.13989258, 0
2547, 817565845, -0.14057367, -0.023785708, -0.008575735, 0.9897465, -0.46898836, -0.00516148, 0.15228558, 0
2550, 817615846, -0.112416506, -0.018318862, -0.0062624286, 0.99347156, 0.36647767, 0.06964979, 0.7411003, 0
2553, 817665847, -0.07588737, -0.019619595, -0.0061462726, 0.9969034, -1.4976363, -0.014477928, 0.13237762, 0
2555, 817699181, -0.03441906, -0.020865595, -0.00594306, 0.9991711, 0.37027258, 0.6761353, -0.0058193207, 0
2560, 817782516, 0.096688725, -0.021370683, -0.0045831744, 0.99507374, -1.3676351, 0.19204625, -0.17143917, 0
2562, 817815850, 0.15869159, -0.0208094, -0.004023768, 0.98709977, -1.0942285, 1.3686632, -0.3342371, 0
2565, 817865851, 0.25527304, -0.020817809, -0.0031097066, 0.9666388, -0.3655376, 0.8563516, -0.032084465, 0
2568, 817915852, 0.35795188, -0.020960618, -0.001967901, 0.9335018, -0.7703319, 0.779604, 0.044930458, 0
2570, 817949186, 0.41983193, -0.020745916, -0.0012041528, 0.9073631, 0.4524617, 1.731394, 0.16526031, 0
2573, 817999187, 0.4932265, -0.020400967, -3.2822991E-4, 0.8696605, -0.11457531, -0.26744443, 0.16699314, 0
2576, 818049188, 0.55601555, -0.020145362, 6.421473E-4, 0.8309264, 0.54916376, -0.17174873, 0.37439728, 0
2578, 818082522, 0.58746475, -0.020480981, 0.001473946, 0.8089881, 1.0961299, -0.7709962, 0.3376627, 0
2581, 818132523, 0.6169604, -0.020153167, 0.0019709007, 0.78673244, 0.57352024, -0.9468126, -0.0063972473, 0
2584, 818182524, 0.62918645, -0.020044174, 0.0022387966, 0.7769914, 0.5322242, -1.4822493, -0.0042495728, 0
2588, 818249192, 0.62871486, -0.022501351, 0.0036508609, 0.7773005, -1.3708832, -0.47284055, -0.09524155, 0
2591, 818299193, 0.6244627, -0.02871256, 0.0068985876, 0.78049505, 0.18393458, 0.20694222, 0.3027773, 0
2593, 818332527, 0.6183417, -0.02874901, 0.006895616, 0.78535205, -0.24403809, 0.049527273, -0.026647568, 0
2596, 818382528, 0.6094468, -0.028755633, 0.006729068, 0.79227555, 0.49296576, 0.05922839, 1.8692017E-4, 0
2599, 818432529, 0.6034943, -0.02410179, 0.0043480415, 0.79699, -0.21639189, -0.009965171, -0.17874527, 0
2601, 818465863, 0.59815633, -0.025392532, 0.0048484607, 0.80096126, 0.38828245, 0.38673815, 0.11444664, 0
2604, 818515864, 0.5884294, -0.028929632, 0.0063362448, 0.80800486, 0.49653268, 0.17215876, 0.4361925, 0
2607, 818565865, 0.5784775, -0.029115617, 0.0061304327, 0.8151544, -0.47331902, 0.5360534, 0.094646454, 0
2610, 818615866, 0.5736023, -0.028890423, 0.005940927, 0.81860167, -0.34433344, 0.51540965, 0.0060663223, 0
2612, 818649200, 0.57303363, -0.028835798, 0.005941216, 0.81900185, -0.13492745, 0.3150966, 0.004558563, 0
2616, 818715868, 0.57295895, -0.028762864, 0.0059920284, 0.81905615, -0.082930975, 0.18143629, 0.038394928, 0
2619, 818765869, 0.5727968, -0.028761398, 0.0060276752, 0.81916934, -0.14792746, 0.35765895, 0.03753662, 0
2622, 818815870, 0.57186514, -0.028682422, 0.005938306, 0.81982344, -0.048585728, 0.12873973, 0.059412003, 0
2624, 818849204, 0.57078123, -0.028898874, 0.005610411, 0.82057333, 0.17512351, 0.06555635, -0.094857216, 0
2627, 818899205, 0.5701913, -0.027946537, 0.0056026326, 0.82101625, 0.26878422, -0.34785616, -0.018063545, 0
2630, 818949206, 0.56654936, -0.027518038, 0.005459508, 0.823549, -0.06948662, 0.23600286, 0.123503685, 0
2632, 818982540, 0.5642455, -0.028359178, 0.0057575, 0.82509875, -0.045173597, 0.19136788, 0.007286072, 0
2635, 819032541, 0.5619857, -0.026641333, 0.005124626, 0.8267008, -0.008575294, 0.33056593, 0.024108887, 0
2638, 819082542, 0.56061596, -0.027782677, 0.0056592855, 0.8275894, -0.3097023, 0.29870233, -0.007843971, 0
2641, 819132543, 0.5604765, -0.028266687, 0.0058978996, 0.8276656, -0.0554628, 0.19453357, -0.03351116, 0
2643, 819165877, 0.560712, -0.028197391, 0.005899221, 0.82750857, 0.08815928, 0.063733056, 0.11229038, 0
2646, 819215878, 0.56079006, -0.020403422, 0.0027310215, 0.827701, 0.56363875, -0.34220675, -0.59167385, 0
2649, 819265879, 0.5607402, -0.019276338, 0.0022525457, 0.8277632, -0.026269978, 0.09044683, 0.26934433, 0
2651, 819299213, 0.5607095, -0.019291943, 0.0023007079, 0.8277834, -0.08839629, 0.21760093, -0.06276035, 0
2654, 819349214, 0.56064487, -0.019248266, 0.0023693894, 0.82782805, -0.06462352, 0.17608522, 0.043589592, 0
2657, 819399215, 0.5605923, -0.019189902, 0.002364155, 0.82786494, -0.06887413, 0.16343072, 0.03855896, 0
2659, 819432549, 0.56055474, -0.019166425, 0.0023862564, 0.82789093, -0.063955486, 0.17357692, 0.0588789, 0
2662, 819482550, 0.56048906, -0.019113896, 0.0024126254, 0.82793665, -0.07049415, 0.18384227, 0.013622284, 0
2665, 819532551, 0.56043106, -0.01906661, 0.0024531386, 0.8279768, -0.07859104, 0.18305208, 0.020924568, 0
2668, 819582552, 0.56038296, -0.01903931, 0.0024720489, 0.8280099, -0.064465724, 0.17855291, 0.032649994, 0
2670, 819615886, 0.5603433, -0.019002488, 0.0024954635, 0.82803756, -0.05784814, 0.20286125, 0.061841965, 0
2673, 819665887, 0.56029433, -0.01895942, 0.0025278907, 0.82807165, -0.06657561, 0.18888837, 0.022346497, 0
2676, 819715888, 0.5602235, -0.01887112, 0.0025632547, 0.8281214, -0.057048872, 0.18220025, 0.032262802, 0
2678, 819749222, 0.5601946, -0.018833729, 0.0025869883, 0.8281417, -0.051517606, 0.189232, 0.019072533, 0
2681, 819799223, 0.5601337, -0.018761225, 0.002615286, 0.8281845, -0.06366525, 0.21291752, 0.024969101, 0
2684, 819849224, 0.560079, -0.018730061, 0.0026451577, 0.8282221, -0.069667146, 0.18320675, 0.03784275, 0
2686, 819882558, 0.56004095, -0.018703248, 0.0026608787, 0.82824856, -0.0522071, 0.19302683, 0.019852638, 0
2689, 819932559, 0.5599958, -0.018652756, 0.0026855115, 0.8282801, -0.04692582, 0.18660387, 0.031697273, 0
2692, 819982560, 0.5599356, -0.018575123, 0.0026831839, 0.82832235, -0.053532504, 0.16899842, 0.042243004, 0
2696, 820049228, 0.5598524, -0.01849358, 0.0027235057, 0.82838035, -0.047237664, 0.17110817, 0.01830864, 0
2699, 820099229, 0.55979073, -0.019234281, 0.0031210918, 0.8284039, -0.08659205, 0.20129934, 0.025421143, 0
2701, 820132563, 0.5597467, -0.018941479, 0.0030465159, 0.8284405, -0.05597963, 0.18043745, 0.01880455, 0
2704, 820182564, 0.5598825, -0.018452832, 0.0028815852, 0.8283605, -0.23943216, 0.60919833, -0.037047386, 0
2707, 820232565, 0.5678801, -0.018425275, 0.0030870256, 0.82289815, -0.29631272, 1.0637985, 0.009152412, 0
2709, 820265899, 0.5807898, -0.018251726, 0.0033489394, 0.81384104, -0.09153697, 1.0840191, 0.07412243, 0
2712, 820315900, 0.6092211, -0.018133555, 0.0038903938, 0.7927825, -0.12517145, 1.0307412, 0.07363796, 0
2715, 820365901, 0.6473493, -0.01777573, 0.004458301, 0.76197195, 0.71949536, 0.77429134, 0.06662464, 0
2717, 820399235, 0.6764256, -0.01912701, 0.006010863, 0.7362368, 0.032017637, 0.6185726, -0.18519592, 0
2720, 820449236, 0.71952116, -0.025389237, 0.011682734, 0.6939066, 0.43364516, 0.24397895, -0.38877487, 0
2724, 820515904, 0.7747794, -0.026164463, 0.014717328, 0.6315172, 0.348408, 0.23983225, -0.3392191, 0
2727, 820565905, 0.81392014, -0.025202867, 0.016054668, 0.5802062, 1.4472656, 0.65599936, -0.25085735, 0
2730, 820615906, 0.8547064, -0.024698747, 0.018076885, 0.51820695, 0.38488102, 0.40187773, -0.10416412, 0
2732, 820649240, 0.8808719, -0.024099125, 0.019294515, 0.47234517, 0.8895722, -0.45005795, -0.81833076, 0
2735, 820699241, 0.9147508, -0.021911584, 0.019297019, 0.40295997, 0.44410947, -1.1608549, -0.09886742, 0
2738, 820749242, 0.93841386, -0.020683317, 0.020432236, 0.3442852, -0.10163162, -0.7548873, 0.16042233, 0
2740, 820782576, 0.9508049, -0.02009294, 0.021383878, 0.30839488, -0.111834526, -0.61591303, 0.14267635, 0
2743, 820832577, 0.965285, -0.01898743, 0.022072984, 0.25956807, -0.24875164, -0.6191279, 0.14188194, 0
2746, 820882578, 0.97609586, -0.017954156, 0.022574387, 0.21541347, -0.007910556, -0.23564982, -0.14949131, 0
2749, 820932579, 0.9837379, -0.017207509, 0.023516627, 0.17722571, -0.45076904, -0.11175416, 0.020396233, 0
2753, 820999247, 0.9872808, -0.016643923, 0.023957342, 0.1562817, -0.8249607, 0.2685989, 0.026508331, 0
2755, 821032581, 0.98731726, -0.016599817, 0.023962673, 0.1560549, 0.2054151, -0.038760107, 0.038116455, 0
2758, 821082582, 0.9872369, -0.016508093, 0.023888629, 0.15658323, 0.32532853, -0.13728246, -0.016450882, 0
2761, 821132583, 0.9875441, -0.010911821, 0.008394114, 0.15673326, 0.44937724, 0.2996764, 0.053733826, 0
2763, 821165917, 0.9874873, -0.01100831, 0.00936783, 0.15702942, 0.16795462, 0.059611905, -0.10980606, 0
2766, 821215918, 0.9874705, -0.011093889, 0.009903335, 0.1570953, 0.17799401, 0.07600749, -0.063877106, 0
2769, 821265919, 0.9874591, -0.0110903, 0.009946713, 0.15716474, 0.14532226, 0.05324159, 0.050538063, 0
2772, 821315920, 0.98745173, -0.011015139, 0.009954945, 0.15721504, 0.17740512, 0.08040332, 0.0048666, 0
2774, 821349254, 0.9874435, -0.01097494, 0.009970226, 0.15726884, 0.15345693, 0.0703613, 0.019042015, 0
2777, 821399255, 0.9874356, -0.010891331, 0.0099861575, 0.15732343, 0.17839013, 0.08786522, 0.011664391, 0
2780, 821449256, 0.9874267, -0.010813747, 0.00999562, 0.1573846, 0.16694194, 0.08301109, 0.034270287, 0
2782, 821482590, 0.9874186, -0.010762159, 0.009986846, 0.15743935, 0.18046243, 0.07421337, 0.009366035, 0
2785, 821532591, 0.9874067, -0.010680214, 0.009985589, 0.1575195, 0.1800294, 0.06686678, 0.0179739, 0
2788, 821582592, 0.9873972, -0.010608989, 0.009981523, 0.15758434, 0.17081828, 0.07556818, 0.03789425, 0
2790, 821615926, 0.9873892, -0.010576377, 0.009971546, 0.15763707, 0.17718995, 0.068695575, 0.015794754, 0
2793, 821665927, 0.9873778, -0.010526906, 0.009977438, 0.15771149, 0.17511919, 0.06369608, 0.032417297, 0
2796, 821715928, 0.98736805, -0.01046962, 0.009987229, 0.15777588, 0.1606793, 0.056340892, 0.011343002, 0
2799, 821765929, 0.9873578, -0.010413975, 0.009974171, 0.1578442, 0.17912845, 0.06861964, 0.034132004, 0
2801, 821799263, 0.9873516, -0.010379453, 0.00997159, 0.15788598, 0.16964462, 0.06045334, 0.026532173, 0
2804, 821849264, 0.98734576, -0.010312234, 0.009973953, 0.15792617, 0.1500181, 0.061211452, 0.030968666, 0
2807, 821899265, 0.98733854, -0.0102569675, 0.009961677, 0.15797608, 0.1695063, 0.058219567, -0.009993553, 0
2809, 821932599, 0.9873313, -0.0102202045, 0.009959689, 0.15802336, 0.15410638, 0.06206913, 0.029715538, 0
2812, 821982600, 0.9873212, -0.010156635, 0.009936979, 0.15809195, 0.16784549, 0.05434772, 0.032632828, 0
2815, 822032601, 0.9873134, -0.010094035, 0.009919178, 0.15814602, 0.15808743, 0.06167685, 0.034812927, 0
2817, 822065935, 0.9873152, -0.010042803, 0.0098729655, 0.15814039, 0.1402721, 0.04693921, 0.048599243, 0
2820, 822115936, 0.98757446, -0.009968033, 0.009911985, 0.1565163, -0.21828797, -0.12532307, 0.050248146, 0
2823, 822165937, 0.98793006, -0.009885022, 0.009978894, 0.15425625, 0.2061302, 0.06405475, 0.03366089, 0
2826, 822215938, 0.98834574, -0.009795454, 0.010012499, 0.15157388, 0.9612664, 0.08733367, 0.046770096, 0
2828, 822249272, 0.9896039, -0.009687191, 0.009962352, 0.1431409, 1.380634, -3.3167924E-4, 0.005979538, 0
2832, 822315940, 0.9944338, -0.009371577, 0.010514489, 0.1044099, 0.5841313, 0.30672583, 0.09212685, 0
2835, 822365941, 0.99767613, -0.0090715885, 0.010943727, 0.06662358, 0.41097578, -0.3069932, -0.22100067, 0
2838, 822415942, 0.99954575, -0.008671878, 0.011232481, 0.02655201, 0.8381708, -0.18882763, 0.031061172, 0
2840, 822449276, 0.99987346, -0.008356244, 0.011208945, -0.007458958, 1.1863258, -0.35724086, -0.07259369, 0
2843, 822499277, 0.9970926, -0.007610218, 0.01202502, -0.074847475, 1.094671, -0.75475705, 0.19612598, 0
2846, 822549278, 0.9878387, -0.0066859736, 0.012677888, -0.15481387, 0.39306292, 0.05286135, -0.33619308, 0
2848, 822582612, 0.97830087, -0.006043537, 0.013026372, -0.20668663, -0.73527014, -1.4148649, -0.17294502, 0
2851, 822632613, 0.95880294, -0.005064737, 0.013633208, -0.28369656, -0.07834571, -0.73235106, 0.48041058, 0
2854, 822682614, 0.93260455, -0.0038812254, 0.014417316, -0.36058864, -0.71425724, -0.96170586, -0.16197872, 0
2857, 822732615, 0.9005241, -0.0029004263, 0.014471601, -0.43455344, -0.6563584, -0.2270817, -0.66449165, 0
2861, 822799283, 0.8598373, -0.0011522869, 0.015195783, -0.5103387, -0.9744996, -0.1625133, -0.016692162, 0
2863, 822832617, 0.83922887, -3.7661073E-4, 0.015396379, -0.54355854, 0.15752752, 0.795311, -0.13763905, 0
2866, 822882618, 0.8123462, 5.7879044E-4, 0.015606986, -0.58296466, -0.3408719, 0.10042213, -0.43380833, 0
2869, 822932619, 0.7922888, 0.0014290361, 0.015654843, -0.60994214, -0.85550815, 0.6898329, 0.37384796, 0
2871, 822965953, 0.7817735, 0.0017783075, 0.015606728, -0.62336326, 0.06894851, -0.04848317, 0.51157093, 0
2874, 823015954, 0.7682826, 0.0023462044, 0.015673945, -0.639913, 0.11455247, 0.7936601, -0.08427143, 0
2877, 823065955, 0.7649456, 0.0023708164, 0.0154953655, -0.64390266, -0.08350409, -0.04880342, -0.037958145, 0
2879, 823099289, 0.7649658, 0.002417473, 0.015497688, -0.6438784, 0.05242945, -0.18739328, -0.026431084, 0
2882, 823149290, 0.7650279, 0.0025194148, 0.015568605, -0.6438027, 0.014803431, -0.14650287, 0.07997799, 0
2885, 823199291, 0.76506865, 0.0025915736, 0.015597827, -0.6437532, 0.057627186, -0.15120998, 0.040643692, 0
2889, 823265959, 0.76512486, 0.002641127, 0.015569568, -0.64368683, 0.057764117, -0.1657825, 0.049218178, 0
2892, 823315960, 0.7651755, 0.0026716697, 0.015540698, -0.6436273, 0.047273662, -0.16312021, 0.033540726, 0
2894, 823349294, 0.76520723, 0.0027060774, 0.015525971, -0.6435897, 0.04098587, -0.15311673, 0.039826393, 0
2897, 823399295, 0.7652613, 0.0027591726, 0.015491319, -0.64352596, 0.043503277, -0.16169515, 0.02552414, 0
2900, 823449296, 0.76531, 0.0028038912, 0.015461148, -0.6434686, 0.051625513, -0.15482289, 0.0026865005, 0
2902, 823482630, 0.76533264, 0.0028177323, 0.015424923, -0.6434426, 0.043956358, -0.1639117, 0.007843018, 0
2905, 823532631, 0.76537937, 0.0028422396, 0.015387857, -0.64338756, 0.04329106, -0.15612553, 0.019558907, 0
2908, 823582632, 0.7654314, 0.0028765593, 0.015353595, -0.64332646, 0.037379112, -0.1701054, 0.020237923, 0
2911, 823632633, 0.7654809, 0.0029051634, 0.015321302, -0.64326835, 0.030322703, -0.15272291, 0.013936043, 0
2913, 823665967, 0.76551, 0.002925943, 0.015302536, -0.64323384, 0.03849884, -0.15407658, 0.010240555, 0
2916, 823715968, 0.7655538, 0.002958146, 0.015267545, -0.6431825, 0.037530523, -0.15250795, 0.060996056, 0
2919, 823765969, 0.7655984, 0.00300054, 0.015221373, -0.6431303, 0.04462365, -0.15626428, 0.030747414, 0
2921, 823799303, 0.7656232, 0.0030325463, 0.015198289, -0.64310116, 0.04489922, -0.15372846, 0.0037145615, 0
2924, 823849304, 0.7656703, 0.0030683326, 0.015177583, -0.64304537, 0.027218109, -0.14940353, 0.014875412, 0
2927, 823899305, 0.7657202, 0.003099784, 0.015139494, -0.6429866, 0.04157867, -0.15116747, 0.032082558, 0
2929, 823932639, 0.765744, 0.0031184193, 0.015106398, -0.64295906, 0.03897443, -0.15206674, 0.028567314, 0
2932, 823982640, 0.76577824, 0.0031503502, 0.015068085, -0.6429191, 0.03122731, -0.15953077, 0.027522087, 0
2935, 824032641, 0.7658257, 0.003183089, 0.015024562, -0.6428634, 0.04418622, -0.15522954, 0.018680573, 0
2938, 824082642, 0.76586694, 0.0032096768, 0.014996416, -0.64281476, 0.045284968, -0.14618672, 0.03394413, 0
2940, 824115976, 0.76589525, 0.003232824, 0.014951624, -0.642782, 0.03686854, -0.17082551, 0.03826809, 0
2943, 824165977, 0.7659445, 0.0032615336, 0.014913127, -0.64272386, 0.042428263, -0.1604507, 0.019460678, 0
2946, 824215978, 0.76599, 0.0032816764, 0.014855762, -0.64267105, 0.03329241, -0.15791948, 0.010886192, 0
2948, 824249312, 0.7660174, 0.0032969392, 0.0148253115, -0.642639, 0.038095534, -0.1523763, 0.03045845, 0
2951, 824299313, 0.76605964, 0.0033274314, 0.0147715695, -0.6425898, 0.028168248, -0.15362194, 0.020388603, 0
2954, 824349314, 0.7662156, 0.0033347334, 0.014708438, -0.6424052, 0.28037724, -0.6789409, -0.03852749, 0
2956, 824382648, 0.7676646, 0.0033732525, 0.014734363, -0.6406722, -0.2463607, 0.42549336, -1.7738342E-4, 0
2959, 824432649, 0.76807857, 0.0034045624, 0.014679633, -0.6401768, 0.009776247, -0.122768596, 0.030015945, 0
2962, 824482650, 0.77002317, 0.0033205564, 0.014579462, -0.6378394, -0.09141933, 0.05941406, -0.0010547638, 0
2965, 824532651, 0.7726432, 0.0032734112, 0.014569172, -0.6346636, -0.1225079, 0.3596554, 0.088103294, 0
2969, 824599319, 0.785487, 0.003907943, 0.016474772, -0.6186452, -0.4791235, 1.1245311, 0.15485096, 0
2971, 824632653, 0.7985137, 0.0026235653, 0.014761803, -0.60178864, -0.12970546, 0.8973671, 0.0690546, 0
2974, 824682654, 0.82661587, 0.0013416382, 0.014073811, -0.56258744, -0.6603133, 1.2516592, 0.15074062, 0
2977, 824732655, 0.8644038, -1.5854936E-4, 0.013480257, -0.50261587, -1.2217011, 0.19633523, 0.078679085, 0
2979, 824765989, 0.89064354, -0.0011967425, 0.013025646, -0.45451212, -0.7557202, -0.20795129, -0.10513115, 0
2982, 824815990, 0.9267539, -0.0025735877, 0.012398367, -0.37545332, -0.16597864, 0.25469834, 0.7082529, 0
2985, 824865991, 0.9581219, -0.0040626437, 0.011353472, -0.28610384, 0.85282516, -0.12525032, 0.46213818, 0
2988, 824915992, 0.981076, -0.0053088027, 0.01086537, -0.1932415, -0.5829015, -0.1956178, 0.0995388, 0
2990, 824949326, 0.9918564, -0.0062856614, 0.009796459, -0.12682243, -0.13526899, -2.6284554, 0.8662205, 0
2993, 824999327, 0.99910176, -0.0073566567, 0.008508183, -0.04083713, 0.9618738, -0.42941394, -0.41949558, 0
2997, 825065995, 0.999106, -0.0083738975, 0.0081757065, 0.04060159, 0.6531877, -1.4262717, 0.5296259, 0
3000, 825115996, 0.9946854, -0.009568752, 0.009574405, 0.10205834, -0.4118533, 1.5073155E-5, 0.18812752, 0
3002, 825149330, 0.9897414, -0.009895005, 0.008694131, 0.14225589, 1.2117466, -1.3887936, 0.08562851, 0
3005, 825199331, 0.9826942, -0.009620019, 0.006215199, 0.18487719, 1.7761111, 1.1385759, 0.57934, 0
3008, 825249332, 0.9803069, -0.009887908, 0.006431711, 0.19712345, 0.5826491, -0.10257828, 0.06853104, 0
3010, 825282666, 0.98018694, -0.009860225, 0.006367193, 0.19772246, 0.49223605, 1.0585463, 0.13336849, 0
3013, 825332667, 0.9793118, -0.009989864, 0.006409879, 0.20200437, -0.5308358, 0.18244137, 0.17427921, 0
3016, 825382668, 0.9774426, -0.01000471, 0.0060634525, 0.21087234, 0.45331568, 0.5430863, 0.061553955, 0
3019, 825432669, 0.9763438, -0.010051825, 0.0060458095, 0.21590167, 0.97549057, 0.23285124, -0.016832352, 0
3021, 825466003, 0.9763316, -0.010042333, 0.005985562, 0.21595809, 0.13371591, 0.07470006, -0.020921707, 0
3025, 825532671, 0.97631127, -0.010047338, 0.0059736227, 0.21605015, 0.14665535, 0.070370816, -0.024332047, 0
3028, 825582672, 0.9762976, -0.010077104, 0.006029425, 0.21610795, 0.11418216, 0.063550025, 0.046154976, 0
3031, 825632673, 0.97628385, -0.010052394, 0.0060341763, 0.21617185, 0.12295322, 0.055909593, 0.03230381, 0
3033, 825666007, 0.97627646, -0.0100690955, 0.00605814, 0.2162036, 0.1044325, 0.047256522, 0.01543045, 0
3036, 825716008, 0.97626173, -0.010078739, 0.0060828906, 0.21626821, 0.13102989, 0.062311634, 0.015834808, 0
3039, 825766009, 0.97624665, -0.010100366, 0.0060860734, 0.21633503, 0.10584804, 0.055565003, 0.015829086, 0
3041, 825799343, 0.97623676, -0.010093365, 0.0060816593, 0.21638021, 0.11065623, 0.053177144, 0.011867523, 0
3044, 825849344, 0.9762221, -0.0100957425, 0.0060759624, 0.21644682, 0.1059507, 0.064871855, 0.027551651, 0
3047, 825899345, 0.976209, -0.010095885, 0.006086868, 0.21650586, 0.12313449, 0.058646593, -0.01103878, 0
3050, 825949346, 0.9761924, -0.010078339, 0.006069067, 0.2165815, 0.102893926, 0.044226203, 0.04407215, 0
3052, 825982680, 0.9761836, -0.01007236, 0.006044619, 0.21662234, 0.111478776, 0.048621345, 0.008746147, 0
3055, 826032681, 0.9761679, -0.0100643365, 0.006026838, 0.21669307, 0.10224445, 0.047687206, 0.06307316, 0
3058, 826082682, 0.97615427, -0.010054887, 0.0060054716, 0.21675569, 0.10213909, 0.04345877, 0.028028488, 0
3060, 826116016, 0.9761463, -0.010050036, 0.005975043, 0.21679321, 0.10113827, 0.050523527, 0.032589912, 0
3063, 826166017, 0.9761347, -0.01003266, 0.0059497748, 0.21684659, 0.11468577, 0.05232976, 0.044909477, 0
3066, 826216018, 0.97611713, -0.010005254, 0.005925301, 0.2169277, 0.109386116, 0.049697068, -0.0025806427, 0
3068, 826249352, 0.97610694, -0.010012292, 0.0059025977, 0.21697333, 0.109250896, 0.05590034, 0.013014793, 0
3071, 826299353, 0.97609234, -0.010013747, 0.0058786594, 0.21703951, 0.11266773, 0.048828524, 0.020558357, 0
3074, 826349354, 0.9760775, -0.009990482, 0.0058572376, 0.21710773, 0.10571573, 0.049948886, 0.030083656, 0
