sep=															
DeviceTag:	Xsens_3														
FirmwareVersion:	2.2.1														
AppVersion:	2023.0.0														
StartTime:	2023-07-17 14:57:19.000 +0200														
© Movella Technologies B. V. 2005-2023															
PacketCounter	SampleTimeFine	Quat_W	Quat_X	Quat_Y	Quat_Z	Acc_X	Acc_Y	Acc_Z	Gyr_X	Gyr_Y	Gyr_Z	Mag_X	Mag_Y	Mag_Z	Status
0	1113944863	1.47E-17	-1.56E-16	0.707106781	0.707106781	0	0	0	0	0	0	0.969726563	-0.009033203	-0.463867188	0
1	1113961530	0.00028431	0.000323743	0.707544581	0.706668579	-9.147574847	-0.74836377	-3.954992805	-0.732896699	0.391866418	-4.624411583	0.96944926	-0.008980643	-0.467084829	0
2	1113978197	0.000512259	0.000658772	0.70798333	0.706228652	-9.129237375	-0.739666426	-3.961809162	-0.755175493	0.171188519	-4.58104906	0.966441735	-0.010081582	-0.466243115	0
3	1113994864	0.000640721	0.00093781	0.708367137	0.705843261	-9.078182319	-0.768102143	-3.925396288	-1.259637766	-0.158146606	-4.094974723	0.968784886	-0.008215578	-0.464740041	0
4	1114011531	0.000896655	0.001240277	0.70869447	0.70551386	-9.035261435	-0.807070637	-3.828351475	-0.568721413	-0.350094828	-3.473900759	0.967771213	-0.009169544	-0.46577243	0
5	1114028198	0.001375915	0.001491274	0.708732048	0.705474852	-9.03080418	-0.799098717	-3.817459593	0.971254246	-0.335059383	-3.406967738	0.966699324	-0.008272327	-0.467907043	0
6	1114044865	0.001931612	0.001667972	0.708734529	0.705470661	-9.048507295	-0.792062666	-3.878764197	1.351965245	-0.431874719	-2.869910401	0.970117209	-0.009051765	-0.467874645	0
7	1114061532	0.002414906	0.001835263	0.708738252	0.705465017	-9.080566758	-0.746532955	-3.888874592	0.882141367	-0.460445234	-2.56388492	0.969096496	-0.010188012	-0.467682923	0
8	1114078199	0.002793819	0.00194659	0.708761687	0.705439775	-9.115083952	-0.794675734	-3.845049074	0.342401004	-0.422078846	-2.300360312	0.96806063	-0.008936215	-0.468545413	0
9	1114094866	0.003217363	0.002063428	0.708804822	0.705394298	-9.099223984	-0.807498989	-3.833977458	0.529944548	-0.35872944	-2.245212228	0.967291946	-0.008013426	-0.467156261	0
10	1114111533	0.003613829	0.002153996	0.70887539	0.705321191	-9.023712585	-0.842516213	-3.811973749	0.285023043	-0.245071882	-1.827866409	0.967485609	-0.009264981	-0.467221	0
11	1114128200	0.003926394	0.002189958	0.708985827	0.705208398	-8.90437908	-0.849088802	-3.797956474	-0.591196893	-0.148114981	-1.08995942	0.969642161	-0.007723315	-0.469531896	0
12	1114144867	0.004138975	0.0021702	0.709167498	0.705024552	-8.799728561	-0.896911386	-3.777055585	-0.954988288	-0.054536484	0.012548293	0.968087769	-0.00747588	-0.467999007	0
13	1114161534	0.004252427	0.002087079	0.709245846	0.70494531	-8.774315538	-0.891532352	-3.757183751	-0.067045801	-0.076482347	1.053423727	0.970404122	-0.009360729	-0.469420803	0
14	1114178201	0.00430524	0.001929013	0.709109346	0.705082747	-8.825947765	-0.83437494	-3.784539433	1.531748508	-0.305195681	1.671694232	0.969585435	-0.007317652	-0.469390837	0
15	1114194868	0.004401197	0.00168581	0.708970432	0.705222458	-8.904605219	-0.811605314	-3.863351453	1.858835407	-1.004089057	1.952016976	0.970529435	-0.009385416	-0.470376498	0
16	1114211535	0.004536343	0.001302541	0.708831614	0.705361941	-8.957512668	-0.788374977	-3.943942005	1.500627412	-2.063077612	2.170117187	0.97183453	-0.009338466	-0.466242889	0
17	1114228202	0.004790574	0.000842695	0.708752792	0.705440161	-8.961948419	-0.798584522	-4.001081192	0.967961328	-3.220782457	1.837656026	0.970122073	-0.010910272	-0.470148921	0
18	1114244869	0.005170435	0.000280977	0.708705774	0.705485162	-8.939173493	-0.783298133	-4.065936465	0.23466229	-4.593842452	1.439601444	0.969528102	-0.010098051	-0.468136398	0
19	1114261536	0.005681166	-0.000313316	0.708787736	0.705398874	-8.904104217	-0.786558046	-4.104730705	-0.703113318	-5.619682972	0.992196372	0.968121718	-0.009867239	-0.473474835	0
20	1114278203	0.006297465	-0.000905814	0.709033716	0.705145879	-8.885460002	-0.775319548	-4.081004688	-1.958944714	-6.347045266	0.537809009	0.970639507	-0.009269094	-0.471314132	0
21	1114294870	0.006977551	-0.001449645	0.709370959	0.704799302	-8.766482323	-0.771807276	-4.041491986	-2.857315211	-6.590157449	-0.08589289	0.970470425	-0.013336955	-0.471569749	0
22	1114311537	0.00762446	-0.001871343	0.709617952	0.704542921	-8.705677618	-0.732250999	-4.046164564	-2.847630806	-6.053821057	-0.946140458	0.973216004	-0.009876548	-0.474003568	0
23	1114328204	0.008338292	-0.002106274	0.70991942	0.704230398	-8.735725759	-0.685624433	-4.067087874	-2.534888181	-5.531616311	-1.899417965	0.972903116	-0.010959623	-0.475144818	0
24	1114344871	0.009132938	-0.002168198	0.71022233	0.70391486	-8.891140334	-0.607329138	-4.123333218	-2.774590382	-5.21309428	-3.340853009	0.974185276	-0.014101796	-0.474172618	0
25	1114361538	0.01003158	-0.002084412	0.71066449	0.70345647	-9.079262876	-0.576935012	-4.203223523	-4.248808473	-5.090560911	-4.781233447	0.974565831	-0.013169334	-0.476969764	0
26	1114378205	0.011048406	-0.001915977	0.711348017	0.702750496	-9.246290115	-0.58068599	-4.247107713	-6.524519693	-5.291194638	-5.911717902	0.972012032	-0.011815088	-0.477099963	0
27	1114394872	0.012123315	-0.001714081	0.712226779	0.701842648	-9.363858777	-0.643578271	-4.251909608	-8.561615222	-5.42973965	-6.565213263	0.974086973	-0.014103968	-0.47780534	0
28	1114411539	0.013154902	-0.001555974	0.713277458	0.700756588	-9.39805413	-0.730429344	-4.238865514	-10.23380638	-5.39716937	-6.22088875	0.976943726	-0.0150977	-0.479728956	0
29	1114428206	0.014055545	-0.001394819	0.714474593	0.6995188	-9.374948436	-0.823402844	-4.157953291	-11.69501736	-4.694430343	-5.630756416	0.976224211	-0.015267071	-0.47777607	0
30	1114444873	0.014669577	-0.001241302	0.715767746	0.698183212	-9.3913678	-0.907190803	-4.094665416	-12.9712417	-3.27251281	-4.316126962	0.97394359	-0.015227238	-0.480160266	0
31	1114461540	0.014928308	-0.001024798	0.717089147	0.696820816	-9.439981986	-1.015258207	-4.047056743	-12.92850055	-1.096603832	-2.700877239	0.97651537	-0.014199812	-0.482554149	0
32	1114478207	0.014812008	-0.000697761	0.718381299	0.695491501	-9.511645913	-1.079872775	-4.045371305	-12.62693026	1.391715144	-1.318908939	0.979063129	-0.016800048	-0.480864092	0
33	1114494874	0.014325298	-0.000265041	0.719766001	0.694068887	-9.506391587	-1.146163777	-4.134500967	-13.9280879	3.811646443	-0.116183292	0.975105327	-0.015528347	-0.484243407	0
34	1114511541	0.013569692	0.000244837	0.721454185	0.692329157	-9.500023405	-1.169691817	-4.209120377	-16.86256029	5.606459628	0.933118824	0.976834539	-0.016245702	-0.48108012	0
35	1114528208	0.012647742	0.000866527	0.723401313	0.690311396	-9.474248086	-1.139393894	-4.150245969	-19.60862264	6.998985341	1.216301744	0.978143085	-0.018508153	-0.479718897	0
36	1114544875	0.011601589	0.001598111	0.72547318	0.688150793	-9.468360858	-1.1555241	-4.107149842	-20.99105547	8.178598755	1.311107804	0.974951799	-0.021258142	-0.482138433	0
37	1114561542	0.010530684	0.002384955	0.727535556	0.685985008	-9.378618687	-1.192985257	-4.07384635	-21.3575942	8.573615715	1.077529347	0.97736725	-0.019092211	-0.481442377	0
38	1114578209	0.00943973	0.003258754	0.729698168	0.683696465	-8.981275301	-1.254405668	-4.034699561	-22.24000962	9.150890873	0.913190436	0.973783045	-0.022306657	-0.482860811	0
39	1114594876	0.008237474	0.00415001	0.731900882	0.681348677	-8.604576119	-1.299036142	-3.886923195	-23.13481681	9.755517533	1.284552035	0.974790268	-0.022174938	-0.481693659	0
40	1114611543	0.007089765	0.005098295	0.734031526	0.679059247	-8.358735347	-1.256743144	-3.713905638	-22.50710755	9.736408865	0.866575232	0.975055483	-0.024012507	-0.483590757	0
41	1114628210	0.006163208	0.006069783	0.736215555	0.676691827	-8.311884089	-1.264919549	-3.787161755	-23.28676017	8.73627996	-0.23712153	0.971055682	-0.026071163	-0.480802657	0
42	1114644877	0.005622655	0.007016242	0.738782421	0.673884035	-8.496952983	-1.265874341	-4.058953365	-27.46105608	6.678105685	-1.87711596	0.973222784	-0.027954893	-0.482409191	0
43	1114661544	0.005725396	0.007880719	0.742287107	0.670011168	-8.833389628	-1.240366098	-4.374341546	-37.32388927	3.056861493	-4.393313522	0.974941159	-0.029377883	-0.481964095	0
44	1114678211	0.00656766	0.008548844	0.747084005	0.664642214	-9.115216114	-1.330351886	-4.490902322	-51.29878637	-1.607018335	-6.881975668	0.975305363	-0.034353457	-0.480508728	0
45	1114694878	0.008077361	0.008935467	0.753173532	0.657711597	-9.068065421	-1.494648895	-4.534912235	-65.42029672	-6.258569393	-8.481693679	0.975560964	-0.041307867	-0.480339955	0
46	1114711545	0.010108016	0.009163613	0.760040851	0.649732069	-8.799570466	-1.559694977	-4.20491128	-74.53433113	-9.654158991	-9.986286534	0.979871975	-0.042312057	-0.476806575	0
47	1114728212	0.012585619	0.009169278	0.766935361	0.641535408	-8.45959702	-1.599616133	-3.792587084	-75.99483426	-13.00598116	-10.79847709	0.983765959	-0.049845612	-0.476623536	0
48	1114744879	0.015356812	0.009208524	0.773033365	0.634112599	-8.21484162	-1.594296386	-3.66145625	-68.43235471	-14.48976231	-12.14892172	0.984672936	-0.050701177	-0.478302265	0
49	1114761546	0.018222746	0.009278282	0.778175257	0.627714197	-8.117231073	-1.489909287	-3.707774211	-58.96566781	-15.00187692	-12.63376322	0.989973301	-0.05342278	-0.477760026	0
50	1114778213	0.021344808	0.009431143	0.78292175	0.621682384	-8.163873005	-1.450717499	-3.956477474	-53.5355231	-15.91315689	-13.32212981	0.993689323	-0.062692032	-0.476277294	0
51	1114794880	0.024836073	0.009622395	0.787486569	0.615756025	-8.318120759	-1.432666232	-4.143622496	-52.23005728	-17.79498102	-15.05461584	0.997135469	-0.063369091	-0.477647063	0
52	1114811547	0.028904532	0.009697908	0.792064583	0.609675467	-8.36952413	-1.459897401	-4.214245855	-53.19260377	-21.44023809	-16.85620951	1.003613988	-0.068957099	-0.477700144	0
53	1114828214	0.033953208	0.009790628	0.796928379	0.60303937	-8.487438106	-1.664746743	-4.501751085	-57.49383482	-26.65505485	-21.10900768	1.00212073	-0.071389802	-0.478797519	0
54	1114844881	0.039976389	0.009955664	0.802420801	0.59533489	-8.697718177	-1.740696558	-4.67658984	-66.02807076	-31.55161434	-25.68376858	1.008954309	-0.075980403	-0.478155496	0
55	1114861548	0.046680243	0.010124094	0.80894336	0.585942913	-8.751344931	-1.878482585	-4.55101084	-79.62735463	-34.97241801	-28.80769724	1.015373212	-0.080954512	-0.477709333	0
56	1114878215	0.054244865	0.010384923	0.816085345	0.575286326	-8.656675628	-1.980024882	-4.394523176	-89.2235277	-39.14924591	-33.06421602	1.024712186	-0.08949552	-0.474034825	0
57	1114894882	0.062731128	0.010855741	0.823130312	0.564272494	-8.811685105	-1.999813002	-4.012999137	-90.87267517	-43.5273541	-37.93462071	1.031813871	-0.0939167	-0.475186482	0
58	1114911549	0.071354765	0.011251481	0.830009147	0.553052183	-8.988988417	-2.287419444	-3.925308102	-91.48450538	-44.61188172	-38.05369319	1.039395823	-0.100746862	-0.472624167	0
59	1114928216	0.080011869	0.011670082	0.837311991	0.540712992	-8.72428783	-2.518654566	-4.1622548	-99.53414304	-44.3563391	-38.7065769	1.045327473	-0.11077623	-0.47030349	0
60	1114944883	0.089449152	0.012243392	0.845060775	0.526992633	-8.802748465	-2.270147751	-3.980956585	-109.1901073	-47.90063277	-43.07722683	1.054404472	-0.117743975	-0.465913552	0
61	1114961550	0.099313017	0.012861318	0.852863317	0.512440898	-9.077165545	-2.08124887	-3.527963064	-114.2757539	-50.07087684	-45.28699071	1.066519185	-0.126450541	-0.467161689	0
62	1114978217	0.109025947	0.013428569	0.860688197	0.497140669	-9.101723368	-2.290878073	-3.540963852	-118.808009	-49.16711829	-44.90032588	1.074672996	-0.131798438	-0.460243038	0
63	1114994884	0.118782437	0.014137977	0.868659434	0.480751119	-9.067266946	-2.389388954	-3.678043076	-125.703679	-48.61727298	-46.60708748	1.083533905	-0.143306026	-0.460494851	0
64	1115011551	0.128502408	0.014711977	0.877091171	0.462581633	-9.088242262	-2.311828568	-3.598147269	-138.0177034	-48.20919194	-46.9943306	1.091004402	-0.151881647	-0.45443792	0
65	1115028218	0.137890113	0.015341855	0.885675054	0.443092139	-9.192722655	-2.096787929	-3.282892719	-146.4250969	-45.66274204	-47.34848308	1.101480912	-0.160231385	-0.449856095	0
66	1115044885	0.14659403	0.015926235	0.893788004	0.423555839	-9.236570871	-1.799910321	-3.036675404	-145.2791238	-41.94988318	-45.03918354	1.111487162	-0.173073464	-0.444839914	0
67	1115061552	0.154483888	0.016485782	0.900878138	0.405316577	-9.128912811	-1.614707769	-2.959968644	-134.2825834	-38.04396413	-41.31744449	1.112927718	-0.179654698	-0.43718729	0
68	1115078219	0.161438621	0.016886461	0.906689001	0.389316676	-9.048456353	-1.347342307	-3.075634178	-116.9157547	-34.16637581	-35.50840017	1.122514968	-0.188408123	-0.433248637	0
69	1115094886	0.166896578	0.01705754	0.910965374	0.376824443	-9.002233958	-1.009250923	-3.11847874	-91.01455649	-27.44895485	-26.39705213	1.128072571	-0.189972225	-0.430525812	0
70	1115111553	0.170812018	0.01712185	0.913739558	0.368252789	-8.852741905	-1.224904694	-3.153431108	-62.48505499	-20.15262101	-17.48377431	1.133219921	-0.194921401	-0.428313214	0
71	1115128220	0.173546536	0.017115682	0.915109029	0.363543834	-8.74326485	-1.513949557	-3.398354273	-34.59496365	-14.9364731	-9.725981416	1.136293498	-0.197301343	-0.426760499	0
72	1115144887	0.175631004	0.01691296	0.915777701	0.360858566	-8.700920953	-1.85779257	-4.027416413	-20.27223391	-12.36245828	-4.544182989	1.140808339	-0.200506671	-0.427065416	0
73	1115161554	0.177652963	0.016824607	0.916624839	0.357708348	-8.711409845	-1.682850662	-4.596815954	-23.51164378	-11.42272976	-5.624710909	1.144478334	-0.203017428	-0.427781134	0
74	1115178221	0.179408815	0.016827922	0.917601029	0.354312926	-8.874220825	-1.145452466	-4.467118856	-25.23367282	-9.397114842	-5.8224493	1.143051749	-0.205888506	-0.428649947	0
75	1115194888	0.181227008	0.016841416	0.917972871	0.352418708	-8.960034969	-0.911062473	-4.34536829	-14.26774672	-10.73120254	-4.301170366	1.147745809	-0.20763753	-0.424308225	0
76	1115211555	0.183311468	0.016949059	0.917752325	0.351909513	-9.112167523	-0.99190397	-4.644660248	-3.979391639	-13.11266303	-3.947439903	1.148082915	-0.208989397	-0.423434776	0
77	1115228222	0.185243747	0.017077764	0.917172036	0.352403975	-9.207537267	-0.812254541	-4.688727008	3.290389136	-12.72128241	-2.539572834	1.153556887	-0.212400523	-0.425897693	0
78	1115244889	0.186824858	0.017241898	0.916038125	0.354504361	-9.346472749	-0.549482794	-4.457972218	14.87306432	-11.36385166	0.005066682	1.155348254	-0.211603761	-0.430750866	0
79	1115261556	0.187664482	0.017260444	0.913956326	0.359399434	-9.586207566	-0.327340591	-4.212446837	34.72188318	-8.626007673	6.122248437	1.159524178	-0.21283377	-0.43134722	0
80	1115278223	0.187795414	0.017029214	0.911167241	0.366356586	-9.611726379	-0.44674632	-4.07295447	49.23079845	-5.94445523	11.91803307	1.155609029	-0.208911406	-0.436133612	0
81	1115294890	0.187494899	0.016638512	0.907839144	0.374695758	-9.302439297	-0.636821711	-3.923239707	59.12415168	-4.485343631	15.64017489	1.157866195	-0.209211033	-0.441320285	0
82	1115311557	0.186905547	0.016127653	0.904496826	0.383003535	-8.999190644	-0.84805683	-4.162600126	58.8671405	-2.987454613	17.03067014	1.159689882	-0.207980668	-0.442600273	0
83	1115328224	0.185791233	0.015561319	0.901755792	0.389969172	-8.959600335	-0.519494237	-4.319805826	48.93871269	1.043573428	17.0632313	1.157382039	-0.20837486	-0.448829106	0
84	1115344891	0.184430384	0.014945714	0.899776484	0.395176338	-9.07903105	-0.295904277	-4.105237392	35.98562664	3.57603782	15.80288418	1.157406189	-0.208460876	-0.451957046	0
85	1115361558	0.183153611	0.014364307	0.898610354	0.398431742	-9.273795144	-0.337193795	-4.432528859	21.76951139	4.378388418	12.89378448	1.159116925	-0.209829175	-0.450965411	0
86	1115378225	0.181976304	0.013951066	0.897983535	0.400394259	-9.624467757	0.130941318	-4.10846468	12.53907475	5.00714345	9.93516623	1.157119162	-0.210915586	-0.454285108	0
87	1115394892	0.180653124	0.013365545	0.897096888	0.402992537	-10.02730956	0.395337676	-3.725283591	17.02500783	5.055000485	12.06012671	1.158461809	-0.211295742	-0.456111337	0
88	1115411559	0.178745277	0.012511377	0.895669365	0.407025772	-10.07622941	0.315355384	-3.646135386	27.14901635	7.159763191	16.93706518	1.155328382	-0.210655343	-0.458534299	0
89	1115428226	0.176413713	0.011590857	0.89403067	0.411646711	-9.916626274	0.207833258	-3.639898461	31.36196897	9.325732442	19.11524238	1.15558147	-0.212179746	-0.458608485	0
90	1115444893	0.173522586	0.010661861	0.89234188	0.416535961	-9.706522323	0.262287884	-3.389214024	33.23258254	12.70479043	20.96521219	1.152924686	-0.212174867	-0.462705042	0
91	1115461560	0.170242449	0.009748336	0.890440813	0.421945064	-9.523998069	0.349779436	-2.972740414	37.11992927	14.89829746	22.48396798	1.154781394	-0.212732435	-0.465363885	0
92	1115478227	0.166750609	0.008840232	0.888479171	0.427458592	-9.488718406	0.184373683	-3.063664269	37.99913004	16.20923932	23.07442398	1.150866264	-0.210411077	-0.466264527	0
93	1115494894	0.163375648	0.008022753	0.887090625	0.431641351	-9.654228986	0.237946544	-3.587604065	28.31819024	16.56775458	20.59362951	1.150487388	-0.210700936	-0.46961534	0
94	1115511561	0.160090934	0.007318629	0.886314412	0.4344699	-10.23527421	0.61856263	-3.416998315	18.40566434	17.14944341	18.05278328	1.145888299	-0.210307713	-0.472119098	0
95	1115528228	0.156879415	0.006514463	0.885415729	0.437476168	-10.95823573	0.66245713	-3.214574895	19.7920684	16.31900607	18.50952857	1.146136454	-0.212386826	-0.473323821	0
96	1115544895	0.153690191	0.005411459	0.884044228	0.441379478	-11.36179723	0.575611132	-3.414937499	26.40385511	14.82691276	21.07963302	1.14298925	-0.211306036	-0.472757343	0
97	1115561562	0.151010136	0.00422162	0.882682611	0.445027555	-11.139183	0.436504701	-3.662240418	24.75993295	11.57626412	19.66898676	1.144301313	-0.213831497	-0.47222141	0
98	1115578229	0.149006779	0.003072977	0.881538293	0.447970729	-10.47911841	0.530248709	-3.369486197	19.88575906	7.905049498	16.51580795	1.142060974	-0.212166199	-0.477836185	0
99	1115594896	0.147426189	0.001905275	0.880303598	0.450918468	-9.628616248	0.652026268	-3.056266731	20.20689418	5.252599633	15.22413695	1.141069657	-0.212526347	-0.477483597	0
100	1115611563	0.14608229	0.000679965	0.879087234	0.453723635	-8.831561032	0.582901138	-3.093533624	19.27059312	3.719982784	14.58754863	1.139428702	-0.211628277	-0.47913975	0
101	1115628230	0.14500372	-0.00065583	0.87828121	0.455626609	-8.382397204	0.43998995	-3.142486828	12.46589508	2.216855933	13.42895326	1.141722226	-0.211418832	-0.481252446	0
102	1115644897	0.144353051	-0.001979067	0.877631838	0.457078371	-8.254631194	0.442141394	-2.884576746	9.300276025	-0.158559658	11.48269631	1.140366333	-0.21395656	-0.477248487	0
103	1115661564	0.143920573	-0.003271397	0.876969786	0.458475911	-8.224271088	0.289759827	-2.90052728	9.07861543	-1.363048848	10.48033628	1.143382401	-0.212188748	-0.480670415	0
104	1115678231	0.143382323	-0.004423903	0.876478939	0.459572202	-8.257180234	0.089388386	-3.106166268	6.885806024	-0.09382498	9.604172487	1.142365809	-0.214435575	-0.482239529	0
105	1115694898	0.142664079	-0.005473902	0.876266684	0.460188762	-8.424811472	-0.050973272	-3.029949252	3.232170993	1.588870732	9.022503995	1.142209961	-0.214993863	-0.481414797	0
106	1115711565	0.141787457	-0.006489531	0.876183401	0.460604874	-8.783464217	-0.106890255	-2.960691179	1.661687471	2.795533725	9.074491447	1.144108773	-0.216428578	-0.481830728	0
107	1115728232	0.140554698	-0.007554448	0.876006943	0.461301576	-9.29275828	-0.154694356	-2.941535442	3.597686313	4.747165343	10.73671168	1.145310156	-0.215036547	-0.484822783	0
108	1115744899	0.139049571	-0.008766279	0.875885884	0.461965678	-9.704681176	-0.407116028	-3.027076909	3.083811628	6.028089217	12.41045472	1.141320639	-0.213703418	-0.485375844	0
109	1115761566	0.137358478	-0.01006884	0.876065876	0.46210372	-10.00976292	-0.53117118	-3.204024996	-1.130802238	7.176764476	13.00039335	1.139592155	-0.216810184	-0.485159785	0
110	1115778233	0.135585397	-0.011547992	0.876569523	0.461637428	-10.08833317	-0.567607893	-3.326990261	-5.967634338	7.430465284	13.71191307	1.140759347	-0.21904242	-0.48330219	0
111	1115794900	0.133953113	-0.013112463	0.87736596	0.460557921	-10.03759182	-0.490289427	-3.226752363	-10.65701491	6.587598676	13.16505787	1.141305775	-0.218066885	-0.484146812	0
112	1115811567	0.132506642	-0.014584383	0.878246186	0.459252568	-9.868432341	-0.510883987	-3.127028883	-12.17562785	5.871684436	11.77939574	1.140785024	-0.219260605	-0.481928692	0
113	1115828234	0.131427947	-0.015968612	0.879160515	0.457764663	-9.571353381	-0.678982625	-3.331065675	-13.2641068	3.997869997	9.898699533	1.143436481	-0.218059799	-0.481620872	0
114	1115844901	0.130722655	-0.017182283	0.880228897	0.4558656	-9.41929515	-0.643391138	-3.299205664	-16.03920214	2.407738667	7.295906718	1.143082848	-0.220622241	-0.478406139	0
115	1115861568	0.130208994	-0.018246871	0.880938721	0.454598328	-9.267943117	-0.545182667	-3.116983408	-10.93452324	1.502508722	6.39532465	1.148287004	-0.222226167	-0.481589466	0
116	1115878235	0.129871096	-0.01907084	0.881075238	0.454396553	-9.062058246	-0.560056728	-3.177135138	-2.449546058	0.851084306	5.403564057	1.147441364	-0.218917075	-0.480634573	0
117	1115894902	0.12968734	-0.019691586	0.881137695	0.454301438	-9.087447425	-0.657983759	-3.523128839	-1.368013797	0.531220834	3.785178044	1.148133971	-0.223629671	-0.483521019	0
118	1115911569	0.129668456	-0.020140698	0.881537571	0.453510699	-9.085298028	-0.553234686	-3.498404083	-6.461208967	0.2846285	1.560559366	1.152194811	-0.222354912	-0.482217311	0
119	1115928236	0.129878892	-0.020437059	0.882118192	0.45230664	-9.06740996	-0.489598595	-3.489137947	-9.357440982	-0.514380416	-0.484488106	1.150720407	-0.22458981	-0.483413346	0
120	1115944903	0.130174732	-0.020566181	0.882724873	0.451030342	-9.084258441	-0.382261459	-3.381259985	-9.710763013	-0.487081525	-1.84598992	1.152542545	-0.222224869	-0.480344272	0
121	1115961570	0.130500811	-0.020547087	0.883176042	0.450052702	-9.164130613	-0.336723208	-3.299703082	-7.271897471	-0.289541095	-2.57070457	1.157291901	-0.224596057	-0.482859621	0
122	1115978237	0.13080087	-0.020492954	0.883643316	0.449049732	-9.277675683	-0.377406064	-3.433344037	-7.438741819	0.012262998	-2.75200383	1.156190228	-0.225608932	-0.48210213	0
123	1115994904	0.131019998	-0.020370918	0.88407249	0.448145756	-9.322916357	-0.207715055	-3.447525785	-6.663088556	0.713094047	-2.841806522	1.159009049	-0.225254005	-0.483053453	0
124	1116011571	0.13132534	-0.020168119	0.884248485	0.447718124	-9.38132269	-0.079547524	-3.362251093	-2.889513188	0.29541492	-3.16485803	1.158332171	-0.223349407	-0.484722314	0
125	1116028238	0.13155142	-0.019935942	0.884157596	0.447841631	-9.334780085	-0.094911696	-3.462017137	1.313431347	0.728358549	-2.6032217	1.163074757	-0.227072805	-0.486449601	0
126	1116044905	0.131936715	-0.019644897	0.883891577	0.44826606	-9.199187782	-0.253908695	-3.568680158	3.772773992	-0.158761703	-3.19144986	1.163968987	-0.225054609	-0.484664862	0
127	1116061572	0.132296392	-0.019336873	0.88351066	0.448923896	-9.071853989	-0.2800495	-3.452001143	5.56859443	-0.015697248	-3.012860761	1.164450801	-0.226015359	-0.487438425	0
128	1116078239	0.132730281	-0.018982266	0.88298291	0.449848338	-8.989166443	-0.263561141	-3.382031141	7.702922886	-0.408045664	-3.286279213	1.167326789	-0.224141185	-0.488633344	0
129	1116094906	0.133170713	-0.018585468	0.882405539	0.450866506	-8.875548987	-0.410684996	-3.420157148	8.474152477	-0.336726921	-3.493332712	1.166321594	-0.226228537	-0.491024664	0
130	1116111573	0.133704809	-0.017962338	0.882106435	0.451318752	-8.628813202	-0.505045835	-3.674413842	4.40316861	-0.012512113	-5.725145412	1.170605177	-0.222830681	-0.490515137	0
131	1116128240	0.134213301	-0.017032605	0.881981575	0.451447873	-8.691841677	-0.294900437	-3.64411256	2.186318529	1.2025468	-7.829432291	1.170670919	-0.222039793	-0.492319621	0
132	1116144907	0.134696381	-0.015876112	0.881680207	0.45193456	-8.961692491	-0.245697232	-3.540688861	5.117626591	1.930865566	-8.792283995	1.170247044	-0.219347852	-0.491653644	0
133	1116161574	0.135196207	-0.014615731	0.881141191	0.452878093	-9.323777152	-0.518413512	-3.789831711	8.735090381	1.986651061	-9.046716271	1.174972421	-0.21840452	-0.491405309	0
134	1116178241	0.135711367	-0.013292653	0.880936738	0.453162437	-9.768528888	-0.67229161	-4.273665024	3.763337161	2.333702374	-10.1292202	1.172213778	-0.221316734	-0.49488451	0
135	1116194908	0.136450065	-0.012047561	0.881409372	0.452055035	-9.869795665	-0.651789413	-4.559442892	-6.825023801	1.223174281	-11.71697768	1.175186182	-0.222923996	-0.495385484	0
136	1116211575	0.137303016	-0.010820628	0.882272704	0.450139613	-9.592741521	-0.578581019	-4.355562506	-12.93922904	0.74282351	-12.75537843	1.174777822	-0.220917377	-0.495907282	0
137	1116228242	0.138544746	-0.00956128	0.883149573	0.448063352	-8.979918484	-0.598213349	-4.383752856	-13.89190489	-1.5389621	-14.31390281	1.182314264	-0.222466706	-0.495170792	0
138	1116244909	0.140022312	-0.008301367	0.884259794	0.445431764	-8.532123775	-0.522554672	-4.610566928	-17.96073993	-2.825086828	-15.59072142	1.184384057	-0.223187402	-0.497756731	0
139	1116261576	0.141679836	-0.00695586	0.885752051	0.441952197	-8.413831334	-0.320648308	-4.422495753	-24.18769294	-3.402812412	-17.50461457	1.185902985	-0.223424978	-0.494964065	0
140	1116278243	0.14331605	-0.005728838	0.886974689	0.438980173	-8.679035176	-0.213498091	-4.199745285	-20.38212334	-3.928275039	-16.22411088	1.185822204	-0.223209219	-0.497226691	0
141	1116294910	0.144704798	-0.00468059	0.887797375	0.436868898	-9.083719547	-0.223524786	-4.182157355	-14.09826267	-3.355011908	-13.54464289	1.187281724	-0.226352189	-0.49547777	0
142	1116311577	0.145776432	-0.003828293	0.88826669	0.435564992	-9.51804298	-0.340770563	-4.351585042	-8.302337302	-2.359234047	-10.60420786	1.192480383	-0.223578893	-0.495825183	0
143	1116328244	0.146669603	-0.00327956	0.888726103	0.434330734	-9.572629899	-0.40005256	-4.462830446	-8.145366598	-2.211166313	-8.164037138	1.191622308	-0.222568229	-0.496178828	0
144	1116344911	0.147436326	-0.002967257	0.889426273	0.432636833	-9.316746796	-0.32566827	-4.345323203	-11.90461375	-1.942519525	-6.827023235	1.194267174	-0.224246482	-0.496231566	0
145	1116361578	0.147987498	-0.002856444	0.890144512	0.430969012	-8.945948658	-0.248943147	-4.221764742	-11.997432	-1.233065749	-4.945980095	1.195253177	-0.220857239	-0.498550732	0
146	1116378245	0.148275643	-0.002943537	0.89072418	0.429669762	-8.719146894	-0.175223036	-3.987332127	-9.526117403	-0.374537347	-2.598406152	1.193896647	-0.223457439	-0.494289083	0
147	1116394912	0.148281486	-0.0032647	0.891420255	0.42821942	-8.580103591	-0.135048394	-4.013414207	-11.02847767	0.75548905	-0.512264243	1.19778429	-0.222347163	-0.495879328	0
148	1116411579	0.148194619	-0.003698077	0.892113684	0.426799547	-8.566838575	-0.138453613	-3.926810406	-10.9368912	0.962263181	0.454429674	1.197654864	-0.220793261	-0.496753746	0
149	1116428246	0.148169576	-0.004189356	0.892588674	0.425809446	-8.727207944	-0.158091863	-3.752491043	-7.705340131	0.179685046	1.047034287	1.196472212	-0.222529007	-0.494144187	0
150	1116444913	0.148230287	-0.004857158	0.892715106	0.425516074	-8.812502331	-0.286714478	-3.857416645	-2.574777041	-1.208175326	2.574483478	1.198667317	-0.222235557	-0.495650514	0
151	1116461580	0.148283125	-0.005600403	0.892947164	0.42500131	-8.764059656	-0.409800039	-4.128384633	-4.31148956	-1.292705964	2.813795681	1.196110231	-0.222836036	-0.497580106	0
152	1116478247	0.148230555	-0.00641579	0.893207107	0.424461547	-8.720756761	-0.472363276	-4.04632559	-4.619258453	-0.857105495	3.52857268	1.198919781	-0.222114904	-0.493819258	0
153	1116494914	0.148182305	-0.007383024	0.893332949	0.424197758	-8.725140158	-0.609370704	-3.915869066	-2.683722493	-1.47478676	4.730783669	1.19777697	-0.220794507	-0.493539811	0
154	1116511581	0.148147122	-0.008405641	0.893334831	0.424187051	-8.777032624	-0.808405253	-4.179268966	-0.824106993	-1.845768806	5.29827133	1.201126057	-0.222703073	-0.493192209	0
155	1116528248	0.148058638	-0.009455283	0.89325464	0.424364685	-8.792379562	-0.893262674	-4.276172267	0.537525364	-1.697984038	5.829667639	1.197272749	-0.220366557	-0.495678968	0
156	1116544915	0.14804308	-0.010556627	0.893261109	0.424330526	-8.811733765	-0.932581737	-4.333459674	-1.070223723	-2.254710313	5.729851863	1.200172396	-0.219461614	-0.494023615	0
157	1116561582	0.148107173	-0.011625976	0.893377906	0.424034219	-8.790406896	-0.824541145	-4.335888713	-2.970922822	-2.592587673	5.045683464	1.198986854	-0.221407465	-0.494824266	0
158	1116578249	0.148202779	-0.012562762	0.893514185	0.423686811	-8.798334842	-0.852296109	-4.386577701	-3.208237005	-2.41816067	4.099848335	1.199348815	-0.223044872	-0.490434282	0
159	1116594916	0.148312129	-0.013262167	0.893690919	0.423254259	-8.844318913	-0.884155278	-4.435200541	-3.610890727	-1.815647666	2.526187345	1.198805281	-0.220782266	-0.49183779	0
160	1116611583	0.148466722	-0.013917629	0.89386565	0.422809805	-9.082955616	-0.880287292	-4.107588041	-3.63466068	-2.00579457	2.129515064	1.197897944	-0.220434136	-0.494357552	0
161	1116628250	0.148567818	-0.014575947	0.893977694	0.422515122	-9.203158947	-0.935956281	-3.986693105	-2.545139489	-1.749505835	2.474467821	1.197630418	-0.221966953	-0.492151323	0
162	1116644917	0.148506489	-0.015188131	0.894059773	0.42234141	-9.190132428	-0.954478893	-3.905645319	-1.691702107	-0.63951046	2.805082606	1.196940664	-0.22250967	-0.489140895	0
163	1116661584	0.148283344	-0.015744751	0.893919179	0.422696883	-9.066198398	-0.906871642	-3.594159726	2.239874666	0.345384949	3.513387306	1.199255974	-0.22133641	-0.489153978	0
164	1116678251	0.147943347	-0.016217258	0.893447673	0.423793608	-8.925640791	-1.017913703	-3.5351992	7.822908563	1.06522966	4.142089118	1.198471978	-0.222214743	-0.490055029	0
165	1116694918	0.147495833	-0.016700556	0.892868279	0.425149747	-8.793416173	-1.195403985	-3.824978667	9.696836076	1.62748105	4.819322816	1.194841208	-0.221746463	-0.490958911	0
166	1116711585	0.147091983	-0.017085805	0.892536156	0.425970932	-8.723122707	-1.094311429	-3.796082717	5.780727464	1.83216208	3.550615856	1.194676852	-0.220777306	-0.490290747	0
167	1116728252	0.146922296	-0.017294615	0.892330922	0.426450773	-8.65530218	-1.04467287	-3.733853458	3.509078659	0.994797769	1.447749211	1.193857997	-0.218645878	-0.491517101	0
168	1116744919	0.147110368	-0.01735429	0.892138033	0.426786948	-8.731534686	-0.970492326	-3.806470731	2.774815673	-0.769652686	-0.640150721	1.193921249	-0.220474153	-0.489624656	0
169	1116761586	0.147723903	-0.017250345	0.892151509	0.426551003	-8.884840412	-1.03778102	-3.918362531	-1.130562163	-2.764177392	-3.476390631	1.194344532	-0.223735146	-0.489416802	0
170	1116778253	0.14853257	-0.017041168	0.89222708	0.426120303	-9.072816614	-1.105081779	-3.862256526	-2.385692614	-3.61923261	-4.879844048	1.195806285	-0.222879509	-0.487157724	0
171	1116794920	0.149255425	-0.016856684	0.892407494	0.425496809	-9.119752792	-0.918622727	-3.764427326	-3.920439729	-3.080374223	-4.662387741	1.195392516	-0.224526731	-0.489201424	0
172	1116811587	0.150310146	-0.016625781	0.892716343	0.424485541	-9.113781729	-1.00636546	-3.750009228	-6.59473431	-4.887875642	-6.320012457	1.198397654	-0.224028712	-0.489155069	0
173	1116828254	0.151645504	-0.016309777	0.893323856	0.422741197	-9.238690854	-0.903998108	-3.80017967	-11.85206697	-6.130431377	-8.437048982	1.193126548	-0.228202253	-0.488993149	0
174	1116844921	0.153287677	-0.016007819	0.894219804	0.420258944	-9.499919613	-0.701370704	-3.815747504	-17.20722887	-7.831285738	-10.03607311	1.195204048	-0.229724376	-0.487498014	0
175	1116861588	0.154941501	-0.01579205	0.895284352	0.417384321	-9.610750081	-0.743771986	-3.775807852	-20.19421656	-8.007134923	-9.976424773	1.19903941	-0.230380674	-0.484200903	0
176	1116878255	0.156534401	-0.015624538	0.89624688	0.414722058	-9.421977675	-0.670613588	-3.846461193	-18.65250636	-7.84119422	-9.269630777	1.199934709	-0.234550312	-0.484461969	0
177	1116894922	0.158240571	-0.015527574	0.897047874	0.412339579	-9.055824786	-0.573822641	-3.731614506	-16.5293553	-8.876050954	-8.844302635	1.198627697	-0.234642789	-0.486288194	0
178	1116911589	0.16006269	-0.015335836	0.897702961	0.410212313	-8.895778961	-0.553787731	-3.635545865	-14.422564	-9.449897262	-9.471151922	1.201445274	-0.232727003	-0.48230778	0
179	1116928256	0.161753804	-0.01506269	0.898230439	0.408400418	-8.716864646	-0.446516118	-3.671804295	-12.03696753	-8.51250307	-9.251182187	1.199017773	-0.231468454	-0.481660418	0
180	1116944923	0.163351987	-0.014651027	0.898354118	0.407506263	-8.74040907	-0.437962684	-3.59219556	-5.084332146	-7.90317124	-8.793849057	1.201544562	-0.234836437	-0.482389823	0
181	1116961590	0.16466383	-0.014214394	0.898247933	0.40722773	-8.972491929	-0.445339506	-3.672332738	-0.633912136	-6.256554433	-7.442057162	1.201662793	-0.234639373	-0.477693708	0
182	1116978257	0.165666374	-0.013793972	0.898113031	0.407133101	-9.366261346	-0.459683472	-3.732602686	0.539244882	-4.400156603	-6.275707388	1.204422488	-0.235297702	-0.482875546	0
183	1116994924	0.166329041	-0.01344464	0.897913424	0.407314835	-9.856083915	-0.472388099	-3.903551497	2.319127737	-2.537253848	-4.576229834	1.202372149	-0.236293706	-0.479694402	0
184	1117011591	0.166698523	-0.013320201	0.897757053	0.407512514	-10.10113069	-0.595541845	-3.958000909	2.017470085	-1.293748413	-2.366720099	1.204385958	-0.235246954	-0.482599706	0
185	1117028258	0.166909146	-0.01340849	0.897644783	0.407670691	-10.07187418	-0.725891722	-4.012083832	1.394249639	-0.847126436	-0.667186808	1.200088348	-0.23624019	-0.481314969	0
186	1117044925	0.166854846	-0.013708088	0.897545007	0.407902573	-9.704602025	-0.760772709	-3.879680625	1.547513385	0.228393927	1.461244915	1.202612027	-0.236901973	-0.478514525	0
187	1117061592	0.166769863	-0.014151545	0.897323535	0.408409132	-9.151777362	-0.723990314	-3.713422403	3.413873702	-0.087265877	2.764379652	1.202604448	-0.235471953	-0.478919859	0
188	1117078259	0.166761932	-0.014675685	0.897351362	0.408332728	-8.835688989	-0.838436735	-3.696017784	-0.969028658	-0.554598399	2.354523338	1.202032792	-0.23510282	-0.478713009	0
189	1117094926	0.166807739	-0.015032271	0.898014871	0.406839651	-8.80621501	-0.857986476	-3.742318118	-11.30041434	0.168664586	-0.511710108	1.197263835	-0.239151815	-0.479459413	0
190	1117111593	0.166686849	-0.015268068	0.898909333	0.404900471	-8.89306944	-0.675424214	-3.458797453	-14.58483929	1.752287619	-1.317401737	1.202675154	-0.238907896	-0.476759892	0
191	1117128260	0.16644719	-0.015456092	0.89946794	0.403749758	-9.119889351	-0.585801907	-3.188273789	-8.734707062	2.330265313	-0.34488971	1.201423428	-0.238770134	-0.475325079	0
192	1117144927	0.166211471	-0.015737636	0.899638552	0.403455758	-9.37044363	-0.897200599	-3.49130778	-2.466028961	1.725712604	1.238236504	1.199744475	-0.237858146	-0.476346799	0
193	1117161594	0.166022679	-0.016051812	0.899778426	0.403209119	-9.642325089	-0.98092134	-3.702499751	-2.125236507	1.336474298	1.376452376	1.198564719	-0.239620007	-0.475581018	0
194	1117178261	0.165951001	-0.016394284	0.899961858	0.402815277	-9.757995433	-0.905965985	-3.632104804	-3.182802087	0.584524965	1.065088	1.198293907	-0.240396032	-0.473414544	0
195	1117194928	0.165919354	-0.016850778	0.900000465	0.402723208	-9.614767622	-0.934289911	-3.335080941	-1.043657757	-0.088795313	2.026799902	1.197311276	-0.239702269	-0.472141996	0
196	1117211595	0.165922669	-0.017360512	0.900073687	0.402536507	-9.390892934	-1.162278987	-3.446147396	-1.788776527	-0.38852212	2.155040002	1.19652814	-0.242903083	-0.473179774	0
197	1117228262	0.16592186	-0.017796006	0.90032487	0.401955677	-9.246299253	-1.203169038	-3.451784562	-4.64647298	0.022015377	1.25709333	1.193717753	-0.238932774	-0.472832588	0
198	1117244929	0.165831316	-0.018279068	0.900552956	0.401460114	-9.159472222	-1.151550905	-3.419713836	-4.132203826	0.451129278	1.921775174	1.193545877	-0.242372549	-0.469896381	0
199	1117261596	0.1659038	-0.018708496	0.900618387	0.401263557	-9.078823675	-1.116019206	-3.470703634	-1.760570127	-0.538229133	1.52147267	1.19257254	-0.241350982	-0.475115449	0
200	1117278263	0.166006371	-0.019031814	0.900738862	0.400935378	-9.051961268	-1.133203692	-3.61744198	-2.611707603	-0.370183306	0.642832502	1.195083427	-0.242536818	-0.473728132	0
201	1117294930	0.165902556	-0.019250823	0.900872262	0.400668086	-8.870004145	-1.027571095	-3.513547571	-2.188205758	1.226818947	0.654605886	1.198010916	-0.242599971	-0.471391162	0
202	1117311597	0.165804181	-0.019400438	0.900799732	0.400864615	-8.695141715	-0.969375104	-3.396267864	1.324910132	1.219346557	0.782106079	1.197618625	-0.241375229	-0.47148324	0
203	1117328264	0.16594564	-0.019318781	0.900893589	0.400599014	-8.913801713	-0.944188143	-3.945973664	-1.705696779	0.508964245	-1.846811229	1.195740575	-0.242194417	-0.471791918	0
204	1117344931	0.166191719	-0.019111745	0.901252125	0.399699463	-9.30058096	-0.823331425	-4.065266857	-6.209378269	0.412171538	-3.660122279	1.193903477	-0.244002728	-0.470596123	0
205	1117361598	0.166296703	-0.019003341	0.901670116	0.398717044	-9.568765032	-0.908096002	-4.07754773	-7.018809681	1.062585588	-2.758944144	1.19597569	-0.243332242	-0.466709124	0
206	1117378265	0.166524211	-0.018977843	0.902161008	0.397511061	-9.779141662	-0.616280118	-4.159449856	-8.684565031	0.12428466	-2.840124011	1.192451856	-0.24665051	-0.464245827	0
207	1117394932	0.166831265	-0.019069081	0.902894729	0.395707983	-9.679124444	-0.458613189	-3.988858462	-13.17269706	-0.494362642	-3.059456264	1.192405549	-0.245676143	-0.471435092	0
208	1117411599	0.16723617	-0.019190415	0.903363601	0.394459119	-9.477409938	-0.384299337	-3.636344413	-9.025828394	-1.413947664	-2.48348398	1.197259679	-0.246827059	-0.465051333	0
209	1117428266	0.167317563	-0.019442018	0.90356401	0.393952943	-9.203676677	-0.436413644	-3.615233779	-3.870460159	0.043581049	0.073744586	1.195716477	-0.247820975	-0.467930706	0
210	1117444933	0.16713962	-0.019732779	0.903811334	0.393446359	-9.17073284	-0.705320662	-3.624327283	-4.075349967	1.610285293	0.999206794	1.197175262	-0.248534192	-0.466076674	0
211	1117461600	0.167028537	-0.020204256	0.904160076	0.392667561	-9.766576069	-0.886012048	-3.582805731	-6.240437806	0.793308347	1.611711748	1.194510232	-0.246957149	-0.465728849	0
212	1117478267	0.166890412	-0.020915334	0.904300735	0.392365033	-10.05722055	-0.974590265	-3.385479787	-3.000353779	0.162590984	3.754209205	1.191811629	-0.244011243	-0.465299689	0
213	1117494934	0.166657545	-0.021763215	0.904300349	0.392418786	-9.748358931	-1.166226564	-3.162708636	-0.581231503	0.309916725	5.295129212	1.194055881	-0.248073324	-0.464864705	0
214	1117511601	0.166443949	-0.02277202	0.904349834	0.392338151	-9.331579577	-1.413597176	-2.894081178	-1.742660977	-0.166312249	6.098530067	1.194737891	-0.24648745	-0.464452325	0
215	1117528268	0.166780947	-0.023762916	0.904979445	0.390681	-8.759693162	-1.510804442	-2.955717638	-13.01769073	-3.07963635	2.63298287	1.189322295	-0.246950038	-0.462679092	0
216	1117544935	0.167840479	-0.024518266	0.905927358	0.38797429	-8.529757453	-1.379233503	-2.919160082	-20.03084829	-6.720674919	-1.998116019	1.196789289	-0.250003019	-0.461524976	0
217	1117561602	0.169391785	-0.025020781	0.90689961	0.38498504	-8.603518551	-1.387109349	-2.946372897	-21.49276399	-9.102402902	-5.188256382	1.198537488	-0.247226676	-0.463187585	0
218	1117578269	0.171093568	-0.025312183	0.90812749	0.381301384	-8.750884878	-1.525366094	-3.325847942	-26.23913759	-9.278058814	-7.730679966	1.198082996	-0.251440675	-0.456236125	0
219	1117594936	0.17281894	-0.025502834	0.909273707	0.377762552	-8.979791791	-1.129395397	-3.220382026	-25.01241736	-9.22136079	-8.205302659	1.201872333	-0.252346281	-0.458516092	0
220	1117611603	0.174560684	-0.025685814	0.910273559	0.374527508	-9.115202282	-0.994443338	-3.326290762	-22.72717466	-9.404686386	-7.897662018	1.204174281	-0.253543641	-0.455218902	0
221	1117628270	0.176367142	-0.025793785	0.911292596	0.371180706	-9.068083271	-0.908807416	-3.731080707	-23.37630641	-9.598341506	-8.665619352	1.202349275	-0.256632424	-0.454532491	0
222	1117644937	0.178099506	-0.025954468	0.912226528	0.368034908	-9.01160286	-0.878867981	-3.794000937	-21.97811187	-9.33837574	-7.88372511	1.205846111	-0.258538227	-0.450500393	0
223	1117661604	0.179690254	-0.026246694	0.913147686	0.364943594	-9.231670893	-0.76498509	-3.702675701	-21.78962333	-8.796411094	-6.630361955	1.208401764	-0.2599312	-0.451810199	0
224	1117678271	0.180987961	-0.026682997	0.91398456	0.362165156	-9.420868213	-0.588566887	-3.801331016	-19.8426055	-7.36505427	-4.592929734	1.211341281	-0.258987493	-0.448905901	0
225	1117694938	0.182103562	-0.02726761	0.914623688	0.359942049	-9.447378555	-0.421521698	-3.7873788	-16.07397266	-6.734444059	-2.492503636	1.214343419	-0.259591259	-0.447124029	0
226	1117711605	0.183021073	-0.027975727	0.915170033	0.358028569	-9.382549449	-0.395726768	-3.895851241	-14.08091294	-5.853347833	-0.839804519	1.210889882	-0.260470785	-0.445583802	0
227	1117728272	0.183613855	-0.028774439	0.915608809	0.356536804	-9.240243144	-0.343808818	-4.036249512	-11.33136707	-4.091831439	1.061851168	1.213503486	-0.25970803	-0.445745394	0
228	1117744939	0.183836496	-0.029754588	0.916050706	0.355204043	-9.274313301	-0.333188422	-3.862350397	-10.63207069	-2.186293904	3.29122158	1.211843889	-0.259383507	-0.445559297	0
229	1117761606	0.183456978	-0.030976415	0.916333421	0.354566017	-9.207913178	-0.504076407	-3.959501017	-6.289934424	0.951721246	7.174435681	1.21498083	-0.260590897	-0.443245095	0
230	1117778273	0.182689815	-0.03232262	0.916778921	0.353689255	-9.238998294	-0.772698852	-4.411233235	-8.425982842	3.232624919	8.554137447	1.215197133	-0.257930685	-0.443961668	0
231	1117794940	0.181699062	-0.033707734	0.917524899	0.352132502	-9.323613752	-0.712249108	-4.469026739	-13.54313447	4.744264666	8.420202391	1.214219163	-0.260466813	-0.441762848	0
232	1117811607	0.180298912	-0.035261494	0.918141883	0.351090318	-9.300024715	-0.583426265	-4.184929757	-10.29049892	6.846837566	11.14443224	1.211917448	-0.258627168	-0.442158334	0
233	1117828274	0.178461495	-0.036972088	0.918710818	0.350364084	-9.072203202	-0.814084966	-4.142758719	-8.479094846	9.226111545	13.58477586	1.213382666	-0.260573791	-0.440797151	0
234	1117844941	0.176346359	-0.038631707	0.919503228	0.349175266	-8.942257859	-1.165987019	-4.119204344	-11.95062197	11.23951321	13.30747151	1.208793421	-0.260583149	-0.437232603	0
235	1117861608	0.174122856	-0.040080819	0.920426859	0.347691179	-9.10104178	-1.064645533	-3.628807313	-13.91596685	12.49022264	11.85919691	1.205632688	-0.261661621	-0.437717271	0
236	1117878275	0.171748491	-0.041507236	0.921016269	0.347143539	-9.298270193	-1.219987538	-3.361070665	-7.214520162	13.36089166	13.3015906	1.206376607	-0.259833546	-0.437318803	0
237	1117894942	0.169369489	-0.042886774	0.921596102	0.346605431	-9.422068428	-1.451069418	-3.494959261	-7.088823181	13.51142384	13.04514864	1.205171397	-0.260909336	-0.434147555	0
238	1117911609	0.167060813	-0.044231848	0.922337868	0.345582243	-9.313775372	-1.468302765	-3.372027063	-10.50258869	13.20877077	12.07087857	1.205768958	-0.262441122	-0.435487557	0
239	1117928276	0.165168164	-0.045434676	0.922864275	0.34492999	-9.152317776	-1.374630881	-3.046153597	-7.363545256	10.7931193	10.69767296	1.203319304	-0.264895535	-0.435828216	0
240	1117944943	0.163759292	-0.046517754	0.923155706	0.344677435	-9.129734587	-1.536041187	-3.093545179	-3.99563327	7.893848729	9.339527357	1.202493834	-0.263778329	-0.431531769	0
241	1117961610	0.162734303	-0.047444532	0.923487995	0.344146024	-9.14310796	-1.517811002	-3.085132084	-5.578245416	5.811360158	7.137735188	1.201601521	-0.267440234	-0.432000811	0
242	1117978277	0.16196057	-0.048298101	0.923526985	0.344287635	-9.199281335	-1.311787787	-2.888296303	-0.461774018	4.309519241	6.95637192	1.205990965	-0.260224223	-0.429899814	0
243	1117994944	0.161646518	-0.049075945	0.923181839	0.345249543	-9.080327486	-1.510722785	-3.268073985	5.882450594	1.450904892	6.447006373	1.20700013	-0.261306604	-0.431340172	0
244	1118011611	0.161961373	-0.049587574	0.922815511	0.346007398	-8.977417797	-1.52535679	-3.769260737	5.132887607	-1.98175116	3.074140407	1.205090336	-0.260845899	-0.432827293	0
245	1118028278	0.162711497	-0.049888387	0.922511209	0.34642342	-8.988037417	-1.272288231	-3.742030316	3.189356219	-4.293417543	0.327630736	1.200716833	-0.264624029	-0.4336742	0
246	1118044945	0.163544397	-0.050103967	0.922030952	0.34727762	-8.829424269	-1.121199635	-3.520048472	6.504257114	-4.663010006	0.161216685	1.205674154	-0.264582048	-0.430705626	0
247	1118061612	0.16438266	-0.050251242	0.921299144	0.348799427	-8.675325271	-1.341735632	-3.831836017	11.41091384	-4.582330276	0.566569378	1.206723877	-0.261814096	-0.432973948	0
248	1118078279	0.165112522	-0.050234918	0.920741035	0.349928928	-8.713311381	-1.387822911	-3.941735721	8.648311489	-3.451979424	-0.689155158	1.207061353	-0.264038837	-0.433656284	0
249	1118094946	0.165696585	-0.050009245	0.920335848	0.350750116	-8.973561927	-1.281561016	-4.030455859	6.508165966	-1.973094108	-2.041060684	1.207341487	-0.265909303	-0.436721388	0
250	1118111613	0.166351154	-0.049612941	0.920002109	0.351371554	-9.289509679	-1.168387647	-3.96232784	5.285006857	-2.008104017	-3.52396688	1.20483962	-0.265301192	-0.434238983	0
251	1118128280	0.167067788	-0.049102418	0.919698525	0.351897612	-9.395496639	-1.131913669	-3.936898718	4.756606956	-2.12773848	-4.502498715	1.204295411	-0.267130065	-0.435968774	0
252	1118144947	0.167652294	-0.048605117	0.919424303	0.352404883	-9.372403381	-1.244497964	-4.113986677	4.505000176	-1.30002546	-4.120305129	1.208440627	-0.26564784	-0.438652942	0
253	1118161614	0.168300526	-0.048061075	0.919263642	0.352589595	-9.234041634	-1.015358358	-4.069185844	2.260619447	-1.576626022	-4.963648326	1.208342144	-0.266644523	-0.437509807	0
254	1118178281	0.169103858	-0.047404938	0.919129859	0.352642821	-9.243023897	-0.659753049	-3.716275304	1.545921946	-2.3080004	-6.203944257	1.210731426	-0.266546712	-0.43561729	0
255	1118194948	0.169989944	-0.046684599	0.918974897	0.35271675	-9.343244696	-0.707272144	-3.624361767	1.83398183	-2.691187192	-6.786466501	1.209082429	-0.265937191	-0.434574972	0
256	1118211615	0.170882562	-0.046024527	0.918875416	0.35263134	-9.232938917	-0.858071824	-3.655564203	0.628560506	-2.857824787	-6.633442729	1.210343365	-0.266800368	-0.437766339	0
257	1118228282	0.171840433	-0.045366323	0.918799914	0.35244784	-9.044503859	-0.840047555	-3.701125371	-0.028290541	-3.273583701	-6.902615446	1.214878262	-0.266438105	-0.435967618	0
258	1118244949	0.172882187	-0.044721725	0.918690438	0.352306112	-8.997410025	-0.849483088	-3.692629015	0.330495179	-3.863884827	-6.960802522	1.212338945	-0.26972826	-0.436201804	0
259	1118261616	0.173862226	-0.044017949	0.91859679	0.35215662	-9.04451712	-0.864310628	-3.637105554	0.296491103	-3.31470178	-7.198748816	1.212867131	-0.271840137	-0.435172716	0
260	1118278283	0.174784977	-0.043315605	0.918706869	0.35149916	-9.106052509	-0.956462791	-3.752379369	-3.423152974	-2.864557856	-7.719637089	1.215732749	-0.271412433	-0.436631049	0
261	1118294950	0.175637292	-0.042587265	0.91891774	0.350610971	-9.106188069	-0.906782245	-3.792006253	-5.112525605	-2.306073345	-8.018584691	1.216128263	-0.26956544	-0.437134996	0
262	1118311617	0.176460523	-0.041830566	0.919028703	0.349997329	-9.115490992	-1.026506324	-3.877066584	-3.110224092	-2.098134477	-7.765349013	1.213368078	-0.270869422	-0.435493324	0
263	1118328284	0.177226582	-0.041063069	0.919149435	0.34938357	-9.134567684	-1.102044759	-4.140258075	-3.138210306	-1.703692691	-7.693129801	1.221433379	-0.275280658	-0.436891186	0
264	1118344951	0.177821208	-0.040250836	0.919429194	0.348438582	-9.078818663	-0.943223482	-4.047691882	-5.60786718	-0.428548437	-8.003320164	1.218538553	-0.273074398	-0.433311199	0
265	1118361618	0.178341505	-0.039454457	0.919733956	0.347458059	-9.04133494	-0.869589326	-3.817147789	-5.932484289	0.010631439	-7.772992279	1.217785377	-0.274253538	-0.436751732	0
266	1118378285	0.178653417	-0.038704276	0.919981971	0.346724831	-9.026848328	-0.735392823	-3.701603463	-4.344203071	1.210942116	-6.664592342	1.217094355	-0.275534893	-0.43361803	0
267	1118394952	0.178852811	-0.038006811	0.92016412	0.346215462	-9.003642264	-0.770984672	-3.701099271	-2.863002134	1.77424262	-5.775464823	1.21794883	-0.272058108	-0.433525059	0
268	1118411619	0.178945702	-0.037352587	0.920362787	0.345710227	-8.961434364	-0.879268378	-3.852466209	-2.955140541	2.365801259	-5.25127382	1.219552932	-0.276408371	-0.436211034	0
269	1118428286	0.179005614	-0.036726356	0.920800424	0.344579083	-8.988581301	-0.860413251	-4.038291671	-7.526403155	2.63224658	-5.827769261	1.218927329	-0.27933816	-0.4360933	0
270	1118444953	0.179062874	-0.036096441	0.921425376	0.34294141	-9.046259506	-0.673577709	-3.967550055	-11.16962812	2.746943705	-6.516881865	1.219918447	-0.281651108	-0.434457833	0
271	1118461620	0.178961789	-0.035543174	0.922017047	0.341458528	-9.124295562	-0.565378715	-3.79276901	-10.24080879	3.554595832	-5.468338189	1.219841015	-0.278688026	-0.433098122	0
272	1118478287	0.178656112	-0.035164197	0.922554606	0.340203574	-9.121400887	-0.618671461	-3.730434824	-8.929275843	4.428002998	-3.600166103	1.221287936	-0.282800033	-0.431805275	0
273	1118494954	0.178460001	-0.034871007	0.923096791	0.338863327	-9.156113938	-0.693279342	-3.905115188	-9.555259975	3.515519628	-3.429227911	1.221822353	-0.281226658	-0.431995966	0
274	1118511621	0.178174218	-0.034622884	0.923731525	0.337305904	-9.254850719	-0.40768862	-3.857001894	-11.22147904	4.033244348	-3.23205546	1.219735609	-0.284472325	-0.430328714	0
275	1118528288	0.177950494	-0.03454313	0.924034382	0.336601923	-9.339078705	-0.387966612	-3.783441047	-5.217826401	3.041821662	-1.1992231	1.219912068	-0.285551107	-0.429061536	0
276	1118544955	0.177566631	-0.034581771	0.924254429	0.336196285	-9.59604684	-0.604672183	-3.924579184	-3.306688197	3.754659204	0.290345999	1.218101667	-0.282577183	-0.428556081	0
277	1118561622	0.17694495	-0.034800746	0.924418614	0.336050026	-9.592258353	-0.571693852	-3.607126731	-1.803305159	4.841269025	2.306370707	1.218811548	-0.285795895	-0.430043078	0
278	1118578289	0.176258446	-0.035236204	0.924346284	0.336563987	-9.391053392	-0.580322777	-3.397222494	2.664220977	4.634949195	4.681135395	1.218160499	-0.283750881	-0.428374369	0
279	1118594956	0.175480009	-0.035817163	0.924058469	0.337697858	-9.170377207	-0.759724972	-3.607871646	6.905736509	4.786552376	6.611791116	1.219262848	-0.282971513	-0.42829155	0
280	1118611623	0.174628393	-0.036453539	0.923718956	0.338997572	-9.130488857	-0.900583654	-3.762192842	7.994207362	5.106652215	7.345097614	1.21828349	-0.284154993	-0.427296138	0
281	1118628290	0.173563814	-0.037126799	0.923498834	0.340069267	-9.141598179	-0.855322535	-3.695704337	6.166921956	6.459493599	7.775987431	1.2186573	-0.283260175	-0.428891891	0
282	1118644957	0.172301923	-0.037917009	0.923414789	0.340851104	-9.135669882	-0.923717432	-3.677759615	3.816871022	7.528980115	8.599857021	1.214673917	-0.284608188	-0.432762411	0
283	1118661624	0.170989235	-0.038728518	0.923647185	0.340791227	-9.052457356	-1.148630711	-3.825072235	-2.310691975	7.958343768	7.77627196	1.216409524	-0.287483442	-0.428779305	0
284	1118678291	0.169908866	-0.039370068	0.924149234	0.339895819	-9.047201689	-1.050164192	-3.914493608	-7.991984884	6.971762017	5.106712977	1.214279127	-0.287537249	-0.428692479	0
285	1118694958	0.168792341	-0.040019207	0.92458425	0.339192533	-9.10497248	-0.883799738	-3.801582894	-6.636113455	7.148509745	5.489125605	1.214797533	-0.288254826	-0.427559796	0
286	1118711625	0.167516444	-0.040761916	0.924909717	0.338849116	-9.07037531	-0.901035746	-3.827437418	-4.248655997	7.912837013	6.904638673	1.211560886	-0.288809397	-0.42726135	0
287	1118728292	0.166195609	-0.041452742	0.925253769	0.338476221	-8.993204002	-0.99104663	-3.79796746	-4.435308716	8.327580584	6.639891046	1.211172816	-0.288224024	-0.428562459	0
288	1118744959	0.164999132	-0.042062973	0.925509931	0.338285914	-9.023717598	-0.93408881	-3.682328603	-2.944223597	7.670998683	6.077447589	1.212891053	-0.287674237	-0.42829339	0
289	1118761626	0.164052203	-0.042547507	0.925570929	0.338518891	-9.061547332	-0.937259488	-3.713068461	0.415368958	6.276735162	5.237094059	1.209984905	-0.288045781	-0.424783647	0
290	1118778293	0.16313916	-0.042922069	0.925553074	0.33896138	-9.115667774	-1.023224673	-3.83607025	2.062704556	6.289826027	4.721619792	1.210738118	-0.288399983	-0.42306325	0
291	1118794960	0.16220695	-0.043255422	0.925524466	0.339444159	-9.158626578	-0.897861684	-3.660171638	2.38224773	6.504315118	4.558128533	1.207224369	-0.289196826	-0.423429917	0
292	1118811627	0.1613496	-0.043564215	0.92536453	0.340248369	-9.156815317	-0.91765452	-3.510592931	4.782062442	6.038411901	4.628233552	1.207266373	-0.290134733	-0.424967212	0
293	1118828294	0.16064021	-0.043853339	0.925230647	0.340910337	-9.164008078	-1.047319327	-3.706200913	3.881286137	5.136766077	3.993157624	1.207076435	-0.289464174	-0.425840338	0
294	1118844961	0.160164851	-0.044120128	0.925353086	0.340767226	-9.229429458	-0.989893706	-3.626353055	-1.748366862	3.74312753	2.341619855	1.206881864	-0.293093911	-0.424393891	0
295	1118861628	0.159851586	-0.044405031	0.92553191	0.340391462	-9.22943732	-0.919060514	-3.572368022	-3.333666165	2.666063476	1.807454728	1.208179114	-0.291021567	-0.425975787	0
296	1118878295	0.159758994	-0.044736626	0.925535538	0.340381648	-9.339687436	-0.838011573	-3.49461408	-0.57841944	1.078466585	2.045601112	1.206207712	-0.291584657	-0.424122227	0
297	1118894962	0.159763895	-0.045148251	0.925271694	0.341041678	-9.28370427	-0.963348608	-3.515085307	4.251533749	0.193875982	3.144461419	1.208185647	-0.292141334	-0.42355876	0
298	1118911629	0.159994126	-0.045536817	0.92491609	0.341845731	-9.233997986	-1.006124737	-3.530543446	5.477554842	-1.232584808	2.659209948	1.208148032	-0.291945725	-0.423038095	0
299	1118928296	0.160436142	-0.045921247	0.924444349	0.342861676	-9.172857231	-0.934626062	-3.391490939	7.166355051	-2.621564421	2.411485721	1.208129889	-0.294337489	-0.421257614	0
300	1118944963	0.161035673	-0.046336589	0.924069982	0.343533262	-9.089143596	-1.052275939	-3.386523338	4.764112823	-3.684694556	1.827912561	1.208669634	-0.291819224	-0.425786183	0
301	1118961630	0.161915113	-0.046604749	0.923911288	0.343510444	-8.985652439	-1.109855425	-3.746277528	0.093817634	-5.0867501	-0.600742639	1.210792318	-0.292343752	-0.423775326	0
302	1118978297	0.162987054	-0.04673179	0.923751063	0.343417143	-9.059262282	-0.911984315	-3.629243958	-0.132910229	-6.002829005	-2.020352799	1.210088704	-0.294357797	-0.422325543	0
303	1118994964	0.16404689	-0.046903122	0.923428388	0.343756784	-9.201681218	-0.926366799	-3.461222666	2.947259713	-6.071053595	-1.171485863	1.208612368	-0.294573458	-0.425921473	0
304	1119011631	0.165125611	-0.047039295	0.922979765	0.344425886	-9.172858672	-1.018500058	-3.574867344	5.384590829	-6.132637	-1.023723863	1.215102602	-0.291872687	-0.421212118	0
305	1119028298	0.166205175	-0.047205016	0.922585182	0.344940731	-9.111953591	-0.97963627	-3.519153214	4.243408129	-6.191206316	-1.025250645	1.21188215	-0.29312493	-0.424307907	0
306	1119044965	0.167386182	-0.047361257	0.922267511	0.345197648	-9.119806877	-0.943654861	-3.521619482	2.470619946	-6.800851397	-1.641010311	1.21375742	-0.293782423	-0.425862076	0
307	1119061632	0.168547597	-0.047580734	0.921989895	0.345343907	-9.105392247	-0.919549515	-3.78539517	1.594886736	-6.810464454	-1.332459041	1.214591861	-0.295294618	-0.422314225	0
308	1119078299	0.169702881	-0.047781587	0.921814111	0.345219635	-9.168804859	-0.823707186	-3.879390436	-0.337368488	-6.699971669	-1.779390438	1.216870026	-0.297007463	-0.42271075	0
309	1119094966	0.170770051	-0.048041375	0.921751606	0.344824002	-9.186265694	-0.901843632	-3.881358935	-2.425426601	-6.243196178	-1.554612226	1.216414564	-0.296907439	-0.424052358	0
310	1119111633	0.171869362	-0.048296229	0.921806868	0.344093729	-9.164478177	-0.854529262	-3.861051735	-4.806234965	-6.41182502	-2.09333406	1.218986178	-0.295971556	-0.420603825	0
311	1119128300	0.172883105	-0.048593498	0.922101226	0.342752728	-9.180521369	-1.025909918	-4.006911555	-9.314442478	-5.894186792	-2.423928849	1.219702417	-0.298797868	-0.420855425	0
312	1119144967	0.173714836	-0.048798931	0.922637793	0.340853814	-9.218917772	-0.867829975	-3.990148629	-13.38026297	-4.43098723	-3.322105711	1.216109647	-0.295893873	-0.422441256	0
313	1119161634	0.174395243	-0.049002067	0.923091356	0.339245406	-9.11212174	-0.782780587	-3.932764596	-11.38693113	-3.47641858	-2.609008906	1.218022606	-0.299167583	-0.421134145	0
314	1119178301	0.174929643	-0.049202963	0.923378228	0.338158744	-9.091324735	-0.825701798	-3.907231505	-7.734630272	-2.576165128	-1.606424901	1.223656803	-0.299604991	-0.420522231	0
315	1119194968	0.175143584	-0.049404506	0.923506287	0.337668562	-9.068493208	-0.792610338	-3.844263167	-3.682894988	-0.538309453	-0.086844999	1.219904075	-0.296556705	-0.418432059	0
316	1119211635	0.175095484	-0.049569479	0.923481109	0.337738182	-9.12240552	-0.864253278	-3.84311199	0.182808454	1.210902611	1.014725404	1.220626402	-0.299520768	-0.422317717	0
317	1119228302	0.174841179	-0.049769975	0.923402288	0.338055803	-9.19315289	-0.909581958	-3.88205007	1.769062433	2.454542032	2.036612642	1.224361881	-0.299961202	-0.418948431	0
318	1119244969	0.174505569	-0.050012838	0.923429682	0.338118537	-9.230311906	-0.960467846	-4.008885365	-0.17753839	2.908382703	2.151901178	1.223281131	-0.300095532	-0.419469695	0
319	1119261636	0.174151977	-0.050292415	0.923504587	0.338054788	-9.147958354	-0.962006486	-3.98340532	-1.140649059	2.944626582	2.261300279	1.221083472	-0.299936892	-0.420380192	0
320	1119278303	0.173743791	-0.050519389	0.923613524	0.337933344	-9.11449902	-0.845574638	-3.932892354	-1.545696811	3.42707145	1.975753637	1.22118342	-0.302825594	-0.418956871	0
321	1119294970	0.173213558	-0.050726117	0.923811031	0.33763457	-9.182345376	-0.83945187	-3.83571086	-2.897841158	4.286220113	1.885207972	1.218779677	-0.302563794	-0.418754314	0
322	1119311637	0.172582797	-0.050933239	0.924056333	0.337254914	-9.144821925	-0.880791228	-3.673726941	-3.554368545	4.950687746	2.008459517	1.219979041	-0.300046655	-0.417936774	0
323	1119328304	0.171988172	-0.051099682	0.924356809	0.336709639	-9.114802721	-0.916389366	-3.758483662	-4.673118206	4.823098611	1.449389323	1.219473235	-0.302452986	-0.416979462	0
324	1119344971	0.171384354	-0.051203256	0.924708752	0.336034751	-9.149995702	-0.925700719	-3.806895507	-5.550002709	5.041532044	0.89758326	1.221250093	-0.30387734	-0.418038687	0
325	1119361638	0.170786346	-0.051260329	0.924941586	0.335689538	-9.267232494	-0.864514554	-3.688281818	-3.118253638	5.085837292	1.022812497	1.218951782	-0.30489775	-0.416784824	0
326	1119378305	0.170205116	-0.051298792	0.925015789	0.335774392	-9.290762563	-0.78109689	-3.602778002	0.010440953	4.990334364	1.426015198	1.219270447	-0.303955024	-0.413480139	0
327	1119394972	0.169561966	-0.051341362	0.924981124	0.336188524	-9.180301804	-0.867970751	-3.608206264	2.333462305	5.369090521	2.01819917	1.217095431	-0.304317403	-0.417179197	0
328	1119411639	0.168977826	-0.051384085	0.924970283	0.336505789	-9.034952814	-0.986499733	-3.714310544	1.675753326	4.990734977	1.758528146	1.216514157	-0.304246167	-0.416465514	0
329	1119428306	0.168593868	-0.051395865	0.925101987	0.336334486	-9.029018335	-0.931484597	-3.772678404	-1.651678807	3.781782382	0.485366938	1.215758533	-0.306659829	-0.413839077	0
330	1119444973	0.168335518	-0.051394791	0.925267305	0.336009143	-9.093216776	-0.839402144	-3.74986065	-2.656496092	2.993900286	-0.07824076	1.216546652	-0.307696132	-0.416923378	0
331	1119461640	0.16807203	-0.051375194	0.925522998	0.335439357	-9.15262307	-0.872978567	-3.744897812	-4.391892223	3.087188886	-0.498780158	1.217635774	-0.308963525	-0.415889786	0
332	1119478307	0.167837296	-0.051365719	0.925730968	0.334984149	-9.132996801	-0.784369081	-3.596612895	-3.551186915	2.866216252	-0.349482115	1.216816874	-0.307105404	-0.413648193	0
333	1119494974	0.167542218	-0.051418632	0.925803595	0.334923025	-9.076301305	-0.858151777	-3.685525279	-0.830582953	3.09203801	0.68320611	1.217715803	-0.309353957	-0.414337254	0
334	1119511641	0.167338179	-0.051502782	0.925933192	0.334653733	-9.016283819	-1.096236662	-3.928141638	-2.288322683	2.433486255	0.41303643	1.215576234	-0.310103411	-0.41393819	0
335	1119528308	0.167233401	-0.051466562	0.926383093	0.333464462	-9.08287407	-1.02408247	-4.005389408	-8.710661659	2.114354683	-1.749660286	1.217929289	-0.30987429	-0.411223858	0
336	1119544975	0.167227604	-0.051391818	0.926830544	0.332233279	-9.213511313	-0.777595744	-3.752184066	-8.88849446	1.546468889	-2.264481444	1.216944262	-0.314635967	-0.411415796	0
337	1119561642	0.167242766	-0.051324492	0.927123557	0.331417508	-9.286333591	-0.818850058	-3.633508211	-5.890073149	1.364815467	-1.738722237	1.21996029	-0.3133521	-0.410224484	0
338	1119578309	0.167154729	-0.051313576	0.927341579	0.330853153	-9.22740286	-0.946610971	-3.617605818	-4.21705242	1.900686263	-0.831120332	1.218308984	-0.312985546	-0.40871522	0
339	1119594976	0.167031527	-0.051313494	0.927554964	0.330316791	-9.144826831	-0.909931663	-3.684115432	-4.05344977	2.108709826	-0.646322283	1.217343924	-0.314923571	-0.41213353	0
340	1119611643	0.16683211	-0.051379654	0.92765952	0.330113605	-9.146316323	-0.842544603	-3.566627874	-1.782709056	2.438042027	0.370182943	1.21978793	-0.313251179	-0.409995798	0
341	1119628310	0.166739023	-0.05149093	0.92778347	0.329794809	-9.200330202	-0.929448094	-3.752393895	-2.576625616	1.643507251	0.275933332	1.217759343	-0.314536308	-0.408662391	0
342	1119644977	0.166671924	-0.051586671	0.928001891	0.329198687	-9.181538302	-0.8480024	-3.816496596	-4.534644516	1.522578136	-0.233397989	1.220666269	-0.314318907	-0.409947405	0
343	1119661644	0.166674953	-0.051709624	0.928115609	0.328857098	-9.191338741	-0.844261316	-3.68773924	-2.680263282	0.981847645	0.108792391	1.215917255	-0.314545123	-0.407107629	0
344	1119678311	0.166570514	-0.051905093	0.928185837	0.328680967	-9.11664589	-0.94406828	-3.665257392	-1.649937523	1.514823324	1.017268418	1.215878912	-0.318390532	-0.408290759	0
345	1119694978	0.166458304	-0.052110194	0.928235016	0.328566454	-9.077617392	-1.091289673	-3.733538064	-1.221963385	1.540774868	1.175112072	1.220233191	-0.31271357	-0.410482701	0
346	1119711645	0.166271956	-0.052337722	0.928368523	0.328247292	-9.030912798	-1.072593634	-3.78357979	-2.773088636	1.986773085	1.227645661	1.218466019	-0.317689193	-0.40926442	0
347	1119728312	0.166133873	-0.052531557	0.928526934	0.327837923	-9.051353697	-1.075863937	-3.83590129	-3.351954103	1.748773558	0.795014654	1.219072594	-0.315243178	-0.408474508	0
348	1119744979	0.16597417	-0.05269463	0.928693165	0.327421527	-9.076609525	-1.066396889	-3.780086099	-3.386104663	1.958674749	0.643038398	1.217529309	-0.316960217	-0.40638591	0
349	1119761646	0.165899726	-0.052779714	0.928939826	0.326745133	-9.143800588	-1.179565622	-3.80696092	-5.107453206	1.586489588	-0.36805357	1.220170414	-0.322085405	-0.407855482	0
350	1119778313	0.165838339	-0.052754784	0.929289217	0.325785404	-9.238854879	-1.146967726	-3.864473714	-7.018285052	1.762644295	-1.45576552	1.220609317	-0.323998674	-0.408375725	0
351	1119794980	0.165854831	-0.052634513	0.929513915	0.325154833	-9.302954641	-1.082337971	-3.786469166	-4.497661975	1.453601129	-1.811774526	1.218316905	-0.318128141	-0.405580795	0
352	1119811647	0.165914267	-0.052468135	0.929545263	0.32506177	-9.321501835	-1.104590082	-3.823962177	-0.562482738	1.257280863	-1.513590874	1.218945738	-0.319646819	-0.404772344	0
353	1119828314	0.165961967	-0.052231041	0.929588845	0.324950955	-9.235406138	-1.127366906	-3.89913074	-0.634050221	1.498636212	-1.962418527	1.221838844	-0.320178333	-0.40684898	0
354	1119844981	0.166116413	-0.051915113	0.92966484	0.324705165	-9.093770221	-1.102379654	-3.900949666	-1.437171792	0.978151637	-2.863252397	1.216702973	-0.321414236	-0.405252557	0
355	1119861648	0.166321622	-0.051489504	0.929755643	0.324407759	-9.028950362	-1.000430378	-3.88323062	-1.652852185	0.894245349	-3.734019782	1.21631049	-0.323043849	-0.406841741	0
356	1119878315	0.166539171	-0.051020748	0.929763813	0.324346788	-8.992352951	-0.940538277	-3.76837807	0.096108906	0.897013592	-3.734511175	1.218364997	-0.321983238	-0.405243083	0
357	1119894982	0.166633896	-0.050565409	0.929767613	0.324358551	-9.034411682	-0.940698395	-3.735608747	0.51694529	1.670252456	-3.287510733	1.217560614	-0.322928256	-0.404888576	0
358	1119911649	0.166680503	-0.050109921	0.92981168	0.324278962	-9.030912141	-0.954770155	-3.834941718	-0.176282567	1.992585752	-3.299349566	1.222129133	-0.325112957	-0.404510304	0
359	1119928316	0.166686974	-0.049677084	0.929972656	0.323880377	-9.069274937	-0.924224247	-3.990893847	-2.519492887	2.219476105	-3.472164559	1.219995576	-0.327454721	-0.405688197	0
360	1119944983	0.16671012	-0.049249603	0.930197057	0.323288801	-9.107151682	-0.856635822	-4.004522172	-3.893025356	2.100119186	-3.716825827	1.220045041	-0.323484883	-0.405992613	0
361	1119961650	0.166732356	-0.048855385	0.930442127	0.322631247	-9.156059942	-0.83600207	-4.011561405	-4.386278911	2.028637502	-3.581405748	1.218244286	-0.329213567	-0.405112329	0
362	1119978317	0.166762601	-0.048482479	0.93069162	0.321951538	-9.164160218	-0.822207582	-3.999869096	-4.571459527	1.91946815	-3.498642875	1.21723571	-0.330886163	-0.401823516	0
363	1119994984	0.166741886	-0.04813018	0.931024258	0.321052114	-9.124759892	-0.955992572	-3.990425651	-6.198787428	2.216084655	-3.535853133	1.221325313	-0.329654068	-0.403882932	0
364	1120011651	0.166728893	-0.047768281	0.931521176	0.319668525	-9.079201495	-0.993634398	-4.058072202	-9.646921083	2.209532648	-4.225686679	1.220017392	-0.329887064	-0.40170246	0
365	1120028318	0.166698483	-0.047376777	0.93205199	0.318191994	-9.095890234	-0.881716331	-3.910211825	-10.28685437	2.386868096	-4.493070173	1.22318086	-0.328927231	-0.399019123	0
366	1120044985	0.166605054	-0.046999467	0.932662705	0.316502899	-9.094321175	-0.907204764	-3.947936149	-11.85931033	2.776326069	-4.537059621	1.220428568	-0.331762613	-0.40182501	0
367	1120061652	0.166498057	-0.046617515	0.93328104	0.31478835	-9.065700222	-0.816086536	-3.925484133	-12.03593944	2.868369458	-4.571156534	1.22228687	-0.334564692	-0.400208049	0
368	1120078319	0.166276729	-0.046241403	0.933735193	0.313611816	-9.119442693	-0.657907198	-3.784358882	-8.269375679	3.568328994	-3.622062994	1.221137019	-0.333172912	-0.398575202	0
369	1120094986	0.16600364	-0.045914947	0.934074548	0.312792821	-9.138891732	-0.846695226	-3.945303578	-5.799398188	3.774309986	-2.753554614	1.22111787	-0.335201189	-0.396828254	0
370	1120111653	0.165817369	-0.045633179	0.934424424	0.311886532	-9.158672062	-0.89873303	-3.97021384	-6.406049889	3.099997733	-2.757876611	1.219610717	-0.33441711	-0.398930963	0
371	1120128320	0.16565775	-0.045373815	0.934759512	0.311003829	-9.060022253	-0.810754799	-3.860530618	-6.237695603	2.865963786	-2.641951136	1.217937898	-0.333629756	-0.397518323	0
372	1120144987	0.165376388	-0.045109545	0.934889272	0.310801912	-8.979670572	-0.670155464	-3.708562348	-1.456272764	3.635080202	-1.575795633	1.219820279	-0.340180381	-0.395587504	0
373	1120161654	0.164948828	-0.044863155	0.934871	0.311119583	-9.017715707	-0.694267148	-3.714346869	2.132364359	4.528101219	-0.517747168	1.218507523	-0.334493459	-0.397808889	0
374	1120178321	0.164390118	-0.044639177	0.934842446	0.31153304	-9.078069169	-0.802794163	-3.792990761	2.707763266	5.342124622	0.016583943	1.217552284	-0.334378524	-0.396726425	0
375	1120194988	0.163793396	-0.04444389	0.934870061	0.311792292	-9.105464835	-0.797123016	-3.793707848	1.55532421	5.54079547	0.090477504	1.216698437	-0.337059771	-0.396070246	0
376	1120211655	0.163187102	-0.044258936	0.934859455	0.312168088	-9.158918084	-0.729808394	-3.712955702	2.372339088	5.571560159	0.318053225	1.217258055	-0.339537371	-0.397243214	0
377	1120228322	0.162554961	-0.044141977	0.93477271	0.312773641	-9.180545992	-0.692507561	-3.645061707	3.92933824	5.578442667	1.090203838	1.212523781	-0.336386923	-0.397728169	0
378	1120244989	0.161924933	-0.044042887	0.934731151	0.313238274	-9.114408909	-0.748827804	-3.624369711	2.906448696	5.537944191	1.024847597	1.213211395	-0.342168556	-0.398561465	0
379	1120261656	0.161455062	-0.043948387	0.934740002	0.313467591	-9.119771635	-0.728618316	-3.6768159	1.332045941	4.48665583	0.429095826	1.21510648	-0.337034482	-0.398524668	0
380	1120278323	0.161092463	-0.043840619	0.934865817	0.313293989	-9.172625429	-0.669764848	-3.686900062	-1.466578585	3.834402903	-0.375689089	1.213784092	-0.342140256	-0.394504453	0
381	1120294990	0.160884571	-0.043783267	0.934912567	0.313269329	-9.170515584	-0.676778918	-3.661329448	-0.346119716	2.691482834	-0.200971255	1.213249588	-0.338051103	-0.394465067	0
382	1120311657	0.160758917	-0.043802938	0.934919411	0.313310657	-9.1431259	-0.781603754	-3.669907193	0.111101921	1.975410699	0.201335989	1.216017177	-0.339944225	-0.391819395	0
383	1120328324	0.160687352	-0.043861173	0.934989172	0.313130996	-9.075667504	-0.904837299	-3.728098192	-1.468580256	1.550421753	0.06672234	1.210649796	-0.342361486	-0.396613786	0
384	1120344991	0.160551548	-0.043934167	0.935146979	0.312718911	-9.160391115	-0.823440262	-3.643186644	-3.189020058	1.95794376	0.015101817	1.212046793	-0.344173352	-0.39565187	0
385	1120361658	0.160386917	-0.044025431	0.935300922	0.312329929	-9.089822947	-0.825794012	-3.660381324	-3.062733272	2.109635037	0.218412783	1.21515821	-0.3435863	-0.39359638	0
386	1120378325	0.160294649	-0.044115579	0.935454788	0.311903481	-9.091066798	-0.911875683	-3.75499044	-3.274418082	1.637532125	0.016254437	1.212635103	-0.342402403	-0.392855286	0
387	1120394992	0.160266582	-0.044205313	0.935646861	0.311328547	-9.040727072	-0.88804482	-3.835522394	-4.291959971	1.221422835	-0.301753644	1.211177753	-0.344781932	-0.392834821	0
388	1120411659	0.160314562	-0.044263698	0.935866824	0.310633634	-9.086156355	-0.864982063	-3.789681407	-5.066230767	0.79109627	-0.80605754	1.210710781	-0.344514729	-0.393803127	0
389	1120428326	0.160366846	-0.044294743	0.936112052	0.309862351	-9.126401986	-0.848173098	-3.762175283	-5.577987719	0.825439868	-1.084605137	1.213303477	-0.346656957	-0.39183706	0
390	1120444993	0.160392273	-0.04432263	0.93626977	0.309368295	-9.11470651	-0.903036245	-3.760670302	-3.610123764	0.992875799	-0.716080533	1.212497344	-0.34330368	-0.391196844	0
391	1120461660	0.160389144	-0.044341716	0.936350528	0.309122666	-9.096515436	-0.842445315	-3.815886006	-1.846332379	1.186109712	-0.415056378	1.212557007	-0.345957372	-0.390607859	0
392	1120478327	0.160362808	-0.044346245	0.936404133	0.308973267	-9.144727007	-0.874526686	-3.827931932	-1.161725055	1.363450062	-0.347209956	1.212221961	-0.346355476	-0.391180052	0
393	1120494994	0.16033648	-0.044316765	0.936470108	0.308791149	-9.104620171	-0.854418247	-3.875231444	-1.35939933	1.439463731	-0.605116133	1.2122331	-0.3490201	-0.390727033	0
394	1120511661	0.160377925	-0.044234359	0.936513989	0.308648329	-9.117013835	-0.863663762	-3.92701571	-0.979549497	1.100568533	-1.03987102	1.214286625	-0.346157771	-0.387626184	0
395	1120528328	0.16043471	-0.044111876	0.936540962	0.308554489	-9.109722493	-0.820279123	-3.950229314	-0.575930527	1.079536629	-1.270362704	1.212732036	-0.345178828	-0.386974517	0
396	1120544995	0.160463796	-0.043957119	0.93655214	0.308527522	-9.116824952	-0.857966986	-3.934738498	-0.086555256	1.325573781	-1.343830908	1.212003524	-0.34752445	-0.391346999	0
397	1120561662	0.160385331	-0.043796091	0.936593233	0.30846647	-9.089298926	-0.81942727	-3.833143496	-0.39355578	2.050916645	-1.202323873	1.208045804	-0.35167262	-0.389164428	0
398	1120578329	0.160273899	-0.043604987	0.936570883	0.308619287	-9.083400452	-0.779881957	-3.85097137	1.140977048	2.319265223	-1.072651281	1.210291959	-0.346939313	-0.389819617	0
399	1120594996	0.160100423	-0.043433328	0.936561478	0.308762041	-9.087875824	-0.827213104	-3.926173615	1.010674312	2.687340769	-0.83117109	1.212138355	-0.350617228	-0.387692482	0
400	1120611663	0.159953923	-0.043220193	0.936612381	0.308713467	-9.121161193	-0.804269832	-3.886133552	-0.302673998	2.606884056	-1.388064416	1.212081854	-0.351145875	-0.3888216	0
401	1120628330	0.159744067	-0.043023503	0.936707095	0.308562196	-9.120790657	-0.778357004	-3.805474191	-1.086667952	2.995750369	-1.27316222	1.208897254	-0.348876953	-0.389864454	0
402	1120644997	0.159540209	-0.04282883	0.936792609	0.308435116	-9.130754829	-0.706388663	-3.775699468	-0.913126443	2.948645211	-1.246324225	1.208068773	-0.35213323	-0.388283072	0
403	1120661664	0.159399983	-0.042645954	0.936853733	0.30834729	-9.154860893	-0.746691717	-3.774280527	-0.596048368	2.499779776	-1.256389237	1.210192378	-0.35170504	-0.386547158	0
404	1120678331	0.159270483	-0.042490477	0.936942694	0.308165314	-9.182132621	-0.7477826	-3.737652733	-1.290160705	2.374806411	-1.21691132	1.208371619	-0.353463416	-0.386808251	0
405	1120694998	0.159223974	-0.042376499	0.937042775	0.307900628	-9.193228221	-0.734893072	-3.705118366	-1.864695867	1.741847309	-1.222380922	1.210636453	-0.351462706	-0.386229371	0
406	1120711665	0.159246027	-0.042330664	0.937135363	0.307613604	-9.21182738	-0.720711887	-3.710769606	-2.042819385	1.143560011	-0.952212234	1.205933066	-0.353972043	-0.385411457	0
407	1120728332	0.159277104	-0.042377394	0.9372243	0.307319982	-9.215222445	-0.726976141	-3.643785086	-2.1747581	0.885224268	-0.385063882	1.208531775	-0.352839176	-0.38500144	0
408	1120744999	0.159353162	-0.042471513	0.937260538	0.307157003	-9.228038358	-0.734674879	-3.631426708	-1.261836576	0.477606389	-0.020179208	1.208532443	-0.35107213	-0.384228685	0
409	1120761666	0.159445098	-0.042629349	0.937304061	0.306954552	-9.188336064	-0.791317082	-3.679223125	-1.595399782	0.241159172	0.307492185	1.208801318	-0.352849694	-0.384144649	0
410	1120778333	0.159638216	-0.042803838	0.937351012	0.306686405	-9.168907798	-0.845614099	-3.697129777	-2.013402127	-0.459323696	0.127336377	1.208007062	-0.355895178	-0.385067517	0
411	1120795000	0.159796014	-0.04303305	0.937407409	0.306399642	-9.155285635	-0.849224478	-3.712734344	-2.232302387	-0.34181465	0.525765572	1.204856268	-0.354258814	-0.383336089	0
412	1120811667	0.160004081	-0.043252419	0.93741635	0.306232769	-9.118919863	-0.847182156	-3.697249451	-1.323057449	-0.659455102	0.505380295	1.203530171	-0.353215653	-0.383078207	0
413	1120828334	0.160200677	-0.043501172	0.937359988	0.306267277	-9.088287325	-0.899779888	-3.690373961	0.07531684	-0.657473128	0.959932504	1.208488629	-0.355114088	-0.383238564	0
414	1120845001	0.160524929	-0.043725772	0.937284476	0.306296612	-9.036313949	-1.068335105	-3.76023664	0.149751439	-1.451303158	0.537193563	1.208282317	-0.354100138	-0.381356544	0
415	1120861668	0.160974524	-0.043865047	0.937292258	0.306016802	-9.065690827	-1.18078537	-3.83348294	-1.889239697	-2.079824665	-0.641107726	1.207610819	-0.357167207	-0.382493045	0
416	1120878335	0.161513619	-0.043928344	0.937362674	0.305507559	-9.125363172	-1.066898773	-3.756604379	-3.383353059	-2.498094425	-1.58408537	1.206575579	-0.355165883	-0.383632457	0
417	1120895002	0.16226225	-0.043936063	0.937346014	0.305160669	-9.132592251	-0.978742031	-3.728080861	-2.028823397	-3.7783777	-2.170831553	1.20849753	-0.355964845	-0.383931719	0
418	1120911669	0.163150133	-0.043906943	0.937243015	0.305007777	-9.163777649	-1.090188921	-3.755060615	-0.512942506	-4.634902173	-2.456172095	1.209414409	-0.354590437	-0.380924865	0
419	1120928336	0.164007522	-0.043790352	0.937262678	0.304503875	-9.199733136	-1.108029517	-3.7531079	-2.950847339	-4.223506403	-3.387019673	1.209067088	-0.355372971	-0.384238933	0
420	1120945003	0.164826423	-0.043649746	0.937312936	0.303926651	-9.164751442	-1.034415869	-3.663829832	-3.48244861	-3.912726545	-3.554754754	1.209007032	-0.355955719	-0.380502509	0
421	1120961670	0.165584016	-0.043495885	0.937250381	0.303729756	-9.177516052	-0.937156093	-3.634292542	-0.794472325	-3.500892998	-3.042590179	1.210049978	-0.35871582	-0.380420324	0
422	1120978337	0.166216529	-0.043372246	0.937141513	0.303737879	-9.169347146	-1.099658322	-3.764114621	0.575529977	-2.743264341	-2.327780624	1.208665972	-0.358466031	-0.379639531	0
423	1120995004	0.166661338	-0.043210587	0.937206905	0.303315119	-9.142908692	-1.072650994	-3.83355205	-2.581752131	-1.383861533	-2.723578868	1.211503275	-0.358328214	-0.378990186	0
424	1121011671	0.166958083	-0.043021917	0.937247144	0.303054291	-9.12628042	-0.916999227	-3.796302074	-1.504202111	-0.354614331	-2.394805619	1.211269167	-0.356025457	-0.382635145	0
425	1121028338	0.167228249	-0.042838357	0.937260827	0.302888974	-9.101681888	-0.9782748	-3.927795521	-0.880199576	-0.201711718	-2.203292749	1.213095486	-0.358132314	-0.383016655	0
426	1121045005	0.167495948	-0.04261287	0.937383447	0.302392995	-9.078918556	-1.048272098	-4.075751401	-3.143485128	-0.06789521	-2.859214826	1.212858482	-0.360656038	-0.381319057	0
427	1121061672	0.167692165	-0.042338687	0.937594949	0.301666182	-9.104171157	-0.889098836	-3.971168132	-4.797882189	0.520948637	-3.321984488	1.212530681	-0.358254322	-0.377239893	0
428	1121078339	0.167790646	-0.042066692	0.937720279	0.301259639	-9.127440906	-0.794576666	-3.840344338	-2.611972299	1.13274694	-2.722983941	1.208930504	-0.361356401	-0.380035957	0
429	1121095006	0.167865832	-0.041825716	0.937701591	0.301309471	-9.101307545	-0.847159719	-3.914014494	0.599338964	1.184984778	-1.902477079	1.212783318	-0.361025053	-0.378261601	0
430	1121111673	0.167803879	-0.041563055	0.937763168	0.301188665	-9.14967053	-0.943257171	-3.978316114	-0.649178556	2.158826148	-1.964807893	1.210893285	-0.363190078	-0.379960999	0
431	1121128340	0.167696158	-0.041279861	0.937885755	0.300905769	-9.143216068	-0.886164641	-3.942538207	-1.810631825	2.517604785	-2.206178891	1.210303105	-0.362544019	-0.37949025	0
432	1121145007	0.167597948	-0.041062985	0.937991283	0.300661125	-9.163345773	-0.799479776	-3.847520107	-1.609071759	2.304969962	-1.753551821	1.210160013	-0.366573682	-0.3796281	0
433	1121161674	0.167483746	-0.040886175	0.938071613	0.300498194	-9.160471455	-0.859159094	-3.952733322	-1.080847527	2.319245426	-1.362547549	1.208174119	-0.364913097	-0.379260502	0
434	1121178341	0.167311569	-0.040703227	0.938268009	0.300005382	-9.132053099	-0.899727866	-3.884667241	-3.456285735	2.743803415	-1.695374708	1.210341695	-0.363142583	-0.376819644	0
435	1121195008	0.167121156	-0.040551028	0.938465117	0.299515206	-9.123213644	-0.806899692	-3.780424804	-3.497286714	2.795106151	-1.464034633	1.207712736	-0.364115215	-0.377078158	0
436	1121211675	0.166895231	-0.040474829	0.938568034	0.299328941	-9.080536067	-0.756566766	-3.781883259	-1.424373496	2.846287775	-0.520937441	1.209481787	-0.365547413	-0.377344862	0
437	1121228342	0.166680264	-0.040404439	0.93868607	0.299088002	-9.113655409	-0.845361222	-3.879716265	-1.802654899	2.766800939	-0.571370813	1.208012926	-0.364122144	-0.376254021	0
438	1121245009	0.166412222	-0.040352684	0.938893242	0.298593559	-9.120611745	-0.901571688	-3.849007368	-3.660917062	3.099416291	-0.659471144	1.208026865	-0.364981953	-0.377324384	0
439	1121261676	0.16614382	-0.040317443	0.939141775	0.297965539	-9.141144899	-0.852192141	-3.827549411	-4.630897296	3.076393913	-0.719691462	1.208408012	-0.364161676	-0.377747603	0
440	1121278343	0.165869525	-0.04033145	0.939339122	0.297494013	-9.131413865	-0.831171421	-3.808380718	-3.570187753	2.996988177	-0.196192487	1.207452367	-0.364653085	-0.378076365	0
441	1121295010	0.165561029	-0.040357956	0.939481135	0.29721369	-9.156601179	-0.827922554	-3.839244238	-2.246779054	3.181989587	0.185682124	1.206708225	-0.366622369	-0.376351277	0
442	1121311677	0.165210603	-0.040396921	0.939653976	0.296856786	-9.154138427	-0.953677316	-3.834538603	-2.842246157	3.439235555	0.249386062	1.211338685	-0.369046065	-0.374540151	0
443	1121328344	0.164906852	-0.040401075	0.939812724	0.296522387	-9.143593101	-0.902381902	-3.83615221	-2.607480555	3.19757504	-0.037641613	1.203540379	-0.370236802	-0.371879262	0
444	1121345011	0.164600331	-0.040415508	0.939915001	0.296366512	-9.102741204	-0.880842827	-3.840607811	-1.338735887	3.182793135	0.259089625	1.208879134	-0.367966244	-0.375409077	0
445	1121361678	0.164345027	-0.040385094	0.940067597	0.296028157	-9.058387869	-0.986517896	-3.926424779	-2.533937729	2.949945414	-0.347299212	1.210231771	-0.370414864	-0.375186057	0
446	1121378345	0.164060954	-0.040331681	0.940296736	0.29546473	-9.084352079	-0.956909593	-3.870540417	-4.138445604	3.202218289	-0.716499352	1.206360916	-0.368255422	-0.373161185	0
447	1121395012	0.163782906	-0.040270817	0.940466471	0.29508683	-9.096745822	-0.875519849	-3.768893052	-2.839021889	3.157496196	-0.564288685	1.208363643	-0.368634414	-0.373346212	0
448	1121411679	0.163443003	-0.040248193	0.940558904	0.294983755	-9.109871242	-0.95697261	-3.829906832	-0.947427998	3.47081978	0.147702862	1.206053521	-0.369510602	-0.371084052	0
449	1121428346	0.163062121	-0.040228575	0.940683883	0.294798641	-9.095524035	-1.013799803	-3.875594458	-1.548746356	3.745361753	0.154949152	1.205058944	-0.369677928	-0.374105942	0
450	1121445013	0.162632995	-0.04017478	0.940874516	0.294434443	-9.074703308	-0.973476633	-3.854673866	-2.81893607	4.147174798	-0.18844823	1.205524754	-0.371657607	-0.372025094	0
451	1121461680	0.162181982	-0.040130894	0.941036989	0.294169852	-9.084456236	-0.930445942	-3.847904339	-2.128811274	4.264445018	0.04539183	1.204107155	-0.368339637	-0.371716635	0
452	1121478347	0.161732065	-0.04009537	0.941134963	0.294108962	-9.106502568	-0.930374254	-3.839057071	-0.693359254	4.223334125	0.339946379	1.205625692	-0.369684436	-0.371261634	0
453	1121495014	0.161310478	-0.040054221	0.941223557	0.294062586	-9.093756604	-0.97530154	-3.853938316	-0.586932837	4.041264239	0.257485374	1.205564402	-0.370691535	-0.373600629	0
454	1121511681	0.16090855	-0.040006769	0.941359542	0.293853892	-9.116984941	-0.986741231	-3.857954704	-1.709346845	3.935733932	-0.009449245	1.204314753	-0.37505172	-0.3740796	0
455	1121528348	0.160473733	-0.039963497	0.941513322	0.293604777	-9.109625653	-0.909819557	-3.787697159	-2.011317726	4.147527013	0.03867283	1.203575842	-0.370064086	-0.368833903	0
456	1121545015	0.160035828	-0.039921453	0.941565261	0.293682942	-9.120158322	-0.9317914	-3.739226518	0.243032116	4.134262442	0.413660752	1.205744218	-0.37408993	-0.373445951	0
457	1121561682	0.159565423	-0.039886672	0.941591891	0.293858195	-9.164174203	-0.981019829	-3.790517234	0.87586592	4.32691591	0.627689774	1.202038434	-0.37082512	-0.371951008	0
458	1121578349	0.159140319	-0.039816525	0.941666206	0.293860101	-9.165592007	-0.990363288	-3.881707713	-0.198035333	4.12233009	0.147170599	1.202001	-0.375734237	-0.372461948	0
459	1121595016	0.15879665	-0.03972244	0.941781587	0.293688941	-9.168212166	-0.920474025	-3.826597459	-1.331297353	3.642844784	-0.360932912	1.202103797	-0.372568883	-0.371863441	0
460	1121611683	0.158560691	-0.039587619	0.941856936	0.293592985	-9.196070403	-0.971621016	-3.7987018	-0.70974031	3.001778693	-0.757828094	1.202569581	-0.376508595	-0.367950983	0
461	1121628350	0.158303244	-0.039434933	0.941967216	0.293398589	-9.207742543	-0.967161944	-3.85900054	-1.390342111	3.19061192	-0.939060868	1.202939958	-0.377258617	-0.36822032	0
462	1121645017	0.158082299	-0.039274602	0.942090381	0.293143661	-9.152804178	-0.90149549	-3.815763424	-1.817903402	2.963088286	-1.144418298	1.20066634	-0.373526213	-0.369420279	0
463	1121661684	0.157817541	-0.039132169	0.942153232	0.293103367	-9.127972527	-0.940392681	-3.785287289	-0.307223246	3.206893434	-0.675811932	1.200220505	-0.374858511	-0.366605863	0
464	1121678351	0.15756634	-0.038977502	0.942213996	0.293063796	-9.130554897	-0.954164204	-3.873435139	-0.282658015	3.141843862	-0.782057223	1.200171846	-0.374992606	-0.368695598	0
465	1121695018	0.157253257	-0.038766821	0.942319237	0.292921494	-9.26168547	-0.916465938	-3.854454717	-1.018571701	3.671612803	-1.153116673	1.200154083	-0.375674222	-0.366710195	0
466	1121711685	0.156921963	-0.038544075	0.942375524	0.292947477	-9.253526497	-0.888162626	-3.793658248	0.159092412	3.803427374	-1.008243928	1.201487213	-0.377775143	-0.367470584	0
467	1121728352	0.156630239	-0.038309752	0.942384787	0.293104493	-9.134474346	-0.945477473	-3.855723486	1.171853984	3.561989173	-0.987984344	1.201773645	-0.376958603	-0.365649026	0
468	1121745019	0.15635773	-0.038066436	0.942425344	0.293151287	-9.076523857	-1.031685107	-3.943193499	0.40356929	3.459153853	-1.213237741	1.198004872	-0.378822047	-0.371020506	0
469	1121761686	0.156104021	-0.037809364	0.942569936	0.292854745	-9.030904078	-1.073745184	-3.908961749	-2.050274698	3.378467618	-1.752480906	1.199204888	-0.374348704	-0.369125113	0
470	1121778353	0.155850467	-0.037529088	0.942755305	0.292428853	-9.032577451	-1.006658059	-3.794792377	-2.896184663	3.439128962	-2.027908813	1.200251716	-0.37830261	-0.365005831	0
471	1121795020	0.15562487	-0.037207617	0.942909477	0.292092812	-9.029942749	-0.899812056	-3.833058183	-2.178159924	3.332791755	-2.235300658	1.195983766	-0.379099654	-0.3664357	0
472	1121811687	0.155383829	-0.036864027	0.943057085	0.29178801	-9.013282561	-0.93788601	-3.85948919	-1.989486641	3.471365682	-2.334431697	1.197913326	-0.378647387	-0.36800096	0
473	1121828354	0.155174022	-0.036497058	0.943245223	0.291337325	-8.961825016	-0.987942841	-3.857455911	-2.991085055	3.318123354	-2.717682295	1.198728686	-0.380968878	-0.366294188	0
474	1121845021	0.154951167	-0.036141586	0.943464752	0.290788899	-8.937497978	-0.935898992	-3.821572743	-3.740651785	3.382156714	-2.746158029	1.201251921	-0.380994801	-0.367228378	0
475	1121861688	0.154794008	-0.035766573	0.943636415	0.290361642	-8.993747873	-0.862118629	-3.753496996	-2.787613683	2.977822043	-2.846517317	1.197309185	-0.38392765	-0.365008931	0
476	1121878355	0.154673247	-0.035387876	0.943748073	0.290109392	-9.051412706	-0.852570575	-3.735049814	-1.513091494	2.727288847	-2.740837349	1.197304454	-0.383645662	-0.362750202	0
477	1121895022	0.154612493	-0.035003801	0.943855342	0.289839274	-9.105894349	-0.906986042	-3.762928376	-1.59217265	2.342360274	-2.91158214	1.198700879	-0.383445455	-0.367664604	0
478	1121911689	0.154615369	-0.0346138	0.943991005	0.289442491	-9.164162146	-0.896645745	-3.777784932	-2.448547542	1.939865584	-3.218453666	1.196013608	-0.383224452	-0.366133398	0
479	1121928356	0.154701937	-0.034258707	0.944122269	0.289010023	-9.181706967	-0.843975931	-3.775720849	-2.69609838	1.314710268	-3.199970992	1.197547798	-0.386965714	-0.364785808	0
480	1121945023	0.154847999	-0.033959678	0.944217849	0.288654621	-9.157338507	-0.821522756	-3.711814255	-2.152344545	0.799661987	-2.858142049	1.197754097	-0.38444581	-0.366335317	0
481	1121961690	0.154988398	-0.033727218	0.944347091	0.288183349	-9.108261019	-0.841586202	-3.740648568	-3.024169843	0.71690765	-2.539221388	1.194265983	-0.384825676	-0.365213242	0
482	1121978357	0.155115819	-0.033504926	0.944483892	0.287691988	-9.057601952	-0.831225907	-3.749390557	-3.210966997	0.780295062	-2.4858956	1.197527206	-0.385291536	-0.364302133	0
483	1121995024	0.155254865	-0.033340654	0.944561589	0.287380812	-9.082968905	-0.762688691	-3.709734102	-1.987834166	0.568384199	-1.930040284	1.196968869	-0.386232989	-0.361030877	0
484	1122011691	0.155415138	-0.033202396	0.944577052	0.287259341	-9.095572585	-0.821302258	-3.80068583	-0.651647289	0.357282359	-1.586650453	1.196432738	-0.387761123	-0.362479542	0
485	1122028358	0.155542268	-0.033113311	0.944626086	0.287039491	-9.116711126	-0.878302423	-3.867240119	-1.395933199	0.492704016	-1.306617219	1.200391398	-0.389806642	-0.362695593	0
486	1122045025	0.155734207	-0.033033946	0.944716091	0.286648081	-9.057516691	-0.89432977	-3.879500587	-2.612102574	0.051351942	-1.577464568	1.194952283	-0.387482419	-0.363316047	0
487	1122061692	0.155951667	-0.032970584	0.944847472	0.286103605	-9.046217619	-0.859982143	-3.908431336	-3.696550864	-0.137481569	-1.697441832	1.197307772	-0.387558753	-0.362602333	0
488	1122078359	0.156195981	-0.032896603	0.944950466	0.285638312	-9.073319942	-0.813172297	-3.852582883	-3.118729002	-0.307256308	-1.732933683	1.199511013	-0.388454566	-0.363800451	0
489	1122095026	0.15646661	-0.032819807	0.945028103	0.285241904	-9.071417851	-0.836192507	-3.870971844	-2.591852836	-0.48257137	-1.716534642	1.198672126	-0.388141973	-0.360306714	0
490	1122111693	0.156740088	-0.032709538	0.945114091	0.284819217	-9.098018999	-0.887377564	-3.886523199	-2.677654573	-0.427169138	-1.943304749	1.201289074	-0.389164926	-0.363566857	0
491	1122128360	0.156968904	-0.032618638	0.945195857	0.28443203	-9.086777276	-0.909776589	-3.906797983	-2.508403595	-0.177165646	-1.708164393	1.201153013	-0.391642572	-0.358778029	0
492	1122145027	0.157133138	-0.032532691	0.945288446	0.284043227	-9.082294099	-0.857813457	-3.878278253	-2.577871861	0.239953587	-1.56397262	1.19807736	-0.389437385	-0.362772209	0
493	1122161694	0.157237835	-0.032436793	0.945345	0.283807944	-9.070269011	-0.873419051	-3.884354388	-1.525942815	0.638143228	-1.344935603	1.198433684	-0.390058942	-0.359861964	0
494	1122178361	0.157271009	-0.032350305	0.945385456	0.283664638	-9.088083274	-0.85095236	-3.872112196	-0.890268779	1.091246878	-1.027044063	1.199805014	-0.390337483	-0.359476791	0
495	1122195028	0.15728925	-0.032234358	0.945430009	0.283519197	-9.084395363	-0.852605499	-3.92286647	-0.915177617	1.243591715	-1.208244869	1.200089521	-0.393283894	-0.358542429	0
496	1122211695	0.157260017	-0.032100029	0.945506234	0.283296377	-9.097884085	-0.845997217	-3.891047863	-1.452502705	1.605451465	-1.319143077	1.197346247	-0.39258352	-0.360768144	0
497	1122228362	0.157202368	-0.031969942	0.945567924	0.283137139	-9.128982252	-0.841851651	-3.887476086	-1.021515301	1.779394977	-1.1641987	1.199411279	-0.392403845	-0.362141486	0
498	1122245029	0.157113209	-0.031813335	0.94561272	0.28305465	-9.166877851	-0.844970609	-3.880296379	-0.473045099	2.033159686	-1.192118453	1.200959461	-0.395608361	-0.357868184	0
499	1122261696	0.157040221	-0.031679796	0.945642999	0.283008973	-9.163852339	-0.879358557	-3.891120635	-0.269821749	1.869361143	-1.050609351	1.198960453	-0.392866144	-0.356965331	0
500	1122278363	0.156955654	-0.031549767	0.945740136	0.282745699	-9.139992856	-0.921170245	-3.912098053	-1.8083454	1.962246159	-1.250788636	1.200797903	-0.39501694	-0.357147763	0
501	1122295030	0.156840152	-0.031430202	0.94585469	0.282439754	-9.143985809	-0.871722102	-3.866830519	-2.140399785	2.152240302	-1.173035159	1.199384385	-0.39266586	-0.355706667	0
502	1122311697	0.156696805	-0.03132612	0.94594763	0.282219537	-9.123193347	-0.844530949	-3.803669879	-1.548196577	2.29926893	-0.915141606	1.196912761	-0.397940018	-0.360411647	0
503	1122328364	0.156565316	-0.031212592	0.946029761	0.282029727	-9.083415199	-0.904937782	-3.780575918	-1.248532677	2.243754334	-0.935370621	1.197543139	-0.395150678	-0.356642528	0
504	1122345031	0.156395969	-0.031068545	0.946144111	0.281755864	-9.088392383	-0.915622422	-3.798780744	-1.944059601	2.551692356	-1.207886647	1.201569069	-0.396493401	-0.35907007	0
505	1122361698	0.156253455	-0.03088534	0.94628121	0.281394429	-9.100588457	-0.921349147	-3.775003581	-2.447462462	2.466557129	-1.58565549	1.194663767	-0.39990812	-0.358186899	0
506	1122378365	0.156114848	-0.030705357	0.946373576	0.281180351	-9.108264508	-0.889798099	-3.78448929	-1.367959422	2.422382648	-1.389052254	1.198509233	-0.398409906	-0.355943032	0
507	1122395032	0.156022872	-0.030519664	0.946418046	0.28110193	-9.08284281	-0.894190322	-3.843330059	-0.399377768	2.105755957	-1.36939263	1.19681521	-0.398474986	-0.359576889	0
508	1122411699	0.156001498	-0.030267865	0.946500554	0.280863117	-9.058098415	-0.95801519	-3.838907074	-1.441176382	1.778562657	-2.122446975	1.196709344	-0.397565497	-0.355332731	0
509	1122428366	0.156077892	-0.029997031	0.946526392	0.280762639	-9.125790397	-0.896230674	-3.795385779	-0.410821214	1.144218664	-2.282338462	1.196945207	-0.400581604	-0.358525244	0
510	1122445033	0.156170629	-0.029710437	0.946546977	0.280672132	-9.163746857	-0.869931769	-3.79930442	-0.345713821	1.061499848	-2.418489567	1.198010756	-0.400565333	-0.353780271	0
511	1122461700	0.15634637	-0.02937044	0.946584364	0.280483924	-9.173643513	-0.934035873	-3.825717088	-0.880958464	0.629944272	-3.009386216	1.195452409	-0.400748686	-0.357409498	0
512	1122478367	0.156499602	-0.02905583	0.946621233	0.28030675	-9.159029018	-0.91434948	-3.771902063	-0.867834373	0.725885402	-2.800894419	1.194188415	-0.40039133	-0.35631897	0
513	1122495034	0.156691137	-0.028752139	0.946575227	0.280386414	-9.097192569	-0.866583749	-3.820335845	0.970442723	0.419444363	-2.506305805	1.198542713	-0.398595738	-0.35566861	0
514	1122511701	0.15695491	-0.028429231	0.946516177	0.280471141	-9.094681679	-0.900844412	-3.818866271	1.048222786	-0.028226339	-2.768664823	1.197850256	-0.402531092	-0.356505738	0
515	1122528368	0.157239354	-0.0280729	0.94651569	0.280349328	-9.100833566	-0.848852338	-3.767204214	-0.435887288	-0.084746391	-3.291272049	1.198497627	-0.401211654	-0.356876218	0
516	1122545035	0.157616472	-0.027656841	0.946499792	0.280232565	-9.116247488	-0.850852991	-3.782327615	-0.221851491	-0.579493306	-3.822051469	1.196666021	-0.401988303	-0.353730092	0
517	1122561702	0.158019295	-0.027268196	0.946424502	0.280298072	-9.140020648	-0.858410036	-3.830844736	1.072582319	-0.82541747	-3.475288901	1.198708845	-0.402016156	-0.355103158	0
518	1122578369	0.158460479	-0.026869564	0.946340423	0.280371373	-9.109892688	-0.886672914	-3.885338436	1.176269966	-1.062839151	-3.597425979	1.199596325	-0.407177977	-0.355049235	0
519	1122595036	0.158978662	-0.026438106	0.946294347	0.280274544	-9.128421941	-0.850707774	-3.917491848	0.039152363	-1.491997177	-4.155875644	1.199510639	-0.400612843	-0.35426007	0
520	1122611703	0.159560066	-0.025982869	0.946254679	0.280120615	-9.1217911	-0.834315319	-3.927341482	-0.39230535	-1.872179296	-4.534911921	1.20208552	-0.404956474	-0.352563619	0
521	1122628370	0.16014606	-0.025504467	0.946214781	0.27996491	-9.052803584	-0.819913286	-3.906987419	-0.275962526	-1.84825604	-4.653009345	1.199576617	-0.403455777	-0.354248133	0
522	1122645037	0.160751884	-0.025007653	0.946145671	0.279896086	-9.048464284	-0.817942944	-3.93921125	0.39341466	-1.956241731	-4.700351006	1.199803961	-0.406505025	-0.356252073	0
523	1122661704	0.161364119	-0.024491689	0.946037705	0.27995435	-9.042596102	-0.810428749	-3.956331417	1.329699908	-1.98239457	-4.686138656	1.199178096	-0.407852104	-0.357891732	0
524	1122678371	0.162010075	-0.023949507	0.945954296	0.279910032	-9.082593487	-0.833754423	-4.031965874	0.561483719	-2.155201669	-5.079673507	1.19940673	-0.407457887	-0.35714056	0
525	1122695038	0.162652105	-0.023387909	0.94591364	0.279722514	-9.116550907	-0.831754369	-4.027447786	-0.398872506	-2.066939396	-5.352496272	1.198060246	-0.407239614	-0.352531395	0
526	1122711705	0.16325498	-0.022834325	0.94586494	0.279581688	-9.119627401	-0.78582729	-3.97897493	-0.064751001	-1.828158458	-5.159878017	1.204290498	-0.406959876	-0.358201369	0
527	1122728372	0.163842788	-0.022291028	0.94578016	0.279568488	-9.106573562	-0.781089989	-4.014375404	0.76208074	-1.779846583	-4.942277111	1.200484945	-0.407294843	-0.355015937	0
528	1122745039	0.164402964	-0.021754134	0.945723635	0.279473128	-9.102978223	-0.838712241	-4.02509353	0.18052097	-1.593577033	-4.939845514	1.198354586	-0.409349077	-0.354791223	0
529	1122761706	0.164897818	-0.021205204	0.94569274	0.279328284	-9.091957375	-0.759087542	-4.00508284	-0.168053176	-1.124144417	-4.944166314	1.200490614	-0.406877587	-0.356757179	0
530	1122778373	0.165353089	-0.020688108	0.94564331	0.279265265	-9.067213169	-0.690673086	-3.947841986	0.41795982	-0.931756262	-4.541784472	1.198426807	-0.407628884	-0.355348117	0
531	1122795040	0.16577277	-0.020212023	0.945586398	0.279244027	-9.055857538	-0.701768894	-3.948387674	0.64307714	-0.785819856	-4.165031589	1.195659853	-0.411294627	-0.353911677	0
532	1122811707	0.16609791	-0.019768701	0.945552402	0.279197668	-9.045474237	-0.7512771	-3.976853031	0.305832972	-0.222194321	-3.84054162	1.201810765	-0.40922484	-0.354371857	0
533	1122828374	0.166336309	-0.019353849	0.945580377	0.278989983	-9.077153936	-0.734386515	-3.972868972	-0.824503992	0.342889694	-3.647942891	1.201081133	-0.413668695	-0.354133441	0
534	1122845041	0.166469459	-0.018992998	0.945582807	0.278927124	-9.088587581	-0.707578006	-3.856169446	0.048384426	0.906827764	-2.946159189	1.200022156	-0.408663194	-0.35684497	0
535	1122861708	0.166533158	-0.018703133	0.945588662	0.278888835	-9.094013182	-0.761741893	-3.949132425	-0.068711807	1.205782763	-2.406301607	1.196410717	-0.410649554	-0.355659537	0
536	1122878375	0.166524731	-0.018425285	0.945653166	0.27869358	-9.085232704	-0.80199312	-3.986964214	-1.147858889	1.70575906	-2.34601497	1.198923778	-0.409869945	-0.353895278	0
537	1122895042	0.166470357	-0.018166542	0.945768594	0.278351151	-9.087781546	-0.790603668	-3.925592201	-2.059210586	2.028104579	-2.23373508	1.199449088	-0.411315385	-0.354300734	0
538	1122911709	0.166413496	-0.017938912	0.945856941	0.278099606	-9.09993333	-0.768237795	-3.855336867	-1.498365555	1.957394331	-1.941688624	1.198472931	-0.411068734	-0.355254867	0
539	1122928376	0.166477264	-0.017723146	0.945847826	0.278106276	-9.101737759	-0.857906131	-3.918049879	0.366084185	1.069483859	-1.790370337	1.199222694	-0.413376921	-0.353059051	0
540	1122945043	0.166540239	-0.017512547	0.945815258	0.278192661	-9.147175898	-0.875063327	-3.927799589	0.983273906	1.053920614	-1.634115411	1.196936099	-0.4143988	-0.356869053	0
541	1122961710	0.166564203	-0.017311789	0.945882572	0.277961919	-9.113608898	-0.90942436	-3.990069132	-1.506272823	1.33688914	-1.969910611	1.199906982	-0.412406778	-0.358069677	0
542	1122978377	0.166613451	-0.01709667	0.945995434	0.277561344	-9.105602016	-0.894434407	-3.873099282	-2.544944126	1.24652267	-2.251194993	1.199652636	-0.412530724	-0.355411166	0
543	1122995044	0.166672371	-0.016902982	0.946067651	0.277291561	-9.058513864	-0.873512255	-3.84278935	-1.631408664	1.111941001	-1.97387599	1.19679829	-0.413998522	-0.355178773	0
544	1123011711	0.166770452	-0.016699182	0.946109896	0.277100738	-9.051758063	-0.870135053	-3.891250179	-1.03202623	0.85184435	-2.014328038	1.198107926	-0.415743331	-0.351994279	0
545	1123028378	0.16681428	-0.016497103	0.946192916	0.276802832	-9.054399103	-0.922271174	-3.865312506	-2.028517947	1.208831234	-2.122963253	1.195393632	-0.415987005	-0.354268099	0
546	1123045045	0.166895491	-0.016295716	0.946293628	0.276421264	-9.061496664	-0.930549314	-3.814165168	-2.438415238	0.99401632	-2.215329607	1.197131916	-0.415266655	-0.35332799	0
547	1123061712	0.166938892	-0.016090095	0.946388169	0.276083229	-9.073609291	-0.895661577	-3.833618724	-2.111011551	1.250974165	-2.105181703	1.198937811	-0.41346495	-0.351802284	0
548	1123078379	0.166938409	-0.015917129	0.946413337	0.276007261	-9.04403911	-0.899114915	-3.839864601	-0.360280375	1.416708762	-1.521118215	1.194495932	-0.413681219	-0.349983287	0
549	1123095046	0.166991698	-0.015759877	0.946410288	0.275994503	-9.035669759	-0.875772803	-3.837200321	0.167390138	1.021948564	-1.411883623	1.195628994	-0.417932901	-0.355146923	0
550	1123111713	0.167037653	-0.015606577	0.946427696	0.2759157	-9.048705244	-0.934637483	-3.85314041	-0.143717826	1.098892175	-1.376907186	1.194055173	-0.413108912	-0.353689744	0
551	1123128380	0.167112096	-0.015442087	0.946475241	0.275716717	-9.062834563	-0.901002829	-3.824604363	-1.144411444	0.932781685	-1.723861383	1.197750475	-0.419604171	-0.35005115	0
552	1123145047	0.167177878	-0.01528552	0.946523859	0.27551859	-9.087785784	-0.91406369	-3.836658198	-1.026795832	0.991199686	-1.601139607	1.193019418	-0.417519786	-0.351096967	0
553	1123161714	0.167185509	-0.015144946	0.946567197	0.275372797	-9.072068807	-0.876374256	-3.773536052	-0.722360758	1.336871476	-1.334886159	1.193969969	-0.417565092	-0.348207572	0
554	1123178381	0.167156347	-0.015010604	0.946608231	0.27525678	-9.052967819	-0.900660582	-3.768339573	-0.533333105	1.56462882	-1.190187612	1.19325883	-0.41680891	-0.351739689	0
555	1123195048	0.167131461	-0.014879969	0.946706877	0.274939539	-9.029228513	-0.967009426	-3.914944755	-2.039253467	1.565461371	-1.447759264	1.191515618	-0.416446073	-0.35221876	0
556	1123211715	0.167171113	-0.014725776	0.94686582	0.274375817	-9.009594251	-0.894775772	-3.947392165	-3.735802495	1.230835594	-2.018384801	1.193817548	-0.42059416	-0.350763374	0
557	1123228382	0.167305785	-0.014537884	0.947014849	0.273788787	-9.063467578	-0.811978646	-3.839056093	-3.396674717	0.712313087	-2.25598547	1.193851012	-0.420320728	-0.349109822	0
558	1123245049	0.167449029	-0.014394329	0.94712275	0.273335184	-9.116404853	-0.854746868	-3.830538013	-2.946218668	0.482489093	-2.025558218	1.191090504	-0.419489547	-0.349644781	0
559	1123261716	0.167599808	-0.014265604	0.947225363	0.272893584	-9.133645613	-0.84182692	-3.879503409	-2.883946366	0.400430709	-1.933233093	1.191979414	-0.420541635	-0.347556463	0
560	1123278383	0.167683499	-0.014156635	0.947318805	0.272523239	-9.111370007	-0.812155465	-3.873646787	-2.444049264	0.794291761	-1.602828704	1.192923023	-0.421447219	-0.346571347	0
561	1123295050	0.167803584	-0.014074291	0.947382359	0.272232506	-9.101853476	-0.868689744	-3.865575448	-1.83526063	0.487536146	-1.37697924	1.19238588	-0.421990306	-0.346294245	0
562	1123311717	0.167880321	-0.014026596	0.947462979	0.271906887	-9.11660534	-0.87943757	-3.946515736	-2.19247364	0.713094604	-1.136987479	1.193412943	-0.420891605	-0.350250717	0
563	1123328384	0.167944464	-0.013992672	0.947593847	0.271412534	-9.107809946	-0.855886784	-3.948314547	-3.275010223	0.827238849	-1.167806111	1.190579136	-0.420449323	-0.344572687	0
564	1123345051	0.167985852	-0.013994057	0.947694514	0.271035104	-9.121216281	-0.824484192	-3.932399487	-2.397027183	0.89671849	-0.712687222	1.191906046	-0.421054503	-0.34743098	0
565	1123361718	0.168025656	-0.014026225	0.947742685	0.270840261	-9.098914232	-0.871223549	-3.93707434	-1.330107076	0.78174864	-0.376836747	1.188513749	-0.421921197	-0.343428377	0
566	1123378385	0.168031002	-0.014063657	0.947812165	0.270591753	-9.109055788	-0.883087525	-3.980127362	-1.744064895	1.01350856	-0.349036945	1.188296981	-0.420339169	-0.34671263	0
567	1123395052	0.167991393	-0.014101243	0.947898577	0.270311551	-9.06117468	-0.856771886	-3.947106546	-2.0520504	1.312574096	-0.332404929	1.190963918	-0.421219846	-0.346244847	0
568	1123411719	0.167946181	-0.014193807	0.947958444	0.270124795	-9.030319795	-0.849448734	-3.887687492	-1.432659094	1.227096239	0.158254087	1.189198085	-0.422469736	-0.344897873	0
569	1123428386	0.167844716	-0.014281579	0.948083622	0.269743643	-9.062191233	-0.906927755	-3.889709912	-2.671994818	1.676689782	0.064114607	1.192273461	-0.422930706	-0.344043772	0
570	1123445053	0.167712618	-0.014386798	0.948212811	0.269365853	-9.103528656	-0.881084225	-3.934336603	-2.7639803	1.837086233	0.20173701	1.189008015	-0.423409299	-0.343625649	0
571	1123461720	0.167585701	-0.014551725	0.948312533	0.269084781	-9.145133314	-0.847882489	-3.91564343	-2.130869067	1.668992534	0.701978859	1.189852194	-0.422670383	-0.343467771	0
572	1123478387	0.167524533	-0.014778509	0.94837952	0.268874344	-9.109613915	-0.943942707	-3.930645394	-1.678061202	1.095439127	1.066601069	1.188523804	-0.421815554	-0.344086871	0
573	1123495054	0.167596642	-0.015039384	0.94847987	0.268460646	-9.081445881	-0.945994971	-3.919149531	-3.144837997	0.172804138	0.781404082	1.191419214	-0.42465561	-0.342693034	0
574	1123511721	0.167893928	-0.015309816	0.948610803	0.267796161	-9.062715453	-0.899300776	-3.871224779	-4.969930727	-1.323450147	0.071426395	1.189723028	-0.424214486	-0.340634839	0
575	1123528388	0.168360609	-0.015605704	0.948746925	0.267002696	-9.057585179	-1.004443677	-3.817474971	-5.556619919	-2.449516085	-0.103804842	1.188198069	-0.42582704	-0.341671593	0
576	1123545055	0.168928041	-0.015898261	0.948811044	0.266398506	-9.044873872	-0.972207079	-3.747818497	-4.280406351	-3.176626973	-0.131615162	1.183989712	-0.423780578	-0.342986903	0
577	1123561722	0.16957139	-0.016227008	0.948836389	0.265879172	-9.08625265	-1.030479286	-3.721002548	-3.722232086	-3.777913221	0.055319116	1.186597275	-0.425688661	-0.338971466	0
578	1123578389	0.170276393	-0.016561627	0.948968556	0.2649346	-9.18528106	-1.083508896	-3.586198177	-6.647412403	-4.108112507	-0.508002229	1.190563304	-0.427353081	-0.338319411	0
579	1123595056	0.170926522	-0.016930637	0.949309016	0.263267675	-9.160824816	-1.103091357	-3.810304605	-11.82491725	-3.653060472	-1.071517177	1.186557067	-0.426219841	-0.339272449	0
580	1123611723	0.171613132	-0.017232692	0.949626672	0.261650818	-9.069210104	-0.929156786	-3.816975042	-11.31887113	-3.785385536	-1.490229645	1.187975858	-0.427175225	-0.338425417	0
581	1123628390	0.17225899	-0.017513921	0.949778249	0.260655673	-9.015021461	-0.846006502	-3.77537001	-6.984429724	-3.609178024	-0.81939659	1.192100817	-0.428685744	-0.334865244	0
582	1123645057	0.172888412	-0.017898545	0.94975487	0.260297764	-9.074510118	-0.778323468	-3.660199658	-2.516087776	-3.80435429	0.711416049	1.191139689	-0.430558294	-0.336793418	0
583	1123661724	0.173353266	-0.018260345	0.94965457	0.260329411	-9.173658076	-0.840108838	-3.653060356	0.077811537	-2.742128494	1.286751377	1.190773371	-0.429580362	-0.334976541	0
584	1123678391	0.173580917	-0.018605465	0.949566126	0.260475862	-9.191667138	-0.864230749	-3.70945465	0.749255934	-1.137727427	1.716814544	1.188368751	-0.428718923	-0.335701289	0
585	1123695058	0.17354413	-0.018980152	0.949493958	0.260736289	-9.176965764	-0.807399951	-3.65188893	1.407030912	0.573387684	2.523652508	1.195070861	-0.427073402	-0.33651222	0
586	1123711725	0.17328941	-0.019378435	0.949327895	0.261480027	-9.135369086	-0.827183262	-3.758560727	4.806868602	1.922798933	3.714542089	1.191614835	-0.429723157	-0.337470575	0
587	1123728392	0.172916628	-0.019800835	0.94904739	0.262710523	-9.071183044	-0.981280527	-3.948685588	7.832963851	2.543988709	4.545102643	1.19086133	-0.427583487	-0.33421572	0
588	1123745059	0.172348032	-0.020168644	0.948852663	0.263757475	-9.061564473	-0.99812406	-3.993672733	6.674211733	4.015107422	4.384813595	1.191126096	-0.428460101	-0.335030299	0
589	1123761726	0.171791161	-0.0204934	0.948689796	0.264679975	-9.007327111	-0.964159741	-3.93827278	5.876361981	4.038929378	3.943621335	1.191472182	-0.428957382	-0.335313529	0
590	1123778393	0.171271513	-0.020766134	0.948587061	0.265362815	-9.108860475	-1.045999866	-4.003941568	4.316747981	3.933732118	3.267099746	1.190388204	-0.431351409	-0.340510051	0
591	1123795060	0.170762842	-0.020982838	0.94857145	0.26572914	-9.105928319	-1.039163825	-4.107877533	2.05494293	4.007296556	2.452367393	1.186082486	-0.429904624	-0.337526522	0
592	1123811727	0.170218858	-0.021229068	0.948592066	0.265984886	-9.090306264	-0.904350308	-4.00241095	1.239727793	4.20932575	2.583151816	1.187045008	-0.43053517	-0.336491365	0
593	1123828394	0.169803934	-0.021511818	0.948564296	0.266326196	-9.119472084	-0.931501943	-3.939697724	1.855284094	3.255396314	2.69089155	1.187182751	-0.428425107	-0.335099594	0
594	1123845061	0.169466114	-0.021735019	0.948634081	0.266274682	-9.18193029	-1.020364851	-4.015615899	-0.695599385	2.92978753	1.735823441	1.186633729	-0.429488039	-0.336352151	0
595	1123861728	0.169201343	-0.021920029	0.948862694	0.265612511	-9.208488281	-0.947692978	-3.902397609	-5.058339014	2.597620325	0.554687012	1.183624354	-0.430132903	-0.335269392	0
596	1123878395	0.169016945	-0.022120792	0.949110073	0.264828268	-9.166625809	-0.845925133	-3.821702324	-5.920545089	2.043845893	0.354247922	1.186581016	-0.430000073	-0.33588358	0
597	1123895062	0.168880326	-0.022344551	0.949238532	0.264435941	-9.108186965	-0.837477623	-3.776394644	-3.018623733	1.630369888	0.954085872	1.186286028	-0.4282862	-0.333624389	0
598	1123911729	0.168722803	-0.022590853	0.94926471	0.264421594	-9.08020834	-0.88228923	-3.676743571	-0.081422311	1.703396761	1.731355068	1.188706198	-0.430516334	-0.333193459	0
599	1123928396	0.168536153	-0.022861244	0.949302463	0.264381848	-9.07323648	-1.005823041	-3.74572266	-0.750441613	1.806296889	1.713459481	1.186534017	-0.431951081	-0.332860446	0
600	1123945063	0.168443253	-0.023082906	0.949499015	0.263715132	-9.06176283	-0.943705661	-3.83555355	-4.781181452	1.402510711	0.594672475	1.18514457	-0.431827361	-0.3333073	0
601	1123961730	0.168381498	-0.023299555	0.949664772	0.263138031	-9.065462106	-0.845734255	-3.749601298	-4.329566878	1.162589327	0.52652948	1.187227436	-0.434417451	-0.329951327	0
602	1123978397	0.168371185	-0.023539211	0.949697887	0.263003749	-9.094207475	-0.903674712	-3.698302666	-1.485546761	0.669599938	0.998617547	1.187469171	-0.43455499	-0.334235275	0
603	1123995064	0.168350441	-0.023756443	0.949720732	0.26291499	-9.148045664	-0.990728443	-3.735501424	-0.73076203	0.82622077	1.108163477	1.183074907	-0.435883329	-0.33080354	0
604	1124011731	0.168310667	-0.023958377	0.949700953	0.262993566	-9.109142142	-0.962087144	-3.712985545	0.516082905	0.964948047	1.271369137	1.189317	-0.436338836	-0.333371765	0
605	1124028398	0.168339203	-0.024168867	0.949652987	0.263129213	-9.102924455	-0.986041292	-3.793213998	0.847676455	0.470356375	1.234353822	1.187953927	-0.434220106	-0.332903983	0
606	1124045065	0.168304119	-0.024308072	0.94960868	0.263298683	-9.158156611	-0.960022689	-3.785997076	1.164721832	1.03061646	0.939151085	1.184350337	-0.435758878	-0.329975687	0
607	1124061732	0.168238338	-0.024431883	0.949491481	0.263751535	-9.120377644	-0.924019909	-3.723155178	3.39142974	1.249235417	1.336892554	1.187629752	-0.434638449	-0.329625107	0
608	1124078399	0.16811765	-0.024556195	0.949233436	0.264743901	-9.121144016	-0.976061863	-3.721799446	7.007707995	1.518935403	2.023284167	1.184212687	-0.433807542	-0.332093479	0
609	1124095066	0.168007519	-0.024669362	0.948927981	0.265895813	-9.099389032	-1.082729528	-3.865557516	8.078520102	1.436334779	2.096801829	1.185420353	-0.43435144	-0.331766591	0
610	1124111733	0.167929724	-0.024683805	0.948720331	0.26668343	-9.106637492	-1.118674334	-3.981277126	5.496111184	1.439611854	0.894739821	1.183650921	-0.440295346	-0.3325435	0
611	1124128400	0.167806329	-0.024627685	0.948504644	0.267532156	-9.109105861	-0.904624445	-3.847510854	6.135487628	1.886254036	0.661114856	1.185027219	-0.437948457	-0.334263182	0
612	1124145067	0.167784958	-0.024562008	0.948102395	0.268973539	-9.094548884	-0.878359191	-3.73053632	10.14620103	1.096972796	1.031140134	1.18533739	-0.436656512	-0.333795163	0
613	1124161734	0.167824635	-0.024487899	0.947823704	0.269936031	-8.986907609	-1.236991931	-3.960323145	7.009689125	0.801621454	0.375903453	1.185224973	-0.439990384	-0.335255627	0
614	1124178401	0.167955953	-0.024260912	0.947985653	0.269305418	-8.994227363	-1.232268484	-4.173059836	-4.246358664	0.697540032	-2.808627441	1.182298478	-0.440531451	-0.333622454	0
615	1124195068	0.168243111	-0.023931624	0.948262163	0.268179796	-9.017878369	-0.882865755	-4.024132531	-7.495135409	-0.077772375	-4.333486927	1.184685587	-0.438335351	-0.333012841	0
616	1124211735	0.168615273	-0.02358024	0.948344758	0.267684667	-9.104571953	-0.778193396	-3.797925306	-3.109527766	-0.729284453	-3.927916449	1.185635115	-0.439231008	-0.331773552	0
617	1124228402	0.168887303	-0.023264547	0.94845763	0.267140344	-9.132981487	-0.965058387	-3.920247365	-3.130573192	-0.065301066	-3.393895053	1.187428897	-0.440194021	-0.331673903	0
618	1124245069	0.169169868	-0.022888955	0.948725181	0.266041691	-9.106774006	-1.030806317	-4.000962598	-7.140957542	0.043259382	-4.556043634	1.185527372	-0.44135508	-0.329094922	0
619	1124261736	0.169442139	-0.022517813	0.949001339	0.264912755	-9.114792044	-0.79615462	-3.962181869	-7.643035369	0.071907245	-4.668250217	1.185055955	-0.441994391	-0.330490406	0
620	1124278403	0.169659158	-0.022178833	0.949193696	0.264112092	-9.117942053	-0.595780666	-3.762600594	-4.86031883	0.389769534	-3.730049125	1.186855352	-0.443893834	-0.330674742	0
621	1124295070	0.169844041	-0.021911013	0.949211058	0.263953172	-9.148496895	-0.676063841	-3.727072031	-0.72422945	0.329857598	-2.560833054	1.187280361	-0.443275579	-0.329754949	0
622	1124311737	0.169944236	-0.021689126	0.949235285	0.263819848	-9.145226694	-0.888733234	-3.871766462	-0.443619158	0.835031837	-1.996555295	1.183711275	-0.44533504	-0.330548507	0
623	1124328404	0.169982437	-0.021470621	0.949437445	0.263084629	-9.075651773	-0.910905421	-3.974755935	-4.712062398	1.350676999	-2.595126698	1.183720723	-0.445032057	-0.332208035	0
624	1124345071	0.169965623	-0.021252831	0.949664696	0.262291763	-9.086533131	-0.741130088	-3.892418891	-5.248019537	1.714614218	-2.610073936	1.186287211	-0.445012686	-0.32884984	0
625	1124361738	0.169937149	-0.021067841	0.949745329	0.262033055	-9.071071982	-0.666592784	-3.865942352	-1.410685759	1.652887729	-1.676672011	1.185100604	-0.447860853	-0.32723729	0
626	1124378405	0.169875408	-0.020898271	0.949757562	0.262042328	-9.122765726	-0.849460174	-3.907623127	0.296008742	1.783781487	-1.257995022	1.186145311	-0.448642069	-0.330358702	0
627	1124395072	0.169707046	-0.020703848	0.949849824	0.261832352	-9.086894033	-0.912245162	-3.912324642	-1.319963647	2.578996232	-1.519081104	1.188510466	-0.446482473	-0.329798835	0
628	1124411739	0.16952226	-0.020488052	0.949987493	0.26146932	-9.063648554	-0.846350236	-3.926318172	-2.456476539	2.745780909	-1.849626847	1.183860889	-0.447109493	-0.328927122	0
629	1124428406	0.169295182	-0.020287516	0.949975384	0.261675998	-9.038056232	-0.746351036	-3.915882999	1.548869841	2.903985804	-0.972063645	1.187694293	-0.447584733	-0.32601576	0
630	1124445073	0.169043889	-0.020097039	0.949797505	0.262497566	-9.031077104	-0.746855885	-3.902517552	5.913015331	2.945498062	-0.09432525	1.185053067	-0.447940704	-0.330826916	0
631	1124461740	0.168705947	-0.019872348	0.94948549	0.263857343	-9.061939355	-0.815094417	-3.841127325	9.917352504	3.516956666	0.580038264	1.187690738	-0.449345528	-0.330156942	0
632	1124478407	0.168197057	-0.01964312	0.948993127	0.265962295	-9.044168089	-0.829127564	-3.743100137	14.95367535	4.519283445	1.693171309	1.182021542	-0.447203858	-0.328407474	0
633	1124495074	0.167508374	-0.01940014	0.948329687	0.268766411	-8.996197747	-0.906980962	-3.789764963	19.738304	5.608442529	2.734842869	1.181500833	-0.443889708	-0.331846839	0
634	1124511741	0.166646988	-0.01906614	0.947367959	0.27268886	-8.893925952	-0.872755697	-3.854157551	28.23503623	6.778212142	4.046576449	1.182985693	-0.448709778	-0.336474252	0
635	1124528408	0.165729656	-0.018618276	0.945795157	0.278672857	-8.957917378	-0.848467468	-3.772631532	42.72234479	6.905695129	5.773737736	1.181463862	-0.447391461	-0.338328454	0
636	1124545075	0.164547361	-0.018154512	0.943647717	0.286572096	-9.207985711	-0.795783577	-3.7515776	56.14740752	8.242376135	8.401606475	1.176338143	-0.445272312	-0.342074765	0
637	1124561742	0.163154579	-0.017654646	0.940961319	0.296075486	-9.338723689	-0.773294086	-3.732566234	67.4088079	9.253003844	10.38556968	1.173979683	-0.440645885	-0.346815858	0
638	1124578409	0.161344293	-0.017234748	0.937690323	0.307258591	-9.36504587	-0.801197441	-3.544332555	78.83426188	11.29217403	13.51711076	1.173060814	-0.438454478	-0.351476042	0
639	1124595076	0.159091849	-0.016822512	0.933754498	0.320170775	-9.25216585	-0.823341041	-3.487335081	91.64525064	13.64379671	16.6652823	1.168309584	-0.433180338	-0.361171167	0
640	1124611743	0.156470208	-0.016330782	0.929292862	0.334163367	-9.084433051	-1.00782928	-3.73747391	100.1451202	15.79312278	18.40131883	1.164927106	-0.433492545	-0.367463653	0
641	1124628410	0.153647966	-0.01572998	0.924523428	0.348426896	-8.902100902	-1.41454791	-3.975468103	102.4378404	17.00663459	18.41987932	1.163000866	-0.429615116	-0.374494011	0
642	1124645077	0.151120276	-0.015018243	0.920386351	0.360313864	-8.813168034	-1.790038413	-4.831451421	85.9465067	15.81397164	14.45693452	1.157822085	-0.427179225	-0.378346879	0
643	1124661744	0.1487182	-0.014255821	0.917401692	0.368854719	-8.916801279	-1.038807137	-4.808190536	61.97671214	15.99110782	10.25727054	1.15531984	-0.426054672	-0.383162171	0
644	1124678411	0.146541031	-0.013431461	0.914621328	0.376580866	-9.084575049	-0.481099693	-4.08466906	56.3957382	14.85291798	8.459710972	1.152680471	-0.421719502	-0.387137457	0
645	1124695078	0.144426703	-0.012570897	0.911291647	0.385396464	-9.179205912	-0.444404136	-3.853960345	64.70554355	14.09827097	9.233372124	1.147552161	-0.422281954	-0.391563357	0
646	1124711745	0.142199591	-0.011666183	0.907272801	0.39559985	-9.18300427	-0.549983231	-4.082512799	75.25953214	14.36106715	10.71164776	1.142841015	-0.418570748	-0.395629872	0
647	1124728412	0.139629695	-0.010802356	0.902733641	0.40676631	-9.184220448	-0.502178417	-3.990877182	82.61099502	15.95692274	12.90524909	1.140802343	-0.414531308	-0.400707651	0
648	1124745079	0.136693738	-0.010010961	0.897529029	0.419113642	-9.184308798	-0.434903454	-3.898571259	91.69936925	17.47604285	15.58447439	1.133392474	-0.410371011	-0.40536826	0
649	1124761746	0.133412062	-0.009383648	0.891701039	0.432414646	-9.18331866	-0.464023435	-3.853150603	99.19810958	18.61829307	18.55947906	1.129683109	-0.406516756	-0.414671406	0
650	1124778413	0.13000735	-0.008864871	0.885648446	0.44569758	-9.16543736	-0.68322036	-4.066536478	99.64257283	18.84334157	19.61551692	1.123447516	-0.401779829	-0.41742412	0
651	1124795080	0.126473636	-0.008313609	0.879826107	0.458084407	-9.209889542	-0.664628656	-4.347022292	93.49587261	19.8775478	19.02656037	1.116154548	-0.397252652	-0.424939787	0
652	1124811747	0.122725773	-0.007848791	0.874023163	0.470064135	-9.178693395	-0.225385557	-3.825378321	90.87395048	20.88861728	19.89227345	1.111282489	-0.391410109	-0.430299553	0
653	1124828414	0.118819296	-0.007575011	0.867414814	0.483131591	-9.254468347	-0.198111021	-3.23080531	99.83809173	20.60205277	22.53792828	1.106804716	-0.387118882	-0.43252657	0
654	1124845081	0.114674198	-0.007318403	0.859958757	0.497259695	-9.234531821	-0.605483233	-3.367499258	108.9552643	21.33380465	24.3743817	1.102786187	-0.382614817	-0.44019233	0
655	1124861748	0.110446778	-0.007006719	0.852272537	0.511257212	-9.200567492	-0.879179633	-3.997429467	109.0050291	21.82142112	24.27048752	1.097243485	-0.376904689	-0.447401559	0
656	1124878415	0.105996644	-0.006764778	0.844811276	0.524416682	-9.206349167	-0.797302293	-3.972176275	103.2341646	23.00474528	24.84702671	1.088389374	-0.369270311	-0.451494712	0
657	1124895082	0.101417947	-0.006679382	0.837388293	0.537076003	-9.178114495	-0.707349774	-3.546505594	100.062081	23.18600104	25.88406998	1.08315419	-0.361775985	-0.45619667	0
658	1124911749	0.096781946	-0.00665738	0.829392122	0.550179645	-9.128882043	-0.667554	-3.353760738	104.6868875	22.89884275	26.8290293	1.076914534	-0.356849557	-0.461815302	0
659	1124928416	0.092104134	-0.006586648	0.820515737	0.56411645	-9.096140042	-0.763669657	-3.360278539	112.7967455	22.76912743	27.3380527	1.072190769	-0.352549376	-0.463796327	0
660	1124945083	0.087407598	-0.006398138	0.810883774	0.578607363	-9.146053652	-0.816831044	-3.497458582	118.9249891	22.87174779	27.16758144	1.061390968	-0.346512159	-0.468949811	0
661	1124961750	0.082517236	-0.006176907	0.800540963	0.59353763	-9.15438511	-0.759234757	-3.385087646	124.2101358	23.66543819	28.08932829	1.057972738	-0.334657399	-0.472398688	0
662	1124978417	0.077639662	-0.005971535	0.789355398	0.608978225	-9.118584331	-0.76152311	-3.383609135	130.4487516	23.06372848	28.48882669	1.05001877	-0.328234456	-0.47980315	0
663	1124995084	0.072830424	-0.005804207	0.77736923	0.62478726	-9.132846027	-0.818302898	-3.488279805	135.7811232	22.10937912	28.67952904	1.042991929	-0.317649236	-0.484600834	0
664	1125011751	0.068019155	-0.005722585	0.764458702	0.64104878	-9.160394235	-0.889528167	-3.306522533	142.124221	21.29106908	29.44872881	1.037857126	-0.311060423	-0.489918488	0
665	1125028418	0.063298232	-0.005583565	0.750932598	0.657314529	-9.193516516	-1.045969353	-3.461414065	144.8906488	20.7657272	28.81918189	1.031690545	-0.302050779	-0.491723508	0
666	1125045085	0.058833245	-0.005362488	0.737844711	0.672380157	-9.156702665	-1.254689751	-3.873269065	136.7574755	19.94224603	26.74061478	1.021610611	-0.290320124	-0.49585738	0
667	1125061752	0.054703592	-0.005340034	0.726233724	0.685247093	-9.094134813	-1.175842194	-4.078374903	118.6975547	17.81830226	25.2871377	1.017289339	-0.28312669	-0.499653353	0
668	1125078419	0.050903368	-0.005429223	0.715918352	0.696304735	-9.124277955	-0.877208791	-3.821201797	103.5230725	16.04859344	23.59504229	1.011967036	-0.277621435	-0.500935976	0
