sep=,
DeviceTag:,Xsens_3,,,,,,,,,,,,,,,,,
FirmwareVersion:,2.4.0,,,,,,,,,,,,,,,,,
AppVersion:,2022.0.1,,,,,,,,,,,,,,,,,
SyncStatus:,Synced,,,,,,,,,,,,,,,,,
OutputRate:,60Hz,,,,,,,,,,,,,,,,,
FilterProfile:,General,,,,,,,,,,,,,,,,,
Measurement Mode:,Sensor fusion Mode - Extended (Quaternion),,,,,,,,,,,,,,,,,
StartTime:,2020-11-25 11:23:35.412 +0100,,,,,,,,,,,,,,,,,
© Xsens Technologies B. V. 2005-2020,,,,,,,,,,,,,,,,,,,

PacketCounter,SampleTimeFine,Quat_W,Quat_X,Quat_Y,Quat_Z,FreeAcc_X,FreeAcc_Y,FreeAcc_Z,Status
1, 2979875757, 0.12328389, 0.5978586, -0.3094679, 0.72912514, -2.0359073, 5.66903, 2.8917952, 0
2, 2979892424, 0.13390979, 0.6128805, -0.30787092, 0.71532434, -1.5848539, 4.901289, 3.0568209, 0
3, 2979909091, 0.14492112, 0.62376714, -0.30577528, 0.70458615, -1.2718531, 3.4087443, 2.7507792, 0
4, 2979925758, 0.156784, 0.6317779, -0.30266413, 0.6962024, -1.618031, 1.8921485, 2.462389, 0
5, 2979942425, 0.16920656, 0.6383425, -0.29857427, 0.6890352, -2.109886, 0.54680413, 2.004014, 0
6, 2979959092, 0.18133208, 0.64480674, -0.2931428, 0.68223023, -2.1217518, -0.8195005, 1.5024796, 0
7, 2979975759, 0.19182542, 0.6516807, -0.2856212, 0.67599094, -1.8543916, -1.7459247, 0.82715034, 0
8, 2979992426, 0.20011906, 0.65878, -0.2762621, 0.6705731, -2.121365, -2.3652437, 0.3265257, 0
9, 2980009093, 0.20708315, 0.66585386, -0.26659662, 0.6653641, -2.5567026, -2.8213923, 0.17128563, 0
10, 2980025760, 0.2134578, 0.6726993, -0.25748938, 0.6600293, -2.3982418, -3.1996906, 0.10914993, 0
11, 2980042427, 0.21917753, 0.6790693, -0.24855593, 0.6550373, -1.4933455, -3.7461298, -0.13086605, 0
12, 2980059094, 0.22317792, 0.68521845, -0.23858558, 0.65097785, -0.53525317, -4.2401295, -0.45346355, 0
13, 2980075761, 0.22541781, 0.6911174, -0.22724201, 0.648022, -0.17407592, -4.5453086, -0.56817913, 0
14, 2980092428, 0.22621661, 0.69682175, -0.21522523, 0.6457333, -0.13400987, -4.1210265, -0.46616554, 0
15, 2980109095, 0.22627352, 0.7019549, -0.20353799, 0.6439408, -0.039779495, -3.7630212, -0.49201202, 0
16, 2980125762, 0.22645801, 0.70578504, -0.19340783, 0.64281064, 0.19319163, -3.5246265, -0.4960928, 0
17, 2980142429, 0.22688572, 0.70799947, -0.18520308, 0.64264095, 0.49083623, -3.2850857, -0.43504143, 0
20, 2980192430, 0.2289047, 0.7053299, -0.1703099, 0.6489489, 0.8810201, -2.5436862, 0.15279293, 0
23, 2980242431, 0.22715834, 0.6922671, -0.16755953, 0.66416633, 1.5959536, -1.4033911, -0.0059719086, 0
25, 2980275765, 0.21678934, 0.6886237, -0.16481444, 0.6720594, 1.1230623, 1.4170926, -0.95699024, 0
28, 2980325766, 0.21898274, 0.6887396, -0.18590543, 0.66569614, 0.6556636, 1.1299807, 0.48059177, 0
31, 2980375767, 0.21311034, 0.6894278, -0.19722874, 0.66362786, 1.1412755, -0.85941905, 0.6883116, 0
33, 2980409101, 0.19916277, 0.69073427, -0.19522268, 0.66718554, 0.063140176, -1.0213708, 0.21697617, 0
36, 2980459102, 0.18250242, 0.6921803, -0.19040427, 0.6718285, -1.8145412, -0.2159475, -0.36554432, 0
39, 2980509103, 0.18296036, 0.690904, -0.19234952, 0.6724633, -0.82060415, 0.066661395, -0.50655365, 0
42, 2980559104, 0.1865801, 0.69485223, -0.1902112, 0.66799396, 1.2696137, -0.16131645, 0.37111378, 0
44, 2980592438, 0.18807408, 0.70073575, -0.18609408, 0.66256636, 1.5962569, 0.093433335, 1.3460379, 0
48, 2980659106, 0.18735996, 0.706893, -0.18206716, 0.65732646, 2.849007, 0.08834383, 0.786582, 0
51, 2980709107, 0.18009175, 0.7097819, -0.18749341, 0.65471435, 1.3524423, -0.25326163, 0.1096468, 0
54, 2980759108, 0.17723984, 0.7078886, -0.20189106, 0.6532592, 0.21195376, -0.8795248, -0.31661034, 0
56, 2980792442, 0.17752713, 0.7056691, -0.21366218, 0.6518371, 0.15776573, -0.94351536, -0.34250355, 0
59, 2980842443, 0.17708677, 0.7021896, -0.22788233, 0.6508975, 0.33219746, -0.28257537, 0.14617348, 0
62, 2980892444, 0.17587575, 0.6965915, -0.23943181, 0.65309125, 0.32760563, 9.66023E-4, -0.49820614, 0
65, 2980942445, 0.16915384, 0.7043625, -0.2509035, 0.6421336, 2.2160962, 0.24937542, -0.20278549, 0
67, 2980975779, 0.14341252, 0.71491915, -0.24740523, 0.63807684, 2.8885422, 0.6285676, 1.9616375, 0
70, 2981025780, 0.09014097, 0.7224995, -0.23277585, 0.6447575, 1.8303429, 2.0798638, 2.3762808, 0
73, 2981075781, 0.050020784, 0.7163877, -0.23513974, 0.65499914, -1.4269235, 2.4754238, 2.5532045, 0
77, 2981142449, 0.027346343, 0.6910083, -0.25010708, 0.67766804, -1.927645, -1.0726535, 0.5993786, 0
79, 2981175783, 0.020652354, 0.672837, -0.25054258, 0.6957873, -3.600856, -1.2597876, -0.53795433, 0
82, 2981225784, 0.025144488, 0.6429478, -0.2688515, 0.7167516, -0.66938734, -1.7131639, -0.71196175, 0
85, 2981275785, 0.03090927, 0.61882424, -0.28024036, 0.73320824, -0.27091604, 0.3723396, -2.4720054, 0
87, 2981309119, 0.03794965, 0.60874474, -0.2856195, 0.73921525, -0.7989788, -0.18082522, -0.016204834, 0
90, 2981359120, 0.03941679, 0.5925938, -0.28587538, 0.7520519, -0.11859955, 0.098338716, -2.3395824, 0
93, 2981409121, 0.032600015, 0.5909697, -0.27871925, 0.7563304, 0.8051929, 0.58473045, -0.7090759, 0
96, 2981459122, 0.017629266, 0.59896, -0.26258183, 0.7563164, -0.096225455, 0.7906086, -0.6220846, 0
98, 2981492456, 0.013999283, 0.6060114, -0.2575481, 0.7524965, -0.40279874, 0.83676577, -0.6760855, 0
101, 2981542457, 0.0075420737, 0.6248112, -0.25014728, 0.73960006, -0.31803748, 0.66297287, -0.5202503, 0
104, 2981592458, 0.017157912, 0.6445903, -0.25390297, 0.72095084, 0.022532787, 0.50486624, 1.1911001, 0
106, 2981625792, 0.021527171, 0.6546869, -0.25256506, 0.712152, 1.117233, -0.34902242, 0.7946482, 0
109, 2981675793, 0.019561172, 0.6666924, -0.24908866, 0.702226, -1.0140309, -1.132449, -0.42129898, 0
112, 2981725794, 0.021731466, 0.6784985, -0.251669, 0.6898246, -1.9453918, -0.37022987, -0.9282236, 0
114, 2981759128, 0.023544848, 0.68996936, -0.2398284, 0.68256724, -1.285665, -0.56621844, -2.0616155, 0
117, 2981809129, 0.018533528, 0.7139531, -0.2027036, 0.669975, -2.2744563, -1.5545924, -1.116559, 0
120, 2981859130, -0.0020572841, 0.7392832, -0.15152532, 0.6561433, 1.2958561, -1.7755181, 1.2575436, 0
123, 2981909131, -0.06079632, 0.75230014, -0.070869654, 0.6521914, 3.2635682, 0.61240125, 2.5067873, 0
125, 2981942465, -0.11123738, 0.7459748, -0.015348434, 0.65646034, 5.376849, 0.33668795, 2.0289068, 0
128, 2981992466, -0.19458573, 0.7291471, 0.043198586, 0.6547082, 3.56196, 1.3173507, 0.9161215, 0
131, 2982042467, -0.26129037, 0.71718705, 0.06694269, 0.64258593, 1.2115712, 0.5725242, 1.5646181, 0
133, 2982075801, -0.3004927, 0.70635164, 0.07508376, 0.6365232, -0.10921066, -0.33765766, 0.55788136, 0
136, 2982125802, -0.34356928, 0.6899035, 0.08034518, 0.63211226, -2.0134244, -1.6274253, -0.64526653, 0
139, 2982175803, -0.35195708, 0.68049586, 0.0743621, 0.63839626, -3.6527414, -2.256945, -1.516468, 0
141, 2982209137, -0.33912438, 0.67842686, 0.068075806, 0.6481707, -3.519706, -1.797358, -1.5818176, 0
144, 2982259138, -0.3083269, 0.67263186, 0.0683693, 0.66921914, -2.1551695, -0.10050506, -0.41202927, 0
148, 2982325806, -0.259256, 0.6567658, 0.085232526, 0.7029995, 0.48436812, -0.09025967, 0.10644817, 0
152, 2982392474, -0.19589448, 0.63928056, 0.08988461, 0.73816967, 6.424218, 4.9480596, -0.120741844, 0
155, 2982442475, -0.1715106, 0.652321, 0.06967893, 0.7350062, 0.012771418, 0.012926425, 0.121816635, 0
159, 2982509143, -0.1464257, 0.67478645, 0.031366706, 0.72268033, 0.42911258, 0.49874702, 0.590271, 0
162, 2982559144, -0.15193531, 0.68137103, 0.035207838, 0.7151487, -2.6866214, -0.7056458, -0.038020134, 0
164, 2982592478, -0.14801368, 0.68286455, 0.035901964, 0.7145117, -0.94165474, -0.24857233, 0.16350651, 0
168, 2982659146, -0.13431069, 0.67476094, 0.048651755, 0.724099, -1.120981, -1.4069536, -0.14710522, 0
171, 2982709147, -0.11135164, 0.66796345, 0.051428467, 0.73403585, 1.1420938, -0.19006257, 0.09880352, 0
174, 2982759148, -0.095924884, 0.6755036, 0.043201983, 0.729832, 1.0017685, -0.20828703, 0.58090305, 0
177, 2982809149, -0.08712539, 0.6848004, 0.033643186, 0.72274023, -0.95408404, -0.62449163, 0.32832527, 0
179, 2982842483, -0.08213583, 0.68859285, 0.031108677, 0.71982914, -1.7351775, -0.8657124, -0.20487118, 0
182, 2982892484, -0.07716897, 0.68745494, 0.033502787, 0.7213571, -1.0997128, -1.0035882, -0.6534624, 0
185, 2982942485, -0.07489383, 0.6842253, 0.042286396, 0.72420037, 0.49505237, -0.06710194, 0.23181915, 0
189, 2983009153, -0.08038291, 0.6809849, 0.048683792, 0.7262616, 0.13406396, -0.19130787, 0.3930378, 0
191, 2983042487, -0.08519569, 0.6788639, 0.047379017, 0.7277834, -0.44071412, -0.47738388, 0.20496273, 0
194, 2983092488, -0.09165323, 0.67315644, 0.047478616, 0.7322797, -1.0487225, -0.8790369, -0.34861946, 0
197, 2983142489, -0.09302682, 0.6647289, 0.045514107, 0.7398905, -0.16859739, -0.44322017, 0.034915924, 0
199, 2983175823, -0.09366396, 0.658583, 0.044006854, 0.74537706, 0.1858309, -0.1856702, 0.5072584, 0
202, 2983225824, -0.092552036, 0.6507188, 0.03673041, 0.75278, 0.32931012, 0.22621635, 0.2540207, 0
205, 2983275825, -0.08802974, 0.6476826, 0.023778796, 0.75645244, -0.29558402, 0.7986715, 0.4864273, 0
208, 2983325826, -0.08027685, 0.64678884, 0.010295868, 0.758381, 0.18591294, 0.98373955, -9.6321106E-4, 0
210, 2983359160, -0.07897571, 0.6449959, 0.0056503117, 0.76009154, 0.5039598, 0.69100106, 0.0014562607, 0
213, 2983409161, -0.08182138, 0.6427438, 0.0040489435, 0.7617067, 0.9374956, 0.386801, 0.5479307, 0
217, 2983475829, -0.08614239, 0.6394382, 0.0068473816, 0.7639891, -0.055812526, -0.06545957, 0.4211111, 0
220, 2983525830, -0.08415079, 0.6375313, 0.002569139, 0.7658287, 0.31587207, -0.18192926, -0.60094357, 0
222, 2983559164, -0.08146539, 0.6380619, -0.0013841391, 0.7656803, 0.3625112, -0.15733725, -0.5164156, 0
225, 2983609165, -0.07832888, 0.64100635, -0.0037737489, 0.76353717, 0.13678099, 0.39633653, 0.40425396, 0
228, 2983659166, -0.07596809, 0.64442277, -0.00483346, 0.76088953, 0.21902996, 0.35936457, 0.62520313, 0
231, 2983709167, -0.07429141, 0.6456169, -0.0065501034, 0.7600293, 0.2516119, 0.2747439, -0.09113693, 0
233, 2983742501, -0.07491043, 0.64629686, -0.006314397, 0.7593924, -0.04463755, 0.3472522, -0.007419586, 0
236, 2983792502, -0.07587749, 0.6482005, -0.0059508085, 0.7576748, -0.21453378, 0.29008517, 0.018829346, 0
239, 2983842503, -0.07546401, 0.65034103, -0.0062606335, 0.7558772, -0.12765473, 0.21521325, -0.108115196, 0
241, 2983875837, -0.07562825, 0.65161794, -0.0061507225, 0.75476134, 0.098587096, 0.14087172, -0.15554523, 0
244, 2983925838, -0.07713336, 0.65331745, -0.0045391023, 0.7531495, 0.21940568, -0.21836835, 0.078056335, 0
247, 2983975839, -0.07904369, 0.65403986, -0.002493143, 0.75233346, -0.037349015, -0.29058248, 0.24076748, 0
252, 2984059174, -0.076628864, 0.65604526, -0.004823327, 0.75082445, -0.1212341, 0.10148896, 0.049203873, 0
258, 2984159176, -0.068199515, 0.6597706, -0.011678785, 0.7482934, -0.19975889, 0.5469733, 0.0721302, 0
260, 2984192510, -0.065625906, 0.66165674, -0.01286903, 0.7468374, -0.15860279, 0.45485958, 0.26577473, 0
263, 2984242511, -0.060127407, 0.6658309, -0.015525311, 0.74353266, -0.03260741, 0.1314502, 0.15777016, 0
266, 2984292512, -0.052847534, 0.67154324, -0.015108228, 0.7389428, 0.10276254, -0.25841963, 0.2516613, 0
271, 2984375847, -0.037982345, 0.68573326, -0.012672454, 0.7267699, 0.21580824, -0.382352, -0.32327747, 0
275, 2984442515, -0.02390486, 0.6975889, -0.018818885, 0.7158715, -0.47834387, -0.89069915, 1.415659, 0
278, 2984492516, -0.024030805, 0.70363355, -0.020679116, 0.7098752, 0.2238319, -0.5031911, 0.61889744, 0
281, 2984542517, -0.034013838, 0.7052711, -0.016483247, 0.70794904, -0.35287645, -0.62366104, -0.56534195, 0
283, 2984575851, -0.038281083, 0.70600307, -0.016440421, 0.707002, -1.4049687, -0.8814138, -0.940526, 0
286, 2984625852, -0.033326417, 0.7078268, -0.024078965, 0.7052082, -1.8764668, -0.14864618, -0.33377838, 0
289, 2984675853, -0.022642732, 0.7109808, -0.0347988, 0.7020047, -0.7473594, 0.9769952, 0.56473446, 0
291, 2984709187, -0.018594116, 0.7162873, -0.040484846, 0.6964018, 0.76581794, 1.3151764, 1.4230785, 0
294, 2984759188, -0.024701744, 0.72318685, -0.035955697, 0.6892937, 2.477482, 1.1400237, 1.152194, 0
297, 2984809189, -0.0465692, 0.7259909, -0.01538226, 0.68597364, 0.5128471, -0.59995216, -0.57895756, 0
299, 2984842523, -0.055674702, 0.72757995, -0.007577628, 0.68373823, 1.6399964, -1.2070987, -0.5716791, 0
302, 2984892524, -0.067738414, 0.72742057, 0.0020944476, 0.6828575, 1.9825333, -0.72543085, -0.63990974, 0
306, 2984959192, -0.06349665, 0.72341967, 0.0010612607, 0.68750215, 1.141776, -0.32959086, -0.9963951, 0
309, 2985009193, -0.05292836, 0.72161424, -0.0047964454, 0.69027257, 1.4259503, 0.37158257, -0.7214279, 0
312, 2985059194, -0.050118536, 0.718717, -0.001979053, 0.6935116, 1.0856047, 0.25322342, -0.078383446, 0
314, 2985092528, -0.048262745, 0.71709937, -5.4323673E-4, 0.6953176, 0.9777192, 0.14247029, 0.6097641, 0
318, 2985159196, -0.04053834, 0.71768856, 8.222461E-4, 0.69520295, -0.05339255, 0.23297359, 1.7643795, 0
321, 2985209197, -0.031565577, 0.7176649, -0.0013418496, 0.6956916, 0.4169252, 0.4910591, -0.107227325, 0
325, 2985275865, -0.027483433, 0.7172632, -0.0029498339, 0.69627404, -0.33886686, -0.582901, 0.29595375, 0
328, 2985325866, -0.024186969, 0.7206583, -0.009974718, 0.69281656, -1.8900341, -0.7672071, 0.57520103, 0
330, 2985359200, -0.023234934, 0.72360563, -0.015178025, 0.6896757, -1.5104753, -0.4494707, 0.72593784, 0
333, 2985409201, -0.030384094, 0.72646445, -0.014947265, 0.6863897, -1.7032197, -0.09881798, 0.12738514, 0
337, 2985475869, -0.040189236, 0.723066, -0.008299947, 0.689579, -1.556903, -0.5355974, -0.651, 0
340, 2985525870, -0.046939492, 0.7171334, -0.0014472306, 0.695372, -0.9615478, -1.3218545, -0.06347656, 0
343, 2985575871, -0.05070561, 0.71290016, 0.00606817, 0.69942355, 0.99310786, -0.5715841, 0.70817184, 0
345, 2985609205, -0.05485949, 0.70959353, 0.0113866925, 0.70239997, 1.2512344, 0.18465993, -0.049777985, 0
348, 2985659206, -0.055510163, 0.70408773, 0.010134876, 0.7078872, 1.0910416, -0.09330079, -0.23739147, 0
351, 2985709207, -0.056508124, 0.69779617, 0.00692454, 0.71404994, -0.30519623, -0.73818487, -0.16525841, 0
353, 2985742541, -0.056206137, 0.69385135, 0.0045844316, 0.7179264, -0.17415415, -0.54789597, -0.033776283, 0
356, 2985792542, -0.055878937, 0.68818045, 0.0030938387, 0.7233972, -0.39227864, -0.08402366, 0.20086098, 0
360, 2985859210, -0.053295076, 0.68346834, 4.9948692E-5, 0.72805125, 0.65698683, 0.7224978, 0.2726488, 0
363, 2985909211, -0.05262375, 0.6823958, -0.0018015504, 0.7291032, 0.14187463, 0.42544016, 0.35977173, 0
368, 2985992546, -0.05225113, 0.6819603, -0.0039661825, 0.7295288, 0.05715271, 0.23793468, 0.32758904, 0
371, 2986042547, -0.052300364, 0.6808531, -0.0044326484, 0.7305559, 0.18155064, 0.16450778, 0.113853455, 0
374, 2986092548, -0.052416325, 0.68071485, -0.00541386, 0.73066986, 0.2873695, 0.18673278, 0.177948, 0
376, 2986125882, -0.052592427, 0.68093556, -0.0061695576, 0.7304455, 0.18134008, 0.16317853, 0.18536568, 0
379, 2986175883, -0.052691966, 0.68119895, -0.0074153543, 0.730181, 0.13280402, 0.13864687, 0.073039055, 0
382, 2986225884, -0.053070396, 0.6817943, -0.0079548955, 0.72959214, 0.07059053, 9.812219E-5, 0.11543846, 0
384, 2986259218, -0.052877426, 0.6823952, -0.008347303, 0.72903967, -0.03629515, 0.096550666, 0.20121765, 0
387, 2986309219, -0.052192032, 0.6832701, -0.009280324, 0.728258, 0.17131351, 0.15969352, 0.10750961, 0
390, 2986359220, -0.05166751, 0.6840333, -0.009704471, 0.72757304, 0.05183757, 0.19097617, 0.13359833, 0
393, 2986409221, -0.051365823, 0.6855198, -0.00965786, 0.7261946, 0.31883273, 0.25401732, 0.14571285, 0
395, 2986442555, -0.05020657, 0.68704975, -0.009726286, 0.72482777, 0.48591694, 0.40514988, 0.32443428, 0
398, 2986492556, -0.0458031, 0.69025767, -0.0106548965, 0.72205305, 0.50209415, 0.62407386, 0.13564682, 0
401, 2986542557, -0.03561127, 0.6946616, -0.013696492, 0.7183435, -0.26815966, 0.21185832, 0.29606724, 0
403, 2986575891, -0.027152061, 0.6979714, -0.01716885, 0.71542424, -0.7203894, 0.16035356, 0.24620247, 0
406, 2986625892, -0.017598748, 0.70152235, -0.02172178, 0.7121184, -1.5184102, 0.5225098, -0.5443249, 0
409, 2986675893, -0.013333052, 0.70200014, -0.027868032, 0.71152616, -2.4442365, -0.14916852, -0.07307243, 0
411, 2986709227, -0.016563863, 0.70278317, -0.030750632, 0.71056587, -1.4131699, -0.04594242, 0.44614697, 0
414, 2986759228, -0.03287509, 0.70258987, -0.024444759, 0.71043444, -0.53926075, -0.1455456, 0.2922573, 0
417, 2986809229, -0.048166513, 0.705287, -0.017384917, 0.7070898, 0.8452753, -0.85759753, 2.018777, 0
420, 2986859230, -0.05654931, 0.7111334, -0.009418577, 0.7007357, 2.8725061, 0.8001816, -0.13021088, 0
422, 2986892564, -0.055784285, 0.71272635, -0.006255299, 0.69921243, 1.7077256, 0.014248616, -1.4520655, 0
425, 2986942565, -0.045707703, 0.71370727, -0.014727414, 0.6988158, 2.307329, -0.7980916, -1.2588158, 0
428, 2986992566, -0.045208782, 0.71237004, -0.017777532, 0.70014066, 0.83803546, -0.57593614, -0.87936497, 0
430, 2987025900, -0.038288802, 0.711506, -0.023451656, 0.701264, 0.0923075, 0.17080078, -0.21461487, 0
433, 2987075901, -0.02477026, 0.70822716, -0.03031826, 0.7049179, -0.00940006, 0.35363394, 1.1951857, 0
436, 2987125902, -0.01307562, 0.7060081, -0.03405744, 0.7072833, -0.26689482, 0.40148515, 0.95109844, 0
438, 2987159236, -0.014003813, 0.7049061, -0.034077227, 0.70836294, -0.1620451, -0.016170716, 0.24851799, 0
441, 2987209237, -0.020957112, 0.70559645, -0.032835126, 0.7075622, -1.553308, -0.55203635, -0.15944862, 0
444, 2987259238, -0.02558279, 0.7052393, -0.032908052, 0.70776284, -1.3832088, -0.6179852, -0.70639706, 0
448, 2987325906, -0.028576434, 0.70408934, -0.035838723, 0.7086501, -1.1696469, -0.88331205, 0.15902042, 0
451, 2987375907, -0.030893594, 0.70450866, -0.034801364, 0.7081878, -0.016944963, -0.4213635, 1.3821774, 0
453, 2987409241, -0.031963736, 0.7035692, -0.03144443, 0.7092304, 0.6560825, 0.32970083, 0.43457222, 0
456, 2987459242, -0.03187719, 0.7005019, -0.03164944, 0.7122549, 0.83282226, 0.19717732, -0.3670206, 0
459, 2987509243, -0.034437776, 0.6998391, -0.034141332, 0.7126719, 1.2786318, -0.015547114, -0.2620554, 0
461, 2987542577, -0.03661561, 0.7004556, -0.030733556, 0.7121128, 0.49947926, -0.20848775, -0.369092, 0
464, 2987592578, -0.029788107, 0.7026826, -0.03167948, 0.7101929, 1.7839499, -0.012905638, -0.025517464, 0
467, 2987642579, -0.033563524, 0.7022126, -0.029340953, 0.7105898, 2.1290033, 0.054891095, -0.27331638, 0
470, 2987692580, -0.031725973, 0.701247, -0.030567795, 0.7115754, -1.1782725, 0.42551234, 1.7094412, 0
472, 2987725914, -0.031906426, 0.69856286, -0.03173557, 0.71415174, -1.0561054, -0.06445555, 1.7292414, 0
476, 2987792582, -0.037050486, 0.6920564, -0.028755486, 0.7203375, 0.23323332, -0.050828636, -0.89425564, 0
479, 2987842583, -0.04623711, 0.69045013, -0.024744123, 0.72149587, -0.14909141, -0.29690278, -0.599658, 0
482, 2987892584, -0.054553747, 0.6921775, -0.019620806, 0.7194146, -0.87215537, -0.547235, 0.5093193, 0
484, 2987925918, -0.053782403, 0.6941005, -0.019411922, 0.71762323, -0.474269, -0.30975565, 0.73196316, 0
487, 2987975919, -0.054971635, 0.69506705, -0.016388088, 0.71667236, -0.26822627, -0.1419513, -0.2767601, 0
490, 2988025920, -0.05560875, 0.6948596, -0.015182763, 0.7168507, 0.050756216, -0.42234182, -0.06912804, 0
492, 2988059254, -0.057187527, 0.6945032, -0.0134013295, 0.71710765, -0.13535185, -0.53865236, 0.29122162, 0
495, 2988109255, -0.05786252, 0.69428974, -0.012975812, 0.71726793, 0.2335802, -0.2607757, 0.39287567, 0
498, 2988159256, -0.05703929, 0.6943263, -0.015045583, 0.71725804, 0.25671357, 0.087099425, 0.34491634, 0
501, 2988209257, -0.053257883, 0.69516593, -0.020137936, 0.7166103, 0.08607305, 0.25779068, 0.25361443, 0
506, 2988292592, -0.04771012, 0.69664025, -0.02581361, 0.7153864, 0.1853935, -0.03209646, 0.04202652, 0
509, 2988342593, -0.045936465, 0.6974573, -0.027547657, 0.71464133, 0.4158376, 0.046338037, -0.0016517639, 0
511, 2988375927, -0.045061827, 0.6979316, -0.028987974, 0.71417683, 0.58435386, 0.042982437, 0.13608551, 0
514, 2988425928, -0.044092357, 0.69831085, -0.031190425, 0.7137738, 0.6952706, 0.023568546, 0.07782841, 0
517, 2988475929, -0.04217547, 0.6985083, -0.033331424, 0.7135995, 0.49718332, 0.059441704, -0.15478802, 0
519, 2988509263, -0.04017371, 0.69851625, -0.0351533, 0.71361965, 0.4578408, 0.02336694, -0.14308167, 0
522, 2988559264, -0.036906183, 0.6985682, -0.037760526, 0.7136121, 0.6652011, 0.15668884, -4.863739E-4, 0
525, 2988609265, -0.032817334, 0.69909334, -0.04013294, 0.71316826, 0.33362773, 0.17914362, 0.38875294, 0
528, 2988659266, -0.028422534, 0.7005515, -0.04264012, 0.711779, 0.37848297, 0.16303125, 0.29835224, 0
530, 2988692600, -0.02561152, 0.7018968, -0.044095486, 0.71047044, 0.03136468, 0.16310589, 0.32260418, 0
533, 2988742601, -0.021605879, 0.70330834, -0.044859976, 0.7091588, -1.1932268, 0.041819274, 0.3321457, 0
536, 2988792602, -0.016070515, 0.7043258, -0.047811598, 0.70810235, -1.5509048, 0.22570205, 0.7248583, 0
538, 2988825936, -0.015054792, 0.7038859, -0.046115488, 0.70867425, -1.5533509, 0.30609608, 0.3616295, 0
541, 2988875937, -0.01289016, 0.7017191, -0.04084599, 0.71118474, -1.3251551, 0.3420488, -0.29244995, 0
544, 2988925938, -0.01139009, 0.7013022, -0.033289403, 0.712015, -0.8385283, -0.6356818, -1.1523266, 0
546, 2988959272, -0.012498498, 0.7041749, -0.030849189, 0.70926565, -0.48078284, -0.75527644, -0.54325104, 0
549, 2989009273, -0.019894987, 0.7137284, -0.026988655, 0.6996395, 0.14267458, -0.9613683, 0.73580647, 0
552, 2989059274, -0.028818637, 0.7246312, -0.018662184, 0.68830127, 0.0040207747, -0.4669664, 1.0267582, 0
555, 2989109275, -0.027650356, 0.73226947, -0.015928864, 0.6802875, 0.63445807, -0.071436085, 0.0038604736, 0
557, 2989142609, -0.023774266, 0.7351874, -0.01734969, 0.6772454, 0.53047, -0.47000462, -0.12634373, 0
560, 2989192610, -0.022999913, 0.7368317, -0.018067598, 0.6754638, 0.75420046, -0.57003313, -0.08333588, 0
563, 2989242611, -0.028512478, 0.7358278, -0.014253169, 0.6764387, 0.2447449, -0.39360854, 0.22598553, 0
565, 2989275945, -0.030531943, 0.7338571, -0.013160586, 0.67851037, 0.57541174, -0.21976107, 0.25345802, 0
568, 2989325946, -0.03133595, 0.7297505, -0.011142582, 0.6829246, 0.49072492, -0.39112374, -0.21746731, 0
572, 2989392614, -0.030838698, 0.7254385, -0.01140359, 0.6875217, 0.7479126, -0.067384906, -0.19587708, 0
575, 2989442615, -0.03156343, 0.72286594, -0.011866063, 0.69018537, 0.42047504, -0.068129875, 0.3617344, 0
578, 2989492616, -0.029350877, 0.7200428, -0.014240295, 0.6931824, 0.21422666, -0.27061182, 0.37102222, 0
580, 2989525950, -0.025503814, 0.7185941, -0.018128246, 0.69474554, 0.25593308, -0.25175717, 0.2586193, 0
583, 2989575951, -0.01860699, 0.71807015, -0.025835693, 0.69526225, 0.20770277, 0.02189667, 0.34277058, 0
587, 2989642619, -0.005895287, 0.72007555, -0.040901423, 0.6926843, 0.5854066, 0.2021659, 0.6509886, 0
590, 2989692620, 0.0023453236, 0.72219384, -0.052354604, 0.68972254, 0.2658711, -0.012025667, 0.533556, 0
592, 2989725954, 0.0076850057, 0.7242627, -0.06117344, 0.6867825, 0.33026856, -0.08686384, 0.53862476, 0
595, 2989775955, 0.016307592, 0.7272623, -0.074674994, 0.6821108, 0.08128205, -0.1267276, 0.28151608, 0
598, 2989825956, 0.026896894, 0.7302008, -0.0895713, 0.6768222, -0.112219594, -0.16519798, -0.056236267, 0
600, 2989859290, 0.034662843, 0.7318442, -0.0994637, 0.67330337, -0.24437968, -0.21701029, -0.17253113, 0
603, 2989909291, 0.046101302, 0.7341563, -0.11326337, 0.6678984, -0.43024388, -0.12721218, -0.26060486, 0
606, 2989959292, 0.056501687, 0.7360431, -0.125718, 0.66277504, -0.67367476, 0.034366906, -0.09173679, 0
609, 2990009293, 0.06391016, 0.73720765, -0.13481581, 0.65900904, -0.9153336, 0.12116056, -0.10628033, 0
611, 2990042627, 0.06695169, 0.7376792, -0.13934249, 0.6572355, -0.8754797, 0.1970982, 0.13404465, 0
615, 2990109295, 0.06608558, 0.7380461, -0.14333078, 0.6560525, -0.6765525, 0.36398795, -0.0068244934, 0
618, 2990159296, 0.060879976, 0.7379385, -0.14167053, 0.65703714, -0.19583245, 0.54107994, -0.41622448, 0
621, 2990209297, 0.054998785, 0.73791504, -0.1375807, 0.6584497, 0.5225876, 0.7564579, -0.230587, 0
623, 2990242631, 0.05013147, 0.7376528, -0.13304052, 0.660063, 1.2912605, 0.7088861, -0.652092, 0
626, 2990292632, 0.04240507, 0.7381714, -0.12459278, 0.66167164, 2.5621655, 0.052848633, 0.2157011, 0
629, 2990342633, 0.030358672, 0.7388979, -0.11624873, 0.6630403, 2.206522, -0.438347, 0.26821423, 0
632, 2990392634, 0.030166298, 0.7382411, -0.114899576, 0.66401505, 1.8647434, 0.026971867, -0.4114952, 0
634, 2990425968, 0.034024537, 0.73628354, -0.11586383, 0.6658321, 0.9939058, 0.0466685, -0.71049595, 0
637, 2990475969, 0.042094857, 0.73226666, -0.118528485, 0.6693224, 1.4249119, 0.040691763, 0.07464886, 0
640, 2990525970, 0.045382977, 0.72835743, -0.117141426, 0.6736034, 0.09856519, 0.56851596, 1.4728289, 0
644, 2990592638, 0.045763344, 0.72435164, -0.11416787, 0.67839086, -0.48956558, 0.19239101, 0.06788826, 0
646, 2990625972, 0.04310429, 0.72404075, -0.11032519, 0.67953163, -1.4866618, -0.17294382, -0.34018135, 0
649, 2990675973, 0.04260847, 0.72709465, -0.10739502, 0.6767659, -1.8381802, -0.6966009, 0.28325844, 0
652, 2990725974, 0.044335037, 0.732483, -0.10431996, 0.6713035, -1.2701035, -0.4028061, 0.4943962, 0
654, 2990759308, 0.0466806, 0.7352567, -0.101632476, 0.66851866, -1.0956415, -0.220732, 0.2263956, 0
657, 2990809309, 0.04873413, 0.73630154, -0.09658629, 0.66796994, -1.139965, -0.4355968, -0.59816265, 0
660, 2990859310, 0.046608686, 0.7346598, -0.09107843, 0.67069757, -1.1420374, -0.5596438, -0.5358715, 0
663, 2990909311, 0.037624925, 0.731673, -0.08236006, 0.6756358, -1.2791892, -0.62714607, 0.230237, 0
665, 2990942645, 0.029202044, 0.7292137, -0.0756917, 0.6794803, -0.91303545, -0.3810536, 0.82995415, 0
668, 2990992646, 0.013541192, 0.72420996, -0.062965065, 0.6865858, -0.13816185, -0.1879051, 0.35080147, 0
671, 2991042647, -0.0035775006, 0.7190996, -0.051027715, 0.69304186, -0.2794245, -0.4699883, 0.53330135, 0
673, 2991075981, -0.015666515, 0.7163569, -0.044893354, 0.69613206, -0.28351948, -0.39399502, 0.5712662, 0
676, 2991125982, -0.029842585, 0.71390146, -0.040090173, 0.6984803, -0.40526006, -0.18898803, 0.82747555, 0
679, 2991175983, -0.038721055, 0.7128246, -0.0391818, 0.6991955, -0.7451962, -0.14625391, 0.22462368, 0
681, 2991209317, -0.0420641, 0.7132014, -0.041381836, 0.6984911, -0.38227084, -0.058808047, 0.32931042, 0
684, 2991259318, -0.049018443, 0.71443653, -0.04253614, 0.6967038, -0.04947258, 0.048982643, 0.6225424, 0
687, 2991309319, -0.061386377, 0.7174957, -0.041473508, 0.6926322, -0.08249595, -0.121168606, 0.8953924, 0
690, 2991359320, -0.067805886, 0.7225217, -0.045623064, 0.6865212, 0.8819251, 0.38206747, 1.0643663, 0
692, 2991392654, -0.070838034, 0.7259505, -0.048696876, 0.6823741, 1.0436698, 0.47677314, 0.17173767, 0
695, 2991442655, -0.068401575, 0.7317717, -0.058629453, 0.67559, 0.8565356, 0.45261037, -0.43456936, 0
698, 2991492656, -0.06228417, 0.7374351, -0.070563495, 0.6688489, 1.07108, 0.063948065, -0.9444761, 0
700, 2991525990, -0.060115427, 0.7405479, -0.07569939, 0.66503567, 0.7094605, 0.29521692, -0.7714224, 0
703, 2991575991, -0.055880815, 0.7431469, -0.08140379, 0.6618242, 0.38042465, 0.0023323577, -0.76401615, 0
706, 2991625992, -0.049556464, 0.74433494, -0.083785385, 0.66069484, -0.4851628, -0.300637, -0.43767738, 0
710, 2991692660, -0.046727538, 0.7457857, -0.08098033, 0.6596138, 1.1388814, 0.28173864, -0.29518127, 0
713, 2991742661, -0.05145669, 0.7465192, -0.07731035, 0.658872, 1.9279249, 0.5082768, 0.068696976, 0
717, 2991809329, -0.06897789, 0.7462077, -0.0764744, 0.65772, 0.901322, 0.16134092, 0.030659676, 0
719, 2991842663, -0.085485995, 0.74519956, -0.07292879, 0.6573272, 0.32556495, 0.32351142, -0.12595463, 0
722, 2991892664, -0.11708447, 0.74265516, -0.05989489, 0.65665436, -0.91101223, 0.5158082, 0.29887295, 0
726, 2991959332, -0.17350514, 0.73478264, -0.02188629, 0.6553925, -1.419493, -0.3625445, -0.22189808, 0
729, 2992009333, -0.2064896, 0.72771245, 0.0094382465, 0.6540148, -1.0219314, -0.46180046, -0.1720047, 0
731, 2992042667, -0.22178058, 0.723057, 0.028852522, 0.6536035, -1.2199862, -0.985924, 0.21707058, 0
735, 2992109335, -0.23711598, 0.7134163, 0.061832756, 0.65651953, -0.7530651, -0.7590473, 0.31742573, 0
738, 2992159336, -0.23540398, 0.70570695, 0.08002883, 0.66346514, -0.43178144, -0.35613212, 0.43494225, 0
741, 2992209337, -0.21593112, 0.69953585, 0.08512172, 0.6758738, 0.25616407, 0.21481618, 0.65855885, 0
744, 2992259338, -0.1913529, 0.6931288, 0.085501075, 0.6896913, 1.0801893, -0.25030702, 0.23770809, 0
746, 2992292672, -0.17970732, 0.68995464, 0.08616856, 0.6958957, 1.6358026, -0.025726452, 0.19058704, 0
750, 2992359340, -0.15982619, 0.68972063, 0.07673678, 0.7020545, 1.8663248, 1.7598113, 0.32324982, 0
753, 2992409341, -0.15940702, 0.69195414, 0.07048863, 0.7006056, 1.1635666, 0.19597638, -0.11690235, 0
757, 2992476009, -0.17430317, 0.6939665, 0.07118493, 0.6949746, -0.87934065, -0.51720494, 0.50140667, 0
760, 2992526010, -0.17715445, 0.6954037, 0.06433675, 0.6934829, -0.5334251, 0.08185179, 0.68510437, 0
764, 2992592678, -0.17474657, 0.69326544, 0.057710856, 0.69680977, -0.89842886, -0.5849267, -0.34668732, 0
766, 2992626012, -0.17286164, 0.69223464, 0.055135757, 0.6985111, -0.29481325, -0.3966709, -0.6025896, 0
769, 2992676013, -0.1695467, 0.69109774, 0.054710776, 0.7004802, -0.7225193, -0.1275546, -0.0106601715, 0
772, 2992726014, -0.15870309, 0.68986666, 0.051828653, 0.7044423, -0.41547483, 0.03848625, 0.22264957, 0
775, 2992776015, -0.14486673, 0.6867181, 0.051863432, 0.71047175, 0.058471326, -0.14605074, -0.07149792, 0
777, 2992809349, -0.14095405, 0.6835492, 0.053689748, 0.71416926, 1.3619972, -0.036885224, -0.075855255, 0
780, 2992859350, -0.13951385, 0.68240535, 0.050922275, 0.715747, 0.9939206, -0.13630256, -0.13489246, 0
783, 2992909351, -0.13704273, 0.68335414, 0.045035332, 0.71571374, -0.94331855, -0.32052183, 0.31832504, 0
787, 2992976019, -0.12912497, 0.68321806, 0.03846389, 0.71769655, -0.28402126, -0.1904308, -0.13868427, 0
789, 2993009353, -0.12443918, 0.68264914, 0.03642252, 0.71917063, 0.27814892, 0.16392685, -0.17021179, 0
792, 2993059354, -0.12104136, 0.68193614, 0.03463891, 0.7205138, 0.33431324, 0.22043541, 0.12872696, 0
795, 2993109355, -0.11959937, 0.6824059, 0.032023042, 0.72043073, -0.007740924, 0.03475582, 0.3960371, 0
798, 2993159356, -0.117616445, 0.6831123, 0.02902782, 0.7202147, -0.10932868, -0.06009548, 0.18792439, 0
800, 2993192690, -0.11644605, 0.68329877, 0.028007537, 0.7202685, -0.05912141, -0.1477919, 0.013575554, 0
803, 2993242691, -0.11434129, 0.68350136, 0.026725382, 0.72046214, -0.066416875, -0.0040983334, 0.13110924, 0
806, 2993292692, -0.11257756, 0.6837431, 0.026561111, 0.72051656, 0.016955916, 0.19908254, 0.19351578, 0
808, 2993326026, -0.111600935, 0.6837565, 0.026834637, 0.72064555, -0.12450208, 0.19624259, 0.25991726, 0
811, 2993376027, -0.11337471, 0.6828383, 0.02978015, 0.72112346, 0.2359291, 0.15932496, 0.07404137, 0
814, 2993426028, -0.12223944, 0.6824659, 0.03994623, 0.71953464, 0.037549283, -0.1909726, 0.026528358, 0
816, 2993459362, -0.12805533, 0.6834465, 0.046154886, 0.7172171, 0.1308313, -0.07625212, -0.07750511, 0
819, 2993509363, -0.1341232, 0.6842367, 0.05426234, 0.7147829, -0.25229225, -0.38378537, 0.3701191, 0
822, 2993559364, -0.13484818, 0.6824962, 0.055781662, 0.7161921, 0.37925366, -0.5038559, 0.2082901, 0
825, 2993609365, -0.13543594, 0.6802428, 0.056266487, 0.71818435, 0.3118702, -0.34841827, -0.118722916, 0
827, 2993642699, -0.13778865, 0.67900175, 0.057109803, 0.7188445, 0.5869199, -0.12816769, 0.09508705, 0
830, 2993692700, -0.14443263, 0.6772524, 0.059138447, 0.71902645, 0.6746447, 0.15817006, 0.38489532, 0
833, 2993742701, -0.1563142, 0.6744312, 0.06390235, 0.7187855, 0.49611002, -0.20233577, 0.13675499, 0
837, 2993809369, -0.17163545, 0.67183685, 0.06494883, 0.71762526, 0.18304192, -0.25547263, 0.1693306, 0
839, 2993842703, -0.17959723, 0.67032313, 0.06603673, 0.71699286, -0.23692116, -0.22951317, 0.06858158, 0
843, 2993909371, -0.18923852, 0.66782796, 0.0653806, 0.71690154, -0.59509265, -0.31092083, 0.10180092, 0
846, 2993959372, -0.19379756, 0.6654631, 0.06679022, 0.71775246, -0.46000105, -0.17165683, 0.073620796, 0
849, 2994009373, -0.19374007, 0.662489, 0.06694871, 0.72049904, -0.27907884, 0.28011963, 0.015389442, 0
852, 2994059374, -0.19098717, 0.65802824, 0.06661439, 0.72533643, -0.13768756, 0.11632039, 0.026284218, 0
854, 2994092708, -0.18809363, 0.655566, 0.06549972, 0.7284174, 0.37384787, 0.2254003, 0.02231121, 0
857, 2994142709, -0.18450254, 0.6537142, 0.065083385, 0.7310326, 0.32414898, 0.2294678, 0.03706932, 0
860, 2994192710, -0.18069443, 0.65439343, 0.06323862, 0.7315378, 0.44508246, 0.32571045, 0.14328957, 0
862, 2994226044, -0.1799855, 0.65516084, 0.063337356, 0.7310169, 0.1468707, 0.1636059, 0.053871155, 0
865, 2994276045, -0.17927551, 0.65584517, 0.063734114, 0.730543, 0.10808773, 0.01647715, 0.08127689, 0
869, 2994342713, -0.17798644, 0.65604794, 0.06597644, 0.7304772, -0.08873654, -0.1360311, 0.116737366, 0
872, 2994392714, -0.17792985, 0.6546367, 0.06969908, 0.73141074, 0.17322098, -0.1501607, 0.070298195, 0
874, 2994426048, -0.17797941, 0.65339494, 0.07252732, 0.73223364, 0.33458078, -0.17693755, 0.16405201, 0
877, 2994476049, -0.17736056, 0.6524234, 0.074147224, 0.7330874, 0.4722327, 0.012415698, 0.18304634, 0
880, 2994526050, -0.17620695, 0.6518413, 0.07251459, 0.73404604, 0.06539207, -0.06590637, 0.1833868, 0
883, 2994576051, -0.17451456, 0.6512872, 0.070407, 0.7351465, -0.06352987, -0.008927108, 0.120713234, 0
885, 2994609385, -0.17315465, 0.651219, 0.06939018, 0.7356249, -0.040029604, -0.10921156, 0.060397148, 0
888, 2994659386, -0.17023826, 0.65199566, 0.06735346, 0.73580706, 0.15528116, 0.023794742, 0.2253027, 0
891, 2994709387, -0.16717151, 0.65323675, 0.06411359, 0.7356988, 0.08932427, -0.01702543, 0.13489628, 0
893, 2994742721, -0.16515127, 0.6537986, 0.06143549, 0.7358844, 0.025377773, -0.059283458, 0.13438702, 0
899, 2994842723, -0.16079545, 0.6549232, 0.055769652, 0.73630035, -0.07552134, -0.027507069, 0.11684704, 0
901, 2994876057, -0.15916759, 0.65528125, 0.053683847, 0.73649037, -0.037501004, 0.025609668, 0.15192223, 0
904, 2994926058, -0.15583059, 0.65600866, 0.0497151, 0.73683494, 0.053924512, 0.07627715, 0.013269424, 0
907, 2994976059, -0.15307346, 0.65673494, 0.047040343, 0.73694146, -0.054208037, 0.05257047, 0.09187794, 0
910, 2995026060, -0.15083122, 0.656978, 0.045046926, 0.73731184, -0.06001904, 0.05341021, 0.112044334, 0
912, 2995059394, -0.14995077, 0.6568776, 0.04445964, 0.7376162, -0.01982493, 0.085483424, 0.15853691, 0
915, 2995109395, -0.14942548, 0.65657806, 0.04453668, 0.7379848, 0.06590905, 0.062847376, 0.09335995, 0
918, 2995159396, -0.14955679, 0.656905, 0.045078278, 0.7376343, 0.006957623, -0.014422397, 0.16133976, 0
920, 2995192730, -0.14904141, 0.6572763, 0.044480175, 0.73744416, 0.043406103, 0.0019557383, 0.15733051, 0
923, 2995242731, -0.14864933, 0.65768075, 0.043719858, 0.7372081, 0.010029809, -0.032976653, 0.12464428, 0
927, 2995309399, -0.14784786, 0.6582954, 0.042131215, 0.7369131, 0.07447619, 0.052373108, 0.08485222, 0
930, 2995359400, -0.14791134, 0.6585092, 0.04182753, 0.73672664, 0.015485648, -0.13184537, 0.1071825, 0
933, 2995409401, -0.14776534, 0.6587291, 0.041410416, 0.736583, 0.06425562, -0.020806821, 0.10414314, 0
935, 2995442735, -0.14780304, 0.6588298, 0.041278005, 0.73649263, 0.09727887, -0.082858264, 0.12460613, 0
938, 2995492736, -0.1474342, 0.6589405, 0.04064119, 0.736503, 0.036504023, -0.053236987, 0.14152241, 0
942, 2995559404, -0.14726603, 0.6591207, 0.040119767, 0.736404, 0.088094614, -0.052494925, 0.070329666, 0
945, 2995609405, -0.14743283, 0.6591511, 0.04034388, 0.7363312, 0.1649748, -0.0101128435, 0.045202255, 0
947, 2995642739, -0.14774787, 0.65906227, 0.041020125, 0.7363101, 0.03627593, -0.10681103, 0.07041359, 0
950, 2995692740, -0.14815915, 0.6590229, 0.042204976, 0.7361958, 0.06350517, -0.12637848, 0.15671921, 0
953, 2995742741, -0.14826632, 0.65893483, 0.042641312, 0.7362278, 0.052678205, -0.036008608, 0.1559515, 0
956, 2995792742, -0.14859292, 0.6587838, 0.04287386, 0.7362836, 0.0637906, -0.03514473, 0.11275482, 0
958, 2995826076, -0.14840564, 0.65881586, 0.042732924, 0.73630106, 0.058010552, -0.144671, 0.071536064, 0
961, 2995876077, -0.1479665, 0.6590576, 0.042123646, 0.7362081, 0.044812113, -0.043225616, 0.07812023, 0
964, 2995926078, -0.14778972, 0.65936965, 0.042010814, 0.7359706, 0.06692604, 0.012312435, 0.09786129, 0
966, 2995959412, -0.14769056, 0.65950423, 0.041905046, 0.7358759, 0.08992407, -0.03839148, 0.08228874, 0
969, 2996009413, -0.14775425, 0.6598918, 0.041815937, 0.7355207, 0.064554565, -0.07389562, 0.077445984, 0
972, 2996059414, -0.14806011, 0.66023374, 0.04202956, 0.7351401, 0.06195388, -0.10089129, 0.14735413, 0
974, 2996092748, -0.14832819, 0.6604301, 0.042071223, 0.73490727, 0.03648156, -0.1312591, 0.11723232, 0
977, 2996142749, -0.14828286, 0.6605636, 0.041548878, 0.7348262, 0.10677337, -0.03487316, 0.09583187, 0
980, 2996192750, -0.14863479, 0.6607528, 0.041405767, 0.7345929, 0.08343291, -0.070149764, 0.0921545, 0
983, 2996242751, -0.14909443, 0.66089153, 0.041398644, 0.7343753, 0.044934597, -0.03890556, 0.1178503, 0
985, 2996276085, -0.14946309, 0.6607656, 0.041585743, 0.73440325, 0.027830493, -0.06772711, 0.10803318, 0
988, 2996326086, -0.1494838, 0.6607355, 0.041582495, 0.73442626, 0.09290595, -0.016258556, 0.07965183, 0
991, 2996376087, -0.1494495, 0.66075367, 0.041846246, 0.73440194, 0.12892239, -0.051691618, 0.13305855, 0
993, 2996409421, -0.14944524, 0.6608311, 0.041962087, 0.7343265, 0.051885404, -0.03851307, 0.1665287, 0
997, 2996476089, -0.14944956, 0.6611031, 0.041860968, 0.7340864, 0.04751103, -0.03971624, 0.12405014, 0
1000, 2996526090, -0.14901426, 0.66149276, 0.041331053, 0.7338541, 0.0427625, -0.026830047, 0.112626076, 0
1003, 2996576091, -0.148058, 0.66210926, 0.04055372, 0.73353493, 0.024337543, 0.096423045, 0.099653244, 0
1005, 2996609425, -0.14765647, 0.6624218, 0.040236473, 0.7333511, 0.014747497, -0.025694827, 0.0767746, 0
1009, 2996676093, -0.1465714, 0.66302145, 0.03938648, 0.7330729, 0.0071120705, 0.00952277, 0.13636017, 0
1014, 2996759428, -0.14660376, 0.66356325, 0.039421976, 0.7325742, 0.07806481, -0.03223593, 0.07497406, 0
1016, 2996792762, -0.14692053, 0.66369176, 0.039900154, 0.73236835, 0.0695056, -0.08139984, 0.077243805, 0
1019, 2996842763, -0.14704871, 0.6639377, 0.039963514, 0.7321163, -0.0033265434, -0.06827583, 0.11370754, 0
1022, 2996892764, -0.1464442, 0.66410387, 0.039421827, 0.73211604, 0.016875228, -0.06420164, 0.099518776, 0
1024, 2996926098, -0.14610997, 0.66420406, 0.03911546, 0.73210835, 0.032268565, -4.6267183E-4, 0.13885975, 0
1027, 2996976099, -0.14591697, 0.6641989, 0.039106727, 0.7321519, 0.057960708, 0.003614875, 0.07812023, 0
1030, 2997026100, -0.14591828, 0.6641404, 0.03926736, 0.7321961, 0.033195697, -0.021195287, 0.098505974, 0
1032, 2997059434, -0.14565513, 0.6640799, 0.039171427, 0.7323086, 0.060466625, -0.05514869, 0.12719917, 0
1035, 2997109435, -0.14552763, 0.6638771, 0.03917387, 0.73251766, 0.03507533, -0.00620092, 0.13345242, 0
1039, 2997176103, -0.14509931, 0.6638098, 0.038565725, 0.73269594, 0.02641912, 0.0129659865, 0.12922192, 0
1042, 2997226104, -0.14515278, 0.6637814, 0.038522393, 0.7327133, 0.015118305, -0.04419477, 0.076862335, 0
1045, 2997276105, -0.14480263, 0.6638286, 0.038220942, 0.73275554, 0.0246109, -0.008095862, 0.10506344, 0
1047, 2997309439, -0.14437005, 0.6640661, 0.037575692, 0.73265916, 0.045404647, -0.040836934, 0.22793198, 0
1050, 2997359440, -0.14359447, 0.6646448, 0.03516394, 0.73240656, 0.27719405, 0.054420933, 0.093562126, 0
1053, 2997409441, -0.1423428, 0.66627836, 0.029394746, 0.7314202, 0.5525769, -0.027240194, 0.23327923, 0
1055, 2997442775, -0.14514264, 0.6673578, 0.025631398, 0.73002607, 1.408549, 0.25771847, 0.29852772, 0
1058, 2997492776, -0.15660828, 0.6683117, 0.019791782, 0.72695917, 1.4484704, -0.07399229, 0.62802124, 0
1061, 2997542777, -0.17185166, 0.66946733, 0.0076970756, 0.7226682, 2.548263, 0.65597445, 1.2406292, 0
1064, 2997592778, -0.1954267, 0.6674354, -0.011467963, 0.7184948, 2.8793538, 0.40518764, 1.4035072, 0
1068, 2997659446, -0.23803942, 0.66499877, -0.05721852, 0.7055974, 3.014503, 0.25216508, 2.6996193, 0
1070, 2997692780, -0.26425347, 0.66291034, -0.083012074, 0.695598, 2.2843614, 0.20456599, 3.2566137, 0
1073, 2997742781, -0.3043722, 0.6590028, -0.12799162, 0.6758098, 0.06707948, 0.07373737, 2.474084, 0
1076, 2997792782, -0.33793002, 0.65794986, -0.18141448, 0.6480909, -1.2621014, -0.2314632, 2.1988878, 0
1078, 2997826116, -0.36039215, 0.6550741, -0.2161393, 0.6279388, -1.8301735, -0.40443474, 1.6050158, 0
1081, 2997876117, -0.39199317, 0.64934295, -0.26145732, 0.59696156, -2.4315562, -0.5205853, 0.9310255, 0
1084, 2997926118, -0.4188968, 0.64231825, -0.30083084, 0.56699336, -2.4504054, -0.29221138, -0.20191193, 0
1086, 2997959452, -0.4341836, 0.6379186, -0.32398176, 0.5473649, -2.125282, -0.59271544, -0.59341335, 0
1089, 2998009453, -0.45305616, 0.6312763, -0.3567475, 0.518642, -1.6975034, -0.84606534, -0.5106659, 0
1092, 2998059454, -0.47469887, 0.6208874, -0.37883994, 0.49564904, -1.3836813, -0.4056492, -1.6080875, 0
1095, 2998109455, -0.4906074, 0.6144204, -0.39797544, 0.4726898, -0.78928745, -0.4857318, -1.9918981, 0
1097, 2998142789, -0.5008498, 0.61012757, -0.40700573, 0.4596393, -0.59272873, -0.6560366, -1.4054298, 0
1100, 2998192790, -0.51693225, 0.602325, -0.415192, 0.4445552, -0.34180948, -0.21035632, -1.6503592, 0
1103, 2998242791, -0.5304738, 0.59375817, -0.42079216, 0.43475372, -0.65748715, -0.070351556, -2.6619315, 0
1105, 2998276125, -0.53491175, 0.5901617, -0.4255016, 0.42959857, -0.51634824, 0.0388381, -2.808392, 0
1108, 2998326126, -0.53857154, 0.5869134, -0.42804715, 0.4269392, 0.2451615, 0.17226237, -1.4461889, 0
1111, 2998376127, -0.5426202, 0.58381206, -0.42563462, 0.4284741, 0.6180914, 0.15739943, -0.6688595, 0
1113, 2998409461, -0.54903066, 0.57972854, -0.41945237, 0.431935, -0.18039133, -0.12594917, -0.3949957, 0
1116, 2998459462, -0.5554556, 0.57469815, -0.4139648, 0.4357203, -0.062408954, -0.053694747, -0.2997179, 0
1119, 2998509463, -0.557409, 0.5727031, -0.41241413, 0.4373201, -0.11274645, -0.05061428, -0.71146107, 0
1122, 2998559464, -0.5566349, 0.57495177, -0.41105515, 0.43663445, 0.16550185, -0.12653974, 0.6130457, 0
1124, 2998592798, -0.5569796, 0.5751493, -0.4101833, 0.4367547, 0.0965225, -0.026306588, 0.2255001, 0
1127, 2998642799, -0.5588222, 0.57474315, -0.40967077, 0.43541467, 0.02093646, 0.01907477, 0.2244482, 0
1130, 2998692800, -0.5602048, 0.5739933, -0.41159266, 0.4328068, -0.06186749, 0.28236076, 0.42074013, 0
1132, 2998726134, -0.56479317, 0.571503, -0.40836635, 0.43319497, -2.580457E-4, 0.18813913, -0.6451483, 0
1135, 2998776135, -0.5701289, 0.569924, -0.40388694, 0.43248472, 0.07373346, -0.10334886, -0.27358627, 0
1138, 2998826136, -0.5743344, 0.5688851, -0.39941686, 0.4324395, -0.06501539, -0.15802756, -0.44603157, 0
1140, 2998859470, -0.575359, 0.5701627, -0.39729086, 0.43135184, 0.021177238, -0.29385215, -0.4860201, 0
1143, 2998909471, -0.5767702, 0.57111704, -0.39443773, 0.43082285, 0.081921406, -0.5313427, -0.068203926, 0
1147, 2998976139, -0.57844293, 0.5703393, -0.3911685, 0.43258768, -0.052238554, -0.81294155, -0.5136547, 0
1150, 2999026140, -0.57834566, 0.5694814, -0.38939345, 0.43543985, 0.19989245, -0.56474537, 0.78340626, 0
1153, 2999076141, -0.5802998, 0.5645323, -0.3868683, 0.44149348, 0.001687467, -0.37701324, -0.28907776, 0
1155, 2999109475, -0.57735133, 0.5653552, -0.39004594, 0.44151032, 0.06640536, -0.31698847, 0.23354816, 0
1158, 2999159476, -0.57510066, 0.56362426, -0.3929745, 0.4440561, -0.11865035, 0.04504548, 0.054288864, 0
1161, 2999209477, -0.5721916, 0.56330657, -0.39664865, 0.44494987, 0.124132894, 0.09236284, -0.10193634, 0
1163, 2999242811, -0.5707947, 0.56365573, -0.39848304, 0.4446626, 0.08922112, 0.36840805, 0.5315027, 0
1166, 2999292812, -0.5710883, 0.56296706, -0.39909935, 0.44460538, -0.10581735, 0.18920083, -0.22482681, 0
1169, 2999342813, -0.5716759, 0.5628301, -0.39970428, 0.44347897, -0.019922715, 0.04033408, 0.20040512, 0
1171, 2999376147, -0.5732858, 0.5618798, -0.39889053, 0.44333827, 0.11961206, 0.07257584, 0.28422546, 0
1176, 2999459482, -0.5764134, 0.5609293, -0.39821896, 0.4410846, -0.04829651, -0.10907083, -0.036403656, 0
1178, 2999492816, -0.57818294, 0.56011146, -0.39734703, 0.4405939, -0.016558902, 0.004681856, -0.122984886, 0
1181, 2999542817, -0.5810174, 0.5592765, -0.39519405, 0.4398616, -0.18941493, -0.31075504, -0.5586586, 0
1184, 2999592818, -0.58193284, 0.55908364, -0.39468127, 0.4393569, 0.013711011, -0.25872362, -0.31091785, 0
1186, 2999626152, -0.5831342, 0.5582085, -0.39313984, 0.4402577, 0.040269658, -0.20589566, -0.31703568, 0
1189, 2999676153, -0.58374643, 0.55824333, -0.39136514, 0.44098264, 0.08754807, -0.16209741, -0.1851654, 0
1192, 2999726154, -0.58341485, 0.55910635, -0.39018804, 0.44137117, 0.10480495, -0.01530322, -0.022688866, 0
1194, 2999759488, -0.5830871, 0.5600105, -0.38957262, 0.4412018, 0.009317193, 0.11697942, 0.13974667, 0
1197, 2999809489, -0.5835074, 0.5608833, -0.38858694, 0.4404058, -0.087667145, -0.16427372, -0.016430855, 0
1200, 2999859490, -0.58440477, 0.5615045, -0.38684255, 0.4399597, 0.044010594, -0.124232806, -0.14587116, 0
1204, 2999926158, -0.5855589, 0.5627344, -0.38357478, 0.4397149, 5.941533E-4, -0.16374004, -0.21252441, 0
1207, 2999976159, -0.5843779, 0.5659123, -0.3826807, 0.43798319, 0.07680358, -0.029906144, -0.1519556, 0
1209, 3000009493, -0.5832609, 0.5690141, -0.38209134, 0.43596318, -0.004378004, -0.030741176, 0.36539936, 0
1212, 3000059494, -0.58409715, 0.5701252, -0.3796993, 0.4354815, 0.008353573, -0.35417616, -0.42128754, 0
1215, 3000109495, -0.5838493, 0.5727911, -0.37737846, 0.43433154, 0.05385634, -0.6509025, 0.007915497, 0
1217, 3000142829, -0.58395517, 0.5731916, -0.37582886, 0.435004, 0.019387458, -0.7673685, 0.05479431, 0
1220, 3000192830, -0.5834235, 0.57262266, -0.37495863, 0.43721205, 0.17684926, -0.34829798, 0.035930634, 0
1223, 3000242831, -0.5819349, 0.5721301, -0.3765114, 0.4385041, -0.06835076, -0.15466626, -0.18428421, 0
1225, 3000276165, -0.58111185, 0.57170475, -0.37774825, 0.4390864, 0.15443829, 0.16709553, 0.37358665, 0
1228, 3000326166, -0.57995, 0.57183075, -0.37886494, 0.43949622, -0.077663265, 0.122897565, -0.27307796, 0
1231, 3000376167, -0.57920873, 0.5726281, -0.37865505, 0.43961635, -0.036783807, -0.23124701, -0.24433804, 0
1234, 3000426168, -0.5793999, 0.5725683, -0.3763494, 0.4414186, 0.027614467, -0.27553383, 0.35247326, 0
1236, 3000459502, -0.57825786, 0.5729405, -0.37644553, 0.44235036, -0.1917345, -0.098459095, -0.48687363, 0
1239, 3000509503, -0.57243866, 0.5777239, -0.38240263, 0.43857172, 0.026604133, -0.0073352763, 1.1542149, 0
1242, 3000559504, -0.57528317, 0.57397044, -0.38225916, 0.43990126, -0.1385259, 0.02157472, 0.123812675, 0
1244, 3000592838, -0.57723624, 0.57177085, -0.38213098, 0.4403186, 0.0025478802, -0.14774306, -0.018315315, 0
1247, 3000642839, -0.5777972, 0.57131135, -0.3841601, 0.43840927, -0.0033208437, 0.10625134, -0.0046434402, 0
1250, 3000692840, -0.5792544, 0.5701282, -0.38567647, 0.43669197, -0.015752243, 4.0080064E-4, -0.039811134, 0
1252, 3000726174, -0.58116615, 0.5683967, -0.38577694, 0.43632, -0.02860379, -0.1703961, -0.12349892, 0
1255, 3000776175, -0.5838619, 0.56619287, -0.38523132, 0.4360684, 0.11869935, -0.09140048, -0.3174286, 0
1258, 3000826176, -0.58434606, 0.56645906, -0.38579646, 0.43457198, -0.02981389, -0.12466483, -0.30117416, 0
1261, 3000876177, -0.58536315, 0.56620014, -0.3853399, 0.4339452, -0.016187591, -0.2713301, -0.21752167, 0
1263, 3000909511, -0.58620816, 0.56575143, -0.38486776, 0.43380904, 0.1291864, -0.03544041, -0.013133049, 0
1266, 3000959512, -0.58688384, 0.56563604, -0.384741, 0.43315774, -0.0156197, -0.25619185, -0.31225872, 0
1269, 3001009513, -0.5864243, 0.56689197, -0.3851754, 0.43174988, 0.12480164, -0.2646135, 0.2068758, 0
1271, 3001042847, -0.58697677, 0.5662072, -0.38506353, 0.4319974, -0.17859411, -0.21600606, -0.20812988, 0
1274, 3001092848, -0.58727014, 0.56582654, -0.38531473, 0.4318735, -0.02391762, -0.25360718, -0.052420616, 0
1277, 3001142849, -0.5872741, 0.5658631, -0.38555875, 0.43160233, -0.018869579, -0.10652991, 0.19310093, 0
1279, 3001176183, -0.5876131, 0.56516016, -0.38553932, 0.43207884, -0.03696368, -0.26182142, -0.1890316, 0
1284, 3001259518, -0.58709997, 0.56425065, -0.38815582, 0.4316224, 0.020974511, -0.039567843, 0.11587906, 0
1286, 3001292852, -0.58725315, 0.5637906, -0.38869405, 0.43153068, -0.009407772, -0.05552777, -0.04683304, 0
1289, 3001342853, -0.5892022, 0.5615873, -0.3877087, 0.43263185, -0.104681626, 0.012454177, -0.50741386, 0
1292, 3001392854, -0.58875257, 0.56184024, -0.38786578, 0.4327749, 0.07366624, -0.24703826, -0.34796333, 0
1294, 3001426188, -0.5887161, 0.5621796, -0.3872156, 0.43296593, 0.055254303, 0.0133200865, 0.022916794, 0
1297, 3001476189, -0.58877873, 0.5622772, -0.38664275, 0.4332658, -0.08732014, 0.065768346, -0.1860199, 0
1300, 3001526190, -0.5877451, 0.56435966, -0.38704303, 0.43160114, -0.018259108, -0.26823422, 0.2194767, 0
1302, 3001559524, -0.588761, 0.56388766, -0.3859149, 0.43184358, 0.042507526, -0.06772873, 0.118704796, 0
1305, 3001609525, -0.5898883, 0.5630518, -0.38492745, 0.43227687, 0.013456877, -0.37771818, -0.46841145, 0
1308, 3001659526, -0.5882598, 0.56472343, -0.38627657, 0.43111044, 0.1881436, -0.39988026, -0.0034914017, 0
1312, 3001726194, -0.588499, 0.5633358, -0.38582462, 0.43300033, 0.028461302, -0.2310364, -0.29267502, 0
1315, 3001776195, -0.5863895, 0.5645729, -0.38756627, 0.43269527, 0.05665232, -0.0753052, 0.18292713, 0
1317, 3001809529, -0.58645576, 0.5639682, -0.38745898, 0.4334892, 0.023610847, -0.13945284, 0.15640354, 0
1320, 3001859530, -0.5864295, 0.5635587, -0.38686198, 0.43458927, -0.025085697, 0.021163484, -0.14807129, 0
1323, 3001909531, -0.5855712, 0.5639038, -0.3875422, 0.4346929, 0.06470907, -0.21541987, 0.10703182, 0
1325, 3001942865, -0.5847916, 0.56432456, -0.38840184, 0.43442917, -0.005388115, -0.07486611, 0.12614727, 0
1328, 3001992866, -0.58466023, 0.5638678, -0.3893484, 0.43435165, -0.04583217, -0.25497004, 0.06666565, 0
1331, 3002042867, -0.58418244, 0.5636864, -0.39130527, 0.4334706, 0.0016553369, -0.29050896, 0.10310459, 0
1333, 3002076201, -0.58339816, 0.5635402, -0.39339197, 0.43282777, -0.11178274, 0.10084472, -0.07809639, 0
1336, 3002126202, -0.58279437, 0.56384975, -0.3954549, 0.43135554, -0.05828961, -0.05709227, -0.0024118423, 0
1340, 3002192870, -0.5836227, 0.56339747, -0.3956389, 0.4306572, -0.030726494, 0.26940385, -0.5053444, 0
1343, 3002242871, -0.58269465, 0.56584126, -0.3969045, 0.42753416, -0.08383306, 0.23875338, 0.0156059265, 0
1346, 3002292872, -0.58512676, 0.5662479, -0.39397514, 0.42638186, -0.051419657, 0.00697732, -0.2787285, 0
1348, 3002326206, -0.5864353, 0.56661403, -0.39151832, 0.42636088, -0.093234405, -0.44609338, -0.43152237, 0
1351, 3002376207, -0.5867865, 0.567864, -0.38859496, 0.42688885, 0.16150454, -0.35017815, -0.19306946, 0
1354, 3002426208, -0.58581537, 0.5687812, -0.38813516, 0.42741936, 0.12009737, -0.15469933, 0.27267742, 0
1356, 3002459542, -0.5858957, 0.5689521, -0.38731575, 0.42782524, -0.20067184, 0.019880256, 0.14182854, 0
1359, 3002509543, -0.58585566, 0.56934565, -0.387662, 0.4270418, -0.0042774235, 0.14518036, 0.23657894, 0
1362, 3002559544, -0.5880902, 0.56952703, -0.38584307, 0.42537284, -0.101760924, 0.22736265, 0.3174944, 0
1365, 3002609545, -0.59045374, 0.5693905, -0.38415086, 0.42381003, -0.1358162, -0.05601051, -0.5521374, 0
1367, 3002642879, -0.5908053, 0.5713564, -0.38354367, 0.4212161, 0.013090483, -0.15723668, -0.12237072, 0
1370, 3002692880, -0.59324616, 0.5714036, -0.38055477, 0.42043158, 0.14958158, -0.34192672, -0.18600655, 0
1373, 3002742881, -0.5934367, 0.57324404, -0.37844333, 0.41956255, -0.07869232, -0.34498796, -0.3765173, 0
1375, 3002776215, -0.59256476, 0.5745629, -0.37833667, 0.4190868, 0.16594222, -0.37641832, 0.34307766, 0
1378, 3002826216, -0.59193504, 0.57505935, -0.37773198, 0.41984075, -0.12541284, -0.15143079, -0.14450645, 0
1381, 3002876217, -0.59138685, 0.5753583, -0.3769869, 0.4208723, 0.05917472, -0.16541597, 0.0111608505, 0
1383, 3002909551, -0.5910174, 0.5757275, -0.37633288, 0.42147103, 0.1395126, 0.10171629, -0.13383865, 0
1386, 3002959552, -0.5913299, 0.57595736, -0.37491983, 0.42197782, -0.03276996, -0.20669743, 0.29925442, 0
1389, 3003009553, -0.59198755, 0.5754624, -0.3730597, 0.42337725, -0.07189579, -0.18791637, -0.215374, 0
1392, 3003059554, -0.5906557, 0.5765737, -0.37397164, 0.42292047, 0.0721587, -0.06091541, 0.39007568, 0
1394, 3003092888, -0.59127307, 0.57563573, -0.37318224, 0.42403144, -0.024713604, -0.22082803, -0.22343159, 0
1397, 3003142889, -0.5900084, 0.5766925, -0.37402672, 0.42361268, 0.17568336, 0.25386563, 0.2076292, 0
1400, 3003192890, -0.59179294, 0.575301, -0.3720579, 0.42474785, 0.011040087, -0.08209125, -0.3557148, 0
1402, 3003226224, -0.5923661, 0.57524693, -0.37117502, 0.42479497, -0.023744397, -0.069117956, 0.03414154, 0
1405, 3003276225, -0.59159166, 0.5764135, -0.37106317, 0.42438996, 0.030175814, -0.17069331, -0.20118427, 0
1408, 3003326226, -0.59161794, 0.57665074, -0.37038264, 0.4246256, 0.06746085, -0.11260151, 0.25682926, 0
1410, 3003359560, -0.59272385, 0.5757597, -0.36883163, 0.42564112, 0.0049843946, -0.29629508, -0.30840778, 0
1413, 3003409561, -0.5914371, 0.57672954, -0.36942008, 0.42560786, 0.019031737, -0.10533914, -0.07618904, 0
1416, 3003459562, -0.59059924, 0.57687026, -0.36965027, 0.42637995, 0.15834893, -0.34762198, -0.024448395, 0
1420, 3003526230, -0.58989036, 0.5762516, -0.3698392, 0.42803076, 0.056428753, -0.30156794, 0.10045433, 0
1423, 3003576231, -0.58886087, 0.5754357, -0.3709566, 0.42957634, 0.07779307, -0.1399315, 0.0064516068, 0
1425, 3003609565, -0.5879763, 0.5752075, -0.37181246, 0.4303532, 0.11997566, -0.37683415, 0.15785599, 0
1428, 3003659566, -0.5883462, 0.5728418, -0.3717187, 0.4330755, 0.18191741, -0.27806213, 0.24167442, 0
1431, 3003709567, -0.586983, 0.57127446, -0.37404084, 0.43499202, -0.028799364, -0.6586221, -0.008993149, 0
1433, 3003742901, -0.5850187, 0.5699745, -0.37732962, 0.4365002, -0.030033939, -0.7127934, 0.287076, 0
1436, 3003792902, -0.58376753, 0.5630594, -0.38160592, 0.44337857, -0.070422284, -0.6832638, -0.3871069, 0
1439, 3003842903, -0.58060837, 0.5544423, -0.3885464, 0.45226905, -0.060033344, -0.5885208, -0.22137928, 0
1441, 3003876237, -0.5783629, 0.5472152, -0.39328992, 0.4597858, 0.11313991, -0.38633472, 0.016209602, 0
1444, 3003926238, -0.57615626, 0.5342878, -0.39930853, 0.4723994, -0.09051481, -0.078084975, -0.024292946, 0
1448, 3003992906, -0.5742005, 0.5148326, -0.40741593, 0.48916396, -0.24590907, -0.017823178, 0.18420124, 0
1451, 3004042907, -0.57336307, 0.4968018, -0.4144096, 0.50272816, -0.1053749, -0.35450503, -0.044582367, 0
1454, 3004092908, -0.57453907, 0.477988, -0.41777545, 0.51664704, -0.22665773, -0.16086985, 0.526845, 0
1456, 3004126242, -0.57829106, 0.46069068, -0.4154523, 0.52987826, -0.24239969, 0.17950791, 0.095965385, 0
1459, 3004176243, -0.58602923, 0.42806807, -0.4082192, 0.5538162, -0.34040856, -0.6297105, -0.6879053, 0
1462, 3004226244, -0.5872656, 0.39881274, -0.4077787, 0.5742927, -0.3041664, 0.17365074, -0.14871216, 0
1464, 3004259578, -0.5898564, 0.37167263, -0.40288517, 0.59299254, -0.48523673, 0.50296587, 0.22974205, 0
1467, 3004309579, -0.5912052, 0.3213007, -0.39429474, 0.6259409, -0.04463006, 0.24586768, -0.049660683, 0
1470, 3004359580, -0.59208786, 0.25901878, -0.3831998, 0.6599448, -0.6557341, -0.5234963, 0.5080986, 0
1473, 3004409581, -0.58624715, 0.1940974, -0.37822783, 0.6896464, 0.06342946, -0.39841393, 0.42732334, 0
1477, 3004476249, -0.57413673, 0.10230695, -0.37975264, 0.71813375, -0.40037486, -0.37261885, 0.3450365, 0
1479, 3004509583, -0.56566256, 0.05177751, -0.38100308, 0.72952706, -0.91434014, -0.6245734, 0.5335665, 0
1482, 3004559584, -0.5479547, -0.030554399, -0.37735695, 0.7459504, -0.569365, 0.024300525, 0.20943832, 0
1485, 3004609585, -0.52240384, -0.11179304, -0.3756442, 0.7573083, -1.1019176, -0.028041488, -0.5818386, 0
1487, 3004642919, -0.5019057, -0.16142876, -0.37826085, 0.7609062, -0.18010506, 0.5281744, -0.72155666, 0
1490, 3004692920, -0.46653777, -0.2357297, -0.3779008, 0.76419437, -0.6779667, -0.05414786, -0.75456905, 0
1493, 3004742921, -0.4293797, -0.30620056, -0.37514058, 0.76234627, 0.33551204, 0.77036935, -0.85299873, 0
1495, 3004776255, -0.40394932, -0.3502948, -0.37233225, 0.7586273, 0.043587346, 0.19811462, -0.77740955, 0
1498, 3004826256, -0.36777952, -0.4078291, -0.36955723, 0.74957925, 1.0967028, 0.4105002, -0.18137932, 0
1501, 3004876257, -0.3354805, -0.45659524, -0.36489737, 0.73881775, 1.2311217, 0.6805742, -0.1977663, 0
1504, 3004926258, -0.31058514, -0.49358338, -0.3638027, 0.72635245, 1.5588806, 0.42587063, 0.21960163, 0
1506, 3004959592, -0.29639536, -0.5133304, -0.36029285, 0.72031844, 0.63636196, 0.61441344, -0.40308, 0
1509, 3005009593, -0.28066337, -0.538143, -0.3576768, 0.7097362, 1.0297245, 1.0314326, -0.8840809, 0
1512, 3005059594, -0.27230114, -0.55509156, -0.3597172, 0.69882554, 1.3281109, 0.20956105, -0.6514349, 0
1514, 3005092928, -0.26999408, -0.5626101, -0.36156124, 0.6927297, 1.2387998, 0.42307293, 0.037679672, 0
1517, 3005142929, -0.27006578, -0.5659265, -0.3692736, 0.6858984, 0.91721797, 0.10616173, 0.25800896, 0
1520, 3005192930, -0.27365738, -0.5621203, -0.37308553, 0.6855418, 0.49162155, -0.23446062, -0.18988419, 0
1522, 3005226264, -0.27896458, -0.5553325, -0.37645036, 0.68709373, 0.54277605, 0.069601715, -0.46334457, 0
1525, 3005276265, -0.28653786, -0.5422239, -0.37897396, 0.693034, 0.4084417, -0.26806757, -0.18406773, 0
1528, 3005326266, -0.2980162, -0.52524376, -0.38461643, 0.6981431, 2.0666285, 1.6926869, 0.157794, 0
1531, 3005376267, -0.32253623, -0.48785374, -0.4257132, 0.69048196, 2.5274372, 4.6227584, -0.98679066, 0
1533, 3005409601, -0.3417766, -0.44910088, -0.46781713, 0.6802002, 2.3596997, 4.755047, 0.5321398, 0
1536, 3005459602, -0.3740995, -0.37665135, -0.5283334, 0.6626274, -0.70151776, 1.1314634, -1.0866375, 0
1539, 3005509603, -0.43007013, -0.30057755, -0.5766965, 0.62621224, -1.8738964, 0.6555491, 0.006532669, 0
1541, 3005542937, -0.46215963, -0.2602268, -0.5939281, 0.6049528, -3.6510549, 1.6706196, 0.87607956, 0
1544, 3005592938, -0.49210286, -0.22676437, -0.58967686, 0.5989342, -1.3744141, -1.3504256, -1.2718506, 0
1547, 3005642939, -0.52883595, -0.1932046, -0.5899291, 0.57880574, -1.8063086, -3.1226687, -1.8163357, 0
1549, 3005676273, -0.55069625, -0.16943528, -0.5913911, 0.5641894, -1.032597, -0.87023866, -0.7079992, 0
1552, 3005726274, -0.5634239, -0.14579009, -0.5895438, 0.5601471, -0.463468, -3.0130484, 0.17088604, 0
1556, 3005792942, -0.5732682, -0.120143354, -0.5830737, 0.5630117, 0.9720445, -1.9565314, -0.114541054, 0
1559, 3005842943, -0.5752192, -0.10694395, -0.5810515, 0.56576747, 0.49240786, -1.2960969, 0.2670765, 0
1562, 3005892944, -0.5734745, -0.103693604, -0.57740945, 0.5718399, 0.39388567, -0.45362008, 1.1606369, 0
1564, 3005926278, -0.5715786, -0.10338411, -0.57640445, 0.5748005, 0.3648679, -1.4287435, 0.23072243, 0
1567, 3005976279, -0.5713494, -0.106763154, -0.57456887, 0.5762465, -0.2551644, 0.33330297, 0.5517616, 0
1570, 3006026280, -0.5691126, -0.11733042, -0.5720109, 0.5789437, 0.47593373, 0.2260362, 0.020159721, 0
1572, 3006059614, -0.5692409, -0.12512167, -0.5714494, 0.57773966, 0.27781573, 0.42352858, 0.17108631, 0
1575, 3006109615, -0.5675266, -0.13056356, -0.5747057, 0.57498515, 0.26229247, 0.5546274, 0.26536655, 0
1578, 3006159616, -0.5667029, -0.13317083, -0.5745064, 0.5753988, 0.42014918, -0.54123557, -0.31651402, 0
1581, 3006209617, -0.56847274, -0.13191313, -0.5737597, 0.57468736, 0.33499447, 0.12471554, -0.46173, 0
1585, 3006276285, -0.571316, -0.13211884, -0.56901735, 0.57653266, 0.23435639, -0.06949493, -0.5779209, 0
1587, 3006309619, -0.5723394, -0.13213344, -0.56734735, 0.57715976, -0.032235138, 0.006051931, -0.3350048, 0
1590, 3006359620, -0.57226646, -0.13154261, -0.564864, 0.5797969, 0.24779965, 0.020250395, -0.03339672, 0
1593, 3006409621, -0.57320315, -0.13044383, -0.5634211, 0.58052313, -0.011397294, -0.09281961, 0.06752968, 0
1595, 3006442955, -0.57396924, -0.13048407, -0.56269604, 0.5804605, -0.1086184, 0.20537025, 0.2538557, 0
1598, 3006492956, -0.57290965, -0.13081686, -0.563009, 0.58112854, -0.117862485, 0.022296662, 0.004333496, 0
1601, 3006542957, -0.5704093, -0.13019902, -0.5665822, 0.58025354, 0.038024966, 0.16379398, -0.10469246, 0
1603, 3006576291, -0.5691479, -0.13029464, -0.56987786, 0.5782397, -0.04542689, 0.13584945, -0.088261604, 0
1606, 3006626292, -0.57108426, -0.13280292, -0.572534, 0.5731133, -0.21494405, 0.097879544, -0.10937595, 0
1609, 3006676293, -0.5721079, -0.13902177, -0.5763816, 0.56672555, -0.18786287, 0.14361185, -0.4531374, 0
1613, 3006742961, -0.56748396, -0.15443301, -0.5838325, 0.5597142, 0.2025019, -0.06903328, 0.42033005, 0
1616, 3006792962, -0.56244636, -0.1656822, -0.59193116, 0.553036, 0.03702756, 0.08165639, 0.70587254, 0
1618, 3006826296, -0.55727077, -0.17437966, -0.5977843, 0.5492932, 0.4539893, -0.029419117, 0.810441, 0
1621, 3006876297, -0.549723, -0.18672693, -0.60787135, 0.54171747, 0.07755735, 0.16366136, 0.6657839, 0
1624, 3006926298, -0.5412269, -0.19777276, -0.61652243, 0.5365515, 0.4704168, -0.6845225, -0.4657898, 0
1626, 3006959632, -0.53725415, -0.20149784, -0.6228169, 0.5318682, -0.22264074, -0.120116614, -1.0986719, 0
1629, 3007009633, -0.5297919, -0.20802401, -0.63124806, 0.52687794, 0.19613063, 0.09039531, -1.703083, 0
1632, 3007059634, -0.5217206, -0.21351032, -0.6406097, 0.5214098, 0.34317473, 0.26014292, -1.6237001, 0
1635, 3007109635, -0.5125713, -0.21615338, -0.6496586, 0.5181892, 0.20237781, -0.15744032, -1.3930283, 0
1637, 3007142969, -0.50552696, -0.2178311, -0.6532219, 0.51992434, 0.37123707, -0.4586575, -0.85417175, 0
1640, 3007192970, -0.498408, -0.2191608, -0.6567348, 0.52180964, 0.5056556, -0.15147573, -0.012271881, 0
1643, 3007242971, -0.4925942, -0.22258328, -0.65879744, 0.52327967, 0.27900904, 0.27471003, 0.5889988, 0
1645, 3007276305, -0.49053627, -0.22445893, -0.6603477, 0.5224568, 0.5454714, 0.15397093, 0.6657343, 0
1648, 3007326306, -0.48826057, -0.225435, -0.66344917, 0.52023447, 0.13983783, 0.31132767, 0.38352776, 0
1651, 3007376307, -0.48542666, -0.22467045, -0.6661776, 0.5197302, 0.34207013, -0.26967898, -0.18093967, 0
1653, 3007409641, -0.48415017, -0.22394934, -0.6662559, 0.5211297, 0.3998977, -0.52937543, -0.2517128, 0
1656, 3007459642, -0.4847468, -0.22289073, -0.66491127, 0.522744, 0.10386585, -0.14419521, -0.16682625, 0
1659, 3007509643, -0.48418796, -0.22566672, -0.66037947, 0.5277911, 0.30231768, -0.084001996, 0.11802292, 0
1662, 3007559644, -0.48624888, -0.22568475, -0.6587106, 0.52797425, 0.120425984, 0.52666837, 0.39927673, 0
1664, 3007592978, -0.4869176, -0.22485095, -0.6581812, 0.52837396, -0.024377637, 0.39049256, 0.15764046, 0
1667, 3007642979, -0.48843032, -0.22349922, -0.6584237, 0.5272478, -0.051792618, 0.4201353, 0.1857481, 0
1670, 3007692980, -0.4888794, -0.22196557, -0.6604371, 0.5249563, 0.20051406, -0.2082385, 0.07619476, 0
1672, 3007726314, -0.48927784, -0.22025515, -0.6622987, 0.5229565, 0.0912578, -0.073955104, 0.008997917, 0
1675, 3007776315, -0.48885858, -0.21837707, -0.6651655, 0.5204916, 0.20464265, -0.007573066, 0.06538868, 0
1678, 3007826316, -0.48923996, -0.21742657, -0.6666325, 0.5186513, 0.26901245, -0.08009601, -0.7545109, 0
1680, 3007859650, -0.4907694, -0.2172845, -0.6679244, 0.5155947, -0.21428567, 0.5635147, -0.7775793, 0
1683, 3007909651, -0.49066544, -0.2179219, -0.66874474, 0.5143598, 0.107286915, 0.35221982, -0.99012756, 0
1686, 3007959652, -0.4895172, -0.21516351, -0.6715672, 0.51293576, -0.047060456, 0.26437733, -0.85281944, 0
1689, 3008009653, -0.48744634, -0.21044663, -0.6748671, 0.5125336, 0.21159206, -0.07547289, -0.7057638, 0
1693, 3008076321, -0.48586002, -0.20558698, -0.6780304, 0.5118367, 0.25339293, -0.42509782, 0.17925549, 0
1695, 3008109655, -0.4853828, -0.20480733, -0.6784069, 0.51210296, 0.19736378, -0.26910478, 0.28431892, 0
1698, 3008159656, -0.48557302, -0.20457126, -0.67778677, 0.51283765, 0.25719056, 0.121048935, 0.14641762, 0
1701, 3008209657, -0.48592788, -0.20439285, -0.67757016, 0.512859, 0.17370388, 0.034006994, -0.34657955, 0
1703, 3008242991, -0.4858489, -0.20312753, -0.67765963, 0.5133181, 0.15119162, 0.059790708, -0.4046564, 0
1706, 3008292992, -0.48512012, -0.2012398, -0.6769297, 0.51570827, 0.28662977, 0.024219934, -0.48775387, 0
1709, 3008342993, -0.48540193, -0.20110542, -0.6768332, 0.51562214, -0.067445256, 0.20839095, -0.13668251, 0
1711, 3008376327, -0.48517278, -0.20301078, -0.67521167, 0.51721466, 0.1802801, 0.08311795, 0.0032434464, 0
1714, 3008426328, -0.48685706, -0.20557213, -0.6736638, 0.5166384, 0.02765069, 0.1711075, 0.11715698, 0
1717, 3008476329, -0.48714346, -0.20880988, -0.6716028, 0.5177522, 0.18524894, 0.040177654, -0.13362503, 0
1721, 3008542997, -0.48785704, -0.20954104, -0.6704331, 0.5183007, -0.13250707, 0.3465722, -0.34146786, 0
1724, 3008592998, -0.48841143, -0.21150069, -0.66846687, 0.51952046, 0.34971908, 0.14137813, -0.36854458, 0
1726, 3008626332, -0.49083886, -0.21226776, -0.667237, 0.5185001, 0.021015422, 0.15402497, -0.15734005, 0
1729, 3008676333, -0.4927605, -0.21461853, -0.66490775, 0.518702, -0.02284994, 0.1152451, -0.29815674, 0
1732, 3008726334, -0.49345234, -0.21581577, -0.6631117, 0.5198454, 0.29674116, -0.00565434, -0.18218899, 0
1734, 3008759668, -0.4945633, -0.21622069, -0.6621141, 0.5198929, -0.043920595, 0.113920614, -0.0272789, 0
1737, 3008809669, -0.49483392, -0.21916248, -0.6599642, 0.52113557, 0.29041082, -0.01980125, -0.0041828156, 0
1740, 3008859670, -0.49666068, -0.22092456, -0.6585323, 0.5204649, -0.14393647, 0.17742507, -0.22446442, 0
1743, 3008909671, -0.49657753, -0.22410642, -0.65587795, 0.52253145, 0.35983688, 0.045209903, -0.2878723, 0
1745, 3008943005, -0.4984621, -0.22473219, -0.65401924, 0.5227979, 0.4206301, -0.09432462, -0.24399662, 0
1749, 3009009673, -0.50387925, -0.22649539, -0.650307, 0.52147317, 0.17986454, 0.043198377, 0.0690918, 0
1752, 3009059674, -0.5082016, -0.2270281, -0.64717376, 0.52094483, 0.109758414, 0.112506524, -0.03896141, 0
1755, 3009109675, -0.5108359, -0.22655945, -0.6445268, 0.52185315, 0.23445366, 0.012750918, -0.022871017, 0
1757, 3009143009, -0.5120776, -0.22425959, -0.6438405, 0.5224763, 0.34529918, -0.11593061, 9.012222E-4, 0
1760, 3009193010, -0.51467216, -0.22059338, -0.6425218, 0.52311075, 0.03631326, -0.03659431, 0.013721466, 0
1763, 3009243011, -0.5168718, -0.21855761, -0.64064527, 0.52409714, 0.1754474, -0.078297414, -0.34600163, 0
1765, 3009276345, -0.5183037, -0.21606095, -0.6398022, 0.52474725, 0.30614632, -0.19923355, -0.51419353, 0
1768, 3009326346, -0.52024513, -0.2130632, -0.6393266, 0.5246321, 0.028783003, 0.049890336, -0.22263718, 0
1771, 3009376347, -0.5210034, -0.21280888, -0.63842463, 0.52508074, 0.11970792, -0.13145168, -0.19313431, 0
1774, 3009426348, -0.5219134, -0.21309903, -0.63824403, 0.5242784, -0.012456384, -0.035765395, 0.05999565, 0
1776, 3009459682, -0.52072805, -0.21343715, -0.6382666, 0.5252909, 0.19121175, -0.15295604, -0.07191944, 0
1779, 3009509683, -0.5198317, -0.21172014, -0.63941026, 0.5254827, 0.19423905, -0.03326606, 0.20129204, 0
1782, 3009559684, -0.51893425, -0.2126468, -0.6397241, 0.5256136, -0.041710645, 0.028852638, 0.07686901, 0
1784, 3009593018, -0.5189684, -0.2139428, -0.6393819, 0.52547026, 0.33420476, -0.058706425, -0.22075367, 0
1787, 3009643019, -0.5194481, -0.2134777, -0.64035463, 0.5239991, -0.11443839, 0.28134564, 0.011689186, 0
1790, 3009693020, -0.5180501, -0.21310998, -0.6412903, 0.52438813, 0.2506873, -0.04228065, -0.34571266, 0
1792, 3009726354, -0.51829875, -0.21223462, -0.64211583, 0.52348655, -0.06991139, -0.05701835, -0.36454678, 0
1795, 3009776355, -0.5176176, -0.21268754, -0.6422008, 0.52387214, 0.3089227, -0.11475351, -0.3893566, 0
1798, 3009826356, -0.51759917, -0.21288021, -0.64276683, 0.5231173, 0.0064355005, 0.06179163, 0.047973633, 0
1801, 3009876357, -0.5162462, -0.21288401, -0.6435983, 0.5234306, 0.24305385, -0.03122747, -0.1783781, 0
1803, 3009909691, -0.5156096, -0.21214852, -0.6444354, 0.5233266, 0.07162801, 0.054866627, -0.1947689, 0
1806, 3009959692, -0.5142169, -0.21246603, -0.6448654, 0.52403796, 0.17588125, 0.0036223172, -0.16116142, 0
1809, 3010009693, -0.5147246, -0.21306463, -0.64503103, 0.52309185, 0.099661574, 0.064115986, -0.1509161, 0
1811, 3010043027, -0.5142633, -0.21350297, -0.64501226, 0.5233897, -0.038342085, 0.09763041, -0.3664646, 0
1814, 3010093028, -0.51315594, -0.21444258, -0.6445307, 0.5246842, 0.23326907, -0.0934808, -0.39119148, 0
1817, 3010143029, -0.51229185, -0.21455248, -0.6445574, 0.5254503, 0.06280055, 0.07350556, -0.31400585, 0
1819, 3010176363, -0.5111902, -0.21548963, -0.6439687, 0.5268599, 0.36009303, -0.06834344, -0.14325619, 0
1822, 3010226364, -0.5108735, -0.21630572, -0.6444571, 0.526235, -0.096028455, 0.29587093, 0.0022211075, 0
1825, 3010276365, -0.50994444, -0.21813823, -0.64429784, 0.5265744, 0.34831482, 0.011507428, -0.25907898, 0
1829, 3010343033, -0.50859636, -0.2172943, -0.6454929, 0.52676344, 0.0731531, 0.057058793, -0.4349184, 0
1832, 3010393034, -0.50646716, -0.21612677, -0.64592975, 0.52875596, 0.19110674, -0.078389496, -0.45699596, 0
1834, 3010426368, -0.5058362, -0.21596739, -0.6453876, 0.5300856, 0.033497613, 0.06170331, -0.23306942, 0
1837, 3010476369, -0.50531256, -0.2186758, -0.64356637, 0.53168654, 0.07140402, 0.2732063, -0.09368706, 0
1840, 3010526370, -0.50551784, -0.22128697, -0.64211696, 0.53216314, 0.0013189081, 0.42702335, 0.0703249, 0
1842, 3010559704, -0.5048816, -0.22163388, -0.6424873, 0.5321758, 0.15042527, 0.29943058, 0.29029274, 0
1845, 3010609705, -0.5032517, -0.22057047, -0.64411485, 0.53219396, 0.3594811, -0.2804185, -0.03860855, 0
1848, 3010659706, -0.5032724, -0.21886154, -0.6452616, 0.53149027, 0.109890856, -0.15504482, -0.3735361, 0
1850, 3010693040, -0.5025789, -0.21961242, -0.64458936, 0.5326513, 0.26663756, -0.44977167, -0.58012295, 0
1853, 3010743041, -0.50218755, -0.22053683, -0.64279485, 0.5348028, 0.17137267, -0.037497204, -0.40354347, 0
1857, 3010809709, -0.4993849, -0.22210209, -0.6403484, 0.539692, -0.10326616, 0.029365733, -0.12524223, 0
1860, 3010859710, -0.49723944, -0.22288856, -0.63868964, 0.5433021, 0.1683528, 0.11421582, 0.19093418, 0
1863, 3010909711, -0.49591556, -0.22150856, -0.63857454, 0.54520863, 0.004799298, 0.18368465, 0.14200592, 0
1865, 3010943045, -0.49488035, -0.22099687, -0.63853586, 0.5464009, 0.046259277, 0.2902421, 0.038363457, 0
1868, 3010993046, -0.4945443, -0.22135568, -0.63837945, 0.5467425, 0.05413203, 0.056817356, -0.30115414, 0
1871, 3011043047, -0.4942589, -0.22332956, -0.63768333, 0.5470102, 0.013277186, 0.11668972, -0.16884422, 0
1873, 3011076381, -0.49372193, -0.2251184, -0.6371434, 0.5473907, 0.09504804, 0.012487808, -0.4488058, 0
1876, 3011126382, -0.4930668, -0.22700201, -0.63684213, 0.54755396, 0.062787056, 0.11814305, -0.23160934, 0
1879, 3011176383, -0.49069583, -0.22797804, -0.63716495, 0.54890126, 0.107063614, 0.014077907, -0.06206417, 0
1882, 3011226384, -0.48855272, -0.22676787, -0.6383778, 0.549904, 0.08993899, 0.08049839, 0.041911125, 0
1886, 3011293052, -0.48712623, -0.22583327, -0.63941085, 0.55035365, 0.02107804, 0.11233755, -0.20450592, 0
1888, 3011326386, -0.4870748, -0.22639003, -0.6392709, 0.55033284, 0.061995313, 0.14564249, -0.37234497, 0
1891, 3011376387, -0.4876294, -0.2279426, -0.63908875, 0.5494117, 0.18820308, 0.18826094, -0.13257217, 0
1894, 3011426388, -0.48742306, -0.22978614, -0.63934624, 0.54852664, 0.20377561, -0.20234013, -0.22065067, 0
1896, 3011459722, -0.48783433, -0.23043208, -0.6389606, 0.54833925, 0.33174106, -0.22670847, -0.2159586, 0
1899, 3011509723, -0.48848113, -0.23111367, -0.63851285, 0.5479982, 0.054444775, -0.058011644, -0.2095995, 0
1902, 3011559724, -0.4887804, -0.23263915, -0.63702464, 0.54881734, 0.046606336, -0.018784728, -0.3478651, 0
1905, 3011609725, -0.48805252, -0.2328638, -0.6359919, 0.5505646, 0.1373572, -0.16430183, -0.21945858, 0
1907, 3011643059, -0.48742962, -0.23268302, -0.6356567, 0.5515791, 0.11383223, -0.0230094, -0.0075130463, 0
1910, 3011693060, -0.4862729, -0.23358569, -0.6347135, 0.55330217, 0.15669899, -0.20201008, 0.34392452, 0
1913, 3011743061, -0.48545933, -0.2351182, -0.6344807, 0.55363417, 0.058181625, -0.0013015439, 0.11489582, 0
1915, 3011776395, -0.48472404, -0.23678192, -0.6344746, 0.55357665, -0.036464825, 0.030323723, -0.34990025, 0
1918, 3011826396, -0.4826106, -0.23965095, -0.63423026, 0.5544675, -0.036736127, -0.022075787, -0.5441694, 0
1921, 3011876397, -0.47922593, -0.24098508, -0.6339221, 0.5571709, 0.14217693, -0.05292678, -0.61388683, 0
1923, 3011909731, -0.47685963, -0.24193348, -0.63344264, 0.5593312, 0.13267213, 0.06650036, -0.35159874, 0
1926, 3011959732, -0.4733404, -0.24410908, -0.6324816, 0.5624543, 0.16584504, -0.05457826, -0.0104599, 0
1930, 3012026400, -0.46927696, -0.25152692, -0.6282395, 0.5673239, -0.045879032, -0.6634193, 0.082969666, 0
1933, 3012076401, -0.46600685, -0.26429963, -0.62048346, 0.5727229, 0.008248043, -1.017559, -0.21321583, 0
1936, 3012126402, -0.46219873, -0.28429097, -0.6080992, 0.57947755, -0.030630069, -1.0626476, -0.53184605, 0
1938, 3012159736, -0.45830876, -0.3017429, -0.5978199, 0.5844174, -0.57012284, -1.1580514, -0.56828594, 0
1941, 3012209737, -0.4493695, -0.33192208, -0.5780071, 0.5948366, -0.13306187, -0.8356964, -0.39298534, 0
1944, 3012259738, -0.43743595, -0.36391777, -0.5552185, 0.60660857, -0.68498623, -0.54092604, -0.2239275, 0
1946, 3012293072, -0.42768967, -0.3862164, -0.5367005, 0.61635953, -0.4557515, -0.48260543, 0.15331554, 0
1949, 3012343073, -0.4117409, -0.41836956, -0.50852036, 0.62997735, -0.5913593, 0.011401061, 0.3391285, 0
1952, 3012393074, -0.39331993, -0.4513464, -0.47550297, 0.6446013, -0.58488536, 0.21715714, 0.1055994, 0
1954, 3012426408, -0.38043618, -0.473683, -0.45007706, 0.6544856, -0.5762377, 0.19982986, -0.30105686, 0
1957, 3012476409, -0.36218536, -0.5036304, -0.41282538, 0.6669191, -0.40660974, 0.7859859, -1.044219, 0
1960, 3012526410, -0.34153414, -0.5246538, -0.38261837, 0.6795026, 0.6668945, 0.92146164, -0.65422726, 0
1963, 3012576411, -0.31943327, -0.537775, -0.36027515, 0.6920912, 0.27341506, 0.7337944, -0.22321033, 0
1967, 3012643079, -0.29143682, -0.548713, -0.34020394, 0.7058809, 0.53512025, 0.5001306, 0.78627586, 0
1969, 3012676413, -0.2776876, -0.5538762, -0.3316592, 0.7114358, -0.07766908, 0.42607313, 0.81162643, 0
1972, 3012726414, -0.25898647, -0.5619918, -0.3174594, 0.71856713, -0.14618032, -0.2008626, 0.26507282, 0
1975, 3012776415, -0.24353565, -0.5728217, -0.29879427, 0.72340554, 0.064137995, 0.7740387, -0.26434708, 0
1979, 3012843083, -0.2245813, -0.5865933, -0.2729946, 0.72867924, 0.087356016, 0.3161231, -0.28375435, 0
1981, 3012876417, -0.21584591, -0.5920272, -0.26231796, 0.73084307, 0.5686103, 0.65412563, -0.52989197, 0
1984, 3012926418, -0.2019547, -0.59799784, -0.2507938, 0.73399144, 0.036128297, 0.11869991, -0.23007774, 0
1987, 3012976419, -0.18982536, -0.60078084, -0.24426311, 0.7371514, 0.042235233, 0.3003138, -0.17799187, 0
1990, 3013026420, -0.17746252, -0.60347766, -0.23677781, 0.7404635, 0.0059511443, 0.14105545, -0.3213749, 0
1992, 3013059754, -0.17048198, -0.605172, -0.23184893, 0.7422781, 0.34490228, 0.42242542, -0.1831646, 0
1996, 3013126422, -0.1551269, -0.6085587, -0.22424024, 0.74520886, -0.08094298, 0.04811161, 0.0050230026, 0
1999, 3013176423, -0.14310822, -0.61172605, -0.21859899, 0.74669516, -0.23272829, -0.087968215, -0.25709724, 0
2002, 3013226424, -0.13155806, -0.61263585, -0.21374454, 0.74947405, 0.4860791, 0.0060648005, -0.62666035, 0
2004, 3013259758, -0.12389168, -0.6132814, -0.21108973, 0.75100315, -0.08625041, -0.03725089, -0.13746548, 0
2007, 3013309759, -0.11404523, -0.61348, -0.20451061, 0.7542144, 0.66169155, -0.13409302, 0.6172075, 0
2010, 3013359760, -0.10682362, -0.613504, -0.20015736, 0.75641686, 0.34669653, -0.052381154, 0.4610901, 0
2013, 3013409761, -0.10096875, -0.6132942, -0.19740863, 0.75811166, 0.49037212, 0.21379752, 0.11878204, 0
2015, 3013443095, -0.09716678, -0.6137434, -0.19482557, 0.7589128, 0.26030722, 0.11027258, -0.21203136, 0
2018, 3013493096, -0.09472725, -0.6138718, -0.19334243, 0.7594965, -0.074076, -0.034216706, -0.4084673, 0
2021, 3013543097, -0.09212148, -0.61489844, -0.19092928, 0.7595968, 0.08382026, 0.107826896, -0.41850948, 0
2025, 3013609765, -0.08989781, -0.6150899, -0.1884982, 0.7603152, 0.13834032, 0.09991923, -0.2968464, 0
2027, 3013643099, -0.08814442, -0.6156545, -0.18568148, 0.7607565, -0.18250905, -0.053936806, -0.084775925, 0
2030, 3013693100, -0.08707476, -0.6146824, -0.18300557, 0.76231265, 0.5032999, 0.1702525, -0.036273956, 0
2033, 3013743101, -0.08415872, -0.614271, -0.18191889, 0.76323116, 0.11311544, 0.06008073, 0.10111904, 0
2035, 3013776435, -0.08401132, -0.61365515, -0.1834162, 0.7633846, 0.8107017, 0.17334346, 0.13723373, 0
2038, 3013826436, -0.085065186, -0.61397755, -0.18667415, 0.76221794, 0.13747197, 0.19275936, -0.10016537, 0
2041, 3013876437, -0.087500066, -0.6153141, -0.19044206, 0.75992894, 0.18634677, 0.20128794, -0.4964533, 0
2044, 3013926438, -0.08970699, -0.6165791, -0.19544408, 0.757372, -0.30777958, -0.15427981, -0.29450226, 0
2046, 3013959772, -0.090455115, -0.61745554, -0.19693312, 0.7561825, -0.09965783, -0.23789132, -0.2628336, 0
2049, 3014009773, -0.0921427, -0.6183977, -0.19745472, 0.755072, -0.18639405, -0.35928187, -0.06005001, 0
2052, 3014059774, -0.093437284, -0.61773694, -0.19836369, 0.7552154, -0.112210095, -0.25120085, -0.070941925, 0
2054, 3014093108, -0.09376234, -0.61723316, -0.19887567, 0.7554524, 0.023768479, -0.2054634, -0.016947746, 0
2057, 3014143109, -0.094243914, -0.61546326, -0.20006715, 0.7565212, -0.07815511, -0.10192973, -0.03284645, 0
2060, 3014193110, -0.092684716, -0.61439234, -0.20096204, 0.7573465, -0.087115854, -0.18993416, -0.088661194, 0
2062, 3014226444, -0.09187171, -0.6132943, -0.20297484, 0.75779873, 0.08953404, -0.031774156, -0.23085594, 0
2066, 3014293112, -0.087899536, -0.6117332, -0.20647137, 0.7585867, -0.07860816, -0.077177905, -0.37583637, 0
2069, 3014343113, -0.08533612, -0.6097212, -0.20906687, 0.75978726, 0.30088934, 0.04610089, -0.09134102, 0
2072, 3014393114, -0.082915634, -0.60820806, -0.2120835, 0.7604318, 0.27768815, -0.1304625, -0.112075806, 0
2075, 3014443115, -0.080893695, -0.6064026, -0.21739474, 0.7605915, 0.23880728, 0.24748941, -0.107642174, 0
2077, 3014476449, -0.078618884, -0.60543567, -0.21952634, 0.76098794, -0.45385623, -0.2799446, -0.35886288, 0
2080, 3014526450, -0.07868075, -0.6036905, -0.22077334, 0.7620067, 0.09383845, 0.20524837, -0.2537651, 0
2083, 3014576451, -0.0787833, -0.6036457, -0.21714334, 0.7630739, 0.014344503, -0.22540186, 0.0033874512, 0
2085, 3014609785, -0.07997656, -0.60336316, -0.21630757, 0.76341057, 0.20301548, 0.1848432, -0.060626984, 0
2088, 3014659786, -0.07866621, -0.6038203, -0.21377137, 0.7638993, -0.22451553, -0.04823767, -0.2505684, 0
2091, 3014709787, -0.07839891, -0.6037909, -0.21218918, 0.7643912, 0.1470713, 0.09555067, -0.1134243, 0
2094, 3014759788, -0.07809517, -0.6045075, -0.2106686, 0.7642764, -0.044784285, 0.046384748, -0.019370079, 0
2096, 3014793122, -0.07778138, -0.6051558, -0.20957969, 0.7640947, -0.052234307, -0.0047628377, -0.09931755, 0
2099, 3014843123, -0.07735622, -0.6064707, -0.20741767, 0.76368535, -0.020986637, -0.061507635, -0.20821095, 0
2102, 3014893124, -0.07726595, -0.6073459, -0.20535405, 0.7635566, -0.14220688, 0.10376701, -0.32566357, 0
2106, 3014959792, -0.07626966, -0.6089022, -0.19918098, 0.7640523, 0.11811509, 0.15282832, -0.2235794, 0
2108, 3014993126, -0.074784935, -0.6097679, -0.19640414, 0.7642275, 0.31682706, 0.10620419, -0.118582726, 0
2111, 3015043127, -0.07312176, -0.60986173, -0.1940973, 0.7649026, 0.24999712, 0.11469657, -0.17213345, 0
2114, 3015093128, -0.07179394, -0.61015695, -0.19117278, 0.7655293, -0.062691025, 0.0017199322, -0.20508957, 0
2116, 3015126462, -0.07177952, -0.6100675, -0.18838425, 0.7662928, -0.18488668, -0.15258045, -0.23729134, 0
2121, 3015209797, -0.071560144, -0.60973287, -0.1828693, 0.767914, 0.11319624, 0.11402692, -0.036940575, 0
2123, 3015243131, -0.07172525, -0.60903966, -0.18285364, 0.76845217, 0.3641615, 0.31130147, -0.115608215, 0
2126, 3015293132, -0.07200745, -0.6089607, -0.18252128, 0.7685673, 0.06200864, 0.06874856, -0.12775993, 0
2129, 3015343133, -0.073800325, -0.6093323, -0.1828776, 0.7680178, 0.027417216, 0.082822725, -0.083548546, 0
2131, 3015376467, -0.075330555, -0.6096873, -0.18313633, 0.7675257, 0.08933757, 0.044642914, -0.22384357, 0
2135, 3015443135, -0.078172535, -0.61005294, -0.18407208, 0.76672673, 0.020203447, -0.008449907, -0.15712261, 0
2138, 3015493136, -0.07948187, -0.61030316, -0.18463828, 0.7662568, -0.22231907, 0.002454843, -0.13063812, 0
2141, 3015543137, -0.08057371, -0.6104419, -0.18405561, 0.7661725, 0.097294964, -0.005968243, -0.14542484, 0
2143, 3015576471, -0.08088714, -0.61059344, -0.1841126, 0.7660048, -0.14413087, -0.06338693, -0.17541218, 0
2146, 3015626472, -0.08222091, -0.61050814, -0.18485424, 0.7657522, 0.1286858, 0.0397187, -0.16419315, 0
2149, 3015676473, -0.0830192, -0.611404, -0.18465896, 0.7649981, -0.0049372893, -0.105651446, -0.038433075, 0
2152, 3015726474, -0.08441043, -0.6119082, -0.18493386, 0.7643759, -0.14613467, -0.077106826, -0.20810127, 0
2154, 3015759808, -0.0850189, -0.6124735, -0.18457094, 0.7639435, 0.061262555, 0.19766457, -0.3046589, 0
2157, 3015809809, -0.08521113, -0.61352676, -0.18330948, 0.7633803, -0.12576817, -0.17927349, -0.17884636, 0
2160, 3015859810, -0.085819274, -0.6135696, -0.1829612, 0.76336145, 0.062029876, -0.027525397, -0.24528408, 0
2164, 3015926478, -0.085437596, -0.6144008, -0.18237491, 0.7628757, -0.06167795, -0.08323511, -0.10729313, 0
2166, 3015959812, -0.08573654, -0.6142512, -0.1830768, 0.7627945, 0.0032733472, 0.020822244, -0.33285618, 0
2169, 3016009813, -0.08477789, -0.6142177, -0.18403015, 0.76269925, 0.0193598, 0.0332214, -0.35840988, 0
2172, 3016059814, -0.0860779, -0.6137887, -0.18393151, 0.7629228, 0.29317915, -0.015310414, 0.021635056, 0
2174, 3016093148, -0.08725184, -0.61392504, -0.1837616, 0.7627207, 0.63008624, 0.08438128, 0.18732738, 0
2177, 3016143149, -0.090927124, -0.6131228, -0.18791911, 0.7619232, 0.42992863, 0.17581417, 0.22619247, 0
2180, 3016193150, -0.09431189, -0.61328167, -0.1918873, 0.7603934, -0.4004448, 0.026848376, -0.18911934, 0
2183, 3016243151, -0.09732106, -0.6142795, -0.1944568, 0.7585538, -0.36230144, -0.016457483, -0.59165287, 0
2185, 3016276485, -0.09801683, -0.6146698, -0.19554198, 0.75786877, -0.16425341, -0.114756025, -0.4196539, 0
2188, 3016326486, -0.0987297, -0.61573464, -0.19641961, 0.75668395, -0.21802482, -0.20393233, -0.020963669, 0
2191, 3016376487, -0.10007021, -0.6160095, -0.1961238, 0.75636077, 0.16554007, 0.04753651, -0.05379677, 0
2195, 3016443155, -0.10180205, -0.6161992, -0.19570833, 0.75608283, 0.19833411, -0.061128557, -0.063183784, 0
2197, 3016476489, -0.10234216, -0.6162329, -0.19659759, 0.7557516, -0.2053389, 0.026866928, -0.29392242, 0
2200, 3016526490, -0.10146636, -0.61626303, -0.19732933, 0.7556544, 0.04887893, -0.08287503, -0.11149502, 0
2203, 3016576491, -0.10079038, -0.6163131, -0.19815218, 0.7554885, -0.0015012248, 0.0034114781, -0.3267393, 0
2206, 3016626492, -0.10063058, -0.6160459, -0.19817267, 0.75572246, -0.026073346, 0.05150029, -0.18025112, 0
2208, 3016659826, -0.10094178, -0.61543757, -0.19771029, 0.75629747, 0.11188522, 0.12858343, -0.19579887, 0
2211, 3016709827, -0.10192132, -0.6146412, -0.19692571, 0.7570182, -0.09202453, 0.05995221, -0.205657, 0
2214, 3016759828, -0.10268983, -0.6139001, -0.19623427, 0.7576948, 0.046302944, 0.007768193, -0.22135258, 0
2216, 3016793162, -0.10277793, -0.6137877, -0.19549677, 0.7579646, -0.07134914, -0.11081571, -0.22731113, 0
2219, 3016843163, -0.102980494, -0.61351293, -0.19435968, 0.75845176, 0.054009784, -0.059057713, -0.14581394, 0
2222, 3016893164, -0.103068024, -0.6127053, -0.19283217, 0.759482, 0.09166713, -0.05694529, -0.18768787, 0
2224, 3016926498, -0.103022486, -0.6121156, -0.19145836, 0.76031077, -0.006291778, -0.2534751, -0.2837143, 0
2227, 3016976499, -0.10331544, -0.61077744, -0.18918987, 0.76191336, -0.021492671, -0.068560585, -0.29624367, 0
2230, 3017026500, -0.10305452, -0.6087322, -0.18651868, 0.7642405, 0.12551917, -0.12517865, -0.10317612, 0
2233, 3017076501, -0.10260531, -0.6064873, -0.18492104, 0.76647073, 0.057993118, -0.044515956, -0.20345974, 0
2235, 3017109835, -0.101917624, -0.6049533, -0.18447354, 0.7678814, 0.08967396, 0.06851834, -0.16734314, 0
2238, 3017159836, -0.100810796, -0.60325956, -0.1843097, 0.76939785, -0.032679383, -0.09729027, 0.046396255, 0
2241, 3017209837, -0.10026279, -0.602128, -0.18401496, 0.7704257, 0.11685883, 0.07822305, -0.055974007, 0
2245, 3017276505, -0.10137701, -0.60124844, -0.18388313, 0.7709979, 0.13340114, 0.17891206, -0.14326286, 0
2247, 3017309839, -0.10229826, -0.6003735, -0.18501917, 0.7712864, 0.2777533, 0.10537407, -0.23867416, 0
2250, 3017359840, -0.103993535, -0.5981055, -0.1887806, 0.77190995, 0.39076534, 0.27193928, -0.20018864, 0
2253, 3017409841, -0.107491046, -0.5940528, -0.1948759, 0.7730447, 0.43086436, 0.1404922, -0.08188248, 0
2256, 3017459842, -0.112790465, -0.5896021, -0.19959362, 0.7744921, -0.08563989, -0.1016376, -0.030446053, 0
2258, 3017493176, -0.11787313, -0.58643055, -0.20110333, 0.7757517, 0.31412557, 0.07209969, -0.32959557, 0
2261, 3017543177, -0.12666982, -0.5815617, -0.20416677, 0.7772287, 0.2486689, 0.15397048, -0.050772667, 0
2264, 3017593178, -0.13578936, -0.5760749, -0.21053338, 0.7780762, 0.50153255, 0.17210966, 0.025218964, 0
2266, 3017626512, -0.14233357, -0.5721371, -0.21587223, 0.7783493, 0.09909771, 0.23885533, 0.08264065, 0
2269, 3017676513, -0.15501037, -0.5654485, -0.22514732, 0.7781878, 0.86626714, 0.5422889, -0.19589043, 0
2273, 3017743181, -0.1770159, -0.5500188, -0.24623574, 0.77816486, 0.59250724, 0.017433787, -0.30179882, 0
2276, 3017793182, -0.20108217, -0.5285723, -0.26801133, 0.7799841, 0.9130523, 0.57107216, -1.1627102, 0
2278, 3017826516, -0.22016087, -0.5088947, -0.2853927, 0.78175074, 1.1190786, 0.59292644, -1.2185049, 0
2281, 3017876517, -0.24940047, -0.46848845, -0.31241354, 0.7878729, 0.15472174, -0.21919736, -1.001442, 0
2284, 3017926518, -0.27930942, -0.41973546, -0.3381663, 0.79465705, 0.15654527, 0.6690918, -0.87206364, 0
2287, 3017976519, -0.3029786, -0.36676392, -0.3587896, 0.80311036, -0.24287261, -0.5554238, -0.73519135, 0
2289, 3018009853, -0.32007867, -0.32799768, -0.36920792, 0.8085052, -0.7145501, -0.34069857, -1.3947372, 0
2292, 3018059854, -0.34709936, -0.2651777, -0.38833615, 0.8114344, -0.24804406, 0.22409901, -0.91264915, 0
2295, 3018109855, -0.36734462, -0.20053592, -0.39566538, 0.8175085, -0.53141594, 0.084719345, -1.262845, 0
2297, 3018143189, -0.37874955, -0.15525776, -0.39405018, 0.8229195, -0.38353804, -0.23425901, -0.6323271, 0
2301, 3018209857, -0.40113643, -0.06118664, -0.35368922, 0.84277976, -1.711633, 0.29840678, -1.2128668, 0
2304, 3018259858, -0.41688877, 0.0069560856, -0.30594802, 0.8559083, -1.6859708, -0.39162844, -2.0331888, 0
2307, 3018309859, -0.42728448, 0.0722071, -0.2568117, 0.8638808, -1.5979522, 1.9945581, 0.4563818, 0
2309, 3018343193, -0.43191677, 0.10244876, -0.2061752, 0.8720504, -1.9299933, -0.119870834, -0.5193815, 0
2312, 3018393194, -0.43709236, 0.15512146, -0.1419402, 0.8745104, -1.3445005, -1.0884597, 0.74628925, 0
2315, 3018443195, -0.43335626, 0.21598248, -0.08991478, 0.8703431, 0.11845751, -0.19343534, 1.2269707, 0
2318, 3018493196, -0.42261538, 0.27388427, -0.043203965, 0.86287034, -0.60170954, -0.6831824, 1.1275625, 0
2320, 3018526530, -0.41358098, 0.3131997, -0.022181094, 0.85463023, -1.4296318, -0.61043346, 0.6388502, 0
2323, 3018576531, -0.3966095, 0.36839822, -0.0066636205, 0.8408134, -0.45906743, 1.5273637, 1.5096769, 0
2326, 3018626532, -0.38474005, 0.40495062, 0.0103894025, 0.8294034, 0.07694948, 0.25566262, 1.0781822, 0
2330, 3018693200, -0.3734996, 0.44381762, 0.031123742, 0.81399214, 0.17860675, -0.109212115, 0.8937702, 0
2332, 3018726534, -0.37025613, 0.46290112, 0.043311924, 0.8042295, -0.25145173, -0.28903523, 0.7301836, 0
2335, 3018776535, -0.35659313, 0.4934684, 0.051931992, 0.7916194, -0.21558306, 0.115316145, 1.0919352, 0
2338, 3018826536, -0.33743775, 0.51876974, 0.05471225, 0.78361225, -0.06465146, -0.23200813, 0.9530058, 0
2341, 3018876537, -0.31939018, 0.54018795, 0.058911502, 0.77636606, 0.3777864, -0.49745446, 1.0718222, 0
2343, 3018909871, -0.31047344, 0.5511539, 0.06351583, 0.77189994, 0.5381122, -0.5142548, 0.99869156, 0
2346, 3018959872, -0.2954494, 0.5664586, 0.06692383, 0.7664094, 0.5493201, -0.88454044, 0.7809696, 0
2349, 3019009873, -0.28031564, 0.5781336, 0.0666185, 0.76339674, 0.7264795, -0.33542857, -0.02238369, 0
2351, 3019043207, -0.27122492, 0.5851028, 0.066658765, 0.7613648, 0.1372868, -0.26589325, -0.18859005, 0
2354, 3019093208, -0.25927976, 0.5954274, 0.065407425, 0.7576214, 0.6189898, -0.5127982, -0.49201202, 0
2357, 3019143209, -0.24700674, 0.6077645, 0.06388965, 0.7520345, 0.2181749, -0.907447, -0.5159254, 0
2359, 3019176543, -0.23469126, 0.6181491, 0.058924526, 0.7479087, 0.1389903, -0.5468989, -0.072013855, 0
2362, 3019226544, -0.2174921, 0.631343, 0.053022623, 0.74250907, -0.57642907, -0.32881504, 0.38079643, 0
2365, 3019276545, -0.18693328, 0.6406851, 0.03693986, 0.7438025, -0.41577533, 0.8446846, 0.4249506, 0
2368, 3019326546, -0.17168105, 0.63810897, 0.035794526, 0.7497262, -0.4766557, -0.07331091, -0.06401348, 0
2370, 3019359880, -0.16003856, 0.6351446, 0.033829898, 0.75489247, 0.08151484, -0.5374577, 0.062701225, 0
2373, 3019409881, -0.13506746, 0.632764, 0.023504972, 0.76212996, 0.56390184, 0.748697, 0.45521355, 0
2376, 3019459882, -0.12283301, 0.6348671, 0.0186733, 0.76258457, 0.93079937, 1.2305033, 0.5904703, 0
2378, 3019493216, -0.11744133, 0.6366867, 0.014875054, 0.76200014, 0.42757514, 0.5818999, 0.4607668, 0
2382, 3019559884, -0.1103684, 0.6398175, 0.009663254, 0.7605176, -0.80355525, -0.42836526, -0.10763836, 0
2385, 3019609885, -0.106755584, 0.64238274, 0.007789403, 0.7588906, -0.55790824, -0.31493893, -0.12485981, 0
2388, 3019659886, -0.10315329, 0.644635, 0.0056013763, 0.757497, 0.593926, 0.13065696, 0.1647253, 0
2391, 3019709887, -0.10252765, 0.6463524, 0.0040577054, 0.7561271, -0.061527304, 0.139247, 0.20981216, 0
2393, 3019743221, -0.102237135, 0.64730656, 0.0026399195, 0.7553561, -0.020799445, -0.021950984, 0.20230103, 0
2396, 3019793222, -0.10154447, 0.64792717, -1.5866756E-4, 0.7549219, -0.2463258, -0.14380845, 0.15217972, 0
2399, 3019843223, -0.09994301, 0.64769006, -0.0016451776, 0.75533706, 0.0060428963, -0.04666146, 0.021129608, 0
2401, 3019876557, -0.09877381, 0.64760745, -0.0025425553, 0.75555944, -0.019350411, -0.040243953, 0.01977539, 0
2404, 3019926558, -0.097566396, 0.64803195, -0.0038700402, 0.75534666, -0.14021437, -0.053028673, 0.14198303, 0
2407, 3019976559, -0.09664464, 0.64892834, -0.0053664446, 0.75468594, -0.044680465, 0.15898477, 0.26145077, 0
2411, 3020043227, -0.09651074, 0.64853287, -0.006489426, 0.7550342, -0.05692249, -0.040245518, -0.011753082, 0
2413, 3020076561, -0.09725112, 0.64803493, -0.0067058206, 0.7553649, -0.028778858, -0.1175401, 0.03264904, 0
2416, 3020126562, -0.09821415, 0.6461491, -0.0074974895, 0.7568468, -0.12347258, -0.2627978, 0.21214485, 0
2419, 3020176563, -0.09876534, 0.6437337, -0.008900076, 0.75881565, 0.007882855, -0.044284176, 0.08177757, 0
2422, 3020226564, -0.099031955, 0.64153904, -0.010732412, 0.7606137, -0.0934843, 0.027838092, -0.115439415, 0
2424, 3020259898, -0.10006571, 0.6413336, -0.010498941, 0.7606547, -0.24300596, -0.078762166, 0.1770668, 0
2427, 3020309899, -0.09675464, 0.64012164, -0.017287493, 0.761979, 0.49058634, 0.07093061, -0.24049664, 0
2430, 3020359900, -0.096120596, 0.6445732, -0.016191065, 0.758322, -0.54008394, 0.12240352, 0.22294521, 0
2432, 3020393234, -0.09527308, 0.64641917, -0.018713921, 0.75679785, 0.15964927, -0.24615146, 0.38657188, 0
2435, 3020443235, -0.09427938, 0.6468276, -0.020527184, 0.75652635, -0.11254056, -0.09613739, 0.21601105, 0
2439, 3020509903, -0.09255293, 0.64608204, -0.023760319, 0.75728166, -0.1667733, -0.12855281, 0.08928013, 0
2442, 3020559904, -0.09245446, 0.64576507, -0.024637997, 0.75753593, -0.06210017, 0.22862738, 0.034931183, 0
2444, 3020593238, -0.093315005, 0.6455853, -0.023553312, 0.7576182, -0.015820693, 0.23423643, 0.07253075, 0
2447, 3020643239, -0.09514195, 0.6452844, -0.02189657, 0.75769675, -0.0105225425, -0.12100254, 0.05398369, 0
2450, 3020693240, -0.09581271, 0.6453574, -0.021037906, 0.75757456, -0.09841074, -0.09181443, 0.1343584, 0
2453, 3020743241, -0.09502265, 0.6450926, -0.021729082, 0.75788, -0.021127116, -0.14923736, 0.1264677, 0
2455, 3020776575, -0.09404868, 0.64496183, -0.022676736, 0.758085, -0.05151348, -0.022905162, 0.06456852, 0
2458, 3020826576, -0.09328234, 0.6446712, -0.023268133, 0.7584088, 0.0424165, 0.12687646, 0.10228729, 0
2461, 3020876577, -0.09410423, 0.64421153, -0.022396088, 0.7587241, -0.11222943, -0.07005343, 0.10560894, 0
2463, 3020909911, -0.09449935, 0.6441213, -0.021978647, 0.75876373, -0.09388706, 0.0392567, 0.14463997, 0
2466, 3020959912, -0.09542358, 0.6439884, -0.02090171, 0.75879145, -0.11002336, -0.08183838, 0.14232826, 0
2469, 3021009913, -0.09576991, 0.6441215, -0.020708382, 0.7586401, 0.06588111, 0.037259832, 0.12981892, 0
2472, 3021059914, -0.0995428, 0.6439005, -0.01829657, 0.758404, -0.11554636, -0.042513058, 0.09917927, 0
2474, 3021093248, -0.10465917, 0.64327955, -0.01515767, 0.75831133, 0.2604923, 0.3515736, 0.18170357, 0
2477, 3021143249, -0.11849427, 0.6424384, -0.0050520897, 0.7571225, -0.29512337, -0.036269, 0.09587383, 0
2480, 3021193250, -0.13157022, 0.6418494, 0.00432232, 0.7554654, 0.07710437, 0.052608468, 0.27473164, 0
2482, 3021226584, -0.1403665, 0.6417907, 0.011251658, 0.75385904, -0.45875654, -0.23294677, 0.07055664, 0
2485, 3021276585, -0.14865023, 0.644699, 0.017870307, 0.7496498, -0.6239724, -0.58114934, 0.19364166, 0
2488, 3021326586, -0.1525397, 0.6484731, 0.023656666, 0.7454413, -0.19721845, -0.08936942, 0.10623264, 0
2492, 3021393254, -0.15617844, 0.64913666, 0.030235827, 0.74387074, 0.66865754, 0.7740675, 0.028121948, 0
2496, 3021459922, -0.15839529, 0.6471457, 0.02995205, 0.7451471, 0.008535177, 0.07379414, -0.028857231, 0
2499, 3021509923, -0.16011465, 0.64622444, 0.03177622, 0.7455034, -0.49075288, -0.40424508, 0.018514633, 0
2501, 3021543257, -0.15935475, 0.6463314, 0.03293842, 0.7455231, -0.11782608, -0.021109235, 0.09978008, 0
2504, 3021593258, -0.15679932, 0.64637524, 0.03298211, 0.74602497, 0.20594439, 0.12459372, 0.26467896, 0
2507, 3021643259, -0.15484023, 0.64687526, 0.030890077, 0.74609035, -0.004841514, -0.0070348466, 0.2110138, 0
2511, 3021709927, -0.15297377, 0.64767915, 0.028307527, 0.74588037, -0.13208386, -0.18500167, 0.022436142, 0
2513, 3021743261, -0.15222374, 0.64814794, 0.027550519, 0.7456547, -0.2501244, -0.18377683, 0.12598419, 0
2516, 3021793262, -0.15013033, 0.64859986, 0.025900126, 0.7457454, 0.0012067464, 0.016952563, 0.1375103, 0
2520, 3021859930, -0.1472069, 0.64963293, 0.023193508, 0.7455182, 0.06997609, 5.4783025E-4, 0.2253046, 0
2524, 3021926598, -0.14403895, 0.65074784, 0.019193947, 0.74527824, -0.022195954, 0.03992433, 0.066212654, 0
2527, 3021976599, -0.14148906, 0.6513444, 0.016836226, 0.7453026, -0.17731349, -0.11107521, -0.007329941, 0
2530, 3022026600, -0.1381971, 0.6520392, 0.0147847235, 0.7453562, 0.044455834, 0.10775112, 0.11132336, 0
2532, 3022059934, -0.13686883, 0.652328, 0.014311582, 0.7453578, -0.065988846, 0.08876571, 0.22872925, 0
2535, 3022109935, -0.1356146, 0.65271914, 0.01317203, 0.74526566, 0.07667992, -0.039078113, 0.15684128, 0
2538, 3022159936, -0.13530153, 0.6533525, 0.012405187, 0.74478066, -0.045716446, 0.012131613, 0.11326313, 0
2540, 3022193270, -0.13504985, 0.6534264, 0.0119226575, 0.74476933, -0.04714201, 0.03098739, 0.03524685, 0
2543, 3022243271, -0.13506854, 0.6533406, 0.011686295, 0.7448449, -0.040238813, -0.05677922, 0.06755638, 0
2546, 3022293272, -0.1339406, 0.6532589, 0.010523617, 0.7451376, -0.12481657, 0.041804746, 0.13684845, 0
2548, 3022326606, -0.13287249, 0.65331316, 0.0096209645, 0.74529344, -0.037149865, 0.028427271, 0.11676788, 0
2552, 3022393274, -0.13070503, 0.65377605, 0.007963926, 0.74529034, 0.03135775, 0.0271604, 0.07666683, 0
2555, 3022443275, -0.1298624, 0.65402806, 0.007373154, 0.74522257, -0.09864141, 0.052905068, 0.09801006, 0
2558, 3022493276, -0.12910068, 0.65393555, 0.0069564283, 0.74544024, -0.09510834, 0.040495407, 0.13082123, 0
2561, 3022543277, -0.12843561, 0.65399945, 0.0065723658, 0.74550235, -0.008982315, 0.06128882, 0.1325264, 0
2563, 3022576611, -0.12833941, 0.6539781, 0.0064670444, 0.7455386, -0.016712958, -0.009366087, 0.10873318, 0
2566, 3022626612, -0.12803209, 0.6538434, 0.006274432, 0.7457112, -0.10567693, 0.053444855, 0.088157654, 0
2569, 3022676613, -0.12816271, 0.6536405, 0.0064637065, 0.745865, -0.06995889, -0.08457462, 0.13506794, 0
2571, 3022709947, -0.12798524, 0.6536186, 0.006448388, 0.7459147, 0.014122666, 0.11025693, 0.13241482, 0
2574, 3022759948, -0.1284954, 0.65335596, 0.0068576634, 0.7460536, -0.014982297, -0.06276825, 0.106713295, 0
2577, 3022809949, -0.12874481, 0.653136, 0.006496489, 0.74620634, -0.08616603, -0.06349288, 0.1240015, 0
2581, 3022876617, -0.12849706, 0.65285957, 0.0062951744, 0.7464926, -0.07638913, 0.017670264, 0.16696453, 0
2584, 3022926618, -0.12741259, 0.65218043, 0.0053789318, 0.7472789, -0.0056247036, 0.027295178, 0.24641514, 0
2586, 3022959952, -0.12638259, 0.6508558, 0.00411427, 0.7486156, 0.0065580937, -0.016883498, 0.24791718, 0
2589, 3023009953, -0.12605369, 0.64744353, 0.0019749403, 0.75163245, -0.17960092, -0.27347457, 0.09749031, 0
2592, 3023059954, -0.12504017, 0.6448536, 1.2597442E-4, 0.754027, -0.14453018, -0.10233116, -0.13774586, 0
2594, 3023093288, -0.12394062, 0.64471126, -9.973049E-4, 0.75432944, 0.11086243, 0.21463703, -0.0635767, 0
2597, 3023143289, -0.124521405, 0.64539874, 1.232326E-4, 0.75364643, 0.04341292, 0.18584655, 0.14095974, 0
2600, 3023193290, -0.12618119, 0.6459059, 0.0019083619, 0.75293314, -0.0074738264, -0.08488441, 0.09049225, 0
2602, 3023226624, -0.12664923, 0.6461664, 0.0023337007, 0.75262964, -0.12203964, -0.23388553, 0.12469864, 0
2605, 3023276625, -0.12549034, 0.64662504, 0.0010975599, 0.7524326, -0.015574383, 0.028570097, 0.08889389, 0
2608, 3023326626, -0.12479031, 0.6466569, 2.3025274E-4, 0.75252247, -0.07778765, 0.052467655, 0.17861176, 0
2611, 3023376627, -0.12505656, 0.6464261, 2.0104647E-4, 0.75267667, -0.016531913, 0.0057867505, 0.09214878, 0
2613, 3023409961, -0.12529236, 0.64633226, 3.450513E-4, 0.75271785, -0.041605595, -0.03808795, 0.058696747, 0
2616, 3023459962, -0.12545675, 0.64638823, 2.911389E-4, 0.7526425, -0.1024009, -0.063399, 0.14351654, 0
2619, 3023509963, -0.12504086, 0.64654326, -1.4480948E-4, 0.7525786, -0.020778658, 0.010243598, 0.11986637, 0
2621, 3023543297, -0.12497562, 0.6465949, -2.7817488E-4, 0.75254494, -0.07043005, -0.03865366, 0.11689186, 0
2624, 3023593298, -0.124174535, 0.64675987, -0.0010634363, 0.75253516, -0.005571284, -0.052847404, 0.07262516, 0
2627, 3023643299, -0.12366313, 0.64689845, -0.0017277598, 0.7524991, -0.09548004, 0.009447222, 0.17023277, 0
2629, 3023676633, -0.12321165, 0.6468253, -0.0022510886, 0.7526345, -0.017316889, 0.033621266, 0.078912735, 0
2632, 3023726634, -0.122942716, 0.64685124, -0.0025557876, 0.75265527, -0.04519119, -8.3079765E-4, 0.10201168, 0
2635, 3023776635, -0.12224007, 0.647073, -0.0032587647, 0.7525764, -0.06989921, 0.012118425, 0.128973, 0
2638, 3023826636, -0.12127733, 0.647279, -0.0044044256, 0.7525491, -0.018246256, -0.009974489, 0.13775444, 0
2640, 3023859970, -0.12040898, 0.64756304, -0.005287379, 0.75243855, -0.06154474, 0.044241484, 0.08913231, 0
2643, 3023909971, -0.11978051, 0.6480055, -0.00590986, 0.7521533, 0.029198168, -0.03326901, 0.042408943, 0
2647, 3023976639, -0.11932102, 0.64835715, -0.0060524046, 0.75192225, -0.096576594, 0.014553599, 0.1516552, 0
2650, 3024026640, -0.119767636, 0.6484611, -0.005455345, 0.75176597, -0.0942762, -0.03047599, 0.12775707, 0
2652, 3024059974, -0.1196942, 0.64839745, -0.0054618716, 0.7518326, -0.0580224, -0.0060869283, 0.122694016, 0
2655, 3024109975, -0.11983034, 0.6483418, -0.0052830875, 0.75186, -0.006062789, -0.029244883, 0.09348488, 0
2658, 3024159976, -0.119607985, 0.64819133, -0.0055143535, 0.7520236, -0.07301274, 0.075783856, 0.09178257, 0
2662, 3024226644, -0.119478256, 0.6478794, -0.0059395432, 0.75230974, -0.05946115, -0.016021408, 0.17509842, 0
2665, 3024276645, -0.11926055, 0.6477663, -0.006313294, 0.75243855, -0.037788216, 0.032317515, 0.1725502, 0
2667, 3024309979, -0.11946267, 0.64766693, -0.006479442, 0.75249064, -0.101300545, -0.063823454, 0.10721302, 0
2670, 3024359980, -0.11932957, 0.64746827, -0.0073402226, 0.7526748, 0.058388513, -0.024027865, 0.21912098, 0
2673, 3024409981, -0.1192483, 0.64694595, -0.009381443, 0.75311416, -0.007234891, -0.02823885, 0.28139305, 0
2675, 3024443315, -0.11932933, 0.6461265, -0.011310875, 0.753778, 0.0449983, 0.034261182, 0.25766277, 0
2678, 3024493316, -0.11896801, 0.6439151, -0.016021729, 0.7556398, -7.7558994E-5, 0.061854083, 0.114727974, 0
2681, 3024543317, -0.11705953, 0.64114934, -0.02302152, 0.75810456, -0.046646036, 0.057716858, 0.12127876, 0
2683, 3024576651, -0.11560255, 0.63870335, -0.029296428, 0.76017356, -0.1931362, 0.09838548, 0.5086975, 0
2686, 3024626652, -0.11634064, 0.6272167, -0.04053092, 0.76905745, 0.44490254, 0.089460835, 0.91700363, 0
2690, 3024693320, -0.11935732, 0.59015876, -0.06579381, 0.795717, 0.72781205, 0.079117775, 2.4434433, 0
2693, 3024743321, -0.12826285, 0.53469074, -0.09662326, 0.82966644, 0.72165763, -0.7586749, 3.328207, 0
2696, 3024793322, -0.14274898, 0.453655, -0.13683625, 0.8689785, -0.6990245, -1.5295751, 2.3223238, 0
2698, 3024826656, -0.15081307, 0.38862622, -0.17497055, 0.8919858, -0.43065405, -1.4136422, 1.562808, 0
2701, 3024876657, -0.16433233, 0.2707082, -0.23117015, 0.91994596, 0.47672865, -0.060516916, -0.29551697, 0
2704, 3024926658, -0.16711032, 0.13966107, -0.2759853, 0.93617785, -0.7614685, 0.93218607, -1.3285799, 0
2706, 3024959992, -0.16041002, 0.052579105, -0.3083287, 0.9361974, 0.39087453, -0.33572003, -1.8224387, 0
2709, 3025009993, -0.13876417, -0.061105788, -0.35584867, 0.92217696, -0.4241298, 0.22134387, -1.0556774, 0
2712, 3025059994, -0.10230905, -0.15892395, -0.39489198, 0.8990908, -0.02333587, 0.08654913, -1.1390142, 0
2715, 3025109995, -0.05009243, -0.24238542, -0.4198829, 0.8731932, -0.948415, -0.2651342, -1.3970118, 0
2719, 3025176663, 0.025413454, -0.33323672, -0.4333954, 0.83696115, -0.584498, 0.36741483, -1.7857113, 0
2721, 3025209997, 0.060268134, -0.36326325, -0.43394777, 0.82226807, -0.13288839, 0.29613388, -1.6415148, 0
2724, 3025259998, 0.09803656, -0.38706362, -0.43479696, 0.8071866, 0.30838218, 0.5218104, -1.3620787, 0
2727, 3025309999, 0.11279702, -0.3949119, -0.43057904, 0.8037108, 0.07191155, 0.22994767, -0.8406048, 0
2729, 3025343333, 0.114830166, -0.39737904, -0.4300368, 0.80249625, -0.27344856, 0.49669182, -0.7812557, 0
2732, 3025393334, 0.119045556, -0.40476808, -0.42484266, 0.8009542, -0.26975965, 0.47233272, -0.44181347, 0
2735, 3025443335, 0.12263116, -0.41993204, -0.41388422, 0.79833984, 0.16475752, 0.10637853, -0.27967453, 0
2737, 3025476669, 0.1226576, -0.42775846, -0.41159043, 0.79536104, 0.82586676, -0.063922025, -0.07326889, 0
2740, 3025526670, 0.11967677, -0.42812228, -0.4085979, 0.7971603, 0.11431039, 0.5744055, -0.09597778, 0
2743, 3025576671, 0.12050855, -0.4300374, -0.40620998, 0.7972245, -0.1698071, 0.20454878, -0.11542702, 0
2746, 3025626672, 0.12531877, -0.42844537, -0.40274456, 0.7990962, 0.036565114, -0.17493108, -0.1740694, 0
2748, 3025660006, 0.12573779, -0.4239699, -0.40096748, 0.8023045, 0.2996262, -0.088035494, -0.19470596, 0
2751, 3025710007, 0.12599874, -0.4190052, -0.40057755, 0.80506194, -0.22842732, 0.33107588, -0.08188343, 0
2755, 3025776675, 0.12992609, -0.4135095, -0.39762384, 0.8087349, 0.22912128, 0.051565334, 0.0694046, 0
2758, 3025826676, 0.13098821, -0.4103652, -0.39540508, 0.81124926, 0.080976196, 0.19651304, -0.01952076, 0
2760, 3025860010, 0.13219371, -0.40856844, -0.39404637, 0.81262064, 0.060574107, 0.22314349, -0.053076744, 0
2763, 3025910011, 0.13454026, -0.4073239, -0.39190054, 0.8138969, 0.073496446, 0.18307835, 0.0026397705, 0
2766, 3025960012, 0.13720101, -0.4079993, -0.38988522, 0.8140823, 0.14171264, -0.0143828355, -0.10091305, 0
2768, 3025993346, 0.13835534, -0.40655974, -0.38831496, 0.8153566, 0.030817911, 0.264172, -0.22995377, 0
2771, 3026043347, 0.14048833, -0.4059369, -0.38725072, 0.8158084, -0.14927752, 0.18512908, 0.005627632, 0
2774, 3026093348, 0.14497313, -0.40276074, -0.3856075, 0.81737477, -0.02476766, -0.038942214, -0.36470318, 0
2777, 3026143349, 0.14836761, -0.3955276, -0.3841083, 0.82099557, -0.09198821, 0.35480738, -0.16439056, 0
2779, 3026176683, 0.15021235, -0.3931259, -0.38210422, 0.8227469, 0.035983052, 0.14441441, -0.038048744, 0
2782, 3026226684, 0.15058005, -0.3891259, -0.3800259, 0.8255391, 0.15663478, 0.1705272, -0.12178898, 0
2785, 3026276685, 0.14688328, -0.3882596, -0.3790173, 0.8270753, 0.21529216, 0.08861663, 0.11390686, 0
2787, 3026310019, 0.14220423, -0.3889512, -0.37870535, 0.82771087, 0.11984061, 0.09436046, 0.06440449, 0
2790, 3026360020, 0.13836047, -0.38923633, -0.3799589, 0.82765377, -0.07373767, 0.0906088, -0.05072689, 0
2793, 3026410021, 0.13771784, -0.38807702, -0.38106027, 0.827799, 0.028056834, -0.0129089905, -0.30198383, 0
2795, 3026443355, 0.13809645, -0.38671058, -0.3818138, 0.8280281, 0.14942813, -0.020126447, -0.27067757, 0
2800, 3026526690, 0.12598565, -0.38168904, -0.38545233, 0.8305994, 0.008065303, 0.30612737, -0.075071335, 0
2802, 3026560024, 0.11568448, -0.38447213, -0.38788947, 0.8296795, -0.085203476, -0.07793539, -0.10092354, 0
2805, 3026610025, 0.10328546, -0.38576475, -0.38927525, 0.83006644, -0.08403115, 0.14974205, -0.38459396, 0
2808, 3026660026, 0.09303829, -0.38624996, -0.39187005, 0.82983184, 0.10729065, 0.09492327, -0.15251732, 0
2810, 3026693360, 0.082066685, -0.3843404, -0.3931231, 0.831282, 0.2804228, 0.3484243, -0.5014448, 0
2813, 3026743361, 0.053946078, -0.3742179, -0.39491913, 0.8373277, 0.46964034, 0.7271994, -0.9858227, 0
2816, 3026793362, 0.004666865, -0.3401951, -0.39598072, 0.85292023, 0.54496014, 0.50095844, -1.5891399, 0
2818, 3026826696, -0.03219542, -0.2989012, -0.39351463, 0.8687899, 0.43291396, -0.29690367, -2.023089, 0
2821, 3026876697, -0.082056016, -0.21649517, -0.38987613, 0.8913031, 0.49432778, -0.33372048, -2.0989008, 0
2824, 3026926698, -0.119713485, -0.1047941, -0.37948152, 0.911432, 0.73665595, -0.44691828, -2.2793632, 0
2828, 3026993366, -0.14714575, 0.073444575, -0.33940014, 0.9261693, 0.68018615, 0.03742143, -0.45693684, 0
2831, 3027043367, -0.15815958, 0.19523197, -0.28717703, 0.92435235, -3.19881, 2.1465456, 0.5585499, 0
2835, 3027110035, -0.16495892, 0.338691, -0.2142172, 0.9012302, -2.50727, 2.0261772, 3.0736609, 0
2837, 3027143369, -0.17087656, 0.38907936, -0.15796694, 0.89134336, 0.94146806, 0.71930593, 1.7285633, 0
2840, 3027193370, -0.18348882, 0.4625348, -0.085461184, 0.86320204, -3.0564518, -1.3240044, -0.47687817, 0
2843, 3027243371, -0.17697456, 0.5454606, -0.047764212, 0.81786263, -0.39543197, -0.08091113, 2.242319, 0
2845, 3027276705, -0.17330408, 0.5865062, -0.022499532, 0.79088426, -0.3077684, 0.37262672, 2.7620115, 0
2848, 3027326706, -0.16239521, 0.62598526, 0.0027753413, 0.76275194, -0.04368628, 0.022646332, 2.1595097, 0
2851, 3027376707, -0.14176273, 0.647099, 0.012303621, 0.74902785, 1.2795243, -0.78442776, 1.7563486, 0
2854, 3027426708, -0.122706294, 0.6543408, 0.016857713, 0.746006, 0.8313486, -1.3117901, 0.56169605, 0
2858, 3027493376, -0.11742839, 0.654772, 0.020990968, 0.7463722, 0.76601535, -1.2843239, -0.19610119, 0
2860, 3027526710, -0.11405468, 0.65632635, 0.01306051, 0.74571073, 1.4340149, -0.4682934, 0.3460369, 0
2863, 3027576711, -0.11756778, 0.65365434, 0.009530127, 0.7475633, -1.2011555, -0.6783484, -0.38292694, 0
2866, 3027626712, -0.11345276, 0.6523412, 0.0052314103, 0.7493864, -0.55017805, 0.189349, -0.46820354, 0
2868, 3027660046, -0.11121243, 0.65296894, 0.004371643, 0.74918103, 0.51979524, 0.55095017, -0.3712139, 0
2871, 3027710047, -0.11260027, 0.65650165, 0.0058995187, 0.74586844, 0.5574156, 0.14441463, 0.5371971, 0
2874, 3027760048, -0.11456266, 0.65877676, 0.005242437, 0.7435651, -0.28213996, -0.35018757, 0.7195797, 0
2876, 3027793382, -0.115067035, 0.6592189, 0.0042485595, 0.7431016, -0.23977531, -0.23384976, 0.66924477, 0
2879, 3027843383, -0.11550957, 0.66078943, 0.003917426, 0.74163836, -0.04246232, 0.14893249, 0.20692539, 0
2882, 3027893384, -0.11617166, 0.6604515, 0.0046406984, 0.7418318, -0.17156161, -0.030310592, 0.02423954, 0
2885, 3027943385, -0.11455926, 0.6602303, 0.0026340783, 0.74228907, 0.26587334, -0.22954981, -0.058800697, 0
2887, 3027976719, -0.11176512, 0.65970325, -0.0014357567, 0.7431863, 0.19487804, -0.34086642, 0.018242836, 0
2890, 3028026720, -0.107896745, 0.6587037, -0.0076163113, 0.7446058, -0.15160348, -0.25700122, 0.07639885, 0
2893, 3028076721, -0.101958245, 0.656623, -0.014990091, 0.74716395, 0.27244887, 0.0969103, -0.0056238174, 0
2895, 3028110055, -0.0984678, 0.6556945, -0.018770546, 0.7483612, 0.05595535, 0.39346728, -0.14523602, 0
2898, 3028160056, -0.095998675, 0.65516335, -0.021355331, 0.74907756, 0.020709816, 0.1813792, -0.023245811, 0
2901, 3028210057, -0.09542483, 0.65472364, -0.021892697, 0.74951965, 0.0162219, 0.07751429, 0.16088963, 0
2903, 3028243391, -0.09517071, 0.654833, -0.022475004, 0.74943924, -0.15656859, 0.13603312, 0.22206688, 0
2906, 3028293392, -0.093925625, 0.6543828, -0.024785817, 0.74991655, -0.13538471, 0.012728839, 0.18861008, 0
2909, 3028343393, -0.09236947, 0.65367675, -0.027058184, 0.7506466, -0.29571545, -0.040209983, 0.13983154, 0
2912, 3028393394, -0.09060308, 0.65340436, -0.028377384, 0.75105023, 0.020502843, 0.07523692, 0.10401344, 0
2914, 3028426728, -0.08973831, 0.65325344, -0.02869913, 0.75127316, -0.047019303, 0.017306833, 0.04818058, 0
2917, 3028476729, -0.089024335, 0.6527776, -0.029176146, 0.7517532, 0.101975106, -0.13436191, 0.04621315, 0
2920, 3028526730, -0.08805418, 0.6525428, -0.03044948, 0.7520207, -0.037309676, -0.020560734, 0.06714058, 0
2922, 3028560064, -0.08678484, 0.6522303, -0.031842947, 0.7523816, 0.009461974, -0.07329817, 0.05831909, 0
2925, 3028610065, -0.08575612, 0.6520314, -0.03298244, 0.7526227, -0.2866234, 0.017653277, 0.10633659, 0
2928, 3028660066, -0.08421597, 0.6521212, -0.03450647, 0.7526505, -0.05976133, 0.21201992, 0.07817173, 0
2931, 3028710067, -0.08323228, 0.6528536, -0.034030706, 0.7521466, -0.1455865, 0.25824776, 0.1432972, 0
2933, 3028743401, -0.082086295, 0.6533854, -0.03434202, 0.7517966, 0.018704683, 0.07300089, 0.09401512, 0
2937, 3028810069, -0.078896254, 0.6553309, -0.035752803, 0.75037754, -0.07678631, 0.036932163, 0.11157036, 0
2940, 3028860070, -0.07467088, 0.65725005, -0.03895068, 0.74897087, 0.0071823653, -0.18569054, 0.28068256, 0
2943, 3028910071, -0.07205099, 0.6587316, -0.040402353, 0.7478483, -0.13142562, -0.049589925, 0.12712955, 0
2945, 3028943405, -0.071644366, 0.6593183, -0.04036343, 0.7473723, -0.2985306, 0.22900511, 0.19917202, 0
2948, 3028993406, -0.0704405, 0.65955377, -0.041442156, 0.74721986, -0.051296894, 0.1408288, 0.05803871, 0
2951, 3029043407, -0.070156425, 0.6599619, -0.04149109, 0.7468835, -0.009652854, 0.018772854, 0.08083916, 0
2953, 3029076741, -0.07017228, 0.6602771, -0.04147312, 0.7466042, -0.14464529, -0.024459023, 0.12315178, 0
2956, 3029126742, -0.06970024, 0.6606877, -0.041911304, 0.7462607, 0.09658375, -0.093927294, 0.06566143, 0
2959, 3029176743, -0.06881428, 0.66124487, -0.042770892, 0.7458006, -0.10731661, -0.091107234, 0.10790348, 0
2962, 3029226744, -0.06847495, 0.66191775, -0.043357223, 0.7452009, 0.081991926, 0.022303687, 0.18846512, 0
2966, 3029293412, -0.06846428, 0.6622726, -0.043695718, 0.7448666, 0.059663653, -0.005601011, 0.049653053, 0
2968, 3029326746, -0.06900722, 0.6626711, -0.043316573, 0.7444842, -0.044199463, -0.03254684, 0.0405159, 0
2971, 3029376747, -0.068861395, 0.6634587, -0.043385893, 0.7437919, -0.01423487, -0.042913593, 0.12076473, 0
2974, 3029426748, -0.06838399, 0.66385114, -0.04341802, 0.7434838, -0.09509247, -0.04412794, 0.041356087, 0
2976, 3029460082, -0.06807113, 0.6638515, -0.04344815, 0.74351037, 0.02424378, -0.027319318, 0.0741415, 0
2979, 3029510083, -0.06819877, 0.66387534, -0.043124765, 0.7434962, -0.0673534, -0.024237745, 0.17543125, 0
2982, 3029560084, -0.06910825, 0.6632894, -0.0420973, 0.743994, -0.052342486, 0.05428079, 0.115618706, 0
2984, 3029593418, -0.07032123, 0.66269845, -0.041030675, 0.7444662, -0.08074853, -0.030106077, 0.08234978, 0
2987, 3029643419, -0.072460055, 0.66191685, -0.03912568, 0.7450589, 0.0657412, -0.037156124, 0.12005043, 0
2990, 3029693420, -0.073845744, 0.66129136, -0.03797236, 0.74553794, -0.01889221, -0.07970002, 0.15555286, 0
2995, 3029776755, -0.07532248, 0.66059035, -0.036758512, 0.7460722, -0.044537414, -0.025151018, 0.11354256, 0
2998, 3029826756, -0.0755893, 0.6604445, -0.036726028, 0.746176, -0.04035124, -0.026364246, 0.085596085, 0
3001, 3029876757, -0.075636744, 0.66006374, -0.037221164, 0.74648345, 0.12850945, -0.0036090638, 0.20053482, 0
3003, 3029910091, -0.07687175, 0.6597282, -0.036470115, 0.7466909, -0.098680526, 0.036555767, 0.0950861, 0
3006, 3029960092, -0.078386754, 0.6592686, -0.035737664, 0.7469748, 0.116881184, 0.01373867, 0.07520199, 0
3009, 3030010093, -0.080842435, 0.6587648, -0.033772826, 0.747249, -0.15243584, 0.046713315, 0.03140831, 0
3011, 3030043427, -0.08238816, 0.658394, -0.032684535, 0.7474552, 0.29243296, 0.074483454, 0.18420982, 0
3014, 3030093428, -0.08984777, 0.65723896, -0.026671052, 0.747851, 0.37584865, 0.04875287, -0.02954483, 0
3017, 3030143429, -0.09749651, 0.6598535, -0.022099376, 0.74473304, -0.37607574, 0.12616211, -0.14388657, 0
3020, 3030193430, -0.10033941, 0.66498494, -0.022989452, 0.7397475, 0.12686037, 0.24846102, 0.27519894, 0
3022, 3030226764, -0.10335851, 0.66782457, -0.021395564, 0.7368158, -0.5302722, -0.0039785304, 0.22805691, 0
3025, 3030276765, -0.10554063, 0.6713027, -0.019869924, 0.7333807, -0.16239266, -0.355819, 0.18148232, 0
3028, 3030326766, -0.10617536, 0.673141, -0.017758667, 0.7316561, -0.26492143, -0.7158599, 0.022463799, 0
3030, 3030360100, -0.105686694, 0.6738177, -0.01546222, 0.7311559, -0.6538883, -0.726739, 0.1815958, 0
3033, 3030410101, -0.10240337, 0.6724374, -0.011731118, 0.73296106, -0.3363367, -0.5912655, 0.2238226, 0
3036, 3030460102, -0.09512535, 0.66827905, -0.010756373, 0.7377442, 0.18254548, 0.32053858, -0.040329933, 0
3040, 3030526770, -0.087301314, 0.66791004, -0.018005878, 0.7389035, 1.0390753, 0.718317, 0.26546288, 0
3043, 3030576771, -0.088344425, 0.6678684, -0.018877447, 0.7387954, -0.64651656, -0.12016526, 0.12463474, 0
3047, 3030643439, -0.0879789, 0.66775405, -0.019724905, 0.7389202, -0.290996, -0.3407826, -0.06561279, 0
3049, 3030676773, -0.08644822, 0.6675434, -0.020830601, 0.7392609, 0.0812825, 0.024683876, 0.065675735, 0
3052, 3030726774, -0.08478832, 0.6673082, -0.022463381, 0.7396175, 0.29972506, 0.3278097, 0.21513271, 0
3055, 3030776775, -0.08403075, 0.66689557, -0.024799466, 0.74000144, 0.08110391, 0.005749424, 0.09649086, 0
3057, 3030810109, -0.08428851, 0.66642535, -0.025560617, 0.7403696, -0.06302998, -0.15064326, 0.051545143, 0
3061, 3030876777, -0.08387378, 0.66635656, -0.02739498, 0.74041307, -0.11280833, -0.12730023, 0.15620422, 0
3064, 3030926778, -0.08338785, 0.66657877, -0.027683467, 0.7402572, -0.022518931, -0.022229705, 0.17245007, 0
3067, 3030976779, -0.08202326, 0.6669631, -0.028909415, 0.7400166, 0.14619066, 0.15882763, 0.11081219, 0
3070, 3031026780, -0.08140233, 0.6674369, -0.030166805, 0.73960775, -0.017325606, -0.044002995, 0.15090561, 0
3072, 3031060114, -0.081389576, 0.6674729, -0.030671418, 0.7395558, -0.15292399, -0.10191833, 0.09070587, 0
3075, 3031110115, -0.081808835, 0.66702366, -0.030905694, 0.73990506, -0.11682486, -0.03274264, 0.044621468, 0
3079, 3031176783, -0.08272055, 0.6665426, -0.030341715, 0.74026054, -0.057075597, 0.02752428, 0.09931755, 0
3082, 3031226784, -0.08287647, 0.6666707, -0.030210763, 0.74013317, 0.026124194, -0.027120167, 0.14464283, 0
3084, 3031260118, -0.083075225, 0.6668365, -0.029994667, 0.7399701, 0.045535848, -0.014817344, 0.16134357, 0
3087, 3031310119, -0.083321154, 0.66691136, -0.029798329, 0.73988295, -0.14859678, -0.06684423, 0.1484747, 0
3090, 3031360120, -0.08154929, 0.6665002, -0.031877756, 0.74036396, -0.17115237, -0.10408641, 0.034571648, 0
3092, 3031393454, -0.079942286, 0.66591763, -0.03365746, 0.74098456, 0.39574867, -0.11590778, 0.06563759, 0
3097, 3031476789, -0.07977641, 0.66611314, -0.034947067, 0.740767, 0.06500651, 0.06602036, 0.19998932, 0
3099, 3031510123, -0.079499006, 0.66578424, -0.035510033, 0.74106574, 0.017066555, -0.025922585, 0.13186741, 0
3102, 3031560124, -0.0789893, 0.665742, -0.036552876, 0.74110734, -0.021525862, -0.019198198, 0.04660225, 0
3105, 3031610125, -0.07884672, 0.6657001, -0.036980003, 0.74113905, -0.097586654, 0.07655967, 0.0451622, 0
3109, 3031676793, -0.0770185, 0.66525614, -0.03858903, 0.7416477, 0.015511799, -0.14220273, 0.109622955, 0
3111, 3031710127, -0.07604009, 0.6652515, -0.039071918, 0.7417276, 0.11602803, -0.05873384, 0.110396385, 0
3114, 3031760128, -0.0735555, 0.66557956, -0.041320592, 0.7415619, 0.03457656, 0.04194198, 0.18406582, 0
3117, 3031810129, -0.07259852, 0.66552484, -0.04232812, 0.7416484, -0.1603967, 0.048174195, 0.105137825, 0
3119, 3031843463, -0.07172957, 0.66564107, -0.043236345, 0.74157643, -0.09108712, 0.09491143, 0.088191986, 0
3122, 3031893464, -0.07053897, 0.66588986, -0.044246137, 0.74140763, -0.048626807, -0.032052428, 0.21216679, 0
3125, 3031943465, -0.06927645, 0.666239, -0.045530766, 0.741135, -0.02966598, -0.028298082, 0.100328445, 0
3128, 3031993466, -0.067876816, 0.6665788, -0.04668379, 0.7408872, 0.093830965, 0.007980083, 0.066905975, 0
3130, 3032026800, -0.06716639, 0.6668735, -0.04705581, 0.74066335, -0.1361536, -0.005137669, 0.0523901, 0
3133, 3032076801, -0.06605694, 0.66721797, -0.047883034, 0.7403999, 0.09925406, 0.054072477, 0.022767067, 0
3137, 3032143469, -0.06540489, 0.6670865, -0.047858357, 0.7405777, 0.0632754, -0.027748464, 0.14660358, 0
3140, 3032193470, -0.06485039, 0.6671269, -0.047590226, 0.7406074, -0.0796218, -0.0023670022, 0.13326836, 0
3142, 3032226804, -0.063860446, 0.6671898, -0.04795167, 0.7406132, 0.06519135, -0.07735918, 0.099871635, 0
3146, 3032293472, -0.061863214, 0.66756356, -0.048086315, 0.7404374, -0.07172643, -0.0488235, 0.041775703, 0
3149, 3032343473, -0.05966285, 0.6680231, -0.049382985, 0.740118, 0.009353124, -0.049887422, 0.15333176, 0
3152, 3032393474, -0.05779025, 0.6688081, -0.05034718, 0.7394924, -0.15060258, -0.054459378, 0.198493, 0
3155, 3032443475, -0.0561938, 0.6695324, -0.051090628, 0.73890877, 0.010578644, 0.079291895, 0.11947632, 0
3157, 3032476809, -0.05579704, 0.6699351, -0.051142484, 0.73857033, -0.1226125, 0.052390095, 0.090426445, 0
3160, 3032526810, -0.05611199, 0.670352, -0.0507468, 0.73819524, 0.100362904, 0.018433336, 0.033761024, 0
3163, 3032576811, -0.057606786, 0.67104644, -0.048805624, 0.73757994, -0.14728744, 0.06040974, 0.09172726, 0
3165, 3032610145, -0.05836788, 0.6715373, -0.04707253, 0.7371857, 0.0058804024, 0.07804469, 0.08138752, 0
3168, 3032660146, -0.05949238, 0.67245656, -0.044059873, 0.73644376, -0.17857076, -0.109880984, 0.08225155, 0
3171, 3032710147, -0.059962243, 0.67278206, -0.04267907, 0.7361898, -0.038983118, -0.011864739, 0.04922104, 0
