sep=,
DeviceTag:,Xsens_5,,,,,,,,,,,,,,,,,
FirmwareVersion:,2.2.1,,,,,,,,,,,,,,,,,
AppVersion:,2023.0.0,,,,,,,,,,,,,,,,,
StartTime:,2023-07-03 15:58:29.000 +0200,,,,,,,,,,,,,,,,,
© Movella Technologies B. V. 2005-2023,,,,,,,,,,,,,,,,,,,

PacketCounter,SampleTimeFine,Quat_W,Quat_X,Quat_Y,Quat_Z,Acc_X,Acc_Y,Acc_Z,Gyr_X,Gyr_Y,Gyr_Z,Mag_X,Mag_Y,Mag_Z,Status,
0, 1968117768, 0.6411568, 0.5604431, -0.15679185, 0.5002379, 0.0, 0.0, 0.0, 0.0, 0.0, 0.0, -0.369384765625, -0.455078125, -0.5322265625, 0, 
1, 1968134435, 0.6415046, 0.5552915, -0.17793728, 0.49845955, 7.8408355712890625, 5.143519878387451, 3.2246780395507812, -72.90559387207031, -69.03638458251953, 0.5151857137680054, -0.386474609375, -0.436279296875, -0.5244140625, 0, 
2, 1968151102, 0.6428406, 0.5518755, -0.19533207, 0.49399894, 7.909024715423584, 5.343951225280762, 2.9633662700653076, -78.3634262084961, -77.97321319580078, 0.20986032485961914, -0.408203125, -0.41748046875, -0.517822265625, 0, 
3, 1968167769, 0.6449386, 0.5505216, -0.2102763, 0.48658434, 8.026351928710938, 4.756249904632568, 2.7114484310150146, -80.39381408691406, -81.86378479003906, 1.2445212602615356, -0.425048828125, -0.3974609375, -0.5048828125, 0, 
4, 1968184436, 0.6466403, 0.54992366, -0.22609724, 0.47782916, 7.860957622528076, 4.382397174835205, 2.915567398071289, -76.98772430419922, -87.1787109375, 2.9982950687408447, -0.44580078125, -0.378662109375, -0.493896484375, 0, 
5, 1968201103, 0.6482513, 0.5492225, -0.24209271, 0.4685258, 7.994388580322266, 4.535055160522461, 2.9638636112213135, -75.22125244140625, -95.62642669677734, 2.0022428035736084, -0.467041015625, -0.357421875, -0.478759765625, 0, 
6, 1968217770, 0.65007514, 0.548309, -0.25815344, 0.45838445, 8.147747993469238, 4.628481864929199, 3.1101431846618652, -77.32817840576172, -102.41438293457031, 1.5798892974853516, -0.489501953125, -0.339599609375, -0.463623046875, 0, 
7, 1968234437, 0.6519322, 0.547357, -0.27452064, 0.44723937, 8.365720748901367, 4.474517822265625, 3.1372883319854736, -79.20316314697266, -111.50094604492188, 1.341035008430481, -0.51416015625, -0.320556640625, -0.4462890625, 0, 
8, 1968251104, 0.6534718, 0.5463171, -0.29096255, 0.43572143, 8.632162094116211, 4.5604705810546875, 2.926934003829956, -78.26041412353516, -116.25321960449219, 1.8090413808822632, -0.539794921875, -0.301513671875, -0.428955078125, 0, 
9, 1968267771, 0.65500623, 0.5445743, -0.30850336, 0.42335743, 8.644207954406738, 4.605398654937744, 3.0983731746673584, -86.4843521118164, -122.8861312866211, 4.425221920013428, -0.56591796875, -0.282958984375, -0.39892578125, 0, 
10, 1968284438, 0.6566617, 0.5422954, -0.32634726, 0.41013244, 8.85200309753418, 4.668707847595215, 3.032785415649414, -91.64877319335938, -127.40241241455078, 3.6907455921173096, -0.5927734375, -0.26171875, -0.373779296875, 0, 
11, 1968301105, 0.6589372, 0.5390304, -0.34377784, 0.39631438, 9.247751235961914, 3.478304147720337, 1.9324244260787964, -98.41862487792969, -124.6941909790039, 0.9225936532020569, -0.61767578125, -0.24072265625, -0.34619140625, 0, 
12, 1968317772, 0.6608537, 0.535121, -0.3613891, 0.38251302, 9.533246994018555, 3.716891050338745, 1.9411228895187378, -101.30235290527344, -121.77696228027344, 0.85589200258255, -0.636474609375, -0.222412109375, -0.3154296875, 0, 
13, 1968334439, 0.6631613, 0.53037715, -0.37813473, 0.3686888, 9.584182739257812, 3.693208932876587, 1.753554344177246, -104.99567413330078, -113.21223449707031, -2.7876899242401123, -0.661376953125, -0.204833984375, -0.287109375, 0, 
14, 1968351106, 0.66584647, 0.5247237, -0.3940218, 0.35505027, 9.927083969116211, 3.0721755027770996, 1.2360506057739258, -108.46831512451172, -104.14273071289062, -4.294401168823242, -0.68310546875, -0.18701171875, -0.259033203125, 0, 
15, 1968367773, 0.66889316, 0.51815456, -0.40900517, 0.34177902, 10.120474815368652, 3.068357229232788, 1.261979103088379, -111.47806549072266, -93.67239379882812, -5.944960117340088, -0.69775390625, -0.16796875, -0.231689453125, 0, 
16, 1968384440, 0.67281336, 0.51024467, -0.42319337, 0.32845092, 9.98279857635498, 2.989246129989624, 1.1539008617401123, -119.53142547607422, -83.5118179321289, -8.32604694366455, -0.713134765625, -0.150634765625, -0.20703125, 0, 
17, 1968401107, 0.6767089, 0.5018588, -0.43661758, 0.31554422, 9.725109100341797, 2.666377305984497, 0.981143593788147, -119.08212280273438, -76.67329406738281, -8.065908432006836, -0.725830078125, -0.1357421875, -0.181884765625, 0, 
18, 1968417774, 0.6805241, 0.49298453, -0.44963726, 0.3027864, 9.700919151306152, 2.6423709392547607, 1.076559066772461, -120.10144805908203, -72.7322006225586, -7.50473690032959, -0.7373046875, -0.118408203125, -0.1533203125, 0, 
19, 1968434441, 0.68424153, 0.48349193, -0.46236178, 0.290294, 9.556835174560547, 2.578361988067627, 1.0744976997375488, -121.43109130859375, -69.11103057861328, -5.2263617515563965, -0.751220703125, -0.105712890625, -0.124755859375, 0, 
20, 1968451108, 0.68740386, 0.4736294, -0.47547278, 0.2776272, 9.237353324890137, 2.763866424560547, 1.4408156871795654, -122.81127166748047, -72.3290786743164, -2.3462913036346436, -0.760009765625, -0.09228515625, -0.10009765625, 0, 
21, 1968467775, 0.69070894, 0.46217752, -0.48937738, 0.26424044, 8.865504264831543, 2.807209014892578, 1.8403675556182861, -134.65370178222656, -75.231689453125, 2.3545613288879395, -0.76806640625, -0.073974609375, -0.06982421875, 0, 
22, 1968484442, 0.6936754, 0.4495654, -0.5045522, 0.24926446, 8.686666488647461, 2.6862194538116455, 1.815239667892456, -146.6052703857422, -86.03144073486328, 4.136148929595947, -0.777587890625, -0.0595703125, -0.034423828125, 0, 
23, 1968501109, 0.69750893, 0.43359554, -0.5215321, 0.23125885, 9.061125755310059, 4.065793037414551, 1.8420478105545044, -178.8295135498047, -95.7658920288086, 6.098686218261719, -0.785400390625, -0.042236328125, 0.00146484375, 0, 
24, 1968517776, 0.7024522, 0.41430277, -0.5392594, 0.21003251, 9.14196491241455, 4.345877170562744, 1.4350007772445679, -210.86163330078125, -100.12931060791016, 4.65386962890625, -0.79345703125, -0.025390625, 0.0478515625, 0, 
25, 1968534443, 0.70750004, 0.3929656, -0.5568588, 0.1868959, 9.23528003692627, 2.906686544418335, 0.4328984320163727, -228.06195068359375, -101.7026138305664, 4.070554733276367, -0.801513671875, -0.01025390625, 0.098876953125, 0, 
26, 1968551110, 0.71028215, 0.37323865, -0.5735598, 0.16498978, 9.283781051635742, 1.5937718152999878, 0.003680586814880371, -208.52926635742188, -104.154541015625, 4.754134178161621, -0.810791015625, 0.00146484375, 0.148681640625, 0, 
27, 1968567777, 0.71069664, 0.35528177, -0.58960795, 0.14507785, 9.41856861114502, 2.311809778213501, 0.8500974178314209, -185.4849090576172, -106.45362091064453, 8.10361099243164, -0.812744140625, 0.010498046875, 0.1953125, 0, 
28, 1968584444, 0.71153885, 0.33603826, -0.60435486, 0.12468356, 9.832691192626953, 3.7105154991149902, 1.1031712293624878, -193.55274963378906, -98.2139892578125, 7.493913650512695, -0.814697265625, 0.02001953125, 0.244140625, 0, 
29, 1968601111, 0.7120614, 0.31808463, -0.6170346, 0.10516388, 9.733563423156738, 2.745518922805786, 0.5137251615524292, -181.10971069335938, -88.6932373046875, 2.782200336456299, -0.814453125, 0.018798828125, 0.287353515625, 0, 
30, 1968617778, 0.7107072, 0.30362168, -0.6283404, 0.08886826, 9.843050956726074, 1.5592082738876343, 0.25889086723327637, -145.31399536132812, -85.32697296142578, 2.39896559715271, -0.815673828125, 0.019775390625, 0.328857421875, 0, 
31, 1968634445, 0.70873773, 0.290564, -0.6385183, 0.074552774, 9.944303512573242, 1.3446954488754272, 0.9278625845909119, -127.99187469482422, -79.06883239746094, 3.709815263748169, -0.81591796875, 0.01904296875, 0.364013671875, 0, 
32, 1968651112, 0.70668435, 0.27877358, -0.64734066, 0.061908823, 10.023996353149414, 2.471430778503418, 1.269521713256836, -113.5775375366211, -70.39842224121094, 3.268148899078369, -0.813720703125, 0.01318359375, 0.39501953125, 0, 
33, 1968667779, 0.7051388, 0.26777494, -0.65463066, 0.050347283, 10.028298377990723, 2.2723426818847656, 1.4077856540679932, -105.13606262207031, -59.37507247924805, 2.039778470993042, -0.80859375, 0.010986328125, 0.423095703125, 0, 
34, 1968684446, 0.70355785, 0.2571472, -0.66129875, 0.039571486, 9.690752983093262, 1.9886343479156494, 1.5215628147125244, -99.40747833251953, -55.657989501953125, 3.136847972869873, -0.80908203125, 0.008544921875, 0.446533203125, 0, 
35, 1968701113, 0.7016937, 0.24719235, -0.6675577, 0.02980897, 9.736361503601074, 2.315823554992676, 1.585557222366333, -90.81900787353516, -53.82294845581055, 4.351608753204346, -0.806884765625, 0.003662109375, 0.476318359375, 0, 
36, 1968717780, 0.69988424, 0.23759411, -0.67325807, 0.020855399, 9.745489120483398, 2.602748394012451, 1.7089664936065674, -85.24555206298828, -50.02641677856445, 5.795195579528809, -0.800048828125, -0.00341796875, 0.494873046875, 0, 
37, 1968734447, 0.69822973, 0.22850041, -0.6783071, 0.012753521, 9.662102699279785, 2.7295446395874023, 1.7982819080352783, -78.91876220703125, -45.3200569152832, 6.698769569396973, -0.801025390625, -0.003173828125, 0.516845703125, 0, 
38, 1968751114, 0.69666165, 0.21950369, -0.68297595, 0.004979462, 9.149407386779785, 2.617922306060791, 1.8292152881622314, -76.90583038330078, -43.0367546081543, 7.471769332885742, -0.7958984375, -0.008544921875, 0.536376953125, 0, 
39, 1968767781, 0.6952651, 0.21056512, -0.68721235, -0.002871822, 9.076567649841309, 2.4965548515319824, 1.585501790046692, -77.12366485595703, -40.69200897216797, 6.4144439697265625, -0.794189453125, -0.012939453125, 0.55615234375, 0, 
40, 1968784448, 0.69409597, 0.20232044, -0.69079745, -0.0098164035, 9.238767623901367, 2.191830635070801, 1.3399707078933716, -69.78575897216797, -35.48147964477539, 6.72494649887085, -0.785400390625, -0.01904296875, 0.570068359375, 0, 
41, 1968801115, 0.69319725, 0.19493209, -0.6937128, -0.015552954, 9.547504425048828, 2.1249759197235107, 1.2054177522659302, -60.33222961425781, -29.475749969482422, 7.591437816619873, -0.78369140625, -0.02294921875, 0.5859375, 0, 
42, 1968817782, 0.6926914, 0.18833254, -0.69592005, -0.02012933, 9.720870971679688, 2.4259421825408936, 0.9986677765846252, -51.605220794677734, -22.756441116333008, 8.496783256530762, -0.781982421875, -0.025146484375, 0.593017578125, 0, 
43, 1968834449, 0.6925527, 0.1819501, -0.6976258, -0.024157794, 9.998308181762695, 2.962299346923828, 1.3366706371307373, -48.472049713134766, -17.97646141052246, 9.58825397491455, -0.78125, -0.026611328125, 0.60546875, 0, 
44, 1968851116, 0.69283766, 0.17538407, -0.698879, -0.028015912, 10.031375885009766, 2.664856195449829, 1.6273363828659058, -49.08307647705078, -13.787561416625977, 11.015724182128906, -0.77587890625, -0.031005859375, 0.614990234375, 0, 
45, 1968867783, 0.6934513, 0.16815399, -0.6998685, -0.032154, 9.958182334899902, 2.736579179763794, 1.8373275995254517, -53.976409912109375, -11.642024993896484, 12.75834846496582, -0.777099609375, -0.03369140625, 0.622314453125, 0, 
46, 1968884450, 0.69453365, 0.16048723, -0.7003806, -0.036522377, 9.805910110473633, 2.7099616527557373, 1.803878664970398, -57.74631881713867, -7.712683200836182, 13.465398788452148, -0.7724609375, -0.035888671875, 0.6318359375, 0, 
47, 1968901117, 0.6961152, 0.15241395, -0.70036745, -0.040979665, 9.475198745727539, 2.507493257522583, 1.4104681015014648, -60.74557113647461, -3.195586919784546, 14.690898895263672, -0.76953125, -0.03662109375, 0.634765625, 0, 
48, 1968917784, 0.6977941, 0.14512315, -0.7000175, -0.04469902, 9.175336837768555, 2.4786200523376465, 0.9627237319946289, -53.62040328979492, -0.20202237367630005, 14.248430252075195, -0.769287109375, -0.041015625, 0.641357421875, 0, 
49, 1968934451, 0.6995491, 0.13890658, -0.69933337, -0.047632992, 9.256194114685059, 2.678596019744873, 1.1243664026260376, -44.87580108642578, 2.905904769897461, 12.675572395324707, -0.769775390625, -0.043212890625, 0.64697265625, 0, 
50, 1968951118, 0.7014884, 0.13334061, -0.6982796, -0.050399814, 9.598627090454102, 2.78721284866333, 1.253928542137146, -41.23207473754883, 5.940770626068115, 10.23658561706543, -0.768310546875, -0.044921875, 0.64599609375, 0, 
51, 1968967785, 0.70352554, 0.12826389, -0.6969883, -0.052986227, 9.903165817260742, 2.6847786903381348, 1.4089877605438232, -38.17241668701172, 7.871870040893555, 8.752068519592285, -0.771484375, -0.04638671875, 0.647705078125, 0, 
52, 1968984452, 0.7057991, 0.12252435, -0.69546574, -0.05623949, 10.062946319580078, 2.7903687953948975, 1.632961392402649, -44.85396194458008, 9.25863265991211, 8.719082832336426, -0.768310546875, -0.047119140625, 0.65087890625, 0, 
53, 1969001119, 0.7082998, 0.11627589, -0.6936792, -0.06000344, 9.924556732177734, 2.687103033065796, 0.9810342788696289, -50.04096603393555, 10.946426391601562, 8.67431640625, -0.77001953125, -0.04931640625, 0.65478515625, 0, 
54, 1969017786, 0.71059626, 0.1107598, -0.6919573, -0.063090876, 9.960027694702148, 2.5999841690063477, 0.7303708791732788, -43.07645034790039, 10.574592590332031, 8.559883117675781, -0.771728515625, -0.05712890625, 0.655029296875, 0, 
55, 1969034453, 0.7130231, 0.105817795, -0.6899913, -0.06567255, 9.948793411254883, 2.5681099891662598, 0.862651526927948, -38.09929275512695, 13.143522262573242, 8.273418426513672, -0.7734375, -0.05712890625, 0.65380859375, 0, 
56, 1969051120, 0.7156047, 0.10128906, -0.6877704, -0.067989126, 9.756092071533203, 2.481025457382202, 0.9269278645515442, -35.06543731689453, 15.606176376342773, 7.5991950035095215, -0.772216796875, -0.0576171875, 0.652099609375, 0, 
57, 1969067787, 0.71826524, 0.09714152, -0.68538874, -0.0700081, 9.556872367858887, 2.257211685180664, 0.9694501757621765, -31.93378448486328, 17.247615814208984, 7.282397270202637, -0.775146484375, -0.05859375, 0.65380859375, 0, 
58, 1969084454, 0.720983, 0.0931661, -0.682888, -0.07188599, 9.390768051147461, 2.253988265991211, 0.9513570070266724, -30.53306007385254, 18.36977767944336, 7.187488555908203, -0.778564453125, -0.060302734375, 0.652587890625, 0, 
59, 1969101121, 0.7236824, 0.08950183, -0.68033624, -0.073593825, 9.467888832092285, 2.323103666305542, 0.8117828965187073, -28.226531982421875, 18.89228057861328, 6.605831623077393, -0.778564453125, -0.063232421875, 0.652099609375, 0, 
60, 1969117788, 0.7263456, 0.086273745, -0.6777587, -0.074981995, 9.533684730529785, 2.1645548343658447, 0.7114382386207581, -24.579084396362305, 19.385061264038086, 6.207727909088135, -0.780517578125, -0.06201171875, 0.647705078125, 0, 
61, 1969134455, 0.72901785, 0.08324746, -0.67513216, -0.07615488, 9.761728286743164, 2.3649091720581055, 0.7398810982704163, -22.62664031982422, 20.038116455078125, 6.380303859710693, -0.783203125, -0.063720703125, 0.640869140625, 0, 
62, 1969151122, 0.7317687, 0.07979474, -0.67240286, -0.0775994, 9.794499397277832, 2.342538356781006, 0.6191235780715942, -26.154848098754883, 20.6721134185791, 7.061149597167969, -0.783935546875, -0.064208984375, 0.641357421875, 0, 
63, 1969167789, 0.7344379, 0.07607087, -0.6697542, -0.07901778, 9.453911781311035, 2.346613645553589, 0.5781119465827942, -27.34662628173828, 19.911659240722656, 8.51950454711914, -0.785888671875, -0.06640625, 0.638671875, 0, 
64, 1969184456, 0.73696077, 0.07238719, -0.66722274, -0.080391176, 9.27798843383789, 2.313124895095825, 0.576786994934082, -26.834177017211914, 18.845317840576172, 8.625655174255371, -0.789306640625, -0.06591796875, 0.636962890625, 0, 
65, 1969201123, 0.7393141, 0.06900466, -0.66482216, -0.08163884, 9.304879188537598, 2.2792208194732666, 0.6320171356201172, -24.612199783325195, 17.78719139099121, 7.936359882354736, -0.79248046875, -0.068603515625, 0.633544921875, 0, 
66, 1969217790, 0.7414213, 0.066185415, -0.6626266, -0.08270512, 9.477437973022461, 2.0088119506835938, 0.5042308568954468, -20.723554611206055, 16.16600227355957, 6.321889400482178, -0.789306640625, -0.067626953125, 0.63134765625, 0, 
67, 1969234457, 0.74308074, 0.06426899, -0.66089183, -0.08320395, 9.609055519104004, 1.9638214111328125, 0.625818133354187, -13.105663299560547, 12.705073356628418, 5.0983357429504395, -0.795166015625, -0.06982421875, 0.62841796875, 0, 
68, 1969251124, 0.7443821, 0.062873356, -0.6595445, -0.08332697, 9.672290802001953, 2.291531801223755, 0.827838122844696, -8.388497352600098, 9.701359748840332, 4.655027866363525, -0.794677734375, -0.067138671875, 0.626220703125, 0, 
69, 1969267791, 0.74541616, 0.06144503, -0.6584664, -0.083674744, 9.699930191040039, 2.326108694076538, 0.8003281950950623, -9.334707260131836, 7.112323760986328, 3.692155599594116, -0.795166015625, -0.06982421875, 0.6240234375, 0, 
70, 1969284458, 0.7460957, 0.060211048, -0.6577624, -0.08405101, 9.67647647857666, 2.059382200241089, 0.8879709243774414, -8.133636474609375, 3.8035190105438232, 2.6958205699920654, -0.794189453125, -0.06982421875, 0.6240234375, 0, 
71, 1969301125, 0.7464363, 0.05945818, -0.657432, -0.084147416, 9.680541038513184, 1.9194837808609009, 0.9800623059272766, -4.069934844970703, 0.8466086387634277, 1.9582637548446655, -0.79345703125, -0.06884765625, 0.62451171875, 0, 
72, 1969317792, 0.7465656, 0.059238452, -0.65732354, -0.084001884, 9.683177947998047, 1.9553346633911133, 1.2554529905319214, -0.043631237000226974, -0.7554978132247925, 0.7883396744728088, -0.795654296875, -0.06884765625, 0.62451171875, 0, 
73, 1969334459, 0.746586, 0.05957984, -0.6573278, -0.083547175, 9.611401557922363, 1.8987586498260498, 1.4689909219741821, 4.3301920890808105, -1.327775239944458, -0.14289326965808868, -0.794189453125, -0.067626953125, 0.626220703125, 0, 
74, 1969351126, 0.7464902, 0.060127005, -0.65745795, -0.08298538, 9.596590995788574, 2.081727981567383, 1.5562465190887451, 5.98184061050415, -2.3160030841827393, -0.5074132680892944, -0.79296875, -0.067138671875, 0.622802734375, 0, 
75, 1969367793, 0.74639165, 0.060996346, -0.6575863, -0.082214504, 9.552623748779297, 2.1984455585479736, 1.6148601770401, 8.572617530822754, -2.0387330055236816, -0.843759298324585, -0.794677734375, -0.06640625, 0.625732421875, 0, 
76, 1969384460, 0.7462555, 0.061898522, -0.6577396, -0.08154806, 9.546741485595703, 2.052583932876587, 1.584661602973938, 8.289968490600586, -2.35880184173584, -1.4771357774734497, -0.796875, -0.06591796875, 0.626220703125, 0, 
77, 1969401127, 0.7460936, 0.062745735, -0.65792435, -0.08088884, 9.553239822387695, 1.9611531496047974, 1.6153364181518555, 7.997867107391357, -2.667985439300537, -1.225375771522522, -0.79736328125, -0.064697265625, 0.6240234375, 0, 
78, 1969417794, 0.7459619, 0.06319584, -0.65807575, -0.08052071, 9.502573013305664, 1.993455410003662, 1.545310616493225, 4.609152793884277, -2.7058796882629395, -0.8883125185966492, -0.79296875, -0.06591796875, 0.626220703125, 0, 
79, 1969434461, 0.7458194, 0.063442215, -0.6582376, -0.080325186, 9.49055004119873, 2.0753848552703857, 1.5546778440475464, 2.7892165184020996, -2.9913837909698486, -0.8228463530540466, -0.795166015625, -0.06591796875, 0.625732421875, 0, 
80, 1969451128, 0.74574775, 0.06400991, -0.65831226, -0.079925515, 9.483606338500977, 1.9593074321746826, 1.5293700695037842, 5.276888370513916, -1.9538007974624634, -1.1911698579788208, -0.795166015625, -0.0654296875, 0.622802734375, 0, 
81, 1969467795, 0.74567723, 0.06522254, -0.6583791, -0.079048246, 9.465685844421387, 1.823632001876831, 1.4891383647918701, 10.737264633178711, -1.339173436164856, -1.637010931968689, -0.795166015625, -0.064697265625, 0.625732421875, 0, 
82, 1969484462, 0.7455829, 0.06709581, -0.65847003, -0.07759957, 9.541204452514648, 1.978139042854309, 1.574418306350708, 16.733325958251953, -0.9509491920471191, -1.6858680248260498, -0.79345703125, -0.06494140625, 0.622314453125, 0, 
83, 1969501129, 0.74543756, 0.06855688, -0.6586159, -0.07647228, 9.466452598571777, 2.220613718032837, 1.7615500688552856, 13.21706485748291, -1.8346774578094482, -1.4418166875839233, -0.795654296875, -0.064208984375, 0.62353515625, 0, 
84, 1969517796, 0.74524593, 0.06937781, -0.65881455, -0.07588621, 9.510729789733887, 2.0259206295013428, 1.6814600229263306, 7.5330610275268555, -2.9265329837799072, -1.2689813375473022, -0.79345703125, -0.063232421875, 0.62060546875, 0, 
85, 1969534463, 0.74491256, 0.06988445, -0.6591948, -0.07539137, 9.41558837890625, 1.7833402156829834, 1.5999279022216797, 5.67136287689209, -4.719754695892334, -0.275182843208313, -0.79345703125, -0.064208984375, 0.621826171875, 0, 
86, 1969551130, 0.74454343, 0.07048425, -0.6596239, -0.0747239, 9.420313835144043, 1.890163779258728, 1.364229440689087, 6.973577976226807, -5.010293960571289, 0.1949063092470169, -0.79296875, -0.062744140625, 0.622314453125, 0, 
87, 1969567797, 0.74418, 0.071640536, -0.6600451, -0.07351543, 9.389325141906738, 2.100560426712036, 1.4940403699874878, 12.265960693359375, -4.384397029876709, 0.45166099071502686, -0.792236328125, -0.0615234375, 0.622314453125, 0, 
88, 1969584464, 0.7439002, 0.072898634, -0.66036314, -0.0722433, 9.367086410522461, 2.074890375137329, 1.5377005338668823, 12.978596687316895, -3.396540880203247, 0.3405274748802185, -0.791259765625, -0.06103515625, 0.625244140625, 0, 
89, 1969601131, 0.74359226, 0.074439436, -0.66070247, -0.07072379, 9.442211151123047, 1.8551613092422485, 1.5060685873031616, 15.573452949523926, -3.3751420974731445, 0.34927430748939514, -0.792236328125, -0.058837890625, 0.62353515625, 0, 
90, 1969617798, 0.74321204, 0.07625163, -0.66112196, -0.068844005, 9.625370979309082, 1.8350938558578491, 1.5813894271850586, 18.66866683959961, -3.8055264949798584, 0.9733669757843018, -0.79296875, -0.059326171875, 0.629638671875, 0, 
91, 1969634465, 0.7427668, 0.07792995, -0.661618, -0.06697864, 9.702513694763184, 2.0607128143310547, 1.7051242589950562, 17.99312973022461, -4.576444149017334, 1.5233491659164429, -0.791259765625, -0.0576171875, 0.62353515625, 0, 
92, 1969651132, 0.74223167, 0.079550765, -0.6622072, -0.065158024, 9.857452392578125, 2.099482536315918, 1.6959075927734375, 17.589920043945312, -5.535717487335205, 1.5881365537643433, -0.787353515625, -0.0537109375, 0.6201171875, 0, 
93, 1969667799, 0.7416656, 0.08102596, -0.6628321, -0.06340887, 9.931571006774902, 2.0717625617980957, 1.7061742544174194, 16.552743911743164, -5.985130786895752, 1.9141607284545898, -0.78955078125, -0.05029296875, 0.6240234375, 0, 
94, 1969684466, 0.74109966, 0.08238979, -0.6634546, -0.06173789, 10.021495819091797, 2.1017870903015137, 1.5864558219909668, 15.630927085876465, -6.089553356170654, 2.0405592918395996, -0.79052734375, -0.05029296875, 0.622314453125, 0, 
95, 1969701133, 0.7406435, 0.08370743, -0.66395247, -0.060064174, 9.988812446594238, 2.06453537940979, 1.4802931547164917, 15.292196273803711, -4.986335754394531, 2.2579469680786133, -0.787841796875, -0.048095703125, 0.622314453125, 0, 
96, 1969717800, 0.74029833, 0.08514466, -0.66431946, -0.058213174, 9.910112380981445, 2.0370352268218994, 1.3368422985076904, 16.59183120727539, -3.670931816101074, 2.6001338958740234, -0.7861328125, -0.04541015625, 0.62109375, 0, 
97, 1969734467, 0.7399961, 0.087113224, -0.6646042, -0.05584527, 9.787127494812012, 2.1267311573028564, 1.37144935131073, 21.596721649169922, -2.5402333736419678, 2.7882862091064453, -0.78662109375, -0.04248046875, 0.622314453125, 0, 
98, 1969751134, 0.7398085, 0.08947639, -0.6647135, -0.05323166, 9.782475471496582, 2.2851481437683105, 1.4912774562835693, 24.590068817138672, -0.8302373290061951, 2.1994760036468506, -0.78662109375, -0.039306640625, 0.618408203125, 0, 
99, 1969767801, 0.7397987, 0.09210334, -0.6645797, -0.050487667, 9.725801467895508, 2.21671199798584, 1.465248703956604, 26.32773208618164, 1.3822885751724243, 1.6109081506729126, -0.786376953125, -0.0380859375, 0.614990234375, 0, 
100, 1969784468, 0.73989904, 0.0949855, -0.66427386, -0.04762244, 9.633418083190918, 2.087425708770752, 1.2922660112380981, 28.0510196685791, 2.9116017818450928, 1.0260026454925537, -0.786376953125, -0.035888671875, 0.611572265625, 0, 
101, 1969801135, 0.73998, 0.09828051, -0.663929, -0.044372108, 9.455324172973633, 2.104961633682251, 1.2483426332473755, 31.907426834106445, 3.4071478843688965, 1.0923407077789307, -0.785888671875, -0.03271484375, 0.6083984375, 0, 
102, 1969817802, 0.74013287, 0.10129224, -0.66349256, -0.04148483, 9.455464363098145, 2.406525135040283, 1.4228944778442383, 28.73056983947754, 3.8683032989501953, 0.525913417339325, -0.787841796875, -0.029296875, 0.60546875, 0, 
103, 1969834469, 0.7403182, 0.104163006, -0.6630011, -0.03884007, 9.485210418701172, 2.107060670852661, 1.2914751768112183, 26.868515014648438, 4.075612545013428, -0.04429727792739868, -0.787841796875, -0.027099609375, 0.600341796875, 0, 
104, 1969851136, 0.740405, 0.10706444, -0.6625959, -0.03612152, 9.5075044631958, 2.1626009941101074, 1.3013592958450317, 27.452707290649414, 3.247039794921875, 0.25020474195480347, -0.788330078125, -0.025390625, 0.59765625, 0, 
105, 1969867803, 0.7405723, 0.10952033, -0.66212666, -0.03385822, 9.611283302307129, 2.404550552368164, 1.3118730783462524, 23.035688400268555, 3.488872528076172, -0.039456434547901154, -0.785400390625, -0.022216796875, 0.592529296875, 0, 
106, 1969884470, 0.74081284, 0.11160191, -0.6616073, -0.031895135, 9.537654876708984, 2.208889961242676, 1.2430874109268188, 19.694597244262695, 3.762375593185425, 0.15533481538295746, -0.787109375, -0.02001953125, 0.58984375, 0, 
107, 1969901137, 0.74094933, 0.11346898, -0.6612257, -0.029995235, 9.546737670898438, 2.0301151275634766, 1.054405689239502, 18.422626495361328, 2.4944560527801514, 0.915418267250061, -0.78759765625, -0.0205078125, 0.589111328125, 0, 
108, 1969917804, 0.74112046, 0.11512483, -0.660825, -0.028236171, 9.567351341247559, 2.2885286808013916, 1.037082314491272, 16.67117691040039, 2.6087393760681152, 1.1571894884109497, -0.7890625, -0.018798828125, 0.584228515625, 0, 
109, 1969934471, 0.7413445, 0.116739385, -0.66035765, -0.026614275, 9.565857887268066, 2.185680389404297, 0.9278905391693115, 15.777660369873047, 3.0905141830444336, 0.6285552978515625, -0.787353515625, -0.018310546875, 0.584716796875, 0, 
110, 1969951138, 0.74146444, 0.11831584, -0.66000485, -0.025012942, 9.508393287658691, 2.2402594089508057, 0.9764893651008606, 15.588050842285156, 2.035116672515869, 0.7855486869812012, -0.78955078125, -0.01611328125, 0.580810546875, 0, 
111, 1969967805, 0.7415153, 0.11979408, -0.6597349, -0.023547443, 9.482993125915527, 2.3108837604522705, 1.0440845489501953, 14.537516593933105, 1.1902551651000977, 0.6145835518836975, -0.787841796875, -0.01513671875, 0.5791015625, 0, 
112, 1969984472, 0.7415632, 0.12088258, -0.65952045, -0.022456272, 9.42994213104248, 2.377368688583374, 1.008577823638916, 10.857259750366211, 0.5372458100318909, 0.5430214405059814, -0.79052734375, -0.01611328125, 0.57568359375, 0, 
113, 1970001139, 0.74162084, 0.12197373, -0.6592877, -0.021467905, 9.442039489746094, 2.320751190185547, 0.721688985824585, 10.39044189453125, 0.607526957988739, 0.021252144128084183, -0.791748046875, -0.01611328125, 0.5751953125, 0, 
114, 1970017806, 0.7416032, 0.12353476, -0.65905684, -0.020203006, 9.502547264099121, 2.4560623168945312, 0.7204673290252686, 14.094632148742676, 0.5940933227539062, -0.6854858994483948, -0.78955078125, -0.01123046875, 0.573974609375, 0, 
115, 1970034473, 0.74149436, 0.12548819, -0.65884936, -0.018883357, 9.649285316467285, 2.663766622543335, 0.8263167142868042, 16.414880752563477, 0.19992652535438538, -2.146820306777954, -0.79052734375, -0.01220703125, 0.569580078125, 0, 
116, 1970051140, 0.7412841, 0.1274008, -0.6587476, -0.01785065, 9.801618576049805, 2.823093891143799, 0.9100550413131714, 15.0001220703125, -1.0212687253952026, -3.3034002780914307, -0.789306640625, -0.01123046875, 0.572998046875, 0, 
117, 1970067807, 0.7409748, 0.12908019, -0.6587849, -0.01723738, 9.871634483337402, 2.796724319458008, 0.9785974025726318, 12.007376670837402, -2.5489137172698975, -4.226546764373779, -0.791015625, -0.01220703125, 0.570068359375, 0, 
118, 1970084474, 0.7405511, 0.13044842, -0.65899676, -0.017042791, 9.867487907409668, 2.843352794647217, 0.9602899551391602, 8.641913414001465, -4.3452982902526855, -4.764936923980713, -0.792236328125, -0.01171875, 0.570068359375, 0, 
119, 1970101141, 0.7400127, 0.13161527, -0.6593661, -0.017174028, 9.744668006896973, 2.8029165267944336, 0.9908472895622253, 6.2552947998046875, -5.9639573097229, -5.339813709259033, -0.791259765625, -0.01318359375, 0.580810546875, 0, 
120, 1970117808, 0.7394345, 0.1327671, -0.65977573, -0.01748469, 9.572478294372559, 2.709643840789795, 0.9890265464782715, 5.401291370391846, -6.499673843383789, -6.112895965576172, -0.79052734375, -0.013427734375, 0.57177734375, 0, 
121, 1970134475, 0.7386965, 0.13425122, -0.6602963, -0.017694108, 9.414628982543945, 2.6260321140289307, 0.9645326137542725, 7.707127571105957, -7.643743515014648, -6.987122535705566, -0.791748046875, -0.015625, 0.57861328125, 0, 
122, 1970151142, 0.7378997, 0.1358384, -0.6608562, -0.017918894, 9.429037094116211, 2.643336296081543, 1.0288347005844116, 8.218769073486328, -8.101686477661133, -7.475008010864258, -0.792236328125, -0.01611328125, 0.5751953125, 0, 
123, 1970167809, 0.7371237, 0.13743274, -0.66138273, -0.01827155, 9.441065788269043, 2.609675884246826, 1.0463165044784546, 7.649218559265137, -7.95203161239624, -8.155025482177734, -0.791748046875, -0.021728515625, 0.57568359375, 0, 
124, 1970184476, 0.7363279, 0.13909687, -0.6619122, -0.018592069, 9.404218673706055, 2.557137966156006, 1.1322128772735596, 8.170833587646484, -8.017240524291992, -8.284687995910645, -0.791748046875, -0.01953125, 0.576904296875, 0, 
125, 1970201143, 0.7355849, 0.14063545, -0.6624017, -0.01899378, 9.49014663696289, 2.6072208881378174, 1.1678884029388428, 7.111903190612793, -7.6751322746276855, -8.136161804199219, -0.794677734375, -0.02099609375, 0.57861328125, 0, 
126, 1970217810, 0.73494065, 0.14196746, -0.66281897, -0.019460414, 9.517048835754395, 2.588796377182007, 1.1438803672790527, 5.670737266540527, -6.960394859313965, -7.561013698577881, -0.791259765625, -0.025146484375, 0.57861328125, 0, 
127, 1970234477, 0.73447907, 0.14319853, -0.6630517, -0.019929726, 9.571456909179688, 2.571467399597168, 1.0281851291656494, 4.949008941650391, -5.220869064331055, -7.253787994384766, -0.7900390625, -0.024658203125, 0.577392578125, 0, 
128, 1970251144, 0.73416, 0.14439413, -0.6631341, -0.020314887, 9.54949951171875, 2.5007736682891846, 1.0162839889526367, 4.9938435554504395, -3.737623453140259, -6.784972667694092, -0.794677734375, -0.030517578125, 0.57958984375, 0, 
129, 1970267811, 0.7339285, 0.14574975, -0.6630902, -0.020432092, 9.588204383850098, 2.4627835750579834, 0.9968320727348328, 6.9206109046936035, -2.417365550994873, -6.2693376541137695, -0.79296875, -0.0283203125, 0.57861328125, 0, 
130, 1970284478, 0.7337702, 0.14708376, -0.66297066, -0.020437334, 9.709309577941895, 2.514068126678467, 1.092220664024353, 7.240628242492676, -1.5940067768096924, -5.669538974761963, -0.795166015625, -0.030517578125, 0.580322265625, 0, 
131, 1970301145, 0.73375916, 0.14823902, -0.6627264, -0.020411775, 9.80622673034668, 2.5501861572265625, 1.0964542627334595, 6.3163557052612305, -0.2967616021633148, -4.8043036460876465, -0.7958984375, -0.030517578125, 0.58251953125, 0, 
132, 1970317812, 0.73388547, 0.1491977, -0.6623738, -0.020327613, 9.66677474975586, 2.5015742778778076, 1.0350068807601929, 5.4406819343566895, 0.8987690210342407, -3.7020347118377686, -0.794677734375, -0.03173828125, 0.577392578125, 0, 
133, 1970334479, 0.73410684, 0.14992706, -0.66196966, -0.02013503, 9.543850898742676, 2.5940704345703125, 1.053710699081421, 4.674375534057617, 1.6659588813781738, -2.1517233848571777, -0.79736328125, -0.033447265625, 0.576171875, 0, 
134, 1970351146, 0.73454285, 0.15028295, -0.66140825, -0.020033037, 9.455948829650879, 2.693265914916992, 1.0868602991104126, 2.1338648796081543, 3.2833757400512695, -1.0367637872695923, -0.796875, -0.03076171875, 0.572998046875, 0, 
135, 1970367813, 0.73507315, 0.1508383, -0.6607024, -0.019692915, 9.415972709655762, 2.4529638290405273, 0.9585090279579163, 4.106939315795898, 4.706852912902832, -0.8631225228309631, -0.798583984375, -0.033447265625, 0.576904296875, 0, 
136, 1970384480, 0.7355988, 0.15157124, -0.6599688, -0.019021863, 9.340286254882812, 2.458158493041992, 1.0143285989761353, 6.511050224304199, 5.192034721374512, -0.0293265487998724, -0.79736328125, -0.03173828125, 0.57177734375, 0, 
137, 1970401147, 0.7361727, 0.15206441, -0.65923387, -0.018360281, 9.26389217376709, 2.796839475631714, 1.168318510055542, 5.2030863761901855, 5.3741278648376465, 1.0148329734802246, -0.79736328125, -0.02783203125, 0.57177734375, 0, 
138, 1970417814, 0.7369195, 0.15224876, -0.65836984, -0.017865544, 9.343369483947754, 2.8107364177703857, 1.0622928142547607, 2.685523748397827, 6.585671901702881, 1.479997992515564, -0.799560546875, -0.03125, 0.570068359375, 0, 
139, 1970434481, 0.7377917, 0.15211578, -0.6574353, -0.017409513, 9.45521354675293, 2.7856931686401367, 1.0070797204971313, 0.7587444186210632, 7.426436424255371, 2.682553291320801, -0.797119140625, -0.029541015625, 0.564453125, 0, 
140, 1970451148, 0.7388105, 0.15192749, -0.6563473, -0.01689591, 9.541807174682617, 2.873523235321045, 0.9651807546615601, 0.5632811784744263, 8.923320770263672, 3.0982866287231445, -0.800537109375, -0.030029296875, 0.56494140625, 0, 
141, 1970467815, 0.73995167, 0.15190661, -0.65507865, -0.016373716, 9.603496551513672, 2.7943761348724365, 0.9371392130851746, 1.2974056005477905, 10.427364349365234, 2.2335245609283447, -0.800537109375, -0.0283203125, 0.56494140625, 0, 
142, 1970484482, 0.7410641, 0.15213342, -0.65378314, -0.015721219, 9.682838439941406, 2.643784523010254, 0.9887344241142273, 3.164149284362793, 10.609187126159668, 1.7645939588546753, -0.801025390625, -0.028564453125, 0.561767578125, 0, 
143, 1970501149, 0.742076, 0.15239905, -0.6525889, -0.015027002, 9.785407066345215, 2.6967456340789795, 1.0449789762496948, 3.662111520767212, 9.699461936950684, 1.9033763408660889, -0.801513671875, -0.02685546875, 0.554931640625, 0, 
144, 1970517816, 0.7429894, 0.15270667, -0.6514929, -0.014308141, 9.807456970214844, 2.7113795280456543, 1.0886913537979126, 4.09586238861084, 8.794347763061523, 1.9389011859893799, -0.802978515625, -0.028564453125, 0.5537109375, 0, 
145, 1970534483, 0.74386644, 0.1528915, -0.6504616, -0.013661562, 9.765604972839355, 2.8053088188171387, 1.0787100791931152, 3.1850359439849854, 8.220301628112793, 2.1922874450683594, -0.802978515625, -0.02734375, 0.548095703125, 0, 
146, 1970551150, 0.74473643, 0.15304902, -0.64944285, -0.012948273, 9.707232475280762, 2.7982263565063477, 1.0710326433181763, 3.346203565597534, 8.201822280883789, 2.6807217597961426, -0.802978515625, -0.025146484375, 0.546630859375, 0, 
147, 1970567817, 0.74560934, 0.1528775, -0.6484924, -0.012359934, 9.506876945495605, 2.754556179046631, 1.1543225049972534, 1.1004178524017334, 7.715065002441406, 3.597285747528076, -0.80224609375, -0.025146484375, 0.54541015625, 0, 
148, 1970584484, 0.7465235, 0.15248902, -0.6475407, -0.011881063, 9.340473175048828, 2.694951057434082, 1.0882495641708374, -0.5475227236747742, 7.777163505554199, 4.019395351409912, -0.8056640625, -0.024658203125, 0.543212890625, 0, 
149, 1970601151, 0.74746543, 0.152079, -0.64655906, -0.011356671, 9.334115982055664, 2.593726396560669, 0.9838118553161621, -0.4946710169315338, 8.110281944274902, 4.332600116729736, -0.80615234375, -0.024169921875, 0.5419921875, 0, 
150, 1970617818, 0.74839514, 0.15185496, -0.6455469, -0.010679226, 9.366079330444336, 2.6079916954040527, 0.9144989848136902, 1.1454194784164429, 8.405726432800293, 4.267531871795654, -0.80615234375, -0.0224609375, 0.536865234375, 0, 
151, 1970634485, 0.7492935, 0.15190962, -0.64450526, -0.00978938, 9.392419815063477, 2.598313331604004, 0.9210386872291565, 3.545407295227051, 8.684046745300293, 4.097796440124512, -0.80615234375, -0.0224609375, 0.536865234375, 0, 
152, 1970651152, 0.7501072, 0.15221253, -0.64350134, -0.00875742, 9.43106460571289, 2.660311698913574, 0.9912485480308533, 5.5358357429504395, 8.304760932922363, 3.7730400562286377, -0.80712890625, -0.021484375, 0.532958984375, 0, 
153, 1970667819, 0.75090414, 0.15267521, -0.6424746, -0.00774162, 9.475695610046387, 2.688595771789551, 1.0040940046310425, 6.296288967132568, 8.36392593383789, 2.969057321548462, -0.806396484375, -0.020263671875, 0.532470703125, 0, 
154, 1970684486, 0.75165606, 0.1531385, -0.6414947, -0.0068295687, 9.54047679901123, 2.765643835067749, 0.9892081022262573, 5.882515907287598, 7.837891578674316, 2.491008758544922, -0.810302734375, -0.017578125, 0.528076171875, 0, 
155, 1970701153, 0.7523748, 0.15360714, -0.6405472, -0.006009806, 9.522093772888184, 2.7455921173095703, 0.987008810043335, 5.530480861663818, 7.453995704650879, 2.0402121543884277, -0.807373046875, -0.01708984375, 0.52294921875, 0, 
156, 1970717820, 0.75294924, 0.1540666, -0.63976777, -0.005308519, 9.45652961730957, 2.7571277618408203, 1.013181447982788, 5.111380100250244, 5.849398136138916, 1.6549586057662964, -0.8056640625, -0.016357421875, 0.52294921875, 0, 
157, 1970734487, 0.75340205, 0.15450162, -0.63913375, -0.0047699464, 9.439739227294922, 2.8438496589660645, 1.077688217163086, 4.394889831542969, 4.414778232574463, 1.0869839191436768, -0.807373046875, -0.01708984375, 0.51953125, 0, 
158, 1970751154, 0.75381, 0.15488566, -0.6385616, -0.004480349, 9.471611976623535, 2.740966796875, 1.0051451921463013, 3.0781924724578857, 3.6525957584381104, 0.10693944245576859, -0.80908203125, -0.0166015625, 0.517333984375, 0, 
159, 1970767821, 0.75409555, 0.15552846, -0.6380706, -0.0041047083, 9.451687812805176, 2.668815851211548, 0.9818202257156372, 4.921627998352051, 2.8212456703186035, -0.48601385951042175, -0.811279296875, -0.01806640625, 0.517333984375, 0, 
160, 1970784488, 0.7542257, 0.15646484, -0.6376909, -0.0035950097, 9.450709342956543, 2.745828628540039, 1.040856122970581, 7.194090843200684, 1.7427078485488892, -0.9528183341026306, -0.807861328125, -0.017578125, 0.5185546875, 0, 
161, 1970801155, 0.7542839, 0.1573733, -0.6374004, -0.0032278597, 9.420835494995117, 2.8191728591918945, 1.1539554595947266, 6.497487545013428, 0.8361586928367615, -1.4610509872436523, -0.810546875, -0.017578125, 0.514404296875, 0, 
162, 1970817822, 0.7542822, 0.15817413, -0.637205, -0.0030346527, 9.48236083984375, 2.700655221939087, 1.0952221155166626, 5.238161563873291, -0.09197520464658737, -1.7713102102279663, -0.80712890625, -0.018310546875, 0.513427734375, 0, 
163, 1970834489, 0.75415, 0.15906523, -0.63714063, -0.0028324788, 9.624972343444824, 2.713352918624878, 1.1706722974777222, 5.884896755218506, -1.3102689981460571, -1.9708207845687866, -0.808349609375, -0.017578125, 0.5146484375, 0, 
164, 1970851156, 0.7539569, 0.15976864, -0.6371933, -0.0027804326, 9.569653511047363, 2.7784008979797363, 1.3572443723678589, 4.318602085113525, -2.333996057510376, -1.7916468381881714, -0.811767578125, -0.018798828125, 0.512939453125, 0, 
165, 1970867823, 0.7538289, 0.15999272, -0.6372872, -0.00306693, 9.421029090881348, 2.822828531265259, 1.3255037069320679, 0.2783011794090271, -2.638479232788086, -1.3891303539276123, -0.806640625, -0.018798828125, 0.51513671875, 0, 
166, 1970884490, 0.75373155, 0.16013606, -0.6373651, -0.0033249413, 9.320063591003418, 2.6460325717926025, 1.1789991855621338, -0.051443103700876236, -2.386040687561035, -0.8883252143859863, -0.812255859375, -0.020263671875, 0.515625, 0, 
167, 1970901157, 0.7536664, 0.16048026, -0.6373553, -0.0033742152, 9.290027618408203, 2.5498623847961426, 1.1191829442977905, 1.8643419742584229, -1.5439975261688232, -0.7764489650726318, -0.8095703125, -0.02099609375, 0.515625, 0, 
168, 1970917824, 0.7535521, 0.16119452, -0.6373117, -0.0030853269, 9.304450988769531, 2.607588291168213, 1.2452622652053833, 5.313783645629883, -1.186277985572815, -0.6839743852615356, -0.808837890625, -0.02099609375, 0.51513671875, 0, 
169, 1970934491, 0.75342137, 0.16180314, -0.6373133, -0.0028380838, 9.37680721282959, 2.638700008392334, 1.3873409032821655, 4.602134704589844, -1.5322667360305786, -0.3827817738056183, -0.81005859375, -0.021484375, 0.512939453125, 0, 
170, 1970951158, 0.7533481, 0.16204514, -0.6373386, -0.002782383, 9.418652534484863, 2.683650255203247, 1.3875231742858887, 1.8002208471298218, -1.6237683296203613, 0.262792706489563, -0.80908203125, -0.0205078125, 0.51611328125, 0, 
171, 1970967825, 0.753271, 0.16211303, -0.6374127, -0.0027212969, 9.422124862670898, 2.6140480041503906, 1.29599928855896, 0.9268916845321655, -1.8901530504226685, 1.11479914188385, -0.81005859375, -0.0205078125, 0.515625, 0, 
172, 1970984492, 0.753188, 0.16203332, -0.63753146, -0.0026413172, 9.435059547424316, 2.673718214035034, 1.3121638298034668, 0.25112611055374146, -2.12436842918396, 1.9093433618545532, -0.807373046875, -0.019287109375, 0.517822265625, 0, 
173, 1971001159, 0.7531721, 0.16180433, -0.63760847, -0.0025909035, 9.510380744934082, 2.745002031326294, 1.3321412801742554, -0.7275415062904358, -1.6463584899902344, 2.370474338531494, -0.807861328125, -0.022216796875, 0.515625, 0, 
174, 1971017826, 0.75322056, 0.16147518, -0.6376348, -0.0025965543, 9.489341735839844, 2.718881130218506, 1.3982722759246826, -1.5662295818328857, -1.1624068021774292, 2.47090220451355, -0.807373046875, -0.02099609375, 0.5185546875, 0, 
175, 1971034493, 0.7533106, 0.16111235, -0.63762033, -0.002562466, 9.446122169494629, 2.667011260986328, 1.4150744676589966, -1.6146886348724365, -0.7273750305175781, 2.787065029144287, -0.810791015625, -0.01806640625, 0.524169921875, 0, 
176, 1971051160, 0.753373, 0.16086303, -0.6376098, -0.0024558003, 9.526201248168945, 2.683694362640381, 1.435742974281311, -0.6790183186531067, -0.7874240279197693, 2.6734213829040527, -0.808349609375, -0.018798828125, 0.51611328125, 0, 
177, 1971067827, 0.753437, 0.16068219, -0.6375801, -0.0023279707, 9.560080528259277, 2.729673147201538, 1.527381420135498, -0.23212787508964539, -0.6608589291572571, 2.4667270183563232, -0.808349609375, -0.018798828125, 0.516845703125, 0, 
178, 1971084494, 0.7535655, 0.16045743, -0.6374853, -0.002283206, 9.666420936584473, 2.765965461730957, 1.4985982179641724, -0.8957017064094543, -0.14022953808307648, 2.16440749168396, -0.80908203125, -0.019287109375, 0.517333984375, 0, 
179, 1971101161, 0.7538263, 0.16025424, -0.63722813, -0.0022094594, 9.48472785949707, 2.6988089084625244, 1.517109751701355, -0.8063260912895203, 1.30907142162323, 2.051480770111084, -0.80615234375, -0.02001953125, 0.515625, 0, 
180, 1971117828, 0.7541408, 0.16027647, -0.6368509, -0.0020212661, 9.309338569641113, 2.6335015296936035, 1.5086438655853271, 0.8022729754447937, 2.2897562980651855, 1.5314280986785889, -0.807861328125, -0.01806640625, 0.516845703125, 0, 
181, 1971134495, 0.75454706, 0.16053702, -0.6363049, -0.0016361941, 9.30419635772705, 2.6379599571228027, 1.5505753755569458, 2.7958245277404785, 3.780683994293213, 1.3301634788513184, -0.807861328125, -0.018798828125, 0.515625, 0, 
182, 1971151162, 0.7550204, 0.1610388, -0.63561743, -0.0011320721, 9.343914985656738, 2.696012496948242, 1.6545687913894653, 4.4936652183532715, 4.933281421661377, 0.7419807314872742, -0.8095703125, -0.018798828125, 0.51513671875, 0, 
183, 1971167829, 0.75545526, 0.16166541, -0.63494223, -5.1891705E-4, 9.400022506713867, 2.7309439182281494, 1.744322419166565, 5.660414218902588, 4.810866355895996, 0.7856249213218689, -0.80712890625, -0.01708984375, 0.510498046875, 0, 
184, 1971184496, 0.75588936, 0.16210689, -0.6343129, -7.232728E-5, 9.569242477416992, 2.7782602310180664, 1.7335087060928345, 3.975315809249878, 4.368099212646484, 0.7884422540664673, -0.81201171875, -0.015869140625, 0.5087890625, 0, 
185, 1971201163, 0.75635475, 0.16229992, -0.6337085, 2.3848336E-4, 9.517675399780273, 2.768980026245117, 1.6628437042236328, 2.055335760116577, 4.211258888244629, 1.2032653093338013, -0.810546875, -0.018310546875, 0.509521484375, 0, 
186, 1971217830, 0.7568511, 0.1621656, -0.6331499, 3.7016885E-4, 9.44357967376709, 2.730477809906006, 1.6321102380752563, -0.4608365595340729, 3.8974783420562744, 1.7578829526901245, -0.809814453125, -0.0166015625, 0.5078125, 0, 
187, 1971234497, 0.757404, 0.16193627, -0.63254696, 4.2829363E-4, 9.416044235229492, 2.7072439193725586, 1.5038268566131592, -1.3395956754684448, 4.286561489105225, 1.746575117111206, -0.809326171875, -0.014892578125, 0.5087890625, 0, 
188, 1971251164, 0.7579914, 0.16185576, -0.6318637, 6.4952386E-4, 9.391013145446777, 2.6022772789001465, 1.4681854248046875, 0.10442938655614853, 5.035386085510254, 1.8660452365875244, -0.810791015625, -0.01708984375, 0.50048828125, 0, 
189, 1971267831, 0.7585647, 0.1620226, -0.6311316, 0.0011271923, 9.38216781616211, 2.5856618881225586, 1.4454739093780518, 2.5218331813812256, 5.516509056091309, 2.07492995262146, -0.810302734375, -0.014404296875, 0.502685546875, 0, 
190, 1971284498, 0.7591257, 0.16227537, -0.6303905, 0.0016945014, 9.360525131225586, 2.655550241470337, 1.4787269830703735, 3.3708815574645996, 5.614695072174072, 2.159515857696533, -0.810302734375, -0.01318359375, 0.50048828125, 0, 
191, 1971301165, 0.75966257, 0.16262306, -0.62965196, 0.0023053044, 9.432458877563477, 2.641209125518799, 1.4633939266204834, 4.077164173126221, 5.549446105957031, 1.9839661121368408, -0.814208984375, -0.01318359375, 0.5009765625, 0, 
192, 1971317832, 0.7601272, 0.16310038, -0.62896425, 0.0030089915, 9.468802452087402, 2.553400754928589, 1.4669907093048096, 5.233885765075684, 5.080375671386719, 1.9688421487808228, -0.814208984375, -0.0126953125, 0.49658203125, 0, 
193, 1971334499, 0.760465, 0.16362016, -0.628417, 0.0037357376, 9.494219779968262, 2.613748788833618, 1.396099328994751, 5.692339897155762, 3.831090211868286, 2.0638136863708496, -0.811767578125, -0.010986328125, 0.494384765625, 0, 
194, 1971351166, 0.76078165, 0.16402875, -0.627923, 0.004362241, 9.447799682617188, 2.6669211387634277, 1.4440215826034546, 4.696735382080078, 3.3639652729034424, 2.0817039012908936, -0.811767578125, -0.01220703125, 0.494384765625, 0, 
195, 1971367833, 0.7610934, 0.16429825, -0.62747127, 0.0048011206, 9.41766357421875, 2.606818199157715, 1.3485345840454102, 3.160703420639038, 2.923337697982788, 1.7526451349258423, -0.811279296875, -0.01220703125, 0.49365234375, 0, 
196, 1971384500, 0.76135457, 0.16467257, -0.62705183, 0.005328573, 9.387249946594238, 2.5264227390289307, 1.2796099185943604, 4.142694473266602, 2.6478731632232666, 1.803627371788025, -0.814453125, -0.009521484375, 0.48974609375, 0, 
197, 1971401167, 0.761512, 0.16519992, -0.6267164, 0.005928392, 9.430501937866211, 2.5826327800750732, 1.2941428422927856, 5.366366863250732, 1.856760859489441, 1.6191903352737427, -0.811767578125, -0.00830078125, 0.490966796875, 0, 
198, 1971417834, 0.76164603, 0.16569544, -0.62641716, 0.006484105, 9.414570808410645, 2.6580910682678223, 1.4056423902511597, 5.032313346862793, 1.5356287956237793, 1.5680160522460938, -0.812255859375, -0.010009765625, 0.48974609375, 0, 
199, 1971434501, 0.7617518, 0.1660331, -0.6261951, 0.006872726, 9.39046573638916, 2.5880467891693115, 1.3941231966018677, 3.5099072456359863, 0.8391170501708984, 1.4651299715042114, -0.814453125, -0.010009765625, 0.48974609375, 0, 
200, 1971451168, 0.761848, 0.16624403, -0.62601835, 0.0071862834, 9.334278106689453, 2.5593526363372803, 1.3408613204956055, 2.5294783115386963, 0.4933710992336273, 1.6707998514175415, -0.8115234375, -0.0078125, 0.4853515625, 0, 
201, 1971467835, 0.7618716, 0.16643853, -0.62593466, 0.0074679567, 9.317957878112793, 2.618194103240967, 1.324277400970459, 2.381718635559082, -0.32795780897140503, 1.6842974424362183, -0.81103515625, -0.0078125, 0.488037109375, 0, 
202, 1971484502, 0.7618655, 0.16668332, -0.62587357, 0.0077399425, 9.441895484924316, 2.5996673107147217, 1.345367193222046, 2.633197069168091, -0.5730969905853271, 1.4472906589508057, -0.812744140625, -0.00390625, 0.488037109375, 0, 
203, 1971501169, 0.76182777, 0.16692702, -0.62585115, 0.008008044, 9.51805591583252, 2.5756537914276123, 1.4269250631332397, 2.639420986175537, -0.9010676145553589, 1.4780768156051636, -0.812255859375, -0.005615234375, 0.486328125, 0, 
204, 1971517836, 0.76165235, 0.167385, -0.62593734, 0.008403077, 9.579202651977539, 2.5073394775390625, 1.4512981176376343, 4.458998203277588, -1.9170979261398315, 1.3507306575775146, -0.810546875, -0.006103515625, 0.487548828125, 0, 
205, 1971534503, 0.7614269, 0.16795154, -0.6260539, 0.008826077, 9.563874244689941, 2.5751638412475586, 1.522515058517456, 5.203738689422607, -2.2556464672088623, 1.062382698059082, -0.812744140625, -0.0078125, 0.48583984375, 0, 
206, 1971551170, 0.7612009, 0.1686063, -0.62614554, 0.009329343, 9.520854949951172, 2.6142048835754395, 1.4905052185058594, 6.013370037078857, -2.0324575901031494, 1.071168065071106, -0.81103515625, -0.002685546875, 0.490478515625, 0, 
207, 1971567837, 0.7609837, 0.16922936, -0.626233, 0.009885033, 9.443926811218262, 2.6755146980285645, 1.603469729423523, 6.061777114868164, -1.9032926559448242, 1.4768989086151123, -0.81103515625, -0.00390625, 0.486328125, 0, 
208, 1971584504, 0.76080614, 0.16969793, -0.62631506, 0.01031314, 9.456643104553223, 2.6570990085601807, 1.6394208669662476, 4.6601481437683105, -1.8411692380905151, 1.470085859298706, -0.811767578125, -0.00439453125, 0.4892578125, 0, 
209, 1971601171, 0.7606455, 0.17012683, -0.6263867, 0.010727099, 9.458703994750977, 2.557650566101074, 1.6838444471359253, 4.372593879699707, -1.7294847965240479, 1.556784749031067, -0.808837890625, -0.00341796875, 0.487060546875, 0, 
210, 1971617838, 0.760443, 0.17046998, -0.62653404, 0.011037204, 9.475963592529297, 2.563551902770996, 1.693000316619873, 3.522021770477295, -2.426739454269409, 1.4712640047073364, -0.81005859375, -0.001708984375, 0.490478515625, 0, 
211, 1971634505, 0.760278, 0.17078245, -0.62664485, 0.01129222, 9.495777130126953, 2.6715145111083984, 1.7315893173217773, 3.0838139057159424, -2.140876293182373, 1.2673486471176147, -0.812255859375, -0.00341796875, 0.487060546875, 0, 
212, 1971651172, 0.7602239, 0.17091139, -0.6266726, 0.011419478, 9.451591491699219, 2.683936357498169, 1.762481689453125, 1.455153465270996, -1.3707534074783325, 1.2872109413146973, -0.810546875, -0.002685546875, 0.488037109375, 0, 
213, 1971667839, 0.76020193, 0.17102511, -0.6266646, 0.011615475, 9.44182300567627, 2.671677827835083, 1.6961591243743896, 1.637964129447937, -0.9740765690803528, 1.671785593032837, -0.810546875, -0.002197265625, 0.4853515625, 0, 
214, 1971684506, 0.7602736, 0.17102486, -0.62657505, 0.011771816, 9.5015230178833, 2.687915086746216, 1.7055654525756836, 0.7683873176574707, -0.18774105608463287, 1.8551212549209595, -0.81103515625, -0.002685546875, 0.487548828125, 0, 
215, 1971701173, 0.7603952, 0.17103058, -0.6264225, 0.011937826, 9.507471084594727, 2.601292610168457, 1.7420258522033691, 0.7865595817565918, 0.3611198663711548, 1.8048179149627686, -0.811767578125, 0.0, 0.48974609375, 0, 
216, 1971717840, 0.76054776, 0.17104518, -0.6262301, 0.012094658, 9.507877349853516, 2.587301731109619, 1.699804425239563, 0.7673372626304626, 0.6845441460609436, 1.6684048175811768, -0.810546875, -9.765625E-4, 0.48876953125, 0, 
217, 1971734507, 0.7607431, 0.17108701, -0.6259785, 0.012249981, 9.547433853149414, 2.6427736282348633, 1.6485275030136108, 0.8569048047065735, 1.168790578842163, 1.4688818454742432, -0.81005859375, 0.0, 0.487548828125, 0, 
218, 1971751174, 0.76098317, 0.1711744, -0.62565887, 0.012452345, 9.503470420837402, 2.6085715293884277, 1.5892583131790161, 1.2502132654190063, 1.7663475275039673, 1.4346247911453247, -0.8115234375, 0.001708984375, 0.487060546875, 0, 
219, 1971767841, 0.76123524, 0.17126226, -0.6253245, 0.012631558, 9.506263732910156, 2.682612657546997, 1.5952465534210205, 1.1362881660461426, 1.868427038192749, 1.292564034461975, -0.81201171875, -0.001220703125, 0.484130859375, 0, 
220, 1971784508, 0.761538, 0.17136094, -0.6249258, 0.01277308, 9.472758293151855, 2.6432793140411377, 1.6051476001739502, 0.9813314080238342, 2.380399465560913, 0.9720084071159363, -0.81103515625, -0.001220703125, 0.487060546875, 0, 
221, 1971801175, 0.76184833, 0.17145056, -0.6245202, 0.012899074, 9.45068359375, 2.548027753829956, 1.5771567821502686, 0.8500662446022034, 2.43001127243042, 0.9222299456596375, -0.812744140625, 0.001220703125, 0.4853515625, 0, 
222, 1971817842, 0.7621519, 0.17156145, -0.6241162, 0.013046195, 9.414471626281738, 2.564465284347534, 1.5599267482757568, 1.044914960861206, 2.413862466812134, 0.9370855093002319, -0.809326171875, 9.765625E-4, 0.48486328125, 0, 
223, 1971834509, 0.76245636, 0.17168169, -0.6237088, 0.013158672, 9.429330825805664, 2.618398666381836, 1.5457676649093628, 0.959342896938324, 2.400338888168335, 0.7138963341712952, -0.813720703125, -4.8828125E-4, 0.483642578125, 0, 
224, 1971851176, 0.76277757, 0.17181757, -0.6232765, 0.013248576, 9.44818115234375, 2.5761494636535645, 1.5035161972045898, 0.93813556432724, 2.582547664642334, 0.49951809644699097, -0.81201171875, -0.001220703125, 0.483154296875, 0, 
225, 1971867843, 0.7630673, 0.1721338, -0.6228296, 0.0134746265, 9.486430168151855, 2.518972158432007, 1.5426884889602661, 2.497577667236328, 2.67421555519104, 0.42383259534835815, -0.8154296875, 0.0, 0.479736328125, 0, 
226, 1971884510, 0.7633322, 0.17246738, -0.62240696, 0.013730236, 9.484851837158203, 2.5174291133880615, 1.5678852796554565, 2.7669076919555664, 2.486832857131958, 0.5343000888824463, -0.8125, 4.8828125E-4, 0.479736328125, 0, 
227, 1971901177, 0.7635424, 0.17281535, -0.6220465, 0.01400596, 9.47137451171875, 2.6049554347991943, 1.5940487384796143, 2.9779696464538574, 1.951847791671753, 0.6514142751693726, -0.814208984375, 0.002197265625, 0.478515625, 0, 
228, 1971917844, 0.76372343, 0.17304988, -0.621755, 0.014181114, 9.459332466125488, 2.593977928161621, 1.6000490188598633, 1.964321255683899, 1.35635244846344, 0.6902302503585815, -0.8125, 0.001708984375, 0.478515625, 0, 
229, 1971934511, 0.7639003, 0.17315549, -0.6215064, 0.014265135, 9.466198921203613, 2.578217029571533, 1.5332890748977661, 0.9024313688278198, 1.0229904651641846, 0.8132352828979492, -0.813720703125, 0.001220703125, 0.479736328125, 0, 
230, 1971951178, 0.7640431, 0.17328921, -0.6212917, 0.014351974, 9.472029685974121, 2.531461238861084, 1.5265542268753052, 1.0774941444396973, 0.7008979320526123, 0.7453743815422058, -0.814697265625, 0.002197265625, 0.47412109375, 0, 
231, 1971967845, 0.76412743, 0.17356224, -0.62110734, 0.014531089, 9.458821296691895, 2.5044615268707275, 1.5276798009872437, 2.2978627681732178, 0.40364977717399597, 0.6784611940383911, -0.813720703125, 0.002685546875, 0.47802734375, 0, 
232, 1971984512, 0.7641726, 0.17393863, -0.6209415, 0.014749289, 9.495433807373047, 2.536203622817993, 1.5659290552139282, 3.0110480785369873, 0.1722390055656433, 0.45481109619140625, -0.814697265625, 0.002685546875, 0.480224609375, 0, 
233, 1972001179, 0.7642106, 0.17430982, -0.6207858, 0.014955692, 9.454976081848145, 2.5929243564605713, 1.628666877746582, 2.9765353202819824, 0.09036800265312195, 0.430210143327713, -0.81591796875, 0.00390625, 0.474609375, 0, 
234, 1972017846, 0.76425433, 0.17454427, -0.6206645, 0.015015859, 9.441856384277344, 2.589552164077759, 1.606968879699707, 1.65431809425354, -0.21679870784282684, 0.29007023572921753, -0.814208984375, 0.0048828125, 0.476318359375, 0, 
235, 1972034513, 0.7642643, 0.17485438, -0.6205612, 0.015156764, 9.40455150604248, 2.552680730819702, 1.5822452306747437, 2.375187397003174, -0.3771213889122009, 0.40402114391326904, -0.814697265625, 0.00390625, 0.475830078125, 0, 
236, 1972051180, 0.7642437, 0.17508127, -0.6205202, 0.015267833, 9.435685157775879, 2.5575079917907715, 1.6325491666793823, 1.852445125579834, -0.8550158739089966, 0.6792296767234802, -0.81591796875, 0.002197265625, 0.482421875, 0, 
237, 1972067847, 0.7642999, 0.1752673, -0.62039655, 0.01533588, 9.392122268676758, 2.587855100631714, 1.6002223491668701, 1.4865291118621826, -0.10685618966817856, 0.5375657677650452, -0.815185546875, 0.00390625, 0.4775390625, 0, 
238, 1972084514, 0.76438296, 0.1754014, -0.6202568, 0.015323285, 9.35114860534668, 2.460793972015381, 1.4829665422439575, 0.8524866700172424, 0.007024282589554787, 0.31304478645324707, -0.814208984375, 0.00390625, 0.476806640625, 0, 
239, 1972101181, 0.76443636, 0.17566985, -0.6201113, 0.0154716885, 9.401069641113281, 2.563746213912964, 1.5392669439315796, 2.1590287685394287, 0.06887894868850708, 0.5551615953445435, -0.8125, 0.005615234375, 0.478515625, 0, 
240, 1972117848, 0.76454455, 0.17605503, -0.6198621, 0.015728159, 9.445083618164062, 2.6424262523651123, 1.6803699731826782, 3.161881446838379, 0.9667449593544006, 0.4885558485984802, -0.81591796875, 0.005126953125, 0.476318359375, 0, 
241, 1972134515, 0.7646851, 0.17633492, -0.6196037, 0.015939467, 9.456375122070312, 2.541938304901123, 1.7212251424789429, 2.4906623363494873, 1.1395665407180786, 0.7050600051879883, -0.814697265625, 0.00341796875, 0.47509765625, 0, 
242, 1972151182, 0.7647094, 0.17671207, -0.6194583, 0.016249843, 9.436270713806152, 2.5024960041046143, 1.767714500427246, 3.3125226497650146, 0.09619490802288055, 0.9142518043518066, -0.814697265625, 0.002685546875, 0.476318359375, 0, 
243, 1972167849, 0.7646465, 0.17701256, -0.61944354, 0.01649515, 9.406254768371582, 2.5644659996032715, 1.786595106124878, 2.976214647293091, -0.9691716432571411, 1.1054760217666626, -0.814697265625, 0.005615234375, 0.47412109375, 0, 
244, 1972184516, 0.7645609, 0.17721535, -0.61948663, 0.016670745, 9.473082542419434, 2.6303415298461914, 1.7598804235458374, 2.129920244216919, -1.4639579057693481, 1.2139716148376465, -0.81640625, 0.00439453125, 0.472900390625, 0, 
245, 1972201183, 0.7644756, 0.17738365, -0.6195388, 0.01685326, 9.529467582702637, 2.5632059574127197, 1.669598937034607, 1.9596340656280518, -1.5043617486953735, 1.4049781560897827, -0.81640625, 0.00390625, 0.474609375, 0, 
246, 1972217850, 0.76440203, 0.17756194, -0.619572, 0.017093593, 9.494773864746094, 2.5659382343292236, 1.6371279954910278, 2.0766329765319824, -1.3287484645843506, 1.6059099435806274, -0.8134765625, 0.00439453125, 0.472900390625, 0, 
247, 1972234517, 0.76433945, 0.1777366, -0.61959195, 0.017343683, 9.508956909179688, 2.6031911373138428, 1.6418365240097046, 2.2124955654144287, -1.1638537645339966, 1.6743470430374146, -0.8125, 0.006103515625, 0.47509765625, 0, 
248, 1972251184, 0.7642711, 0.1779358, -0.6196115, 0.017611966, 9.494142532348633, 2.551632881164551, 1.7126827239990234, 2.3012566566467285, -1.1976628303527832, 1.6419216394424438, -0.814208984375, 0.00732421875, 0.474609375, 0, 
249, 1972267851, 0.7642148, 0.17808652, -0.6196317, 0.01781932, 9.485142707824707, 2.5591065883636475, 1.690393090248108, 1.9168479442596436, -1.1815906763076782, 1.547435998916626, -0.817626953125, 0.00634765625, 0.482421875, 0, 
250, 1972284518, 0.7641339, 0.17829739, -0.61966294, 0.018093074, 9.432860374450684, 2.5223913192749023, 1.6422518491744995, 2.557818651199341, -1.2673547267913818, 1.6552141904830933, -0.81640625, 0.0078125, 0.47509765625, 0, 
251, 1972301185, 0.76406044, 0.17857249, -0.61966383, 0.01844963, 9.406814575195312, 2.554870843887329, 1.6204739809036255, 3.0238418579101562, -1.0377753973007202, 1.735663890838623, -0.815673828125, 0.00732421875, 0.47412109375, 0, 
252, 1972317852, 0.76401705, 0.1788026, -0.6196422, 0.018744875, 9.357649803161621, 2.587709665298462, 1.6478791236877441, 2.8684113025665283, -0.760645866394043, 1.6365681886672974, -0.814697265625, 0.00830078125, 0.479248046875, 0, 
253, 1972334519, 0.7640219, 0.17894739, -0.6195866, 0.019005615, 9.367156028747559, 2.553025484085083, 1.6501528024673462, 1.7141108512878418, -0.5387118458747864, 1.6821333169937134, -0.8134765625, 0.009521484375, 0.47412109375, 0, 
254, 1972351186, 0.7640221, 0.17915243, -0.6195182, 0.019283524, 9.388958930969238, 2.5129363536834717, 1.6164151430130005, 1.9635528326034546, -0.5170819759368896, 1.472954273223877, -0.81396484375, 0.0087890625, 0.472900390625, 0, 
255, 1972367853, 0.7640394, 0.17928608, -0.61945146, 0.019502545, 9.388398170471191, 2.514389753341675, 1.6270391941070557, 1.8483469486236572, -0.3730873763561249, 1.5545179843902588, -0.814208984375, 0.009033203125, 0.480224609375, 0, 
256, 1972384520, 0.7640335, 0.17948785, -0.61939186, 0.01976856, 9.410836219787598, 2.5631418228149414, 1.6283493041992188, 1.362076759338379, -0.7424864768981934, 1.3332496881484985, -0.81591796875, 0.0107421875, 0.478515625, 0, 
257, 1972401187, 0.7640695, 0.179503, -0.61933976, 0.019873923, 9.445228576660156, 2.5417635440826416, 1.6549676656723022, 0.2774944007396698, -0.6068289279937744, 1.395578384399414, -0.81298828125, 0.010009765625, 0.472900390625, 0, 
258, 1972417854, 0.76411206, 0.17931744, -0.61934435, 0.01976775, 9.454215049743652, 2.5224270820617676, 1.602393388748169, -0.5851605534553528, -0.8182618021965027, 1.3959113359451294, -0.815185546875, 0.010009765625, 0.474609375, 0, 
259, 1972434521, 0.7641451, 0.17931731, -0.6193024, 0.019805424, 9.465442657470703, 2.476311683654785, 1.5933445692062378, 0.29000622034072876, -0.6515614986419678, 1.1754244565963745, -0.8125, 0.01171875, 0.47412109375, 0, 
260, 1972451188, 0.7641059, 0.17956679, -0.6192741, 0.019943213, 9.46543025970459, 2.4455766677856445, 1.6511174440383911, 1.7215385437011719, -1.0413868427276611, 0.5909554362297058, -0.81396484375, 0.01171875, 0.4736328125, 0, 
261, 1972467855, 0.763981, 0.17996296, -0.6193102, 0.02003405, 9.496281623840332, 2.398376941680908, 1.6289526224136353, 2.379605770111084, -1.8240466117858887, -0.19783249497413635, -0.815185546875, 0.01123046875, 0.472900390625, 0, 
262, 1972484522, 0.76374257, 0.18047032, -0.6194565, 0.020039568, 9.58433723449707, 2.435276746749878, 1.596585988998413, 3.114638566970825, -2.9026613235473633, -0.9092764258384705, -0.81689453125, 0.010009765625, 0.47802734375, 0, 
263, 1972501189, 0.76341194, 0.18126, -0.6196252, 0.020291355, 9.672358512878418, 2.50433349609375, 1.586565375328064, 3.000713348388672, -3.8708603382110596, -1.2613102197647095, -0.815185546875, 0.01220703125, 0.475830078125, 0, 
264, 1972517856, 0.76310766, 0.1815721, -0.61991745, 0.020022688, 9.678848266601562, 2.5899293422698975, 1.5994322299957275, 1.5010643005371094, -4.1192522048950195, -1.2538185119628906, -0.813720703125, 0.009521484375, 0.47802734375, 0, 
265, 1972534523, 0.7628475, 0.18169728, -0.6202161, 0.019542, 9.602999687194824, 2.487607955932617, 1.5402348041534424, 0.8942224979400635, -3.844491481781006, -1.345345377922058, -0.815185546875, 0.010009765625, 0.47900390625, 0, 
266, 1972551190, 0.76256007, 0.18201624, -0.6204835, 0.01929826, 9.467168807983398, 2.4273841381073, 1.5468956232070923, 1.2512507438659668, -3.976832389831543, -1.262398600578308, -0.81591796875, 0.00830078125, 0.479736328125, 0, 
267, 1972567857, 0.7622525, 0.18223666, -0.6208081, 0.01892966, 9.401971817016602, 2.4570095539093018, 1.547666311264038, 0.9613792300224304, -4.304919242858887, -1.3062094449996948, -0.815185546875, 0.01123046875, 0.478515625, 0, 
268, 1972584524, 0.7619781, 0.18260098, -0.6210449, 0.018701553, 9.401972770690918, 2.4587314128875732, 1.5253846645355225, 0.7852790355682373, -3.945969343185425, -1.556675910949707, -0.814697265625, 0.010009765625, 0.480712890625, 0, 
269, 1972601191, 0.7617388, 0.183027, -0.621218, 0.018529031, 9.419855117797852, 2.472071886062622, 1.4947509765625, 0.573052167892456, -3.5949220657348633, -1.7429059743881226, -0.814208984375, 0.010009765625, 0.480224609375, 0, 
270, 1972617858, 0.76156473, 0.1832521, -0.6213785, 0.018075665, 9.445514678955078, 2.4668092727661133, 1.4732983112335205, 1.2569496631622314, -2.7622272968292236, -1.88656747341156, -0.81640625, 0.0068359375, 0.48193359375, 0, 
271, 1972634525, 0.7613749, 0.18382764, -0.62144256, 0.018026903, 9.42989444732666, 2.469221830368042, 1.5478107929229736, 2.1933884620666504, -2.571848154067993, -1.8313593864440918, -0.81591796875, 0.0078125, 0.483154296875, 0, 
272, 1972651192, 0.7611648, 0.18437, -0.62154204, 0.017932687, 9.43979549407959, 2.4956324100494385, 1.5346503257751465, 2.9674808979034424, -2.5933499336242676, -1.7038463354110718, -0.81591796875, 0.00732421875, 0.483154296875, 0, 
273, 1972667859, 0.7608987, 0.18482639, -0.62173474, 0.017844005, 9.482253074645996, 2.549048900604248, 1.5608351230621338, 2.1356699466705322, -3.4268505573272705, -1.2648190259933472, -0.81982421875, 0.00732421875, 0.482421875, 0, 
274, 1972684526, 0.76065785, 0.18485267, -0.62203616, 0.017324258, 9.542852401733398, 2.4803426265716553, 1.5332245826721191, 0.4667082726955414, -3.7090134620666504, -1.1507787704467773, -0.817626953125, 0.005615234375, 0.48583984375, 0, 
275, 1972701193, 0.7604374, 0.18486433, -0.6223163, 0.016811525, 9.545212745666504, 2.4445607662200928, 1.501539707183838, 0.12740397453308105, -3.571678400039673, -1.1354495286941528, -0.817626953125, 0.00732421875, 0.484130859375, 0, 
276, 1972717860, 0.76019585, 0.1852795, -0.6224905, 0.016712507, 9.524106979370117, 2.495934009552002, 1.477061152458191, 1.6002497673034668, -3.2963292598724365, -1.235518455505371, -0.81494140625, 0.005126953125, 0.48583984375, 0, 
277, 1972734527, 0.75993586, 0.185716, -0.6226821, 0.016553214, 9.530237197875977, 2.4777066707611084, 1.4967671632766724, 2.95357346534729, -3.135660409927368, -1.3901550769805908, -0.813720703125, 0.00341796875, 0.4853515625, 0, 
278, 1972751194, 0.7596631, 0.18628468, -0.62284607, 0.016518407, 9.520407676696777, 2.48260760307312, 1.4765700101852417, 3.564897298812866, -3.074535846710205, -1.4509210586547852, -0.816650390625, 0.00390625, 0.4853515625, 0, 
279, 1972767861, 0.7593865, 0.18695317, -0.6229797, 0.016645735, 9.510912895202637, 2.5210180282592773, 1.4870375394821167, 3.6661441326141357, -3.0451321601867676, -1.2549068927764893, -0.817626953125, 0.001708984375, 0.48583984375, 0, 
280, 1972784528, 0.75914586, 0.18729179, -0.6231776, 0.016406728, 9.501553535461426, 2.5490763187408447, 1.529221773147583, 2.8502769470214844, -2.954425096511841, -1.285526990890503, -0.8193359375, 0.0029296875, 0.488037109375, 0, 
281, 1972801195, 0.7589192, 0.18777698, -0.62331015, 0.016308933, 9.555440902709961, 2.4893887042999268, 1.4629571437835693, 2.9000301361083984, -2.7533652782440186, -1.475278615951538, -0.817138671875, 0.00244140625, 0.487548828125, 0, 
282, 1972817862, 0.75864977, 0.18835656, -0.6234625, 0.016338179, 9.5518798828125, 2.4807839393615723, 1.4661169052124023, 3.543844223022461, -3.008852005004883, -1.2662919759750366, -0.817138671875, 0.00341796875, 0.48876953125, 0, 
283, 1972834529, 0.75835705, 0.18888564, -0.62365806, 0.0163622, 9.513339042663574, 2.541808843612671, 1.484512209892273, 3.448704957962036, -3.287748336791992, -1.0017895698547363, -0.816162109375, 0.004638671875, 0.488037109375, 0, 
284, 1972851196, 0.7581313, 0.18944831, -0.6237582, 0.016492566, 9.497695922851562, 2.580373764038086, 1.4270533323287964, 2.860560894012451, -2.688347816467285, -0.9071635603904724, -0.817626953125, 0.004150390625, 0.48876953125, 0, 
285, 1972867863, 0.75794584, 0.18989255, -0.6238487, 0.016488772, 9.500099182128906, 2.4890596866607666, 1.3666126728057861, 3.618478775024414, -2.0627057552337646, -0.8131006956100464, -0.816162109375, 0.0, 0.487060546875, 0, 
286, 1972884530, 0.75773007, 0.19069591, -0.6238538, 0.016940143, 9.537188529968262, 2.5367727279663086, 1.4130496978759766, 4.527435302734375, -2.0230190753936768, -0.5536313056945801, -0.817138671875, 0.005126953125, 0.48974609375, 0, 
287, 1972901197, 0.7575358, 0.19129981, -0.6238958, 0.017264849, 9.516862869262695, 2.6727051734924316, 1.493287205696106, 3.3738527297973633, -2.135420560836792, -0.24730347096920013, -0.817138671875, 0.00244140625, 0.487060546875, 0, 
288, 1972917864, 0.7574597, 0.19149058, -0.6239314, 0.017202415, 9.487204551696777, 2.6335949897766113, 1.4657354354858398, 1.136185646057129, -1.5666133165359497, -0.2544877827167511, -0.81884765625, 0.004638671875, 0.490234375, 0, 
289, 1972934531, 0.7573905, 0.19174948, -0.6239341, 0.01726644, 9.4464693069458, 2.5699524879455566, 1.3466849327087402, 1.3368099927902222, -1.4057400226593018, -0.04104434326291084, -0.818359375, 0.00244140625, 0.486328125, 0, 
290, 1972951198, 0.7573038, 0.19214094, -0.6239148, 0.017418101, 9.44622802734375, 2.602742910385132, 1.3726130723953247, 3.2055892944335938, -1.040131688117981, -0.06951286643743515, -0.818359375, 7.32421875E-4, 0.48876953125, 0, 
291, 1972967865, 0.75724363, 0.19262332, -0.623833, 0.01763226, 9.401564598083496, 2.6994330883026123, 1.418666124343872, 4.080429553985596, -0.48126259446144104, -0.20126459002494812, -0.8193359375, 0.001708984375, 0.487548828125, 0, 
292, 1972984532, 0.75722516, 0.19314934, -0.62368494, 0.017911196, 9.414239883422852, 2.701284885406494, 1.444143295288086, 3.616084098815918, -0.1386159211397171, -0.2834813594818115, -0.817138671875, 0.00244140625, 0.484130859375, 0, 
293, 1973001199, 0.7572486, 0.19362868, -0.62350094, 0.01814219, 9.43083667755127, 2.7021453380584717, 1.4080681800842285, 2.8445653915405273, 0.09251946955919266, -0.4277960956096649, -0.8193359375, 0.0, 0.48486328125, 0, 
294, 1973017866, 0.7572819, 0.19390583, -0.6233753, 0.018111207, 9.455154418945312, 2.7037341594696045, 1.3769657611846924, 2.9906222820281982, 0.176823690533638, -0.49823108315467834, -0.8154296875, 0.0029296875, 0.486328125, 0, 
295, 1973034533, 0.75727427, 0.19436447, -0.6232381, 0.018240213, 9.456171989440918, 2.721428394317627, 1.390255093574524, 3.7188808917999268, -0.018812529742717743, -0.5994268655776978, -0.8154296875, 0.001708984375, 0.487060546875, 0, 
296, 1973051200, 0.7572573, 0.19478886, -0.62312335, 0.018330188, 9.480154037475586, 2.8207931518554688, 1.4492387771606445, 3.410247564315796, -0.2127774953842163, -0.6225678324699402, -0.817138671875, 0.0029296875, 0.4853515625, 0, 
297, 1973067867, 0.7572862, 0.19517623, -0.6229647, 0.018414805, 9.485512733459473, 2.8013548851013184, 1.3965708017349243, 2.31705904006958, -0.025830408558249474, -0.6781089901924133, -0.816650390625, 7.32421875E-4, 0.487548828125, 0, 
298, 1973084534, 0.75730336, 0.19561566, -0.62280196, 0.018545741, 9.490326881408691, 2.741441011428833, 1.392106294631958, 2.4815053939819336, -0.08888886868953705, -0.7126092910766602, -0.81884765625, 0.0, 0.482421875, 0, 
299, 1973101201, 0.7572914, 0.19591439, -0.62272483, 0.018478123, 9.51085090637207, 2.7955663204193115, 1.4115631580352783, 2.507502555847168, -0.4522818922996521, -0.7881411910057068, -0.817626953125, 0.0029296875, 0.484619140625, 0, 
300, 1973117868, 0.7572609, 0.19647515, -0.6225781, 0.01870404, 9.511387825012207, 2.8095896244049072, 1.4544707536697388, 2.5311942100524902, -0.5629926919937134, -0.869307816028595, -0.816650390625, 7.32421875E-4, 0.48486328125, 0, 
301, 1973134535, 0.75727725, 0.19663441, -0.62251383, 0.018514218, 9.513958930969238, 2.81899094581604, 1.444284439086914, 0.7897611856460571, -0.666826605796814, -0.8790918588638306, -0.816650390625, -4.8828125E-4, 0.48486328125, 0, 
302, 1973151202, 0.75729555, 0.19693524, -0.62239677, 0.018503208, 9.495121955871582, 2.7780141830444336, 1.3766601085662842, 0.7148824334144592, -0.6157933473587036, -0.8638908267021179, -0.81982421875, -4.8828125E-4, 0.48486328125, 0, 
303, 1973167869, 0.75733346, 0.19714384, -0.622289, 0.01836037, 9.478540420532227, 2.795809030532837, 1.3160514831542969, 0.7858039736747742, -0.4144390821456909, -0.9738333225250244, -0.81884765625, -9.765625E-4, 0.48486328125, 0, 
304, 1973184536, 0.75742865, 0.19742376, -0.62208784, 0.018240837, 9.41972827911377, 2.774460792541504, 1.3148316144943237, 1.0413035154342651, 0.30099403858184814, -1.314430832862854, -0.817138671875, -9.765625E-4, 0.483154296875, 0, 
305, 1973201203, 0.7575165, 0.1977578, -0.6218793, 0.018077973, 9.416099548339844, 2.8027255535125732, 1.29323148727417, 1.1952742338180542, 0.2606540620326996, -1.7747424840927124, -0.81884765625, -0.00439453125, 0.4853515625, 0, 
306, 1973217870, 0.7575684, 0.19827545, -0.6216535, 0.01799619, 9.470315933227539, 2.7670083045959473, 1.2732598781585693, 2.1626405715942383, 0.17679807543754578, -2.2156782150268555, -0.81884765625, -0.00390625, 0.48193359375, 0, 
307, 1973234537, 0.75759923, 0.19878003, -0.6214588, 0.017855745, 9.522594451904297, 2.86106276512146, 1.2846989631652832, 2.0037648677825928, -0.10882838070392609, -2.401254892349243, -0.818115234375, -0.002685546875, 0.482421875, 0, 
308, 1973251204, 0.757637, 0.19929054, -0.6212542, 0.017683234, 9.47278881072998, 2.8175179958343506, 1.2556841373443604, 1.8669286966323853, -0.07199729233980179, -2.609741687774658, -0.8193359375, -0.00439453125, 0.483154296875, 0, 
309, 1973267871, 0.7576646, 0.19975516, -0.6210777, 0.017458621, 9.38542652130127, 2.809065580368042, 1.2327951192855835, 1.6529221534729004, -0.25068432092666626, -2.6119961738586426, -0.8203125, -0.006103515625, 0.479248046875, 0, 
310, 1973284538, 0.75764453, 0.20031738, -0.62092525, 0.01731112, 9.329251289367676, 2.792659282684326, 1.2626004219055176, 2.153432607650757, -0.5973522067070007, -2.6491212844848633, -0.81591796875, -0.006591796875, 0.4814453125, 0, 
311, 1973301205, 0.7576055, 0.20064133, -0.6208801, 0.016881319, 9.321976661682129, 2.8296380043029785, 1.3511637449264526, 1.7069777250289917, -1.0005089044570923, -2.6514523029327393, -0.81884765625, -0.006103515625, 0.4814453125, 0, 
312, 1973317872, 0.757604, 0.2009526, -0.62079054, 0.016538443, 9.339103698730469, 2.8253469467163086, 1.3305151462554932, 0.2651363015174866, -0.9927994608879089, -2.468411445617676, -0.81982421875, -0.0087890625, 0.4814453125, 0, 
313, 1973334539, 0.75759745, 0.20110784, -0.6207594, 0.016111484, 9.336359024047852, 2.7547495365142822, 1.3222072124481201, -0.02867341786623001, -1.151559829711914, -2.0281033515930176, -0.81982421875, -0.00830078125, 0.4814453125, 0, 
314, 1973351206, 0.7575735, 0.20128551, -0.6207397, 0.015777027, 9.430342674255371, 2.775719165802002, 1.2844589948654175, 0.23488764464855194, -1.2371444702148438, -1.6673610210418701, -0.822265625, -0.010498046875, 0.48486328125, 0, 
315, 1973367873, 0.75756216, 0.20139419, -0.62072617, 0.015465278, 9.468194007873535, 2.849461793899536, 1.3185316324234009, 0.0452384352684021, -1.1429924964904785, -1.2385022640228271, -0.820556640625, -0.010498046875, 0.4814453125, 0, 
316, 1973384540, 0.7576413, 0.20127824, -0.62067676, 0.015071009, 9.487215042114258, 2.8569207191467285, 1.3381234407424927, -1.9874815940856934, -0.7745152115821838, -0.829147219657898, -0.820556640625, -0.010009765625, 0.483154296875, 0, 
317, 1973401207, 0.7577451, 0.2010677, -0.62062764, 0.014682146, 9.450956344604492, 2.781054973602295, 1.3072738647460938, -2.399730682373047, -0.6230801343917847, -0.38693103194236755, -0.821044921875, -0.0087890625, 0.48193359375, 0, 
318, 1973417874, 0.7578309, 0.20089507, -0.6205832, 0.014486994, 9.47365951538086, 2.801563262939453, 1.3347424268722534, -2.0382843017578125, -0.6625749468803406, 0.36087653040885925, -0.820556640625, -0.01318359375, 0.48486328125, 0, 
319, 1973434541, 0.75795394, 0.2008145, -0.62045896, 0.014485957, 9.436138153076172, 2.8416879177093506, 1.3839991092681885, -2.033456325531006, -0.20538824796676636, 0.6664745211601257, -0.821533203125, -0.010498046875, 0.48486328125, 0, 
320, 1973451208, 0.7580987, 0.20047429, -0.6203994, 0.014176558, 9.390877723693848, 2.7663280963897705, 1.3489784002304077, -2.116825580596924, -0.05688581243157387, 0.6553713083267212, -0.821533203125, -0.010009765625, 0.4814453125, 0, 
321, 1973467875, 0.75820607, 0.20059903, -0.62022156, 0.01445909, 9.38209342956543, 2.7761645317077637, 1.354023814201355, -1.7128748893737793, -0.21699078381061554, 0.8881779313087463, -0.82177734375, -0.01220703125, 0.48486328125, 0, 
322, 1973484542, 0.75833195, 0.20027035, -0.6201784, 0.014255624, 9.384079933166504, 2.8310201168060303, 1.4008816480636597, -1.8521441221237183, -0.15480314195156097, 1.1316778659820557, -0.822265625, -0.010009765625, 0.484130859375, 0, 
323, 1973501209, 0.7584977, 0.19992861, -0.6200901, 0.014071654, 9.368132591247559, 2.822777032852173, 1.391209602355957, -2.11907958984375, 0.2090572565793991, 1.1882179975509644, -0.820556640625, -0.01220703125, 0.48583984375, 0, 
324, 1973517876, 0.7586619, 0.19990775, -0.61989194, 0.014250319, 9.40555191040039, 2.773341655731201, 1.3599642515182495, -0.8111413717269897, 0.6663591861724854, 1.2591137886047363, -0.8193359375, -0.01171875, 0.484130859375, 0, 
325, 1973534543, 0.7588228, 0.20000485, -0.6196572, 0.014531913, 9.443544387817383, 2.8153305053710938, 1.3836373090744019, 0.4686676263809204, 1.0407912731170654, 1.272304654121399, -0.81884765625, -0.01123046875, 0.48095703125, 0, 
326, 1973551210, 0.75894403, 0.20011896, -0.619466, 0.014773784, 9.4105806350708, 2.812016725540161, 1.4616771936416626, 1.7694727182388306, 0.9916403889656067, 1.2634297609329224, -0.820556640625, -0.01171875, 0.483642578125, 0, 
327, 1973567877, 0.7589991, 0.20010202, -0.6194022, 0.014847074, 9.422173500061035, 2.8168439865112305, 1.5523242950439453, 2.098723888397217, 0.3213305175304413, 1.3772010803222656, -0.82275390625, -0.010986328125, 0.480224609375, 0, 
328, 1973584544, 0.7590429, 0.2001457, -0.61932904, 0.015078559, 9.44228458404541, 2.9027512073516846, 1.6354314088821411, 1.3466198444366455, 0.0035409557167440653, 1.6585184335708618, -0.82177734375, -0.0087890625, 0.48583984375, 0, 
329, 1973601211, 0.75909674, 0.19982864, -0.6193675, 0.014983336, 9.455799102783203, 2.8597912788391113, 1.614522933959961, -0.16039949655532837, -0.4161422848701477, 1.9205102920532227, -0.81884765625, -0.0126953125, 0.482421875, 0, 
330, 1973617878, 0.7591658, 0.19996075, -0.61922866, 0.015454276, 9.463080406188965, 2.813844919204712, 1.4801141023635864, -0.08347178250551224, -0.09953095018863678, 1.980303406715393, -0.821533203125, -0.010986328125, 0.479736328125, 0, 
331, 1973634545, 0.75921094, 0.19967583, -0.61926633, 0.015416505, 9.425975799560547, 2.8562724590301514, 1.5314944982528687, 0.6035696864128113, -0.2782436013221741, 2.133582830429077, -0.818359375, -0.01220703125, 0.483154296875, 0, 
332, 1973651212, 0.7592892, 0.19913468, -0.61935323, 0.015066242, 9.467249870300293, 2.9088892936706543, 1.582531213760376, 0.31517061591148376, -0.07326512038707733, 2.033193588256836, -0.8193359375, -0.010498046875, 0.482421875, 0, 
333, 1973667879, 0.75942224, 0.19884066, -0.61928433, 0.015073059, 9.450140953063965, 2.8674449920654297, 1.618323802947998, -0.993427038192749, 0.22145381569862366, 1.9933274984359741, -0.81982421875, -0.010009765625, 0.483154296875, 0, 
334, 1973684546, 0.7595666, 0.19861928, -0.61917526, 0.015197898, 9.449461936950684, 2.82893705368042, 1.5490905046463013, -1.5336884260177612, 0.20828886330127716, 2.0221292972564697, -0.81982421875, -0.0126953125, 0.48095703125, 0, 
335, 1973701213, 0.7597322, 0.19839713, -0.619041, 0.01529315, 9.436721801757812, 2.876662015914917, 1.5168007612228394, -1.5152729749679565, 0.4405832886695862, 1.857029676437378, -0.821533203125, -0.0087890625, 0.4814453125, 0, 
336, 1973717880, 0.7599216, 0.19834137, -0.6188218, 0.015476761, 9.423648834228516, 2.897908926010132, 1.4403005838394165, -0.5889896154403687, 1.000771403312683, 1.451734185218811, -0.8193359375, -0.009521484375, 0.48193359375, 0, 
337, 1973734547, 0.76012707, 0.19830939, -0.61857677, 0.015590011, 9.394563674926758, 2.8354625701904297, 1.431161880493164, 0.3285404443740845, 1.4368531703948975, 1.121010184288025, -0.8193359375, -0.010498046875, 0.4814453125, 0, 
338, 1973751214, 0.76032156, 0.19833887, -0.61832607, 0.015682517, 9.351240158081055, 2.864276647567749, 1.46560800075531, 0.3071795105934143, 1.3061388731002808, 0.6976195573806763, -0.81884765625, -0.00732421875, 0.479248046875, 0, 
339, 1973767881, 0.7605074, 0.198437, -0.61806464, 0.015736058, 9.323748588562012, 2.836348533630371, 1.4806628227233887, 0.01816580630838871, 1.1215095520019531, 0.11863160878419876, -0.818115234375, -0.00830078125, 0.479248046875, 0, 
340, 1973784548, 0.7606517, 0.19849186, -0.61787236, 0.0156155, 9.302412033081055, 2.848395586013794, 1.4805161952972412, 0.5077781677246094, 0.7676061987876892, -0.28504371643066406, -0.820556640625, -0.010009765625, 0.480224609375, 0, 
341, 1973801215, 0.7607901, 0.19861631, -0.61766464, 0.015510933, 9.333486557006836, 2.8438305854797363, 1.4207344055175781, 0.6960570812225342, 0.7622275352478027, -0.561519980430603, -0.8203125, -0.010009765625, 0.4775390625, 0, 
342, 1973817882, 0.7609208, 0.19889507, -0.61741424, 0.015495585, 9.376495361328125, 2.8180387020111084, 1.3488779067993164, 1.5457453727722168, 0.9562692046165466, -0.8604328632354736, -0.820556640625, -0.010009765625, 0.480224609375, 0, 
343, 1973834549, 0.76100194, 0.1991361, -0.61724097, 0.0153142465, 9.385580062866211, 2.765470504760742, 1.3295938968658447, 3.014864444732666, 0.8135426044464111, -1.0874513387680054, -0.81982421875, -0.010986328125, 0.480712890625, 0, 
344, 1973851216, 0.7610332, 0.19966833, -0.61702687, 0.015457634, 9.41513442993164, 2.8376567363739014, 1.3836530447006226, 3.0902037620544434, 0.37012267112731934, -1.151124358177185, -0.821533203125, -0.013427734375, 0.480712890625, 0, 
345, 1973867883, 0.7610814, 0.19999339, -0.6168643, 0.015375924, 9.436440467834473, 2.855510950088501, 1.3780559301376343, 1.914991021156311, 0.15626949071884155, -1.2410377264022827, -0.821044921875, -0.01171875, 0.476318359375, 0, 
346, 1973884550, 0.76113224, 0.20022696, -0.6167296, 0.015228702, 9.427888870239258, 2.7964670658111572, 1.346042513847351, 0.7663767337799072, -0.16981220245361328, -1.2125691175460815, -0.8193359375, -0.01171875, 0.476806640625, 0, 
347, 1973901217, 0.7611413, 0.20050736, -0.61662954, 0.015129591, 9.378201484680176, 2.7387731075286865, 1.3149957656860352, 1.3359006643295288, -0.4399365186691284, -1.0988743305206299, -0.82373046875, -0.01220703125, 0.479248046875, 0, 
348, 1973917884, 0.76108694, 0.20088837, -0.61657333, 0.01510285, 9.376886367797852, 2.7739951610565186, 1.322037696838379, 2.2352652549743652, -0.8479853272438049, -1.085107684135437, -0.821533203125, -0.01513671875, 0.475341796875, 0, 
349, 1973934551, 0.7610353, 0.20101666, -0.61660177, 0.014833148, 9.394556045532227, 2.7756824493408203, 1.328112244606018, 2.0334115028381348, -0.9318284392356873, -0.825394868850708, -0.821533203125, -0.013427734375, 0.478515625, 0, 
350, 1973951218, 0.76099056, 0.20117122, -0.6166106, 0.014665358, 9.395331382751465, 2.795874834060669, 1.3548842668533325, 0.9855702519416809, -1.1413018703460693, -0.6943603157997131, -0.824951171875, -0.01318359375, 0.478515625, 0, 
351, 1973967885, 0.7609598, 0.20132193, -0.6166015, 0.014571125, 9.383644104003906, 2.750492811203003, 1.3967108726501465, 0.6183225512504578, -1.075515627861023, -0.4216618537902832, -0.82373046875, -0.01220703125, 0.476318359375, 0, 
352, 1973984552, 0.76089907, 0.20177266, -0.6165214, 0.014899529, 9.381484031677246, 2.7567596435546875, 1.4111024141311646, 0.3091388940811157, -1.3983893394470215, -0.17948098480701447, -0.8232421875, -0.013916015625, 0.478515625, 0, 
353, 1974001219, 0.7608284, 0.20183124, -0.6165919, 0.014798543, 9.360780715942383, 2.735346794128418, 1.4287657737731934, 0.14542250335216522, -1.6580125093460083, 0.036081891506910324, -0.82421875, -0.014404296875, 0.476318359375, 0, 
354, 1974017886, 0.7607124, 0.20182212, -0.61674345, 0.014567955, 9.39587688446045, 2.73008131980896, 1.3843119144439697, 0.742031991481781, -2.0079972743988037, -0.0049176388420164585, -0.820556640625, -0.01513671875, 0.479736328125, 0, 
355, 1974034553, 0.7605737, 0.2019793, -0.61686474, 0.014493185, 9.405059814453125, 2.662264585494995, 1.381341814994812, 1.9907920360565186, -1.84046471118927, 6.723332917317748E-4, -0.81982421875, -0.01611328125, 0.4775390625, 0, 
356, 1974051220, 0.7603979, 0.20252474, -0.6168922, 0.014923133, 9.40776538848877, 2.72981858253479, 1.405824065208435, 2.3406615257263184, -2.018588066101074, 0.23600181937217712, -0.820556640625, -0.014404296875, 0.480224609375, 0, 
357, 1974067887, 0.76020116, 0.20271887, -0.6170704, 0.014948882, 9.401073455810547, 2.798527479171753, 1.5173972845077515, 2.5706889629364014, -2.277456045150757, 0.4263298213481903, -0.81982421875, -0.014404296875, 0.48095703125, 0, 
358, 1974084554, 0.7600288, 0.2028031, -0.6172541, 0.01498987, 9.450986862182617, 2.8173024654388428, 1.572536587715149, 0.0020554191432893276, -2.7855732440948486, 0.6511964797973633, -0.820556640625, -0.01611328125, 0.479248046875, 0, 
359, 1974101221, 0.7598951, 0.20275617, -0.6174347, 0.0149684595, 9.47297477722168, 2.7667043209075928, 1.4374481439590454, -1.1653138399124146, -2.7305572032928467, 0.8431252837181091, -0.8232421875, -0.014892578125, 0.4814453125, 0, 
360, 1974117888, 0.7597469, 0.2026496, -0.61765444, 0.014862273, 9.462079048156738, 2.694129228591919, 1.4055354595184326, -0.6578493714332581, -2.7525198459625244, 0.8954775333404541, -0.821533203125, -0.013916015625, 0.482421875, 0, 
361, 1974134555, 0.75956744, 0.20275742, -0.61783737, 0.014963337, 9.468890190124512, 2.7502849102020264, 1.4036881923675537, 0.9480733871459961, -2.5597589015960693, 0.9468183517456055, -0.821533203125, -0.014404296875, 0.48193359375, 0, 
362, 1974151222, 0.7593646, 0.20297934, -0.6180094, 0.015138522, 9.406875610351562, 2.7577340602874756, 1.4697951078414917, 2.946824312210083, -2.189143180847168, 0.9962380528450012, -0.81884765625, -0.013916015625, 0.48095703125, 0, 
363, 1974167889, 0.75913334, 0.20339574, -0.6181487, 0.01546768, 9.393580436706543, 2.7237234115600586, 1.4370131492614746, 4.560616970062256, -1.9736124277114868, 0.9114728569984436, -0.821044921875, -0.0126953125, 0.48193359375, 0, 
364, 1974184556, 0.75884646, 0.20405576, -0.6182682, 0.016060557, 9.416058540344238, 2.7302725315093994, 1.4283357858657837, 6.7464823722839355, -1.8496854305267334, 1.1842480897903442, -0.822265625, -0.0126953125, 0.482421875, 0, 
365, 1974201223, 0.7585372, 0.20482962, -0.6183728, 0.016775984, 9.451672554016113, 2.8024420738220215, 1.4351880550384521, 7.5333428382873535, -1.817989706993103, 1.257257103919983, -0.8193359375, -0.013916015625, 0.48193359375, 0, 
366, 1974217890, 0.7582633, 0.20532896, -0.61853176, 0.01719, 9.431878089904785, 2.876802444458008, 1.4576046466827393, 6.610517978668213, -1.786652684211731, 1.196401596069336, -0.821044921875, -0.01171875, 0.482421875, 0, 
367, 1974234557, 0.758047, 0.20563182, -0.6186876, 0.017490687, 9.448982238769531, 2.9095749855041504, 1.524403691291809, 3.7216084003448486, -2.0572891235351562, 1.2346664667129517, -0.818359375, -0.0126953125, 0.48095703125, 0, 
368, 1974251224, 0.7578231, 0.2057936, -0.61890143, 0.017730555, 9.389081001281738, 2.829474925994873, 1.5432214736938477, 1.896998405456543, -2.7206194400787354, 1.4654115438461304, -0.820068359375, -0.0126953125, 0.483154296875, 0, 
369, 1974267891, 0.7575776, 0.20566821, -0.6192447, 0.017687961, 9.40110969543457, 2.8869619369506836, 1.5909594297409058, 0.4970080554485321, -3.4662954807281494, 1.5931934118270874, -0.820068359375, -0.0126953125, 0.48486328125, 0, 
370, 1974284558, 0.7573341, 0.2055103, -0.6195964, 0.017633177, 9.405073165893555, 2.818988084793091, 1.549559473991394, -0.28024137020111084, -3.688178062438965, 1.5953192710876465, -0.820068359375, -0.010986328125, 0.483642578125, 0, 
371, 1974301225, 0.7570714, 0.20516194, -0.6200404, 0.01737135, 9.384526252746582, 2.770674228668213, 1.5443673133850098, -0.5831884741783142, -4.048920154571533, 1.7034046649932861, -0.816650390625, -0.010009765625, 0.4853515625, 0, 
372, 1974317892, 0.7568054, 0.20488472, -0.6204604, 0.017224997, 9.36583137512207, 2.817009925842285, 1.5128427743911743, -0.9901103377342224, -4.173666477203369, 1.7723796367645264, -0.815673828125, -0.01220703125, 0.48583984375, 0, 
373, 1974334559, 0.7565823, 0.20468019, -0.6208007, 0.017205035, 9.407500267028809, 2.880950927734375, 1.5694689750671387, -2.3228158950805664, -4.079052925109863, 1.6641916036605835, -0.819580078125, -0.0126953125, 0.486328125, 0, 
374, 1974351226, 0.75643027, 0.2042207, -0.62114495, 0.016918717, 9.420581817626953, 2.7791225910186768, 1.5907613039016724, -3.297071695327759, -3.6651904582977295, 1.6035536527633667, -0.816650390625, -0.01220703125, 0.487060546875, 0, 
375, 1974367893, 0.75630593, 0.20351483, -0.6215439, 0.016325446, 9.387941360473633, 2.700584888458252, 1.5173290967941284, -2.4310550689697266, -3.184631824493408, 1.6486319303512573, -0.817138671875, -0.01220703125, 0.48583984375, 0, 
376, 1974384560, 0.75615513, 0.20322305, -0.6218266, 0.016175596, 9.423955917358398, 2.7599024772644043, 1.51913321018219, -0.5091933012008667, -2.7764806747436523, 1.70570969581604, -0.8173828125, -0.013916015625, 0.490966796875, 0, 
377, 1974401227, 0.7560444, 0.20320198, -0.621964, 0.016336419, 9.439846992492676, 2.830733299255371, 1.5488183498382568, -0.016071971505880356, -2.117785930633545, 1.6152584552764893, -0.816650390625, -0.010009765625, 0.491455078125, 0, 
378, 1974417894, 0.75600475, 0.20315751, -0.6220232, 0.0164693, 9.449544906616211, 2.798105001449585, 1.5782254934310913, -0.1657525599002838, -1.3850963115692139, 1.4967868328094482, -0.814453125, -0.0126953125, 0.48974609375, 0, 
379, 1974434561, 0.75602114, 0.20288257, -0.62209564, 0.016365925, 9.472792625427246, 2.73929762840271, 1.514072060585022, -0.3584880828857422, -0.9016052484512329, 1.557142972946167, -0.81689453125, -0.010986328125, 0.491943359375, 0, 
380, 1974451228, 0.75605917, 0.20250317, -0.6221783, 0.016164988, 9.469148635864258, 2.739842414855957, 1.5488216876983643, -0.20888438820838928, -0.6485775709152222, 1.678957462310791, -0.814453125, -0.01171875, 0.490478515625, 0, 
381, 1974467895, 0.75612664, 0.20224713, -0.62218076, 0.016117562, 9.44804573059082, 2.7765209674835205, 1.5640182495117188, 0.06332100182771683, -0.20761656761169434, 1.6825815439224243, -0.815673828125, -0.00830078125, 0.4892578125, 0, 
382, 1974484562, 0.7562061, 0.2021693, -0.6221054, 0.016272206, 9.434704780578613, 2.776271104812622, 1.5960668325424194, -0.21432702243328094, -0.09965900331735611, 1.5795414447784424, -0.81396484375, -0.0126953125, 0.4931640625, 0, 
383, 1974501229, 0.75632244, 0.20168546, -0.6221301, 0.015926039, 9.447991371154785, 2.7786972522735596, 1.5454325675964355, -0.21066445112228394, 0.14817586541175842, 1.4430769681930542, -0.815673828125, -0.00927734375, 0.491943359375, 0, 
384, 1974517896, 0.7564596, 0.20147407, -0.6220322, 0.015911207, 9.449268341064453, 2.759720802307129, 1.5342440605163574, -0.14945009350776672, 0.4922184348106384, 1.4460736513137817, -0.815673828125, -0.010986328125, 0.490478515625, 0, 
385, 1974534563, 0.756623, 0.20146154, -0.6218328, 0.016101325, 9.452607154846191, 2.7612667083740234, 1.4908902645111084, -0.07582638412714005, 0.8489007949829102, 1.2428113222122192, -0.815673828125, -0.010498046875, 0.491455078125, 0, 
386, 1974551230, 0.7568385, 0.2012143, -0.62165266, 0.01601601, 9.45470142364502, 2.7552175521850586, 1.5028945207595825, 0.08984294533729553, 1.396628499031067, 1.2220523357391357, -0.814453125, -0.010498046875, 0.48974609375, 0, 
387, 1974567897, 0.757077, 0.20096335, -0.6214448, 0.015951771, 9.429384231567383, 2.771742105484009, 1.5330727100372314, -0.10346249490976334, 1.5959208011627197, 1.27053701877594, -0.815185546875, -0.010009765625, 0.490966796875, 0, 
388, 1974584564, 0.75732964, 0.20060374, -0.6212576, 0.015783112, 9.442795753479004, 2.7775096893310547, 1.5195499658584595, -0.5595093965530396, 1.5836268663406372, 1.3044483661651611, -0.815673828125, -0.009521484375, 0.4892578125, 0, 
389, 1974601231, 0.7576257, 0.20027563, -0.621004, 0.015720638, 9.461896896362305, 2.747084617614746, 1.498264193534851, -1.3862489461898804, 1.8465923070907593, 1.4242645502090454, -0.814453125, -0.009521484375, 0.48974609375, 0, 
390, 1974617898, 0.7579091, 0.19987516, -0.62079173, 0.01553347, 9.422689437866211, 2.695326566696167, 1.4161297082901, -0.5968656539916992, 1.908139705657959, 1.3919286727905273, -0.816650390625, -0.010498046875, 0.48876953125, 0, 
391, 1974634565, 0.75817513, 0.19944812, -0.6206092, 0.015331114, 9.436955451965332, 2.7505884170532227, 1.4403918981552124, 0.07784339785575867, 1.9132879972457886, 1.5965484380722046, -0.814453125, -0.01220703125, 0.487548828125, 0, 
392, 1974651232, 0.7584493, 0.19945516, -0.62026465, 0.015627015, 9.449070930480957, 2.7600269317626953, 1.4918535947799683, 0.07305380702018738, 2.12359356880188, 1.4343174695968628, -0.813232421875, -0.010498046875, 0.486572265625, 0, 
393, 1974667899, 0.7587623, 0.19928114, -0.6199353, 0.015724298, 9.435490608215332, 2.754364490509033, 1.471524953842163, -0.9711439609527588, 2.1981523036956787, 1.3164864778518677, -0.816162109375, -0.0087890625, 0.48974609375, 0, 
394, 1974684566, 0.7590489, 0.19899447, -0.6196793, 0.01561323, 9.43492317199707, 2.699613332748413, 1.4402718544006348, -0.20241716504096985, 2.08418869972229, 1.1602745056152344, -0.81494140625, -0.0087890625, 0.487060546875, 0, 
395, 1974701233, 0.7592843, 0.19883156, -0.6194429, 0.015625702, 9.429832458496094, 2.7042436599731445, 1.4326618909835815, 0.5817989110946655, 1.7887203693389893, 1.24076247215271, -0.815673828125, -0.010986328125, 0.488037109375, 0, 
396, 1974717900, 0.75949335, 0.198851, -0.6191741, 0.015857855, 9.467570304870605, 2.7530720233917236, 1.4301719665527344, 0.34221765398979187, 1.4804332256317139, 1.2139458656311035, -0.815673828125, -0.007080078125, 0.487060546875, 0, 
397, 1974734567, 0.7597005, 0.19858237, -0.6190103, 0.015704935, 9.454559326171875, 2.757699966430664, 1.4697555303573608, -0.09763561189174652, 1.2419533729553223, 1.0206469297409058, -0.816162109375, -0.00830078125, 0.486328125, 0, 
398, 1974751234, 0.759866, 0.19832234, -0.6188947, 0.015536187, 9.413905143737793, 2.743056535720825, 1.4471781253814697, 0.22387418150901794, 0.8717089891433716, 1.0110421180725098, -0.81787109375, -0.006591796875, 0.48583984375, 0, 
399, 1974767901, 0.7599749, 0.19815283, -0.618818, 0.01542876, 9.41297435760498, 2.7446722984313965, 1.446423888206482, 0.3689573109149933, 0.31670743227005005, 0.9124971628189087, -0.817626953125, -0.0078125, 0.483642578125, 0, 
400, 1974784568, 0.7600564, 0.19824402, -0.61868465, 0.015587046, 9.414243698120117, 2.720749855041504, 1.476347804069519, 0.1959819793701172, 0.03416093811392784, 0.6826872229576111, -0.816162109375, -0.00830078125, 0.486328125, 0, 
401, 1974801235, 0.76014227, 0.19811401, -0.6186244, 0.0154382745, 9.410961151123047, 2.707385540008545, 1.4291661977767944, -0.4572634994983673, -0.19498945772647858, 0.39747706055641174, -0.816650390625, -0.010498046875, 0.486328125, 0, 
402, 1974817902, 0.76017344, 0.19809829, -0.61859417, 0.015321787, 9.433358192443848, 2.675811767578125, 1.4049750566482544, 1.1024538278579712, -0.337101548910141, 0.23591214418411255, -0.8173828125, -0.0087890625, 0.490966796875, 0, 
403, 1974834569, 0.7601315, 0.19798857, -0.61868805, 0.015033624, 9.424748420715332, 2.715261936187744, 1.4414036273956299, 2.1135408878326416, -0.8866092562675476, 0.25632548332214355, -0.816650390625, -0.009521484375, 0.4814453125, 0, 
404, 1974851236, 0.7600828, 0.1980888, -0.6187162, 0.01500862, 9.451988220214844, 2.7683944702148438, 1.4702950716018677, 1.758894443511963, -0.9832714796066284, 0.24915394186973572, -0.8154296875, -0.010009765625, 0.483154296875, 0, 
405, 1974867903, 0.76006716, 0.19817084, -0.61870956, 0.0149845425, 9.437597274780273, 2.7044010162353516, 1.4248124361038208, 0.3883589506149292, -1.02549409866333, 0.07789462804794312, -0.817138671875, -0.010986328125, 0.48583984375, 0, 
406, 1974884570, 0.76004493, 0.19818594, -0.6187345, 0.014896959, 9.423075675964355, 2.6819982528686523, 1.4068080186843872, 0.2540459930896759, -1.160332202911377, 0.14117079973220825, -0.817626953125, -0.0078125, 0.48486328125, 0, 
407, 1974901237, 0.7599846, 0.19824971, -0.61878955, 0.014834355, 9.435522079467773, 2.7013747692108154, 1.4488158226013184, 0.7348475456237793, -1.4133601188659668, 0.13854551315307617, -0.81494140625, -0.00830078125, 0.4814453125, 0, 
408, 1974917904, 0.7599616, 0.19826333, -0.6188162, 0.014717621, 9.432888984680176, 2.6942451000213623, 1.4295296669006348, 0.5091996788978577, -1.080843210220337, 0.0728873461484909, -0.817138671875, -0.0087890625, 0.483642578125, 0, 
409, 1974934571, 0.7599285, 0.1984638, -0.6187909, 0.014790702, 9.415700912475586, 2.660221576690674, 1.3834000825881958, 1.3054345846176147, -0.9090972542762756, 0.03532631695270538, -0.817138671875, -0.0078125, 0.48583984375, 0, 
410, 1974951238, 0.75988775, 0.1986004, -0.61879754, 0.014776382, 9.395440101623535, 2.694058656692505, 1.4210249185562134, 2.0405831336975098, -0.797182559967041, 0.1201043576002121, -0.817626953125, -0.007080078125, 0.4853515625, 0, 
411, 1974967905, 0.75985086, 0.19899678, -0.6187079, 0.015088607, 9.386356353759766, 2.6989171504974365, 1.4560649394989014, 1.2731239795684814, -0.8905150890350342, 0.03405848890542984, -0.818359375, -0.0078125, 0.482421875, 0, 
412, 1974984572, 0.759852, 0.1990177, -0.61870193, 0.01499702, 9.4523286819458, 2.789262294769287, 1.4496591091156006, 0.467502236366272, -0.8122556805610657, 0.09500391781330109, -0.817626953125, -0.0078125, 0.484130859375, 0, 
413, 1975001239, 0.75983816, 0.19902343, -0.61871856, 0.014934742, 9.46282958984375, 2.6864349842071533, 1.4610956907272339, -0.19661588966846466, -1.1666841506958008, 0.22767771780490875, -0.817138671875, -0.00830078125, 0.48486328125, 0, 
414, 1975017906, 0.7597748, 0.19897166, -0.61881584, 0.01482246, 9.455469131469727, 2.721273183822632, 1.5021392107009888, -0.4433813691139221, -1.8035306930541992, 0.3534744381904602, -0.81787109375, -0.0087890625, 0.4853515625, 0, 
415, 1975034573, 0.75972384, 0.19892699, -0.61889577, 0.014700702, 9.459976196289062, 2.7425098419189453, 1.4576482772827148, -0.479392945766449, -1.6802316904067993, 0.24277640879154205, -0.814453125, -0.01123046875, 0.4853515625, 0, 
416, 1975051240, 0.7596927, 0.1990162, -0.6189039, 0.014749484, 9.421117782592773, 2.6819357872009277, 1.384125828742981, -0.21197070181369781, -1.3458704948425293, 0.2705661654472351, -0.81787109375, -0.013916015625, 0.486572265625, 0, 
417, 1975067907, 0.75967354, 0.19915038, -0.6188831, 0.0148019735, 9.403807640075684, 2.6874959468841553, 1.3735469579696655, 0.7098240256309509, -0.9482206702232361, 0.1531703621149063, -0.816650390625, -0.0087890625, 0.483154296875, 0, 
418, 1975084574, 0.75962156, 0.19947572, -0.61883676, 0.0150228385, 9.397662162780762, 2.686225414276123, 1.4354571104049683, 1.6114932298660278, -0.9711180925369263, 0.07941856235265732, -0.818359375, -0.0078125, 0.487548828125, 0, 
419, 1975101241, 0.75956297, 0.19990204, -0.6187635, 0.015338985, 9.419816017150879, 2.726454257965088, 1.4810497760772705, 1.5984948873519897, -1.0181176662445068, -0.03964845836162567, -0.817138671875, -0.009521484375, 0.48583984375, 0, 
420, 1975117908, 0.7595107, 0.19996369, -0.61880994, 0.015245774, 9.40542984008789, 2.751831531524658, 1.5106157064437866, 0.9208598732948303, -1.2636922597885132, -0.0021002416033297777, -0.81884765625, -0.010009765625, 0.4853515625, 0, 
421, 1975134575, 0.7594448, 0.20003437, -0.61886835, 0.01523336, 9.43983268737793, 2.7413437366485596, 1.453481912612915, 0.4998510181903839, -1.5210869312286377, 0.26827380061149597, -0.816162109375, -0.0087890625, 0.483154296875, 0, 
422, 1975151242, 0.7592903, 0.2001675, -0.61901367, 0.015288115, 9.448457717895508, 2.7452585697174072, 1.5459966659545898, 1.2661702632904053, -2.2463746070861816, 0.4946901202201843, -0.819580078125, -0.011474609375, 0.4892578125, 0, 
423, 1975167909, 0.7591309, 0.19990183, -0.61930406, 0.014908558, 9.516637802124023, 2.7718701362609863, 1.5643779039382935, 0.37036606669425964, -2.701486825942993, 0.5748963356018066, -0.816650390625, -0.010498046875, 0.487060546875, 0, 
424, 1975184576, 0.7589671, 0.19987984, -0.6195148, 0.014786513, 9.46078109741211, 2.7395942211151123, 1.5109783411026, 0.33845263719558716, -2.685004949569702, 0.4039442837238312, -0.81787109375, -0.00927734375, 0.487548828125, 0, 
425, 1975201243, 0.7587447, 0.20010582, -0.61971194, 0.014872825, 9.407626152038574, 2.682023763656616, 1.4903274774551392, 1.8775326013565063, -2.8063833713531494, 0.31600308418273926, -0.818359375, -0.01171875, 0.487060546875, 0, 
426, 1975217910, 0.75846875, 0.2005626, -0.6198938, 0.015215478, 9.38675594329834, 2.6981329917907715, 1.5321640968322754, 3.1851377487182617, -2.9538872241973877, 0.4789383113384247, -0.816650390625, -0.010009765625, 0.48876953125, 0, 
427, 1975234577, 0.75824636, 0.20077255, -0.6200965, 0.015271611, 9.446803092956543, 2.768169403076172, 1.5889689922332764, 2.7611963748931885, -2.561859369277954, 0.3920344114303589, -0.818359375, -0.010009765625, 0.488037109375, 0, 
428, 1975251244, 0.75809425, 0.20073396, -0.6202973, 0.015175772, 9.458399772644043, 2.795893907546997, 1.663017988204956, 0.3396691679954529, -2.5498337745666504, 0.5943875312805176, -0.819091796875, -0.010986328125, 0.491455078125, 0, 
429, 1975267911, 0.75797015, 0.20047943, -0.6205383, 0.01488554, 9.464381217956543, 2.7347302436828613, 1.6048872470855713, -0.8300307989120483, -2.6562931537628174, 0.6664104461669922, -0.818359375, -0.010986328125, 0.4931640625, 0, 
430, 1975284578, 0.75781864, 0.20012516, -0.62084883, 0.014413004, 9.436131477355957, 2.706474542617798, 1.5615003108978271, 0.2643038034439087, -2.6807143688201904, 0.5947076082229614, -0.815673828125, -0.01171875, 0.48974609375, 0, 
431, 1975301245, 0.7576472, 0.2000322, -0.62109244, 0.014222171, 9.481063842773438, 2.7211050987243652, 1.55008864402771, 1.2969950437545776, -2.5207762718200684, 0.6172981262207031, -0.816650390625, -0.00830078125, 0.491943359375, 0, 
432, 1975317912, 0.75752115, 0.20008875, -0.62122834, 0.014209335, 9.479333877563477, 2.753220319747925, 1.5282416343688965, 0.49439555406570435, -2.198760747909546, 0.4272518754005432, -0.816650390625, -0.00830078125, 0.491943359375, 0, 
433, 1975334579, 0.75747144, 0.20009083, -0.62128997, 0.014119809, 9.46272087097168, 2.701993703842163, 1.4419059753417969, -0.27700138092041016, -1.6061339378356934, 0.13977490365505219, -0.816162109375, -0.013916015625, 0.490966796875, 0, 
434, 1975351246, 0.7574861, 0.19981262, -0.6213713, 0.013688131, 9.473172187805176, 2.6532607078552246, 1.3864705562591553, -0.2689589560031891, -1.0109717845916748, -0.005583568941801786, -0.8173828125, -0.011474609375, 0.491455078125, 0, 
435, 1975367913, 0.75756866, 0.19982104, -0.6212695, 0.013619553, 9.449019432067871, 2.7418243885040283, 1.3940414190292358, 0.005871711764484644, -0.0793481394648552, 0.01320975087583065, -0.8173828125, -0.010009765625, 0.4931640625, 0, 
436, 1975384580, 0.7577781, 0.19972545, -0.6210483, 0.0134700015, 9.437442779541016, 2.742751359939575, 1.4046282768249512, -0.6249370574951172, 1.1172324419021606, -0.06888536363840103, -0.816162109375, -0.00927734375, 0.490966796875, 0, 
437, 1975401247, 0.75803846, 0.19969952, -0.62074065, 0.0133901, 9.416070938110352, 2.669511318206787, 1.4242326021194458, -0.003841904690489173, 1.8864330053329468, -0.11602552235126495, -0.81787109375, -0.010498046875, 0.49365234375, 0, 
438, 1975417914, 0.75828457, 0.199738, -0.62042856, 0.013349852, 9.385499954223633, 2.687969446182251, 1.451062798500061, 0.7829098701477051, 1.9660245180130005, -0.1660471260547638, -0.818359375, -0.01220703125, 0.49267578125, 0, 
439, 1975434581, 0.7585312, 0.19970715, -0.6201401, 0.013198812, 9.425237655639648, 2.743516445159912, 1.5095171928405762, 0.47642821073532104, 1.845375657081604, -0.34561777114868164, -0.816650390625, -0.01220703125, 0.490478515625, 0, 
440, 1975451248, 0.7588469, 0.19950938, -0.6198234, 0.012905213, 9.458893775939941, 2.7108092308044434, 1.4648133516311646, -0.9134897589683533, 2.1634087562561035, -0.3904528021812439, -0.8173828125, -0.01318359375, 0.490478515625, 0, 
441, 1975467915, 0.7591395, 0.19926517, -0.6195501, 0.0125865275, 9.424450874328613, 2.7264459133148193, 1.4499858617782593, -0.23863352835178375, 2.0992491245269775, -0.11611517518758774, -0.81787109375, -0.0126953125, 0.48974609375, 0, 
442, 1975484582, 0.7593584, 0.19924086, -0.61929107, 0.012523282, 9.473307609558105, 2.763759136199951, 1.4978388547897339, 0.0711456760764122, 1.444549798965454, -0.0019593716133385897, -0.8173828125, -0.01220703125, 0.48876953125, 0, 
443, 1975501249, 0.75965166, 0.19903171, -0.61900383, 0.012254275, 9.496583938598633, 2.7836618423461914, 1.4698240756988525, -0.7461235523223877, 1.9854260683059692, -0.15057706832885742, -0.820068359375, -0.01318359375, 0.487548828125, 0, 
444, 1975517916, 0.75994873, 0.19893257, -0.6186737, 0.012126492, 9.466991424560547, 2.641068696975708, 1.3584954738616943, -0.7821222543716431, 2.0482540130615234, -0.13298113644123077, -0.8173828125, -0.01220703125, 0.48876953125, 0, 
445, 1975534583, 0.7602033, 0.19910638, -0.61830103, 0.012312988, 9.441633224487305, 2.7234883308410645, 1.4240893125534058, 0.2989065945148468, 1.9780110120773315, 0.013619552366435528, -0.819580078125, -0.01318359375, 0.487548828125, 0, 
446, 1975551250, 0.7604353, 0.19895236, -0.6180705, 0.012046901, 9.422131538391113, 2.7652525901794434, 1.4975529909133911, 0.41645607352256775, 1.6593763828277588, -0.1694023758172989, -0.816650390625, -0.0126953125, 0.48486328125, 0, 
447, 1975567917, 0.76069945, 0.19891621, -0.6177597, 0.01191786, 9.422933578491211, 2.7420494556427, 1.5065593719482422, 0.35503682494163513, 2.0355372428894043, -0.25626784563064575, -0.81884765625, -0.0166015625, 0.48486328125, 0, 
448, 1975584584, 0.76097023, 0.19875751, -0.6174825, 0.011636505, 9.410015106201172, 2.715442419052124, 1.4763758182525635, 0.8436247706413269, 2.201443672180176, -0.22640348970890045, -0.820068359375, -0.013916015625, 0.48486328125, 0, 
449, 1975601251, 0.76124585, 0.1988623, -0.61710864, 0.01164538, 9.466094970703125, 2.7898402214050293, 1.5345057249069214, 0.8759607672691345, 2.354607582092285, -0.3528405725955963, -0.817626953125, -0.013427734375, 0.482421875, 0, 
450, 1975617918, 0.7616061, 0.19885416, -0.6166694, 0.011497859, 9.40890884399414, 2.8018722534179688, 1.6347261667251587, -0.2821623384952545, 2.9169857501983643, -0.7504777908325195, -0.81884765625, -0.014404296875, 0.483642578125, 0, 
451, 1975634585, 0.7618734, 0.198599, -0.6164303, 0.011000546, 9.308601379394531, 2.7683801651000977, 1.7891724109649658, 0.5642926096916199, 2.056962490081787, -0.6862667202949524, -0.820556640625, -0.014404296875, 0.48486328125, 0, 
452, 1975651252, 0.76209885, 0.19829965, -0.6162573, 0.010469248, 9.369884490966797, 2.936958074569702, 1.891876459121704, -1.755071997642517, 0.8909314274787903, -0.9099040627479553, -0.821044921875, -0.01611328125, 0.4814453125, 0, 
453, 1975667919, 0.7624385, 0.1979452, -0.61596143, 0.00984884, 9.398829460144043, 2.9708545207977295, 1.8278694152832031, -3.9256837368011475, 1.4879121780395508, -1.5415003299713135, -0.817138671875, -0.016845703125, 0.48193359375, 0, 
454, 1975684586, 0.76279384, 0.19781697, -0.6155693, 0.009427615, 9.492701530456543, 2.8001084327697754, 1.7261842489242554, -2.9694342613220215, 1.979830026626587, -1.7689030170440674, -0.820556640625, -0.017333984375, 0.480224609375, 0, 
455, 1975701253, 0.7631778, 0.19778785, -0.61510813, 0.009041205, 9.526905059814453, 2.9552745819091797, 1.863206148147583, -0.9178823232650757, 2.9448652267456055, -1.852502703666687, -0.822265625, -0.017333984375, 0.48095703125, 0, 
456, 1975717920, 0.7636399, 0.19794188, -0.6144892, 0.008728835, 9.555229187011719, 3.050400495529175, 1.9556256532669067, -0.8971105813980103, 3.8453052043914795, -2.6449086666107178, -0.823974609375, -0.02001953125, 0.4814453125, 0, 
457, 1975734587, 0.7642608, 0.19774285, -0.61379117, 0.007984553, 9.465173721313477, 3.028277635574341, 2.0715866088867188, -2.1453967094421387, 5.144919395446777, -3.100750684738159, -0.8232421875, -0.022216796875, 0.479248046875, 0, 
458, 1975751254, 0.7649318, 0.19741273, -0.61307293, 0.007021618, 9.437416076660156, 2.9777169227600098, 2.078655242919922, -3.061422109603882, 5.391595363616943, -3.5940635204315186, -0.8232421875, -0.018310546875, 0.476806640625, 0, 
459, 1975767921, 0.7656619, 0.1974371, -0.6121595, 0.006435444, 9.493721008300781, 2.983196496963501, 2.1485679149627686, -3.1939938068389893, 6.12492561340332, -3.9410781860351562, -0.8271484375, -0.022705078125, 0.4775390625, 0, 
460, 1975784588, 0.76647776, 0.19751514, -0.61111844, 0.005829838, 9.55306625366211, 3.0458357334136963, 2.09594988822937, -2.926443576812744, 7.153264045715332, -4.438464164733887, -0.825439453125, -0.0234375, 0.47412109375, 0, 
461, 1975801255, 0.76744294, 0.19749966, -0.6099179, 0.005059092, 9.53654956817627, 3.043095588684082, 2.0010342597961426, -2.9391608238220215, 8.822713851928711, -4.880975246429443, -0.828857421875, -0.02490234375, 0.47412109375, 0, 
462, 1975817922, 0.76853704, 0.19763267, -0.60850084, 0.004380081, 9.494762420654297, 3.03151535987854, 1.9766912460327148, -2.606451988220215, 10.413674354553223, -5.437105178833008, -0.8291015625, -0.0283203125, 0.468017578125, 0, 
463, 1975834589, 0.7696592, 0.19784679, -0.6070156, 0.0037234155, 9.44579792022705, 2.961130380630493, 2.0820705890655518, -2.267659902572632, 10.866929054260254, -5.782581806182861, -0.83154296875, -0.030517578125, 0.468994140625, 0, 
464, 1975851256, 0.77084136, 0.19785438, -0.6055167, 0.002670886, 9.394356727600098, 2.8936469554901123, 2.0064470767974854, -1.4615256786346436, 11.789092063903809, -6.34110689163208, -0.831298828125, -0.03125, 0.464111328125, 0, 
465, 1975867923, 0.77200484, 0.1984121, -0.60385114, 0.0022711237, 9.377848625183105, 2.9413962364196777, 2.008617639541626, -0.7579954862594604, 11.918435096740723, -6.352530002593994, -0.834716796875, -0.032958984375, 0.458984375, 0, 
466, 1975884590, 0.77323365, 0.1990074, -0.6020815, 0.0019728295, 9.296695709228516, 2.921463966369629, 2.056081533432007, -0.9050124287605286, 12.662586212158203, -6.244942665100098, -0.8369140625, -0.033935546875, 0.456787109375, 0, 
467, 1975901257, 0.7744697, 0.19932884, -0.60038567, 0.0013514408, 9.226228713989258, 2.9380154609680176, 1.9812060594558716, -0.8500861525535583, 12.785466194152832, -6.143979072570801, -0.839111328125, -0.036865234375, 0.453857421875, 0, 
468, 1975917924, 0.77562624, 0.19996457, -0.59867954, 0.0010646441, 9.253201484680176, 2.920700788497925, 2.0808217525482178, 0.43237462639808655, 12.34673023223877, -6.073670864105225, -0.840087890625, -0.0390625, 0.4482421875, 0, 
469, 1975934591, 0.7767849, 0.20047943, -0.59700346, 6.803197E-4, 9.339388847351074, 2.939542055130005, 2.1433892250061035, 0.23203198611736298, 12.335833549499512, -5.873866558074951, -0.840576171875, -0.037353515625, 0.44775390625, 0, 
470, 1975951258, 0.7779767, 0.20103575, -0.5952619, 4.984326E-4, 9.377252578735352, 3.063019275665283, 2.1197545528411865, -0.3612802028656006, 12.591537475585938, -5.392398834228516, -0.841064453125, -0.043701171875, 0.445068359375, 0, 
471, 1975967925, 0.7791846, 0.20121068, -0.59362084, -2.5458256E-5, 9.319013595581055, 3.1036934852600098, 2.1976022720336914, -1.1285732984542847, 12.488192558288574, -4.9691877365112305, -0.841552734375, -0.044189453125, 0.441650390625, 0, 
472, 1975984592, 0.7804454, 0.20121108, -0.59196174, -7.1166607E-4, 9.315911293029785, 3.1364645957946777, 2.2756073474884033, -3.112687826156616, 12.482426643371582, -5.210241317749023, -0.84375, -0.04638671875, 0.43603515625, 0, 
473, 1976001259, 0.78174275, 0.20119905, -0.59025025, -0.0014355795, 9.298495292663574, 3.178978204727173, 2.3608880043029785, -2.9432213306427, 13.016158103942871, -5.31846809387207, -0.846435546875, -0.047607421875, 0.434326171875, 0, 
474, 1976017926, 0.78305674, 0.20131509, -0.5884647, -0.001980377, 9.242466926574707, 3.2128515243530273, 2.3706166744232178, -3.3067171573638916, 13.139330863952637, -5.385470867156982, -0.84912109375, -0.0498046875, 0.430908203125, 0, 
475, 1976034593, 0.7844264, 0.2011236, -0.586699, -0.0029600798, 9.214398384094238, 3.3614842891693115, 2.418501615524292, -4.083499908447266, 13.57232666015625, -5.800999164581299, -0.850341796875, -0.051513671875, 0.4287109375, 0, 
476, 1976051260, 0.7858799, 0.20121516, -0.5847152, -0.0036877955, 9.205320358276367, 3.367511510848999, 2.435380697250366, -4.693493843078613, 14.40456485748291, -6.619109630584717, -0.850830078125, -0.05322265625, 0.42138671875, 0, 
477, 1976067927, 0.7873411, 0.20126486, -0.58272153, -0.004713047, 9.115042686462402, 3.347444772720337, 2.5048584938049316, -4.280833721160889, 14.726004600524902, -7.590997219085693, -0.852294921875, -0.054931640625, 0.419677734375, 0, 
478, 1976084594, 0.78881586, 0.20167144, -0.5805753, -0.005556295, 9.077723503112793, 3.458766460418701, 2.5309088230133057, -3.1358048915863037, 15.352673530578613, -8.620169639587402, -0.856201171875, -0.05810546875, 0.415771484375, 0, 
479, 1976101261, 0.79027003, 0.20229375, -0.57836854, -0.0063863522, 9.001351356506348, 3.490145444869995, 2.55711030960083, -2.0887691974639893, 15.551222801208496, -9.549192428588867, -0.857177734375, -0.060546875, 0.411376953125, 0, 
480, 1976117928, 0.7917112, 0.202681, -0.5762427, -0.0076279636, 9.04636001586914, 3.595449924468994, 2.63578200340271, -3.3583407402038574, 15.052772521972656, -10.295035362243652, -0.859375, -0.06396484375, 0.40576171875, 0, 
481, 1976134595, 0.7932438, 0.20284136, -0.57405293, -0.00910707, 9.16639518737793, 3.6712899208068848, 2.6880903244018555, -7.551723480224609, 14.74953556060791, -11.276532173156738, -0.8603515625, -0.06787109375, 0.40283203125, 0, 
482, 1976151262, 0.7948379, 0.20265278, -0.57187766, -0.010994717, 9.179536819458008, 3.5274710655212402, 2.5781137943267822, -10.5858736038208, 14.515490531921387, -11.949201583862305, -0.865478515625, -0.07275390625, 0.39794921875, 0, 
483, 1976167929, 0.7963572, 0.20247968, -0.5697808, -0.012920828, 9.12682056427002, 3.5284390449523926, 2.6222548484802246, -11.032353401184082, 13.570109367370605, -12.253108024597168, -0.865966796875, -0.073974609375, 0.3955078125, 0, 
484, 1976184596, 0.7978562, 0.20251489, -0.56762815, -0.014544428, 9.099921226501465, 3.667482852935791, 2.7490220069885254, -12.595525741577148, 12.809948921203613, -12.624122619628906, -0.869140625, -0.08056640625, 0.3916015625, 0, 
485, 1976201263, 0.79938126, 0.20180556, -0.56565905, -0.01715273, 9.162994384765625, 3.6373536586761475, 2.7785074710845947, -15.320048332214355, 12.377816200256348, -13.325789451599121, -0.870849609375, -0.082763671875, 0.390625, 0, 
486, 1976217930, 0.80091304, 0.20114642, -0.56364435, -0.019583663, 9.223660469055176, 3.5721349716186523, 2.761323928833008, -17.20728874206543, 11.857405662536621, -13.462769508361816, -0.874267578125, -0.086669921875, 0.388916015625, 0, 
487, 1976234597, 0.8024834, 0.20083421, -0.56145245, -0.021384064, 9.254961013793945, 3.625424385070801, 2.8412203788757324, -19.044021606445312, 11.584081649780273, -13.500702857971191, -0.873779296875, -0.093505859375, 0.38720703125, 0, 
488, 1976251264, 0.80400884, 0.19930074, -0.5596712, -0.024843594, 9.021738052368164, 3.6494081020355225, 3.0186591148376465, -20.101778030395508, 11.22724437713623, -13.60855770111084, -0.878173828125, -0.099609375, 0.38427734375, 0, 
489, 1976267931, 0.8055448, 0.19828252, -0.55768657, -0.027704678, 8.771148681640625, 3.5865745544433594, 3.1398329734802246, -20.153493881225586, 11.31379222869873, -14.216813087463379, -0.876953125, -0.1064453125, 0.381591796875, 0, 
490, 1976284598, 0.8070078, 0.19741593, -0.5557255, -0.030572413, 8.671473503112793, 3.524644613265991, 3.177152633666992, -18.983732223510742, 10.99820327758789, -14.751081466674805, -0.88037109375, -0.108642578125, 0.381103515625, 0, 
491, 1976301265, 0.80858535, 0.19660442, -0.5535546, -0.033376493, 8.794270515441895, 3.5268032550811768, 3.1129705905914307, -20.382287979125977, 12.021835327148438, -15.456835746765137, -0.882568359375, -0.11181640625, 0.37939453125, 0, 
492, 1976317932, 0.81027734, 0.19561885, -0.5512273, -0.03650435, 8.822378158569336, 3.381751775741577, 2.965475559234619, -19.593042373657227, 14.10405158996582, -15.694109916687012, -0.8857421875, -0.11865234375, 0.37548828125, 0, 
493, 1976334599, 0.8119721, 0.19477147, -0.54881626, -0.0395784, 8.82853889465332, 3.3975071907043457, 2.929612636566162, -17.5374698638916, 15.11331844329834, -15.653076171875, -0.88916015625, -0.12353515625, 0.37158203125, 0, 
494, 1976351266, 0.8137468, 0.19440679, -0.5461202, -0.042131238, 8.846878051757812, 3.4304115772247314, 2.9246270656585693, -15.152076721191406, 16.985509872436523, -15.683709144592285, -0.88916015625, -0.12939453125, 0.365966796875, 0, 
495, 1976367933, 0.81551355, 0.19407496, -0.54339355, -0.04467944, 8.746854782104492, 3.377243995666504, 3.0243263244628906, -14.17099380493164, 17.463571548461914, -15.544759750366211, -0.891845703125, -0.134765625, 0.365966796875, 0, 
496, 1976384600, 0.81720734, 0.19371828, -0.54076, -0.047162578, 8.716263771057129, 3.3849146366119385, 3.067713975906372, -13.74001693725586, 16.83686065673828, -14.911404609680176, -0.895751953125, -0.14208984375, 0.3603515625, 0, 
497, 1976401267, 0.8188123, 0.19316886, -0.53829473, -0.049712967, 8.687027931213379, 3.3387298583984375, 3.130441665649414, -15.080689430236816, 15.337502479553223, -14.450257301330566, -0.8955078125, -0.14501953125, 0.353515625, 0, 
498, 1976417934, 0.8203585, 0.19249034, -0.5359361, -0.05226805, 8.661661148071289, 3.3274567127227783, 3.0410315990448, -15.700555801391602, 14.479883193969727, -13.877466201782227, -0.897705078125, -0.14892578125, 0.353515625, 0, 
499, 1976434601, 0.82172203, 0.19192353, -0.5338129, -0.054612376, 8.592541694641113, 3.328322649002075, 3.044848680496216, -14.063627243041992, 12.76290225982666, -12.898348808288574, -0.897705078125, -0.15380859375, 0.350341796875, 0, 
500, 1976451268, 0.8230194, 0.1911693, -0.531831, -0.057003476, 8.563427925109863, 3.445070743560791, 3.1493804454803467, -15.077901840209961, 11.628807067871094, -12.28606128692627, -0.898681640625, -0.158935546875, 0.341796875, 0, 
501, 1976467935, 0.8242358, 0.19014668, -0.5300355, -0.059515405, 8.608979225158691, 3.440737724304199, 3.2245423793792725, -16.89626693725586, 10.004356384277344, -11.793107032775879, -0.902099609375, -0.162353515625, 0.3408203125, 0, 
502, 1976484602, 0.8254059, 0.18879353, -0.5283932, -0.062152084, 8.63049030303955, 3.450209379196167, 3.254629611968994, -19.06583595275879, 8.690744400024414, -11.103395462036133, -0.90380859375, -0.16845703125, 0.341796875, 0, 
503, 1976501269, 0.82647157, 0.1873975, -0.5269098, -0.064754836, 8.55408763885498, 3.4100284576416016, 3.2780258655548096, -18.978099822998047, 7.443864822387695, -10.595532417297363, -0.906005859375, -0.171142578125, 0.339599609375, 0, 
504, 1976517936, 0.82742614, 0.18583983, -0.52563006, -0.06740163, 8.458267211914062, 3.4794399738311768, 3.506847858428955, -19.82608413696289, 5.760300636291504, -10.052362442016602, -0.906494140625, -0.177001953125, 0.335693359375, 0, 
505, 1976534603, 0.8282203, 0.1842304, -0.5245958, -0.07007014, 8.390145301818848, 3.464777946472168, 3.6750895977020264, -19.88148307800293, 3.7352793216705322, -9.753922462463379, -0.9072265625, -0.1796875, 0.339599609375, 0, 
506, 1976551270, 0.828895, 0.18249483, -0.52376235, -0.072813265, 8.473413467407227, 3.5181868076324463, 3.80430269241333, -20.621196746826172, 2.0064451694488525, -9.529068946838379, -0.909912109375, -0.18408203125, 0.333984375, 0, 
507, 1976567937, 0.82953995, 0.18054253, -0.5230243, -0.07558865, 8.521343231201172, 3.6587865352630615, 3.827488660812378, -21.89129066467285, 1.2045739889144897, -8.832991600036621, -0.909912109375, -0.18798828125, 0.337890625, 0, 
508, 1976584604, 0.83035475, 0.17821938, -0.5220888, -0.078563824, 8.545890808105469, 3.8141140937805176, 3.8085594177246094, -25.035221099853516, 2.5036027431488037, -8.796358108520508, -0.91162109375, -0.190673828125, 0.339111328125, 0, 
