sep=,
DeviceTag:,Xsens_4,,,,,,,,,,,,,,,,,
FirmwareVersion:,2.4.0,,,,,,,,,,,,,,,,,
AppVersion:,2022.0.1,,,,,,,,,,,,,,,,,
SyncStatus:,Synced,,,,,,,,,,,,,,,,,
OutputRate:,60Hz,,,,,,,,,,,,,,,,,
FilterProfile:,General,,,,,,,,,,,,,,,,,
Measurement Mode:,Sensor fusion Mode - Extended (Quaternion),,,,,,,,,,,,,,,,,
StartTime:,2020-11-25 10:44:53.665 +0100,,,,,,,,,,,,,,,,,
© Xsens Technologies B. V. 2005-2020,,,,,,,,,,,,,,,,,,,

PacketCounter,SampleTimeFine,Quat_W,Quat_X,Quat_Y,Quat_Z,FreeAcc_X,FreeAcc_Y,FreeAcc_Z,Status
1, 658162657, -0.9999399, -0.007550152, 0.0066047856, 0.00435772, -8.160318E-5, 0.0031635675, 0.43889236, 0
2, 658179324, -0.9999408, -0.007523629, 0.0065556914, 0.004258873, 0.0033907054, -0.0046422803, 0.4537754, 0
3, 658195991, -0.9999408, -0.0075239195, 0.0065563894, 0.0042637642, -0.008047898, 0.005318358, 0.4206648, 0
4, 658212658, -0.9999409, -0.007521586, 0.006552239, 0.004268162, -0.0011219513, -0.0075503094, 0.42761898, 0
5, 658229325, -0.9999409, -0.007527298, 0.006549063, 0.0042575616, -0.0019794237, 0.0019642669, 0.44701862, 0
6, 658245992, -0.9999408, -0.007526433, 0.006555301, 0.004256401, -4.1400886E-4, 0.0023764386, 0.4301548, 0
7, 658262659, -0.99994093, -0.007521314, 0.0065533468, 0.0042658094, -0.011642287, -9.907561E-4, 0.4270401, 0
8, 658279326, -0.99994075, -0.0075257192, 0.0065611647, 0.0042790975, -8.891904E-4, -0.007220048, 0.42144012, 0
9, 658295993, -0.9999408, -0.0075261537, 0.006571926, 0.004257543, -0.008367857, -0.013162608, 0.4344597, 0
10, 658312660, -0.9999408, -0.0075267744, 0.0065722857, 0.0042574573, -0.007917988, 0.012532644, 0.43378353, 0
11, 658329327, -0.99994075, -0.0075354753, 0.0065789474, 0.0042466354, -0.004650355, -0.0010700334, 0.44993877, 0
12, 658345994, -0.9999405, -0.0075349053, 0.006593438, 0.0042719264, -0.0075339302, 0.0076287277, 0.4448433, 0
13, 658362661, -0.9999406, -0.0075327856, 0.006593215, 0.0042608567, -0.017074147, 0.0050433464, 0.4432602, 0
14, 658379328, -0.9999406, -0.007521179, 0.0065878634, 0.00428937, -0.0057746386, -0.0037179005, 0.41172504, 0
15, 658395995, -0.9999405, -0.00751858, 0.006591298, 0.004303245, 0.008424021, -0.009775604, 0.44615936, 0
16, 658412662, -0.99994045, -0.007534314, 0.006586821, 0.004306862, -0.016886001, -0.008741634, 0.4361868, 0
17, 658429329, -0.99994045, -0.0075370185, 0.00658386, 0.004316563, -0.006661468, -7.797669E-4, 0.44806957, 0
18, 658445996, -0.9999404, -0.007536174, 0.006582221, 0.004305387, -5.095886E-4, 0.0033245457, 0.43831444, 0
20, 658479330, -0.99994045, -0.007523901, 0.0065916665, 0.0042901635, -0.0033212907, 0.007681463, 0.44653988, 0
24, 658545998, -0.9999407, -0.007507415, 0.0066000116, 0.0042626485, -0.024934053, 0.0048637744, 0.4191599, 0
26, 658579332, -0.9999408, -0.007503736, 0.0066071358, 0.0042535383, 0.015465713, 0.0042349487, 0.4312048, 0
29, 658629333, -0.9999406, -0.0075092944, 0.006617011, 0.0042670052, -0.008440094, -0.0031566455, 0.4465561, 0
32, 658679334, -0.99994093, -0.0074925665, 0.00661703, 0.004237419, -0.023803672, 0.009191537, 0.43101692, 0
35, 658729335, -0.999941, -0.007493161, 0.0066055553, 0.004194809, -0.0043294667, 0.0059528835, 0.42665672, 0
37, 658762669, -0.9999409, -0.0075100996, 0.006606145, 0.0042096395, -0.00443588, -0.00388659, 0.43853092, 0
40, 658812670, -0.99994105, -0.00748658, 0.0065991473, 0.0042270664, -0.0026178258, -0.003094076, 0.4260292, 0
43, 658862671, -0.9999411, -0.0074785277, 0.0066015967, 0.0042196605, 0.0015969931, -0.005026269, 0.44724464, 0
45, 658896005, -0.99994105, -0.007484678, 0.0065925643, 0.004214566, 0.0036109565, -0.00163235, 0.44972324, 0
48, 658946006, -0.9999413, -0.00746914, 0.006595964, 0.00420101, -0.008003798, 0.0015692532, 0.42554188, 0
52, 659012674, -0.99994135, -0.0074490737, 0.0065976745, 0.0041978434, 1.1084147E-4, 3.7003966E-4, 0.42931652, 0
55, 659062675, -0.9999416, -0.0074495897, 0.0065998766, 0.004139997, -0.009735847, 0.0061130514, 0.4394865, 0
57, 659096009, -0.99994165, -0.007459378, 0.0066058626, 0.0041197874, -0.011732136, 0.0028556085, 0.4247961, 0
60, 659146010, -0.9999415, -0.0074731437, 0.0066134464, 0.004105352, -0.002434964, -0.005161515, 0.4243183, 0
63, 659196011, -0.9999415, -0.007483135, 0.0066163363, 0.0040941257, -0.0077160513, 0.0085930675, 0.42237663, 0
66, 659246012, -0.99994147, -0.007480421, 0.006606642, 0.0041244775, -0.009820963, 0.009085697, 0.42769623, 0
68, 659279346, -0.9999416, -0.007478288, 0.006594111, 0.004125977, -0.005894351, -0.0027028583, 0.42515373, 0
71, 659329347, -0.9999415, -0.0074853683, 0.006590651, 0.004123524, -0.0025627925, 0.009045702, 0.4330883, 0
74, 659379348, -0.9999415, -0.0074865473, 0.0065902667, 0.004105499, -0.013729759, 0.0022632014, 0.4517107, 0
76, 659412682, -0.99994373, -0.0074449596, 0.0064916946, 0.0038094278, 0.033902843, -0.007253596, 0.42938423, 0
80, 659479350, -0.9999492, -0.007433187, 0.0064171413, 0.002134569, -0.03098529, 0.008096226, 0.45045757, 0
83, 659529351, -0.99995065, -0.007412031, 0.0065409793, 6.390009E-4, -0.14680304, -0.04954233, 0.4253168, 0
86, 659579352, -0.9999512, -0.0074456776, 0.0063889055, 9.0883113E-4, 9.866141E-4, 0.0036184653, 0.41654778, 0
88, 659612686, -0.99994874, -0.007465816, 0.0064250925, 0.002283264, 0.033521626, 0.037748404, 0.4538784, 0
91, 659662687, -0.99994504, -0.0074854665, 0.0065698973, 0.0032209437, 0.008166723, -0.0026890214, 0.439291, 0
94, 659712688, -0.9999273, -0.00757683, 0.0065822178, 0.006652102, -0.06108647, 0.021985935, 0.42456627, 0
97, 659762689, -0.9999071, -0.0075900545, 0.0066467533, 0.0091368165, -0.059786312, 0.048861176, 0.43744183, 0
99, 659796023, -0.99990755, -0.0075983666, 0.006614168, 0.009104053, -0.018592454, -0.0038701408, 0.41777802, 0
102, 659846024, -0.99991035, -0.007597832, 0.0065487907, 0.008842498, 0.06330966, 0.018513752, 0.44776058, 0
105, 659896025, -0.99991727, -0.007620691, 0.0065402277, 0.00802017, 0.010473545, -0.009977975, 0.4478531, 0
107, 659929359, -0.99990875, -0.007644778, 0.006570198, 0.008968595, -0.057246365, 0.06375667, 0.43078804, 0
110, 659979360, -0.99991184, -0.007641876, 0.006587588, 0.008602375, -0.014636558, 0.0077041495, 0.43457127, 0
113, 660029361, -0.9999121, -0.0076387334, 0.006618286, 0.008563057, -0.0580412, -0.0051506395, 0.42886448, 0
115, 660062695, -0.99991155, -0.007627632, 0.006629391, 0.008607989, -0.013274934, 0.0041966583, 0.43203735, 0
118, 660112696, -0.9999112, -0.00760735, 0.00660513, 0.0086878445, -0.009395164, -4.4164064E-4, 0.41324902, 0
121, 660162697, -0.9999095, -0.007602399, 0.0065908404, 0.00889392, 0.0032630726, -0.006129333, 0.45556736, 0
124, 660212698, -0.9999075, -0.007617616, 0.00661175, 0.009091316, -0.023214765, 0.0038382623, 0.41393375, 0
126, 660246032, -0.9999075, -0.0076110493, 0.0066429256, 0.009082304, -0.009201616, 0.009353291, 0.43397903, 0
129, 660296033, -0.9999082, -0.007583699, 0.0066230474, 0.009042576, 0.008167024, -0.0066401437, 0.42671585, 0
132, 660346034, -0.9999083, -0.007568499, 0.006645789, 0.00902221, -0.0010794069, 0.0077183982, 0.44390297, 0
134, 660379368, -0.9999085, -0.0075674662, 0.0066474346, 0.008998781, -0.004259556, 0.014651596, 0.43421555, 0
137, 660429369, -0.999909, -0.007548815, 0.006627002, 0.008980578, -0.008620811, -0.011144314, 0.45030117, 0
140, 660479370, -0.99990857, -0.0075561753, 0.0066268463, 0.009014284, 0.0035473811, -9.833312E-4, 0.44276237, 0
142, 660512704, -0.9999082, -0.0075667636, 0.0066250167, 0.009053003, -0.014966162, -0.0025526786, 0.43165398, 0
145, 660562705, -0.99990815, -0.00756685, 0.006615117, 0.009060901, 0.0037657183, 0.0025770764, 0.4355545, 0
148, 660612706, -0.99990845, -0.0075616683, 0.0066054957, 0.009044675, 0.0026439626, -0.0044957744, 0.43943214, 0
151, 660662707, -0.9999084, -0.0075597065, 0.0065838685, 0.009061279, -0.010488886, -0.0067476328, 0.43796253, 0
153, 660696041, -0.99990815, -0.007555476, 0.006582965, 0.009082014, -0.0077622137, -0.0071390737, 0.47425652, 0
156, 660746042, -0.9999087, -0.0075525637, 0.006593584, 0.009020878, -0.010604848, -0.0020388362, 0.4454422, 0
160, 660812710, -0.99990934, -0.007545789, 0.0065895375, 0.008959763, -0.0015078114, 0.0100808535, 0.4267397, 0
163, 660862711, -0.99990916, -0.0075428165, 0.0066048275, 0.008986322, -0.001311092, -0.0036723737, 0.4258299, 0
165, 660896045, -0.9999091, -0.0075472174, 0.006612885, 0.008973055, 0.002455164, 0.0022847145, 0.43083763, 0
168, 660946046, -0.99990857, -0.007569439, 0.0066188932, 0.009014774, 0.002747079, 0.0011281887, 0.41791534, 0
171, 660996047, -0.9999084, -0.007582269, 0.006622635, 0.009014457, 0.0069165523, -3.4187004E-4, 0.43421555, 0
174, 661046048, -0.9999081, -0.007592177, 0.006635785, 0.009030763, -0.0037264847, 0.0048134634, 0.4360342, 0
176, 661079382, -0.99990815, -0.007596761, 0.006627974, 0.009028193, -0.008189389, 0.0016244083, 0.42356682, 0
179, 661129383, -0.9999079, -0.007582119, 0.006653949, 0.009043494, -0.007969152, 0.0034797685, 0.44722557, 0
182, 661179384, -0.99994457, -0.0075389864, 0.007191054, 0.0013706032, -0.28678414, -0.29816574, 0.419075, 0
184, 661212718, -0.99994045, -0.0076304115, 0.0073043094, 0.0026546456, -0.1773814, -0.4382167, 0.42432976, 0
188, 661279386, -0.9999312, -0.0071396437, 0.006528209, -0.006606197, 0.14770196, -0.015849654, 0.48296547, 0
191, 661329387, -0.9997703, -0.006951031, 0.0068152566, -0.019083157, 0.53323495, 0.29769233, 0.45522785, 0
194, 661379388, -0.99963313, -0.0068993964, 0.0072503267, -0.025158044, 0.5036628, 0.43852046, 0.470685, 0
196, 661412722, -0.9994773, -0.0065831803, 0.007904801, -0.030638698, 0.027786216, -0.06287384, 0.40717793, 0
199, 661462723, -0.9994656, -0.0065580825, 0.00794691, -0.031011384, -0.024497041, 0.0204366, 0.43558502, 0
202, 661512724, -0.9995041, -0.006578635, 0.007871609, -0.02976153, -0.014268627, -0.08008454, 0.44144058, 0
205, 661562725, -0.9995996, -0.0066996263, 0.007748188, -0.02636671, 0.012968166, 0.04126497, 0.41354752, 0
207, 661596059, -0.99963576, -0.006710493, 0.0076474333, -0.024985787, 0.0743909, 0.07770736, 0.45643997, 0
210, 661646060, -0.9996191, -0.0067391964, 0.007479457, -0.025687195, -0.07616984, -0.117451474, 0.40067196, 0
213, 661696061, -0.9996193, -0.0068701394, 0.0045080488, -0.02632995, 0.021676943, 0.07910365, 0.51006985, 0
217, 661762729, -0.9996194, -0.0070532425, 0.0043807426, -0.026295932, -0.0017644287, 0.016133744, 0.42283916, 0
219, 661796063, -0.9996191, -0.0070631094, 0.004372066, -0.026300747, -0.017253453, 0.015821343, 0.40642643, 0
222, 661846064, -0.9996191, -0.00707744, 0.0043596923, -0.02630511, -0.0123452805, 0.012369465, 0.43129444, 0
225, 661896065, -0.99961936, -0.0070788735, 0.0043700067, -0.026295977, -0.011231006, 0.02262806, 0.43204308, 0
228, 661946066, -0.9996196, -0.0070646876, 0.004374468, -0.02629124, -0.0056672515, 0.012823812, 0.40866375, 0
230, 661979400, -0.9996196, -0.0070710075, 0.0043704086, -0.026285574, -0.009771924, 0.016131105, 0.42535877, 0
233, 662029401, -0.99961966, -0.0070599946, 0.004369055, -0.026287613, -0.012713364, 0.017321326, 0.44497204, 0
236, 662079402, -0.99961984, -0.007063664, 0.004360318, -0.026283758, -0.0072641713, 0.007610672, 0.43327904, 0
238, 662112736, -0.9996198, -0.007055341, 0.004361859, -0.026284307, -0.0103807375, 0.009013747, 0.44106293, 0
241, 662162737, -0.9996204, -0.007046556, 0.0043660193, -0.026266783, -0.016768083, 0.021101488, 0.42086697, 0
244, 662212738, -0.99962056, -0.007038356, 0.0043590623, -0.02626048, -0.012578957, 0.016527602, 0.43788242, 0
246, 662246072, -0.9996206, -0.0070257657, 0.004363568, -0.026257277, -0.013995711, 0.010592936, 0.42235088, 0
249, 662296073, -0.99962103, -0.0070152357, 0.004360928, -0.026249083, -0.005405874, 0.012390119, 0.43097115, 0
252, 662346074, -0.99962056, -0.0068160603, 0.004483552, -0.026299702, -0.022272373, 0.017633712, 0.43550205, 0
255, 662396075, -0.9996202, -0.0067509785, 0.004522699, -0.026322514, -0.0089739505, 0.018057674, 0.44777584, 0
257, 662429409, -0.99962056, -0.006743933, 0.0045120893, -0.026315026, -0.021557085, 0.010673428, 0.4495039, 0
260, 662479410, -0.99962044, -0.0067293644, 0.0045020366, -0.026321702, -0.024060704, 0.029405938, 0.42467976, 0
263, 662529411, -0.9996203, -0.0067274184, 0.004516508, -0.026321737, -0.018697135, 0.012770496, 0.41072464, 0
265, 662562745, -0.99962056, -0.0067144386, 0.004526992, -0.026319843, -0.004087703, 0.006167973, 0.4424057, 0
268, 662612746, -0.9996202, -0.0067105037, 0.004523345, -0.026337013, -0.012670943, 0.012484351, 0.42104816, 0
271, 662662747, -0.9996207, -0.0066934, 0.004510053, -0.026325628, -0.013725138, 0.018169438, 0.41022778, 0
273, 662696081, -0.9996203, -0.0066952, 0.0045133405, -0.026334299, -0.0019601039, 0.0066396757, 0.43111324, 0
276, 662746082, -0.99962044, -0.006704791, 0.004522557, -0.026322844, 0.006207363, 0.027620893, 0.43480778, 0
279, 662796083, -0.9996206, -0.0066981483, 0.004522718, -0.02632237, -0.017034927, 0.01741636, 0.4364767, 0
282, 662846084, -0.9996191, -0.0067059123, 0.0045228917, -0.02637314, -0.022374552, 0.0038500945, 0.4300213, 0
284, 662879418, -0.9996186, -0.006690664, 0.0045276093, -0.02639915, -0.0021606265, 0.011620634, 0.4429083, 0
287, 662929419, -0.9996175, -0.0066893008, 0.004539135, -0.026435174, -0.0209326, 0.023816373, 0.41761112, 0
290, 662979420, -0.9996177, -0.0066884956, 0.0045497115, -0.026430186, -0.004818042, 0.021929428, 0.41798115, 0
292, 663012754, -0.999618, -0.006692392, 0.004542717, -0.026418516, -0.009414621, 0.006858579, 0.4350357, 0
296, 663079422, -0.9996181, -0.006684016, 0.0045485254, -0.026411392, -0.0055448534, 0.012439446, 0.4287548, 0
299, 663129423, -0.9996189, -0.0066917194, 0.0045412583, -0.026384294, -0.014457859, 0.010579322, 0.44653606, 0
302, 663179424, -0.9996188, -0.006686499, 0.0045386115, -0.026385218, -0.008382005, 0.012205854, 0.4331169, 0
304, 663212758, -0.99961895, -0.006678506, 0.004535345, -0.026387017, -0.009258518, 0.008364867, 0.43001556, 0
307, 663262759, -0.9996187, -0.0066866693, 0.0045292038, -0.02639219, -0.0056277313, 0.016618133, 0.4281273, 0
310, 663312760, -0.99961853, -0.006683703, 0.0045231404, -0.026400376, -0.0031181525, 0.015501238, 0.44933796, 0
313, 663362761, -0.99961907, -0.0066861683, 0.004515214, -0.026387416, -0.014838491, 0.012294291, 0.44016647, 0
315, 663396095, -0.9996259, -0.0066346964, 0.004429181, -0.026150525, 0.029625343, 0.007874089, 0.4382229, 0
318, 663446096, -0.999637, -0.0072949356, 0.0038744458, -0.025635527, 0.017076401, -0.015442098, 0.42590332, 0
321, 663496097, -0.99963516, -0.00675893, 0.0045510307, -0.02574236, -0.008239875, 0.007605734, 0.43808174, 0
325, 663562765, -0.99962926, -0.0068123764, 0.0046128933, -0.025943153, -0.0156214, 0.031764563, 0.45464134, 0
327, 663596099, -0.9996276, -0.00693235, 0.0051083947, -0.02588524, 0.010398619, 0.0041772267, 0.4411621, 0
330, 663646100, -0.9996264, -0.0069400934, 0.005088105, -0.025931396, -0.0039653396, 0.01677536, 0.4282217, 0
333, 663696101, -0.99962693, -0.0069415118, 0.00510067, -0.025912095, -0.0025328244, 0.0078179315, 0.42763138, 0
336, 663746102, -0.99962896, -0.006843072, 0.0046306397, -0.025946196, 0.008877281, 0.02507128, 0.46061707, 0
338, 663779436, -0.9996277, -0.006823954, 0.004635528, -0.02599411, -0.036595922, 0.023108998, 0.4106779, 0
341, 663829437, -0.9996272, -0.0068414537, 0.0046499157, -0.026008595, -0.008882388, 0.016907917, 0.45027924, 0
344, 663879438, -0.9996268, -0.006843637, 0.0046431157, -0.026022661, -0.010571185, 0.017954964, 0.4270029, 0
346, 663912772, -0.9996264, -0.0068547837, 0.004666672, -0.026032364, -0.013992505, 0.014175136, 0.4414606, 0
349, 663962773, -0.99962604, -0.0068735937, 0.004797387, -0.026015565, -0.01905373, 0.028891418, 0.42879295, 0
353, 664029441, -0.9996248, -0.0069033722, 0.0049704476, -0.026025891, -0.03138192, 0.013767728, 0.44079113, 0
356, 664079442, -0.99962944, -0.006910954, 0.005327942, -0.025774572, -0.0074466695, 0.009689524, 0.43492985, 0
359, 664129443, -0.99962944, -0.0069088177, 0.0052808686, -0.025782727, -0.009158454, 0.0198369, 0.41826153, 0
361, 664162777, -0.99962837, -0.006889402, 0.0053047338, -0.025826506, -0.0061913403, 0.0071254605, 0.42065525, 0
364, 664212778, -0.99962854, -0.0068705073, 0.0053885635, -0.025805874, 0.0021212392, 0.018697614, 0.44679737, 0
367, 664262779, -0.99963206, -0.0068709464, 0.005472487, -0.02565391, 0.0020891966, 0.019249719, 0.4202566, 0
369, 664296113, -0.99963117, -0.00687528, 0.0054318733, -0.025694696, -0.012644134, 0.0063392255, 0.4328146, 0
372, 664346114, -0.9996382, -0.0068689436, 0.005324324, -0.025446856, -0.0055063847, 0.026154166, 0.40442848, 0
375, 664396115, -0.9996382, -0.0068703326, 0.005311897, -0.025445448, -0.0032257773, 0.02235103, 0.4262209, 0
377, 664429449, -0.99963945, -0.0068628807, 0.0052633868, -0.025410138, -0.010292003, 0.023309922, 0.42292023, 0
380, 664479450, -0.99963933, -0.0068623642, 0.0053112805, -0.025402248, -0.0054201474, 0.017278474, 0.4214325, 0
383, 664529451, -0.9996419, -0.0068413145, 0.005288607, -0.025313685, 0.0021198492, 0.026034322, 0.43660736, 0
386, 664579452, -0.9996412, -0.0068364358, 0.0053034388, -0.025339322, -0.01336282, 0.019763315, 0.43593216, 0
388, 664612786, -0.99964315, -0.0068461737, 0.0052945428, -0.025261382, -0.021016521, 0.016547097, 0.42910862, 0
391, 664662787, -0.9996416, -0.0068434016, 0.0052960846, -0.025323525, 0.0019471471, 0.012579079, 0.4432497, 0
394, 664712788, -0.9996382, -0.006821626, 0.005399685, -0.025440183, -0.007945026, 0.030682063, 0.43520832, 0
396, 664746122, -0.9996364, -0.0067847366, 0.0056922236, -0.025456797, -0.006971156, 0.010034782, 0.42426968, 0
399, 664796123, -0.9996364, -0.0067818337, 0.0056980695, -0.025456067, -0.014372951, 0.011811878, 0.42590523, 0
402, 664846124, -0.9996369, -0.006770843, 0.0056941174, -0.025443397, -0.008684879, 0.024063788, 0.43243694, 0
404, 664879458, -0.99963725, -0.006778903, 0.0056851637, -0.02542821, 3.7217702E-4, 0.018239893, 0.42912197, 0
407, 664929459, -0.99963766, -0.006770922, 0.0056740856, -0.025417702, -0.0034719873, 0.036379263, 0.41254044, 0
410, 664979460, -0.9996371, -0.0067780092, 0.005684699, -0.025430132, 0.0014865358, 0.024690576, 0.42441463, 0
413, 665029461, -0.99963737, -0.006782143, 0.0056932615, -0.025421333, -0.009025289, 0.025197817, 0.44944572, 0
415, 665062795, -0.99963754, -0.0067964564, 0.0056895344, -0.025411721, 0.0033208856, 0.02332663, 0.45326424, 0
418, 665112796, -0.99963653, -0.0067873346, 0.0056877485, -0.025452226, -0.015035544, 0.017069561, 0.43750954, 0
421, 665162797, -0.9996373, -0.006810397, 0.0055293087, -0.025452409, 0.014699979, 0.020167986, 0.43850327, 0
423, 665196131, -0.9996375, -0.006846318, 0.0052312864, -0.025494445, -0.0132811535, 0.023437094, 0.43089867, 0
426, 665246132, -0.9996344, -0.006714919, 0.0060063247, -0.025482401, 0.019078668, 0.016400814, 0.4028368, 0
429, 665296133, -0.99988896, -0.006920075, 0.00662616, -0.011391131, 0.1957927, 0.26668218, 0.43965816, 0
433, 665362801, -0.9998911, -0.006890325, 0.0066044214, -0.011233389, -0.00280624, 0.01213104, 0.4230852, 0
435, 665396135, -0.99989104, -0.0068870992, 0.006596103, -0.011242922, -0.005131564, 0.011658575, 0.44098663, 0
438, 665446136, -0.999891, -0.006895664, 0.0065781474, -0.011256047, -0.0028103122, 0.013370181, 0.41954708, 0
441, 665496137, -0.9998909, -0.0068913037, 0.006577384, -0.011260475, -0.0054099075, -0.004361506, 0.45030594, 0
444, 665546138, -0.99989104, -0.0068805283, 0.0065675303, -0.011264051, 0.0010020644, 0.0028978596, 0.44406605, 0
446, 665579472, -0.999891, -0.0068796217, 0.0065718545, -0.011268094, -0.005616189, 0.016010275, 0.4564495, 0
449, 665629473, -0.99989116, -0.0068625496, 0.006581856, -0.011256678, -0.006152704, 0.016034044, 0.442132, 0
452, 665679474, -0.999891, -0.0068614082, 0.006595502, -0.011264505, -0.004192621, 0.022276796, 0.42099, 0
454, 665712808, -0.9998909, -0.0068709897, 0.0065990007, -0.011261025, -0.003560771, 0.032914687, 0.43778992, 0
457, 665762809, -0.99989235, -0.0068409583, 0.006540932, -0.011183491, -0.009300388, -0.030157577, 0.4425001, 0
461, 665829477, -0.99987733, -0.006709258, 0.0065621617, -0.012526862, -0.019778905, 0.4347224, 0.42853737, 0
464, 665879478, -0.999881, -0.006687226, 0.006741144, -0.012139818, 0.059589338, 0.22018166, 0.43508434, 0
467, 665929479, -0.99981487, -0.0066278037, 0.0066901203, -0.01676416, -0.025819417, -0.0011927419, 0.4483328, 0
469, 665962813, -0.9997949, -0.00653564, 0.0066513447, -0.017964415, -0.014245413, 0.52605104, 0.4437704, 0
472, 666012814, -0.99979496, -0.006512378, 0.0066554234, -0.017968956, -0.0013489147, 0.012903284, 0.4444952, 0
475, 666062815, -0.9997954, -0.0064767078, 0.0066381693, -0.01795898, -0.008914011, 0.012375682, 0.42558193, 0
477, 666096149, -0.99979544, -0.006455943, 0.0066387793, -0.01796508, 0.00361074, 0.010377693, 0.45776367, 0
480, 666146150, -0.9997954, -0.006457791, 0.0066432036, -0.01796568, -0.0065175053, 0.012039232, 0.40873432, 0
483, 666196151, -0.9997954, -0.0064598983, 0.006635944, -0.017971117, -0.0024011228, 0.018923536, 0.4293852, 0
485, 666229485, -0.99979657, -0.0064499117, 0.006614367, -0.017912569, -0.007909837, 0.012919147, 0.42667198, 0
489, 666296153, -0.99979603, -0.0064465916, 0.006606218, -0.017942546, 0.0024770754, 0.02225355, 0.40808296, 0
492, 666346154, -0.99979645, -0.00644317, 0.006610621, -0.01792569, 0.010172626, 0.02339649, 0.45797634, 0
495, 666396155, -0.99979603, -0.0064397417, 0.006608754, -0.017950587, -0.017086092, 0.017088935, 0.44529438, 0
498, 666446156, -0.99979573, -0.006424953, 0.0065916935, -0.017981376, -0.0043021496, 0.016201587, 0.4312954, 0
500, 666479490, -0.9997954, -0.0064225253, 0.0065810243, -0.018004654, -0.0059022647, 0.012697827, 0.4389391, 0
503, 666529491, -0.99979556, -0.006440373, 0.006583321, -0.017990654, 0.017848054, 0.027201554, 0.4443674, 0
506, 666579492, -0.99979544, -0.0064246547, 0.0065862234, -0.01799509, 0.0026337649, 0.016887626, 0.43201065, 0
508, 666612826, -0.9997948, -0.006432755, 0.0065742726, -0.018030548, -0.0016399286, 0.015489071, 0.41891193, 0
511, 666662827, -0.9997946, -0.00643554, 0.0065740584, -0.01804553, -0.008468081, 0.0178252, 0.45091915, 0
514, 666712828, -0.9997939, -0.006430613, 0.006582875, -0.018084064, -0.006427143, 0.020066895, 0.40757942, 0
516, 666746162, -0.99979424, -0.00642996, 0.006579193, -0.018061874, 5.796878E-4, 0.015758788, 0.4158249, 0
519, 666796163, -0.99979484, -0.0064073363, 0.0065717264, -0.018039035, -0.012664482, 0.01740098, 0.40719223, 0
522, 666846164, -0.99979544, -0.00639575, 0.00657276, -0.018010514, -0.016088253, 0.025995975, 0.4154148, 0
525, 666896165, -0.9997958, -0.0064047384, 0.006578117, -0.01798357, -0.005427083, 0.02334474, 0.44247723, 0
527, 666929499, -0.9997959, -0.006399319, 0.006575411, -0.01798448, 0.0055531585, 0.01672481, 0.42541885, 0
530, 666979500, -0.99979514, -0.006391232, 0.0065794354, -0.018023944, -0.013413177, 0.01802583, 0.4413929, 0
533, 667029501, -0.99979514, -0.00637301, 0.006580076, -0.018031321, -0.0011459928, 0.023978015, 0.42212486, 0
535, 667062835, -0.9997954, -0.006383472, 0.006580867, -0.01801358, 9.83003E-4, 0.013488385, 0.42064857, 0
538, 667112836, -0.9997958, -0.0063973647, 0.0066049793, -0.017978113, 0.006418461, 0.022577694, 0.4254427, 0
541, 667162837, -0.9997947, -0.006401574, 0.00659642, -0.018038284, 0.0015953865, 0.015802974, 0.42299652, 0
543, 667196171, -0.99979436, -0.0064057778, 0.00658961, -0.018059097, -0.0018911781, 0.020822803, 0.4508505, 0
546, 667246172, -0.99979466, -0.006404803, 0.0065908325, -0.018041676, -0.006340776, 0.013998938, 0.43024063, 0
549, 667296173, -0.99979484, -0.0064050886, 0.0065736817, -0.01803864, 0.001658075, 0.017519616, 0.43069744, 0
552, 667346174, -0.9997947, -0.0064047924, 0.006577868, -0.018044977, -0.016904205, 0.0056674015, 0.44079876, 0
554, 667379508, -0.99979484, -0.0063888747, 0.006590183, -0.018038241, -2.4233694E-4, 0.014095705, 0.4198141, 0
557, 667429509, -0.9997945, -0.0063819042, 0.006586053, -0.018062195, -0.0048137847, 0.012578031, 0.4328289, 0
560, 667479510, -0.99979496, -0.0063896556, 0.006583106, -0.018039163, -0.010734098, 0.017083926, 0.44635487, 0
562, 667512844, -0.9997952, -0.006398035, 0.0065795863, -0.018021435, -0.010218516, 0.008878885, 0.43774605, 0
565, 667562845, -0.9997954, -0.006390965, 0.0065802853, -0.018011743, 0.0020787683, 0.022060735, 0.44337463, 0
569, 667629513, -0.9997959, -0.0063764034, 0.0065905196, -0.017982896, -3.6746927E-4, 0.020459007, 0.43948555, 0
572, 667679514, -0.9997953, -0.0063780705, 0.0065925717, -0.018015906, -0.01664262, 0.037425302, 0.44590664, 0
575, 667729515, -0.99979603, -0.0063663316, 0.006592326, -0.017985871, -0.0042314427, 0.020845558, 0.44095516, 0
577, 667762849, -0.99979556, -0.006372153, 0.006607575, -0.018005896, -0.007533457, 0.0011735123, 0.4138813, 0
580, 667812850, -0.99979514, -0.0063805506, 0.0066300053, -0.018015428, -0.0048587318, 0.012419839, 0.41373444, 0
583, 667862851, -0.999795, -0.0063752364, 0.0066424436, -0.018016918, 0.0092635015, 0.020579131, 0.4384098, 0
585, 667896185, -0.99979526, -0.006356732, 0.0066555017, -0.018008899, -0.0026544537, 0.017283, 0.4470234, 0
588, 667946186, -0.999796, -0.006364852, 0.006649425, -0.017965894, 5.7375774E-4, 0.020473186, 0.43405437, 0
591, 667996187, -0.9997967, -0.006368458, 0.0066428636, -0.017925343, -0.011819945, 0.0145802945, 0.4208355, 0
593, 668029521, -0.9997972, -0.0063665225, 0.006630661, -0.017904663, 0.004583929, 0.020014586, 0.42317295, 0
597, 668096189, -0.99979705, -0.006375556, 0.006627013, -0.017907238, -0.0034021395, 0.010742305, 0.44166088, 0
600, 668146190, -0.99979675, -0.0063806493, 0.006644946, -0.017916428, -0.007810772, 0.026557865, 0.42181873, 0
603, 668196191, -0.9997942, -0.006590132, 0.0066359425, -0.017989317, -0.008184123, 0.01797167, 0.4161148, 0
606, 668246192, -0.9997927, -0.006578066, 0.006641414, -0.018077346, -0.001685595, 0.003628677, 0.4554205, 0
608, 668279526, -0.9997926, -0.006566769, 0.0066469824, -0.018077822, -0.0035852527, 0.025936779, 0.42398262, 0
611, 668329527, -0.99990976, -0.006790204, 0.00662075, -0.009493741, 0.08383567, -0.89195144, 0.4124012, 0
614, 668379528, -0.99981624, -0.006999326, 0.0062464764, -0.016707566, 0.09676494, 0.5482406, 0.47330666, 0
616, 668412862, -0.99947894, -0.006736186, 0.0062260157, -0.030942913, -0.38725778, -0.16466558, 0.43652534, 0
619, 668462863, -0.99979025, -0.007624979, 0.0059565, -0.018031335, 0.31376976, -0.37939513, 0.45945263, 0
622, 668512864, -0.99955565, -0.0069245035, 0.006330919, -0.02828913, -0.118860796, 1.3306546, 0.44401073, 0
626, 668579532, -0.99953413, -0.0068156184, 0.006122967, -0.02910237, -0.0055466313, 0.018470036, 0.4192276, 0
629, 668629533, -0.99953425, -0.0068157976, 0.0061232424, -0.029099047, -0.0014306087, 0.010979047, 0.44435787, 0
631, 668662867, -0.999534, -0.006821573, 0.0061502904, -0.029100634, -0.0073008374, 0.019233415, 0.43847752, 0
634, 668712868, -0.9995348, -0.0068297293, 0.0061406903, -0.02907743, -0.00847903, 0.011184085, 0.42432976, 0
637, 668762869, -0.99953496, -0.006828137, 0.0061320825, -0.029071208, -0.008233268, 0.019212957, 0.42630482, 0
639, 668796203, -0.9995533, -0.006811934, 0.006164682, -0.02843232, 0.07008394, 0.2301809, 0.49007797, 0
642, 668846204, -0.99955314, -0.006758406, 0.0061942562, -0.028446298, -0.0020493274, 0.024787027, 0.43516827, 0
645, 668896205, -0.99955374, -0.006746035, 0.006195226, -0.02842103, 0.0065470086, 0.014265247, 0.43910217, 0
647, 668929539, -0.99955356, -0.0067503625, 0.006200489, -0.028423665, -0.011877213, 0.01839221, 0.41386318, 0
650, 668979540, -0.9995536, -0.0067420127, 0.006196453, -0.028427556, -0.0041154325, 0.0074425694, 0.44066525, 0
653, 669029541, -0.9995534, -0.006730956, 0.006184929, -0.028441595, -0.013195475, 0.019451564, 0.44098663, 0
656, 669079542, -0.9995537, -0.0067435843, 0.0061786943, -0.028429642, -0.0023375615, 0.016922312, 0.43034935, 0
658, 669112876, -0.99955404, -0.006754187, 0.0061736214, -0.028416123, -0.006030872, 0.025861189, 0.4183321, 0
661, 669162877, -0.99955404, -0.0067491042, 0.0061727236, -0.028418925, -0.009700822, 0.020853221, 0.4377365, 0
664, 669212878, -0.9995541, -0.006747482, 0.006172586, -0.02841531, 9.1226114E-4, 0.019202823, 0.44643116, 0
666, 669246212, -0.99955404, -0.0067467396, 0.0061753867, -0.028413888, -0.0030172921, 0.021118678, 0.4526863, 0
669, 669296213, -0.9995547, -0.0067291413, 0.00618019, -0.028392661, -0.0022970147, 0.016515156, 0.44352818, 0
672, 669346214, -0.9995545, -0.0067161387, 0.006172443, -0.028408464, 0.0018853109, 0.021355217, 0.41771317, 0
674, 669379548, -0.99955493, -0.0067148353, 0.006161049, -0.028395258, 0.0028818713, 0.016708612, 0.4421072, 0
677, 669429549, -0.99955523, -0.006709152, 0.006167473, -0.028383557, -0.0033036892, 0.0095930295, 0.44507694, 0
680, 669479550, -0.9995549, -0.0067057675, 0.0061649373, -0.028401297, -0.012398752, 0.030790454, 0.4261713, 0
682, 669512884, -0.99955463, -0.0067056394, 0.0061737844, -0.028407332, -0.005062785, 0.024836907, 0.40998077, 0
685, 669562885, -0.9995537, -0.006713009, 0.006171594, -0.028438082, -0.0049648792, 0.022077905, 0.43191338, 0
688, 669612886, -0.99955237, -0.0067255227, 0.00617225, -0.028480783, -0.017383063, 0.021303453, 0.42367363, 0
691, 669662887, -0.99955285, -0.006723369, 0.00617816, -0.028463624, -0.005137194, 0.033309884, 0.45652008, 0
693, 669696221, -0.9995534, -0.0067206197, 0.006181628, -0.028445613, -0.001881518, 0.030946145, 0.42324257, 0
696, 669746222, -0.9995519, -0.0067035733, 0.0061752405, -0.028502392, -0.0015620342, 0.019669244, 0.41572094, 0
699, 669796223, -0.9995509, -0.006698761, 0.0061793993, -0.028539356, -4.3445332E-5, 0.027757592, 0.44137, 0
701, 669829557, -0.9995509, -0.006689701, 0.0061776955, -0.028542615, -0.005607137, 0.010330622, 0.44076538, 0
705, 669896225, -0.9995511, -0.006694856, 0.0061701112, -0.028531436, 0.002349743, 0.009429166, 0.42612934, 0
708, 669946226, -0.9995512, -0.0067053908, 0.006168551, -0.028529989, -0.00850201, 0.0031645454, 0.438859, 0
711, 669996227, -0.9995522, -0.0067050843, 0.0061659073, -0.028496243, -0.0025079201, 0.020822104, 0.42882156, 0
714, 670046228, -0.9995525, -0.006712711, 0.006166695, -0.028482972, -0.005004427, 0.013106995, 0.43299007, 0
716, 670079562, -0.9995528, -0.006705472, 0.0061644167, -0.028473679, 0.0025783756, 0.0111639695, 0.43467617, 0
719, 670129563, -0.9995518, -0.006707699, 0.006163022, -0.028510727, 0.010250597, 0.027094387, 0.4425068, 0
722, 670179564, -0.99955, -0.0066789393, 0.006167077, -0.028573459, -0.0018068089, 0.01965517, 0.44214058, 0
724, 670212898, -0.9995496, -0.006699147, 0.0061773295, -0.028582806, -0.014005071, -0.030598903, 0.3947649, 0
727, 670262899, -0.9998052, -0.007051688, 0.00605748, -0.017398862, -0.31848085, -0.65124744, 0.46512032, 0
730, 670312900, -0.99995995, -0.0067971367, 0.005631277, 0.0013647135, 0.2266586, 1.1488396, 0.43575954, 0
734, 670379568, -0.99779093, -0.005014491, 0.005834004, -0.06598146, 0.10213522, 0.3459424, 0.31824303, 0
736, 670412902, -0.9935211, -0.004243218, 0.0058268365, -0.11341731, -0.37502426, 0.32390407, 0.40536308, 0
739, 670462903, -0.9921396, -0.0043125898, 0.005731699, -0.124928966, -0.57105047, -0.71961343, 0.4709835, 0
742, 670512904, -0.9987848, -0.0053746863, 0.00561234, -0.048663534, -0.25526384, 0.8800625, 0.4527483, 0
745, 670562905, -0.9998771, -0.006396684, 0.0056077633, 0.013155939, 0.3632808, 0.14140749, 0.45305347, 0
747, 670596239, -0.99962103, -0.006694841, 0.0055452595, 0.0261161, 0.49995658, 0.13964769, 0.45226383, 0
750, 670646240, -0.9996222, -0.006694404, 0.0055475445, 0.02606829, 0.0071568815, 0.0031319961, 0.42285347, 0
753, 670696241, -0.99962234, -0.006681988, 0.005556143, 0.02606153, 0.0011135101, -0.008253153, 0.4439497, 0
755, 670729575, -0.99962264, -0.0066880304, 0.0055545894, 0.026049664, 0.0058472212, -0.012426367, 0.44133472, 0
758, 670779576, -0.9996225, -0.0066916305, 0.0055596526, 0.02605054, -0.0054449677, 0.0016930827, 0.46156502, 0
762, 670846244, -0.9996226, -0.0066886507, 0.0055811, 0.026047824, 0.001638081, -0.011590551, 0.44613552, 0
765, 670896245, -0.9996222, -0.0066902894, 0.005591962, 0.026055021, 0.011032617, 0.014932258, 0.44143772, 0
768, 670946246, -0.9996218, -0.0067019905, 0.005597216, 0.02606466, 0.016344203, 0.0060431897, 0.44626236, 0
770, 670979580, -0.999622, -0.0067037055, 0.00560712, 0.026062235, -0.008794969, 0.0022424008, 0.44664478, 0
773, 671029581, -0.9996222, -0.0067179324, 0.0056142015, 0.026044736, -0.0026441268, 0.005005258, 0.4400158, 0
776, 671079582, -0.99962234, -0.006716611, 0.005616054, 0.026042258, 0.0135114975, -0.006736464, 0.4429388, 0
778, 671112916, -0.9996222, -0.0067175953, 0.0056252447, 0.026041668, 0.0068161045, 1.11532965E-4, 0.45396614, 0
781, 671162917, -0.9996225, -0.006709423, 0.0056312964, 0.026030036, 0.005765978, 0.0038693724, 0.4395256, 0
784, 671212918, -0.99962246, -0.0067218374, 0.0056491564, 0.026027014, 0.014413233, 0.008791352, 0.44164753, 0
786, 671246252, -0.9996228, -0.0067187026, 0.0056335214, 0.02601717, 0.0070211426, 0.002440496, 0.4290123, 0
789, 671296253, -0.999623, -0.0067211594, 0.0056291525, 0.026010437, 0.012171093, 0.004076094, 0.42177963, 0
792, 671346254, -0.9996231, -0.006720096, 0.005628144, 0.02600789, 0.002333643, -0.005368921, 0.4352808, 0
795, 671396255, -0.9996233, -0.0067124465, 0.0056243353, 0.02600251, 0.008940672, 1.0808248E-4, 0.42671967, 0
797, 671429589, -0.99962306, -0.006715403, 0.005620363, 0.026009614, 0.014252736, -0.0012506319, 0.4302845, 0
800, 671479590, -0.9996226, -0.0067289206, 0.005614686, 0.026027745, 0.011189701, 0.0040462203, 0.43519974, 0
803, 671529591, -0.99962175, -0.006716534, 0.0056298994, 0.026059996, -0.001958672, 0.0029419125, 0.44564915, 0
805, 671562925, -0.9996218, -0.0067166598, 0.005635744, 0.02606052, 0.0046071326, 0.0051530073, 0.41594696, 0
808, 671612926, -0.99962234, -0.0067102564, 0.0056246277, 0.026039744, 0.0029397123, -0.0035978183, 0.44802952, 0
811, 671662927, -0.9996228, -0.006708585, 0.0056152847, 0.026020607, 0.011978583, -0.013690752, 0.4387102, 0
813, 671696261, -0.99962276, -0.0067220116, 0.005587999, 0.02602763, 0.007092953, -0.0025191936, 0.44349766, 0
816, 671746262, -0.9996228, -0.0067283884, 0.0055976813, 0.026019545, 0.018520845, -7.177141E-4, 0.4414034, 0
819, 671796263, -0.9996233, -0.0067221588, 0.0055966214, 0.02600497, 0.011288557, -0.0061073657, 0.43733025, 0
822, 671846264, -0.9999612, -0.0053892187, 0.006878433, -7.7996403E-4, 0.67509013, -2.5635383, 0.31781292, 0
824, 671879598, -0.99846166, -0.0032485109, 0.0064922045, -0.054964487, 1.0485193, -0.55635524, 0.46095562, 0
827, 671929599, -0.9750677, -0.0018485244, 0.006493651, -0.22180416, -1.3811134, 0.5464106, 0.6019783, 0
830, 671979600, -0.93995464, -4.336968E-5, 0.0057010152, -0.34125113, -0.41884476, 0.7702771, 0.46041584, 0
832, 672012934, -0.89667326, 0.0016618896, 0.0050430605, -0.44266048, -1.8312212, 0.991784, 0.3918085, 0
835, 672062935, -0.8410072, 0.0045854887, 0.0054201568, -0.54097694, -0.07831918, 0.5504165, 0.34806442, 0
838, 672112936, -0.78144443, 0.0067212973, 0.00524182, -0.6239162, 0.93817896, -1.9312646, 0.4777832, 0
842, 672179604, -0.7325141, 0.008088084, 0.005078736, -0.6806847, 0.18886378, -0.45321977, 0.47948742, 0
844, 672212938, -0.7090374, 0.009816312, 0.0056160837, -0.7050798, -0.9593148, -0.13846658, 0.3605337, 0
847, 672262939, -0.70756507, 0.009205658, 0.005378576, -0.7065674, 0.004062582, -0.31446773, 0.3728056, 0
850, 672312940, -0.7226058, 0.008664604, 0.005541744, -0.6911835, -0.2613719, -0.20985581, 0.41745472, 0
853, 672362941, -0.722663, 0.009552587, 0.005901865, -0.6911091, -0.46881735, 0.18147117, 0.49127007, 0
855, 672396275, -0.723597, 0.009593816, 0.006067379, -0.69012916, -0.12323269, -0.09947435, 0.47969723, 0
858, 672446276, -0.7220593, 0.009510278, 0.0060789464, -0.6917389, -0.79070467, 1.0126952, 0.4992876, 0
861, 672496277, -0.7093651, 0.010958103, 0.0059716627, -0.70473033, -0.28723878, 0.08167939, 0.3452959, 0
863, 672529611, -0.70068324, 0.011124043, 0.0060011703, -0.71336025, -0.23802045, -0.19832985, 0.4908905, 0
866, 672579612, -0.69324833, 0.010653547, 0.005969907, -0.720595, -0.32921517, 0.07584519, 0.5312567, 0
870, 672646280, -0.6889259, 0.011658583, 0.0064345533, -0.7247092, -0.30067527, -0.1731271, 0.35565186, 0
873, 672696281, -0.6909771, 0.0110162115, 0.005495515, -0.72277135, -0.26106018, 0.06573619, 0.4029894, 0
876, 672746282, -0.6949479, 0.010214581, 0.0049644215, -0.7189701, 0.028848922, 0.42021912, 0.42441177, 0
878, 672779616, -0.69703966, 0.0106633, 0.0051968256, -0.7169341, -0.5883155, -0.40391532, 0.43607807, 0
881, 672829617, -0.6966983, 0.011163445, 0.005659603, -0.7172549, -0.36392474, 0.18898503, 0.44567108, 0
884, 672879618, -0.7069974, 0.010458003, 0.00600925, -0.707113, -0.2792923, -0.21627125, 0.43023586, 0
886, 672912952, -0.70738214, 0.0104372045, 0.0061118454, -0.70672756, -0.30954573, 0.05600588, 0.37611675, 0
889, 672962953, -0.7071076, 0.009946145, 0.005690039, -0.7070128, -0.33398086, 0.07102763, 0.4367981, 0
892, 673012954, -0.70622003, 0.010510135, 0.0051240446, -0.7078954, -0.3395484, 0.025928278, 0.47403717, 0
894, 673046288, -0.7064209, 0.010957023, 0.0054592253, -0.7076859, -0.3203807, 0.031216756, 0.41994, 0
898, 673112956, -0.70712495, 0.01126364, 0.006486035, -0.7069689, -0.31327114, 0.16656858, 0.3257227, 0
901, 673162957, -0.7072042, 0.011329655, 0.0065218983, -0.7068881, -0.34133047, 0.0658115, 0.4445238, 0
904, 673212958, -0.7069845, 0.011307102, 0.0065453644, -0.707108, -0.3315669, 0.031747766, 0.4396553, 0
907, 673262959, -0.7072039, 0.011358899, 0.0065849167, -0.7068873, -0.32214898, 0.07195953, 0.41931915, 0
909, 673296293, -0.7056689, 0.011834488, 0.0069479058, -0.7084086, -0.30413285, 0.14084367, 0.36298656, 0
912, 673346294, -0.7027454, 0.011942114, 0.0070902994, -0.7113055, -0.31609225, 0.19993055, 0.3629141, 0
915, 673396295, -0.69656867, 0.01291251, 0.0077390797, -0.717332, -0.32878953, -0.08137157, 0.51291466, 0
917, 673429629, -0.6941402, 0.014022688, 0.008716055, -0.71965015, -0.32419798, -0.06785346, 0.35967064, 0
920, 673479630, -0.6951466, 0.013565467, 0.008307682, -0.71869165, -0.3435962, 0.09525809, 0.46412754, 0
923, 673529631, -0.6964352, 0.013342417, 0.008132285, -0.71744925, -0.2957443, 0.047768943, 0.35022926, 0
925, 673562965, -0.696935, 0.012543954, 0.0074196924, -0.71698606, -0.33796152, 0.10110969, 0.48235893, 0
928, 673612966, -0.69697505, 0.01249983, 0.0073489984, -0.7169484, -0.3224418, 0.029651683, 0.4107399, 0
931, 673662967, -0.69711447, 0.011969583, 0.006930504, -0.71682626, -0.3377179, 0.013335391, 0.43242645, 0
934, 673712968, -0.70035756, 0.008871627, 0.0056024953, -0.7137147, -0.3778602, 0.17330357, 0.48147392, 0
936, 673746302, -0.7003502, 0.0088540455, 0.0055821836, -0.71372235, -0.31731513, 0.060262028, 0.43329144, 0
939, 673796303, -0.7003442, 0.008834158, 0.0055667604, -0.71372867, -0.3203024, 0.054157693, 0.4281702, 0
942, 673846304, -0.70034367, 0.008822358, 0.005552853, -0.7137293, -0.31598064, 0.059154462, 0.41030025, 0
944, 673879638, -0.70035225, 0.008819306, 0.0055478252, -0.7137209, -0.32670593, 0.038158175, 0.44222164, 0
947, 673929639, -0.7003483, 0.008792497, 0.0055262386, -0.7137254, -0.31685677, 0.049919825, 0.41572094, 0
950, 673979640, -0.7003427, 0.008816213, 0.0055033886, -0.7137307, -0.31902346, 0.050394334, 0.42456627, 0
952, 674012974, -0.7003375, 0.00880494, 0.0055051316, -0.71373594, -0.3233196, 0.05425524, 0.43706512, 0
955, 674062975, -0.70033574, 0.0087865, 0.0054881596, -0.7137381, -0.32031474, 0.04599387, 0.4375887, 0
958, 674112976, -0.70031893, 0.008769362, 0.005467333, -0.71375483, -0.33195803, 0.056724403, 0.4338112, 0
961, 674162977, -0.7003134, 0.008757716, 0.005443404, -0.7137606, -0.31984615, 0.050545298, 0.43713188, 0
963, 674196311, -0.70030284, 0.008743292, 0.0054324516, -0.7137713, -0.32961366, 0.06659792, 0.42169094, 0
966, 674246312, -0.70028794, 0.008709319, 0.005417194, -0.7137864, -0.31352627, 0.045293324, 0.43302917, 0
969, 674296313, -0.70028555, 0.0086859055, 0.0053950553, -0.71378934, -0.30264083, 0.048703577, 0.41870022, 0
971, 674329647, -0.7002827, 0.008672268, 0.0053871293, -0.7137924, -0.32549116, 0.05326415, 0.43070602, 0
974, 674379648, -0.70028913, 0.008656809, 0.0053765606, -0.71378624, -0.3254279, 0.05607998, 0.44305325, 0
978, 674446316, -0.7002935, 0.008628386, 0.0053475494, -0.71378255, -0.3224316, 0.05537139, 0.42681217, 0
981, 674496317, -0.70029306, 0.008602151, 0.005322225, -0.7137834, -0.3113982, 0.04967507, 0.43125153, 0
984, 674546318, -0.7002879, 0.008575047, 0.0053018318, -0.71378905, -0.31169814, 0.05672058, 0.43133926, 0
986, 674579652, -0.7002962, 0.008567162, 0.0052930405, -0.713781, -0.3149049, 0.06259748, 0.42529392, 0
989, 674629653, -0.7002919, 0.00851603, 0.0052736276, -0.71378607, -0.31662425, 0.033876393, 0.4353752, 0
992, 674679654, -0.7002799, 0.008482043, 0.0052628075, -0.71379834, -0.3146403, 0.0502312, 0.42615223, 0
994, 674712988, -0.70028126, 0.008473253, 0.0052568815, -0.7137971, -0.31816903, 0.05612798, 0.4294529, 0
997, 674762989, -0.7002823, 0.008436165, 0.005235046, -0.7137966, -0.32116455, 0.060825404, 0.40613556, 0
1000, 674812990, -0.70027614, 0.008413559, 0.0052349833, -0.7138029, -0.3061897, 0.052493937, 0.41780758, 0
1002, 674846324, -0.7002787, 0.008391856, 0.005223608, -0.7138008, -0.32062688, 0.041231688, 0.43825626, 0
1006, 674912992, -0.7002883, 0.008358826, 0.005190046, -0.7137919, -0.31877178, 0.058796473, 0.42277527, 0
1009, 674962993, -0.7002994, 0.008329903, 0.0051641795, -0.7137817, -0.30107322, 0.06835572, 0.4076233, 0
1012, 675012994, -0.7003053, 0.008299346, 0.0051344354, -0.71377647, -0.3056206, 0.04290172, 0.43561268, 0
1015, 675062995, -0.7003001, 0.008267869, 0.0051035318, -0.7137821, -0.31107843, 0.04038815, 0.4258051, 0
1017, 675096329, -0.7002986, 0.008254868, 0.005069942, -0.713784, -0.30772144, 0.050898217, 0.41487217, 0
1020, 675146330, -0.7002834, 0.008220315, 0.0050286856, -0.71379966, -0.3046149, 0.044266928, 0.41773129, 0
1023, 675196331, -0.7002772, 0.008181245, 0.0050171404, -0.7138063, -0.30902147, 0.04974948, 0.42026043, 0
1025, 675229665, -0.700276, 0.008165307, 0.0049925344, -0.7138077, -0.30219126, 0.059631377, 0.42019367, 0
1028, 675279666, -0.7002687, 0.008130681, 0.004960657, -0.7138155, -0.28357014, 0.057345092, 0.41898537, 0
1031, 675329667, -0.7002702, 0.008100635, 0.0049245073, -0.71381474, -0.30183458, 0.03936122, 0.4209833, 0
1035, 675396335, -0.70025355, 0.008058524, 0.0048837312, -0.71383184, -0.3084289, 0.06317363, 0.42990875, 0
1038, 675446336, -0.7002559, 0.008017176, 0.004843735, -0.71383023, -0.29911265, 0.050454773, 0.4208107, 0
1040, 675479670, -0.70026654, 0.007999508, 0.0048390455, -0.7138199, -0.29030022, 0.05553278, 0.42532063, 0
1043, 675529671, -0.7002696, 0.007972549, 0.004792024, -0.71381754, -0.3192101, 0.053129666, 0.42325687, 0
1046, 675579672, -0.7002718, 0.00793532, 0.004759855, -0.71381605, -0.30293953, 0.06503407, 0.40830708, 0
1048, 675613006, -0.7002681, 0.007899693, 0.0047379527, -0.7138202, -0.3190558, 0.046793636, 0.44711208, 0
1051, 675663007, -0.700263, 0.007860772, 0.0046998532, -0.7138259, -0.30125958, 0.042948958, 0.4311285, 0
1054, 675713008, -0.7002536, 0.0078316415, 0.0046615917, -0.7138356, -0.28659627, 0.052931476, 0.4407444, 0
1056, 675746342, -0.7002501, 0.0078114774, 0.0046348986, -0.71383953, -0.30032712, 0.058205523, 0.41278267, 0
1059, 675796343, -0.7002463, 0.007771464, 0.0046001268, -0.713844, -0.28199053, 0.04677087, 0.45676804, 0
1062, 675846344, -0.70025134, 0.0077137053, 0.0045815404, -0.71383977, -0.2987231, 0.04592763, 0.43433762, 0
1065, 675896345, -0.7002587, 0.0076836855, 0.004524316, -0.7138332, -0.29519972, 0.04435959, 0.4283247, 0
1067, 675929679, -0.7002565, 0.0076542944, 0.004500513, -0.7138358, -0.28934982, 0.048921775, 0.41905117, 0
1070, 675979680, -0.7002549, 0.0076055313, 0.004478726, -0.71383804, -0.29463425, 0.05289895, 0.42316437, 0
1073, 676029681, -0.70024633, 0.007555994, 0.0044269064, -0.7138473, -0.27535045, 0.05678501, 0.4339943, 0
1075, 676063015, -0.7002521, 0.007540438, 0.0043953075, -0.713842, -0.28440234, 0.05171187, 0.43217945, 0
1078, 676113016, -0.7002564, 0.007493233, 0.0043645483, -0.71383846, -0.27794078, 0.03716056, 0.44064713, 0
1081, 676163017, -0.7002549, 0.0074382448, 0.0043373383, -0.71384054, -0.2881162, 0.044047885, 0.44315434, 0
1083, 676196351, -0.70034856, 0.0074717314, 0.0044230446, -0.7137478, -0.29396674, 0.051305495, 0.4120903, 0
1086, 676246352, -0.70035183, 0.0074196127, 0.0043744156, -0.7137454, -0.27923897, 0.050782423, 0.41696167, 0
1089, 676296353, -0.7003423, 0.0073817135, 0.0043174955, -0.7137556, -0.29038495, 0.032262687, 0.4169016, 0
1092, 676346354, -0.7003367, 0.007329161, 0.0042758253, -0.7137618, -0.28556955, 0.04124296, 0.43048763, 0
1094, 676379688, -0.7003414, 0.0072988314, 0.0042643463, -0.71375763, -0.2684588, 0.055603504, 0.43784046, 0
1097, 676429689, -0.70034033, 0.007250223, 0.0042254725, -0.71375936, -0.27817985, 0.060763113, 0.43553448, 0
1100, 676479690, -0.70034873, 0.0071905963, 0.0041908436, -0.71375203, -0.28994545, 0.04863456, 0.426095, 0
1102, 676513024, -0.70034194, 0.0071409624, 0.0041554044, -0.71375936, -0.27811593, 0.050403744, 0.4233942, 0
1105, 676563025, -0.7003416, 0.0070862137, 0.004121433, -0.7137604, -0.28113082, 0.042367358, 0.43348312, 0
1108, 676613026, -0.7003471, 0.0070490865, 0.0040715975, -0.71375567, -0.27597266, 0.053899, 0.4326687, 0
1110, 676646360, -0.7003496, 0.0070121987, 0.004037903, -0.7137537, -0.28362978, 0.043143027, 0.43993664, 0
1114, 676713028, -0.70035547, 0.006909821, 0.0040005594, -0.71374935, -0.26741418, 0.040846076, 0.43125916, 0
1117, 676763029, -0.70035964, 0.0068594944, 0.003945718, -0.7137461, -0.28054053, 0.037925333, 0.42672443, 0
1120, 676813030, -0.70034146, 0.0067949267, 0.0038950667, -0.71376455, -0.27895358, 0.045085054, 0.43196678, 0
1123, 676863031, -0.700352, 0.0067519196, 0.003844336, -0.713755, -0.25046384, 0.052961487, 0.41705227, 0
1125, 676896365, -0.7003474, 0.00673059, 0.0038071005, -0.7137598, -0.2621669, 0.04560958, 0.43156815, 0
1128, 676946366, -0.7003356, 0.0066754213, 0.0037674878, -0.71377224, -0.26784235, 0.046998475, 0.41683102, 0
1131, 676996367, -0.7003375, 0.0065973774, 0.0037187668, -0.7137712, -0.25729308, 0.038321935, 0.41374397, 0
1133, 677029701, -0.70033985, 0.0065569505, 0.0036993895, -0.7137695, -0.27413222, 0.03612746, 0.4110422, 0
1136, 677079702, -0.7003414, 0.0065008816, 0.0036587468, -0.7137687, -0.2591789, 0.035081245, 0.4377947, 0
1139, 677129703, -0.7003299, 0.0064256997, 0.003609304, -0.7137808, -0.24811698, 0.03228283, 0.44129848, 0
1143, 677196371, -0.7003256, 0.0063364203, 0.003557604, -0.7137862, -0.24690105, 0.027967384, 0.4448166, 0
1146, 677246372, -0.70032096, 0.0062881717, 0.0035100933, -0.7137915, -0.24747466, 0.036162086, 0.45020962, 0
1148, 677279706, -0.70031965, 0.0062395493, 0.0034791904, -0.7137933, -0.2654229, 0.04247823, 0.39924622, 0
1151, 677329707, -0.7003223, 0.00618545, 0.0034447394, -0.7137913, -0.26703364, 0.049357332, 0.42201424, 0
1154, 677379708, -0.70032895, 0.0061255493, 0.0033999067, -0.71378547, -0.25687575, 0.03542823, 0.41648674, 0
1156, 677413042, -0.70032376, 0.0060806233, 0.0033670273, -0.71379113, -0.2524508, 0.03715315, 0.42206478, 0
1159, 677463043, -0.70032805, 0.006023562, 0.0033256495, -0.7137876, -0.24312656, 0.040676013, 0.42035294, 0
1162, 677513044, -0.7003378, 0.005952148, 0.003291562, -0.71377873, -0.2531233, 0.04745463, 0.4280777, 0
1164, 677546378, -0.7003466, 0.005909781, 0.0032617082, -0.7137706, -0.26087308, 0.030194305, 0.43774033, 0
1167, 677596379, -0.70035213, 0.005841347, 0.0032171092, -0.713766, -0.2459384, 0.049856134, 0.42446995, 0
1171, 677663047, -0.70033836, 0.005762165, 0.0031481036, -0.71378046, -0.25771227, 0.035253935, 0.41203117, 0
1174, 677713048, -0.70034295, 0.005683461, 0.0030976725, -0.71377677, -0.25010157, 0.030982625, 0.44021702, 0
1177, 677763049, -0.70034945, 0.00562615, 0.0030316755, -0.71377116, -0.23640153, 0.03053607, 0.43391705, 0
1179, 677796383, -0.7003481, 0.0055829464, 0.0030026836, -0.71377295, -0.23344551, 0.039810132, 0.43401814, 0
1182, 677846384, -0.7003435, 0.0055153007, 0.0029442017, -0.71377814, -0.23694986, 0.028210266, 0.43674183, 0
1185, 677896385, -0.70034385, 0.0054547326, 0.002880844, -0.71377856, -0.23449993, 0.02513896, 0.410594, 0
1187, 677929719, -0.700337, 0.005419115, 0.0028565421, -0.71378577, -0.23399346, 0.040611222, 0.43205357, 0
1190, 677979720, -0.70035225, 0.0053582257, 0.002807829, -0.71377146, -0.22912662, 0.026265102, 0.43884563, 0
1193, 678029721, -0.7003567, 0.005293297, 0.0027543798, -0.7137677, -0.22784202, 0.043632656, 0.4388218, 0
1195, 678063055, -0.7003558, 0.005251715, 0.002715605, -0.713769, -0.24142456, 0.033813532, 0.44327164, 0
1198, 678113056, -0.7003499, 0.0051828334, 0.0026794188, -0.7137755, -0.22624193, 0.031313527, 0.42888165, 0
1201, 678163057, -0.7003447, 0.0051295003, 0.0026201517, -0.7137812, -0.2333815, 0.035254296, 0.43917847, 0
1204, 678213058, -0.70037687, 0.0051584523, 0.0026305048, -0.71374935, -0.22327396, 0.030286226, 0.425745, 0
1206, 678246392, -0.7003748, 0.0051251827, 0.0025832683, -0.7137517, -0.23064907, 0.05095315, 0.43253994, 0
1209, 678296393, -0.700371, 0.00507251, 0.0025370147, -0.713756, -0.23317814, 0.03911945, 0.43518353, 0
1212, 678346394, -0.7003712, 0.005015543, 0.002470451, -0.71375644, -0.23799272, 0.041011285, 0.44277573, 0
1214, 678379728, -0.70036817, 0.0049726847, 0.0024425539, -0.7137599, -0.217441, 0.0366799, 0.43071747, 0
1217, 678429729, -0.7003737, 0.004900957, 0.0024251712, -0.7137551, -0.21562703, 0.019091725, 0.43841267, 0
1220, 678479730, -0.7003765, 0.0048434217, 0.0023847884, -0.71375287, -0.23042144, 0.04346135, 0.4124775, 0
1222, 678513064, -0.7003697, 0.004806422, 0.0023558098, -0.71375984, -0.20739153, 0.044628352, 0.4274845, 0
1225, 678563065, -0.7003621, 0.0047637015, 0.0022975728, -0.7137678, -0.21709713, 0.032454677, 0.4428177, 0
1228, 678613066, -0.7003594, 0.0047006817, 0.002260221, -0.71377105, -0.20996071, 0.030817198, 0.4380722, 0
1231, 678663067, -0.7003594, 0.0046371114, 0.002232322, -0.7137714, -0.21669234, 0.028377857, 0.42685318, 0
1233, 678696401, -0.7003628, 0.004612453, 0.0021938693, -0.71376836, -0.21192186, 0.03637537, 0.43888474, 0
1236, 678746402, -0.70036805, 0.004537086, 0.0021520439, -0.71376383, -0.21640772, 0.03060824, 0.4156561, 0
1239, 678796403, -0.7003604, 0.004471136, 0.0020987978, -0.7137718, -0.20940451, 0.035233773, 0.43415737, 0
1241, 678829737, -0.70036256, 0.004438277, 0.0020535248, -0.7137702, -0.20630857, 0.038066212, 0.4253025, 0
1244, 678879738, -0.7003723, 0.0043740096, 0.0020149471, -0.71376115, -0.2029024, 0.031913877, 0.42067432, 0
1247, 678929739, -0.70037085, 0.0043142852, 0.0019621917, -0.713763, -0.21964017, 0.027855316, 0.43294334, 0
1251, 678996407, -0.7003607, 0.0042339237, 0.0018969477, -0.71377367, -0.20488642, 0.03144401, 0.41270256, 0
1254, 679046408, -0.70036393, 0.0041731996, 0.0018493374, -0.71377087, -0.20558624, 0.023296945, 0.43212795, 0
1256, 679079742, -0.7003733, 0.004148641, 0.0018093439, -0.713762, -0.18553023, 0.035479736, 0.4258623, 0
1259, 679129743, -0.70037055, 0.0040678363, 0.0017640385, -0.7137653, -0.19339763, 0.033941437, 0.40928268, 0
1262, 679179744, -0.7003654, 0.004010825, 0.001722718, -0.71377075, -0.19109404, 0.03189264, 0.42969227, 0
1264, 679213078, -0.70036995, 0.003978394, 0.0016909747, -0.71376663, -0.2020399, 0.01561117, 0.42464256, 0
1267, 679263079, -0.7003713, 0.0039030886, 0.001649596, -0.7137657, -0.19313711, 0.039473165, 0.4381981, 0
1270, 679313080, -0.7003659, 0.0038420758, 0.0016010846, -0.7137716, -0.19660425, 0.036513127, 0.41950703, 0
1272, 679346414, -0.70036656, 0.0038016902, 0.0015808971, -0.71377116, -0.19212501, 0.033840366, 0.41825962, 0
1275, 679396415, -0.7003751, 0.003740124, 0.0015258942, -0.7137632, -0.19834949, 0.038756754, 0.41689014, 0
1279, 679463083, -0.700386, 0.0036532823, 0.0014725816, -0.71375304, -0.19474801, 0.025635332, 0.43538952, 0
1282, 679513084, -0.7003734, 0.0035816294, 0.0014235475, -0.7137658, -0.18439916, 0.032090902, 0.4242239, 0
1285, 679563085, -0.7003821, 0.0035362456, 0.0013803261, -0.7137576, -0.18946445, 0.0149941, 0.43384457, 0
1287, 679596419, -0.7003865, 0.003496536, 0.0013466785, -0.71375364, -0.17933527, 0.025843076, 0.4399433, 0
1290, 679646420, -0.7003883, 0.0034437, 0.0013019762, -0.71375215, -0.18743527, 0.023569312, 0.43181133, 0
1293, 679696421, -0.7003932, 0.0033882647, 0.0012593659, -0.71374774, -0.18842858, 0.0373902, 0.42674065, 0
1295, 679729755, -0.7003916, 0.0033455768, 0.0012413933, -0.71374947, -0.17842011, 0.026197953, 0.41075325, 0
1298, 679779756, -0.70039886, 0.0032938109, 0.0011837194, -0.71374273, -0.17758322, 0.033224206, 0.44541168, 0
1301, 679829757, -0.70040864, 0.0032577673, 0.0011298755, -0.7137334, -0.17137675, 0.026999155, 0.4177885, 0
1303, 679863091, -0.70039845, 0.003223643, 0.0010991587, -0.7137435, -0.17901386, 0.019410918, 0.4437008, 0
1308, 679946426, -0.7003919, 0.00314743, 0.0010318898, -0.7137505, -0.16874471, 0.025997031, 0.43676567, 0
1310, 679979760, -0.70039105, 0.0031128533, 0.0010007457, -0.71375144, -0.17731506, 0.032497272, 0.42236423, 0
1313, 680029761, -0.700389, 0.0030788188, 9.6350507E-4, -0.7137537, -0.18352851, 0.023015806, 0.43104267, 0
1316, 680079762, -0.70037854, 0.003010428, 9.37966E-4, -0.71376425, -0.16477735, 0.02377225, 0.42899418, 0
1318, 680113096, -0.70038056, 0.0029801119, 9.200989E-4, -0.71376246, -0.16922721, 0.016997332, 0.43604183, 0
1321, 680163097, -0.7003819, 0.0029376124, 8.5187773E-4, -0.7137614, -0.16771759, 0.028295437, 0.44585514, 0
1324, 680213098, -0.70039445, 0.0028886392, 8.771899E-4, -0.71374923, -0.16856304, 0.021554548, 0.44290638, 0
1326, 680246432, -0.7003921, 0.002850678, 8.5767463E-4, -0.71375173, -0.16561799, 0.028974194, 0.40844917, 0
1329, 680296433, -0.70039403, 0.0028068058, 8.186887E-4, -0.71375, -0.1662683, 0.03498112, 0.42625046, 0
1332, 680346434, -0.7003901, 0.0027583926, 7.646315E-4, -0.7137541, -0.15474632, 0.018447569, 0.453125, 0
1335, 680396435, -0.70038867, 0.0026933956, 7.245485E-4, -0.7137558, -0.1737766, 0.032773267, 0.426116, 0
1337, 680429769, -0.7003868, 0.0026479121, 6.95956E-4, -0.7137578, -0.17649466, 0.023242736, 0.42445374, 0
1340, 680479770, -0.70038587, 0.0025985495, 6.45008E-4, -0.71375906, -0.16412783, 0.018613443, 0.43128777, 0
1343, 680529771, -0.7003907, 0.0025397378, 5.965181E-4, -0.7137545, -0.17077611, 0.0402881, 0.4289465, 0
1345, 680563105, -0.70038086, 0.0024989191, 5.878249E-4, -0.71376425, -0.15809564, 0.035411753, 0.41825485, 0
1348, 680613106, -0.7003813, 0.002454478, 5.5337104E-4, -0.7137641, -0.1721663, 0.023044067, 0.43623543, 0
1351, 680663107, -0.7003879, 0.0023864256, 4.985511E-4, -0.7137579, -0.15119034, 0.028136043, 0.43426704, 0
1353, 680696441, -0.70039266, 0.002356585, 4.7634242E-4, -0.7137534, -0.15619023, 0.033759333, 0.42988777, 0
1356, 680746442, -0.7003918, 0.0023199634, 4.3886722E-4, -0.7137542, -0.16364323, 0.039864533, 0.416543, 0
1359, 680796443, -0.70039225, 0.0022763435, 3.928138E-4, -0.71375406, -0.15644643, 0.03200999, 0.4533968, 0
1362, 680846444, -0.70039016, 0.0022053595, 3.739278E-4, -0.7137564, -0.16244471, 0.022585625, 0.43683434, 0
1364, 680879778, -0.700391, 0.0021713418, 3.4529666E-4, -0.71375555, -0.16316229, 0.02388504, 0.44758034, 0
1367, 680929779, -0.70038444, 0.002119948, 2.9410477E-4, -0.7137622, -0.15441048, 0.022817956, 0.43422127, 0
1370, 680979780, -0.70039076, 0.0020758573, 2.4957565E-4, -0.71375614, -0.15279678, 0.02538717, 0.44843292, 0
1372, 681013114, -0.7003877, 0.002045663, 2.2281204E-4, -0.71375924, -0.14171326, 0.01994221, 0.4348383, 0
1375, 681063115, -0.7003936, 0.0020223851, 1.7627896E-4, -0.7137537, -0.14344001, 0.019301612, 0.42460155, 0
1378, 681113116, -0.70039546, 0.0019771731, 1.1790125E-4, -0.7137519, -0.14530306, 0.022883905, 0.42429733, 0
1380, 681146450, -0.7003941, 0.0019339945, 8.734767E-5, -0.71375334, -0.14844285, 0.020181086, 0.42239666, 0
1383, 681196451, -0.70039064, 0.0019018298, 5.4203392E-5, -0.71375686, -0.14127767, 0.022666931, 0.44474506, 0
1387, 681263119, -0.70040256, 0.001834798, 1.2213828E-5, -0.7137453, -0.13888095, 0.023140827, 0.42389488, 0
1390, 681313120, -0.70040625, 0.0017850737, -1.3909703E-5, -0.7137417, -0.14925134, 0.032355882, 0.43923378, 0
1393, 681363121, -0.7004014, 0.001745727, -4.7030157E-5, -0.7137467, -0.1572018, 0.030988347, 0.43608475, 0
1395, 681396455, -0.70040154, 0.0017069525, -6.845461E-5, -0.71374655, -0.13584296, 0.029752104, 0.4219389, 0
1398, 681446456, -0.70040023, 0.0016491393, -9.493904E-5, -0.71374804, -0.14310071, 0.027217576, 0.46290493, 0
1401, 681496457, -0.70041734, 0.0015991488, -1.2881115E-4, -0.7137313, -0.14724007, 0.024650078, 0.41474056, 0
1403, 681529791, -0.7004217, 0.0015595892, -1.3706232E-4, -0.7137272, -0.1253711, 0.029462459, 0.4220562, 0
1406, 681579792, -0.7004055, 0.0015192768, -1.7084849E-4, -0.71374315, -0.12809525, 0.023063892, 0.4421196, 0
1409, 681629793, -0.7003996, 0.001483317, -2.0611896E-4, -0.71374905, -0.13957332, 0.028293153, 0.42703247, 0
1411, 681663127, -0.70190984, 0.0014277833, -1.1524631E-4, -0.712264, 0.07357253, -1.1813688, 0.44211102, 0
1416, 681746462, -0.71121794, 0.0012977399, -4.1898564E-4, -0.7029699, -0.12743136, 0.017110629, 0.41953373, 0
1418, 681779796, -0.71121556, 0.0012657372, -4.5078225E-4, -0.70297235, -0.1365792, 0.029990718, 0.43239307, 0
1421, 681829797, -0.7112257, 0.0012268925, -4.7455705E-4, -0.70296216, -0.12103063, 0.021365771, 0.42139244, 0
1424, 681879798, -0.71122485, 0.0012000847, -4.9735536E-4, -0.70296305, -0.12036884, 0.03144944, 0.42786312, 0
1426, 681913132, -0.71123165, 0.0011798409, -5.12857E-4, -0.70295614, -0.12296758, 0.023359185, 0.42555428, 0
1429, 681963133, -0.71122694, 0.0011274868, -5.377103E-4, -0.70296097, -0.10768495, 0.012903515, 0.45574284, 0
1432, 682013134, -0.71124077, 0.0010839691, -5.706765E-4, -0.7029471, -0.1370928, 0.03339931, 0.43891048, 0
1434, 682046468, -0.71123904, 0.001051452, -5.907695E-4, -0.7029488, -0.11778198, 0.035193376, 0.4141569, 0
1437, 682096469, -0.71124804, 0.0010088474, -6.3080166E-4, -0.7029397, -0.12157398, 0.01580221, 0.43218708, 0
1440, 682146470, -0.7112373, 9.899056E-4, -6.6556974E-4, -0.70295054, -0.13590539, 0.021781981, 0.44315815, 0
1444, 682213138, -0.7112373, 9.459849E-4, -7.319154E-4, -0.70295066, -0.12663324, 0.02900363, 0.4150715, 0
1447, 682263139, -0.71123224, 9.0082706E-4, -7.6487474E-4, -0.7029558, -0.113035604, 0.0309955, 0.43580723, 0
1449, 682296473, -0.7112313, 8.8187814E-4, -7.96005E-4, -0.7029566, -0.119063966, 0.02655691, 0.43676758, 0
1452, 682346474, -0.711237, 8.268853E-4, -7.9909025E-4, -0.702951, -0.11881446, 0.03141671, 0.43559647, 0
1455, 682396475, -0.7112393, 7.950451E-4, -8.338346E-4, -0.7029487, -0.112783276, 0.034966223, 0.43717575, 0
1457, 682429809, -0.71122724, 7.7658566E-4, -8.522096E-4, -0.70296085, -0.11919943, 0.02159047, 0.43327713, 0
1460, 682479810, -0.7112336, 7.489032E-4, -8.667596E-4, -0.7029544, -0.1084373, 0.03374182, 0.42570305, 0
1463, 682529811, -0.71123433, 7.219434E-4, -8.8962214E-4, -0.7029537, -0.10490474, 0.031007124, 0.43641853, 0
1465, 682563145, -0.7112297, 7.060604E-4, -9.1232406E-4, -0.7029584, -0.10214084, 0.01821036, 0.4308424, 0
1468, 682613146, -0.7112224, 6.7913067E-4, -9.429108E-4, -0.7029658, -0.114048876, 0.025181696, 0.42032623, 0
1471, 682663147, -0.7112172, 6.3987134E-4, -9.7333477E-4, -0.702971, -0.10952736, 0.026458388, 0.4381647, 0
1474, 682713148, -0.7112253, 6.1371434E-4, -0.0010086307, -0.7029629, -0.11957653, 0.027296286, 0.4306736, 0
1476, 682746482, -0.71122247, 5.9534743E-4, -0.0010323031, -0.7029656, -0.110847116, 0.029021086, 0.4182291, 0
1479, 682796483, -0.71122926, 5.504187E-4, -0.0010549553, -0.7029588, -0.1147912, 0.026160581, 0.42743397, 0
1482, 682846484, -0.7112352, 5.1409425E-4, -0.0010683715, -0.70295274, -0.11691033, 0.0056756493, 0.44914913, 0
1484, 682879818, -0.7112414, 5.054858E-4, -0.0010922733, -0.7029464, -0.09714879, 0.029381484, 0.41523457, 0
1487, 682929819, -0.7112409, 4.8231662E-4, -0.0011261204, -0.7029469, -0.1039477, 0.03771248, 0.43068314, 0
1490, 682979820, -0.7112459, 4.4624583E-4, -0.0011519947, -0.70294183, -0.109150514, 0.028657353, 0.4162159, 0
1492, 683013154, -0.71125054, 4.2156674E-4, -0.0011814361, -0.7029371, -0.11874662, 0.025359834, 0.43370724, 0
1495, 683063155, -0.71125823, 4.0134884E-4, -0.0012137883, -0.7029293, -0.099580094, 0.035907686, 0.4210329, 0
1498, 683113156, -0.71125954, 3.6739104E-4, -0.0012299082, -0.702928, -0.09761157, 0.014378847, 0.42268276, 0
1501, 683163157, -0.71125317, 3.1002538E-4, -0.0012630178, -0.70293444, -0.09865202, 0.034941915, 0.4299183, 0
1503, 683196491, -0.71125776, 2.9543543E-4, -0.0012691952, -0.70292974, -0.096050404, 0.021684416, 0.4398384, 0
1506, 683246492, -0.711256, 2.7119435E-4, -0.0013017654, -0.70293146, -0.0943526, 0.026336554, 0.4384899, 0
1509, 683296493, -0.7112557, 2.3663283E-4, -0.0013333105, -0.70293164, -0.088549584, 0.02704584, 0.42790222, 0
1511, 683329827, -0.7112505, 2.2234867E-4, -0.001338279, -0.7029368, -0.09777586, 0.034243453, 0.4234438, 0
1514, 683379828, -0.71120554, 1.8611088E-4, -0.00135917, -0.7029824, -0.103559196, 0.043251082, 0.4230423, 0
1517, 683429829, -0.71110904, 1.5772338E-4, -0.0013471711, -0.70308006, -0.08993489, 0.01799912, 0.41178226, 0
1519, 683463163, -0.7110588, 8.911052E-5, -0.0012987858, -0.70313096, -0.09177808, 0.0061188675, 0.43039513, 0
1523, 683529831, -0.7110169, 9.2210066E-5, -0.0013880786, -0.7031732, -0.096081845, 0.019564146, 0.4267378, 0
1526, 683579832, -0.71101356, 7.9731035E-5, -0.0014207955, -0.70317656, -0.101706095, 0.0180681, 0.4113617, 0
1529, 683629833, -0.71102285, 3.496019E-5, -0.0014389205, -0.703167, -0.08326206, 0.014299555, 0.43203735, 0
1532, 683679834, -0.71102154, 2.9190924E-6, -0.0014711122, -0.70316833, -0.094107985, 0.029523397, 0.43350506, 0
1534, 683713168, -0.71102864, -2.6441838E-5, -0.0014699294, -0.7031612, -0.09854472, 0.012564347, 0.44283104, 0
1537, 683763169, -0.71102744, -5.4626573E-5, -0.001491492, -0.7031623, -0.080608115, 0.020345274, 0.4384756, 0
1540, 683813170, -0.71102434, -8.665617E-5, -0.0015309991, -0.70316535, -0.09620825, 0.025824098, 0.44533634, 0
1542, 683846504, -0.7110321, -1.10044944E-4, -0.0015443424, -0.7031574, -0.08994801, 0.032807954, 0.4343233, 0
1545, 683896505, -0.7110189, -1.342573E-4, -0.0015484184, -0.7031708, -0.096230626, 0.03797455, 0.4253168, 0
1548, 683946506, -0.7110277, -1.4778084E-4, -0.0015717832, -0.7031619, -0.09133915, 0.02307336, 0.44105816, 0
1552, 684013174, -0.7110259, -2.045205E-4, -0.0016078949, -0.70316356, -0.08019635, 0.030315548, 0.44415665, 0
1555, 684063175, -0.71101516, -2.2594006E-4, -0.0016317114, -0.7031744, -0.09167739, 0.019594057, 0.42963696, 0
1557, 684096509, -0.71102124, -2.5120584E-4, -0.0016553384, -0.7031683, -0.0854315, 0.018043784, 0.42964363, 0
1560, 684146510, -0.71102047, -2.6397937E-4, -0.001669201, -0.70316887, -0.09704231, 0.017246371, 0.4338255, 0
1563, 684196511, -0.7110103, -2.8995157E-4, -0.0016921958, -0.7031792, -0.084872335, 0.024600605, 0.4393139, 0
1565, 684229845, -0.71101916, -3.0162765E-4, -0.0017195629, -0.70317006, -0.070937365, 0.014917417, 0.41736412, 0
1568, 684279846, -0.7110265, -3.3606857E-4, -0.00176423, -0.7031627, -0.07745619, 0.01537869, 0.4252758, 0
1571, 684329847, -0.7110344, -3.6112868E-4, -0.0017939131, -0.7031545, -0.075535096, 0.011010437, 0.4332924, 0
1573, 684363181, -0.7110286, -3.692142E-4, -0.0017887128, -0.7031603, -0.09138654, 0.021200141, 0.41596317, 0
1576, 684413182, -0.71103823, -3.935584E-4, -0.0018029232, -0.7031505, -0.0666316, 0.025029736, 0.417531, 0
1580, 684479850, -0.71103585, -4.3037062E-4, -0.0018451721, -0.70315284, -0.086014815, 0.034942623, 0.43337727, 0
1583, 684529851, -0.7110358, -4.5823338E-4, -0.0018551545, -0.7031528, -0.08264956, 0.024974799, 0.42125797, 0
1586, 684579852, -0.7110397, -4.961159E-4, -0.0018738987, -0.7031488, -0.07946456, 0.01634558, 0.43771744, 0
1588, 684613186, -0.71104145, -5.04149E-4, -0.0018878703, -0.70314693, -0.086628616, 0.021973828, 0.43823528, 0
1591, 684663187, -0.7110293, -5.384702E-4, -0.0019093622, -0.7031593, -0.07345996, 0.0127044665, 0.4440441, 0
1594, 684713188, -0.71102995, -5.601848E-4, -0.0019330204, -0.70315844, -0.07584558, 0.030524679, 0.43208885, 0
1596, 684746522, -0.71102417, -5.808634E-4, -0.0019550184, -0.7031642, -0.08164245, 0.019783895, 0.43969727, 0
1599, 684796523, -0.7110308, -6.0522475E-4, -0.0019760726, -0.7031575, -0.07074656, 0.017533185, 0.455678, 0
1602, 684846524, -0.71103925, -6.154379E-4, -0.0019870945, -0.7031489, -0.085181825, 0.030020468, 0.41746712, 0
1604, 684879858, -0.7110429, -6.398794E-4, -0.002002563, -0.70314515, -0.07513244, 0.030394923, 0.4307909, 0
1607, 684929859, -0.711047, -6.604002E-4, -0.0020193835, -0.7031409, -0.086833835, 0.021809615, 0.42850876, 0
1610, 684979860, -0.711047, -6.811074E-4, -0.0020409173, -0.70314085, -0.08488621, 0.025160894, 0.4244442, 0
1613, 685029861, -0.7110466, -7.0165884E-4, -0.002066383, -0.7031413, -0.06817194, 0.031081725, 0.43512058, 0
1615, 685063195, -0.7110456, -7.09133E-4, -0.0020793073, -0.7031421, -0.08331992, 0.024819277, 0.42598248, 0
1618, 685113196, -0.7110422, -7.373662E-4, -0.002116466, -0.7031453, -0.06658454, 0.025475685, 0.45625687, 0
1621, 685163197, -0.703751, -0.0017621685, -0.004214579, -0.71043164, 0.40974954, 1.1452044, 0.46418667, 0
1623, 685196531, -0.6599923, -9.836385E-4, -0.003509393, -0.7512632, -1.2490834, -0.8782947, 0.4361496, 0
1626, 685246532, -0.6405345, 9.034294E-5, -0.0017157706, -0.7679271, -0.11130565, -0.014652072, 0.43060112, 0
1629, 685296533, -0.6405336, 7.79191E-5, -0.0017269996, -0.7679278, -0.10074558, -0.010753899, 0.42363453, 0
1632, 685346534, -0.64057165, 6.7424655E-5, -0.0017871079, -0.767896, -0.09975906, -0.009975892, 0.43253708, 0
1634, 685379868, -0.64056015, 7.8102865E-5, -0.0018304298, -0.7679055, -0.11144815, -0.0028080028, 0.4146633, 0
1637, 685429869, -0.64055324, 5.2339994E-5, -0.0018477108, -0.7679112, -0.10561783, -0.020614164, 0.42869663, 0
1640, 685479870, -0.6405612, 3.946036E-5, -0.0018737044, -0.7679045, -0.09675889, -0.009725475, 0.42905712, 0
1642, 685513204, -0.6405626, 2.3677267E-5, -0.0018945683, -0.7679033, -0.09180664, -0.021190949, 0.4276247, 0
1645, 685563205, -0.64059037, -2.0092913E-5, -0.0019034335, -0.7678801, -0.09455902, 0.0013019869, 0.42445564, 0
1648, 685613206, -0.64059395, -2.9733968E-5, -0.001934635, -0.7678771, -0.10805115, -0.015563452, 0.4302044, 0
1650, 685646540, -0.64058995, -5.838547E-5, -0.001953865, -0.76788026, -0.09589725, -0.017037708, 0.42904568, 0
1653, 685696541, -0.6405972, -6.878298E-5, -0.0019607274, -0.76787424, -0.099115066, -4.7192464E-4, 0.4386406, 0
1656, 685746542, -0.64058816, -9.320692E-5, -0.001982462, -0.7678817, -0.086608134, -0.0069870064, 0.4238863, 0
1660, 685813210, -0.64058566, -1.0535668E-4, -0.0019936117, -0.76788384, -0.10469148, -0.021945471, 0.43521404, 0
1663, 685863211, -0.6405885, -1.1926543E-4, -0.002015371, -0.7678813, -0.100383416, -0.0095837135, 0.43135357, 0
1665, 685896545, -0.6405854, -1.1178244E-4, -0.0020157432, -0.7678839, -0.098261304, -0.007793235, 0.4274702, 0
1668, 685946546, -0.64058506, -1.3568232E-4, -0.0020376027, -0.7678842, -0.0966016, -0.022969209, 0.42706394, 0
1671, 685996547, -0.6405853, -1.5393614E-4, -0.0020413534, -0.76788396, -0.09848791, -0.015882224, 0.43823814, 0
1673, 686029881, -0.6405857, -1.5491046E-4, -0.00205057, -0.7678836, -0.095447645, -0.008555235, 0.4229622, 0
1676, 686079882, -0.6405887, -1.829009E-4, -0.0020699126, -0.76788116, -0.09618801, -0.020326898, 0.44109154, 0
1679, 686129883, -0.6406006, -2.0286367E-4, -0.0020873838, -0.7678709, -0.09230134, 4.8329875E-5, 0.44694614, 0
1681, 686163217, -0.64058703, -2.1162712E-4, -0.0021124997, -0.7678822, -0.098483756, -0.023279114, 0.4486208, 0
1684, 686213218, -0.6405872, -2.0013009E-4, -0.0021258106, -0.7678821, -0.096536405, -0.014324582, 0.42673492, 0
1688, 686279886, -0.64057606, -2.075849E-4, -0.0021422855, -0.76789135, -0.09223629, -0.011091842, 0.4371214, 0
1691, 686329887, -0.6405785, -2.2782668E-4, -0.0021638328, -0.7678893, -0.10886137, -0.008678276, 0.42473412, 0
1694, 686379888, -0.6405708, -2.4821708E-4, -0.0021765598, -0.76789564, -0.09185454, -0.010711412, 0.4256506, 0
1696, 686413222, -0.64056134, -2.582112E-4, -0.0021923578, -0.76790357, -0.09300459, -0.014602542, 0.4588585, 0
1699, 686463223, -0.6405536, -2.863772E-4, -0.0022174427, -0.7679099, -0.08397337, -0.008068502, 0.45544815, 0
1702, 686513224, -0.6405676, -3.0572628E-4, -0.0022420827, -0.76789814, -0.10074664, -0.01002531, 0.42131138, 0
1704, 686546558, -0.6405665, -3.209704E-4, -0.0022500094, -0.767899, -0.086734094, -0.009575962, 0.44597626, 0
1707, 686596559, -0.6405681, -3.1597013E-4, -0.0022772753, -0.76789755, -0.080541134, -0.014948428, 0.42517567, 0
1710, 686646560, -0.6405722, -3.171257E-4, -0.0022835264, -0.7678942, -0.10295112, -0.004244808, 0.43465805, 0
1713, 686696561, -0.640558, -3.380599E-4, -0.0022992836, -0.7679059, -0.0930633, -0.0036453248, 0.43250656, 0
1717, 686763229, -0.6405423, -3.5554852E-4, -0.0023302909, -0.76791894, -0.078042746, 0.011854926, 0.42405796, 0
1719, 686796563, -0.6405457, -3.5656802E-4, -0.0023508188, -0.767916, -0.07679423, -0.015843503, 0.43060303, 0
1722, 686846564, -0.6405465, -3.7513807E-4, -0.002359834, -0.76791525, -0.08698922, 0.0031302813, 0.42059422, 0
1725, 686896565, -0.6405463, -4.0015407E-4, -0.002380057, -0.76791525, -0.08659626, -0.01234368, 0.40809727, 0
1727, 686929899, -0.6405476, -4.0012947E-4, -0.0023985857, -0.76791424, -0.087694675, -0.017721325, 0.44308662, 0
1730, 686979900, -0.6405483, -4.2672534E-4, -0.0024195688, -0.7679136, -0.08689186, -0.0015129409, 0.43293095, 0
1733, 687029901, -0.6405457, -4.2236014E-4, -0.0024618935, -0.7679156, -0.089331664, -0.024923753, 0.4277563, 0
1735, 687063235, -0.6405468, -4.398553E-4, -0.0024637363, -0.7679146, -0.09032328, -0.0050399266, 0.44419384, 0
1738, 687113236, -0.64054996, -4.525382E-4, -0.0024861733, -0.76791203, -0.082671225, -0.018334428, 0.4364195, 0
1741, 687163237, -0.640563, -4.6796573E-4, -0.0024987434, -0.7679011, -0.08992361, -0.019425957, 0.44032955, 0
1744, 687213238, -0.64056385, -4.8437752E-4, -0.0025274788, -0.76790035, -0.07491274, -0.008755659, 0.44453144, 0
1746, 687246572, -0.64056736, -4.7209248E-4, -0.0025344181, -0.76789737, -0.084493585, -0.003573987, 0.43921947, 0
1749, 687296573, -0.64056027, -4.884772E-4, -0.0025435176, -0.76790315, -0.07913543, -0.017009698, 0.44667244, 0
1752, 687346574, -0.6405703, -4.88904E-4, -0.0025647725, -0.7678947, -0.095223, -0.0030136737, 0.41757774, 0
1754, 687379908, -0.6405579, -5.006077E-4, -0.0025766355, -0.76790506, -0.08221876, -0.019996338, 0.43942165, 0
1757, 687429909, -0.64056015, -5.290057E-4, -0.0025926952, -0.76790315, -0.08609504, -0.0066343145, 0.4306488, 0
1760, 687479910, -0.64056313, -5.4581807E-4, -0.002609196, -0.76790047, -0.07919642, -0.008722726, 0.4277687, 0
1762, 687513244, -0.64056736, -5.6451466E-4, -0.0026097293, -0.767897, -0.075742625, 0.004647744, 0.42738247, 0
1765, 687563245, -0.64056516, -5.924175E-4, -0.0026237376, -0.7678988, -0.08392796, -0.016967019, 0.42342854, 0
1768, 687613246, -0.64056724, -6.176409E-4, -0.0026301611, -0.7678969, -0.07852524, -0.0073983837, 0.42495918, 0
1771, 687663247, -0.6404923, -3.3582436E-4, -0.0026092953, -0.76795965, -0.25416732, 0.1819362, 0.503438, 0
1773, 687696581, -0.6407627, 0.0019558235, -0.0035787586, -0.7677279, -0.08543379, 0.3039875, 0.50753784, 0
1776, 687746582, -0.57869595, 0.0074848677, -0.00553233, -0.81549, -0.24121518, 0.9911613, 0.35045528, 0
1779, 687796583, -0.47676006, 0.0033946794, -0.0011335142, -0.8790259, -0.42476285, 0.4044493, 0.6943445, 0
1781, 687829917, -0.4259605, 0.0021216348, -6.5845245E-4, -0.9047387, 0.13322785, -0.9086908, 0.5297613, 0
1784, 687879918, -0.374191, 0.0011715369, 3.920764E-4, -0.9273507, -0.17230602, 0.23848614, 0.4002838, 0
1787, 687929919, -0.28602478, 0.0032630877, 7.905935E-4, -0.9582161, 0.20483427, -1.8038149, 0.58584213, 0
1789, 687963253, -0.24654025, 0.0045843734, 0.0016344191, -0.96912, 0.3246549, -1.1417754, 0.40488148, 0
1792, 688013254, -0.21188879, 0.0056873756, 0.0022088813, -0.9772745, -0.041629955, -0.45966864, 0.4002056, 0
1796, 688079922, -0.15031253, 0.005775687, 0.0026824048, -0.98861784, -0.47396004, 0.052887667, 0.42057228, 0
1799, 688129923, -0.107255936, 0.00732224, 0.0033375355, -0.9941986, 0.46596226, -0.6330181, 0.41125202, 0
1802, 688179924, -0.07546649, 0.007849966, 0.0039943415, -0.9971092, -0.04775038, -0.15200292, 0.4052601, 0
1804, 688213258, -0.062151313, 0.007951947, 0.0036462068, -0.99802816, 0.31147552, -0.47670805, 0.4149189, 0
1807, 688263259, -0.040477693, 0.007504781, 0.0040225876, -0.99914396, -0.096094735, -0.19210076, 0.3903265, 0
1810, 688313260, -0.030218398, 0.0072715995, 0.0042086793, -0.9995078, -0.090571515, -0.30167648, 0.4315958, 0
1812, 688346594, -0.03014782, 0.007320018, 0.004251721, -0.9995094, -0.10442691, -0.29574698, 0.4131279, 0
1815, 688396595, -0.027791781, 0.006236675, 0.00391679, -0.9995864, -0.16494538, -0.26071316, 0.44599342, 0
1818, 688446596, 0.0130990995, 0.008333959, 0.0038358348, -0.99987197, 0.56898177, 0.08447453, 0.40551186, 0
1821, 688496597, 0.028677965, 0.00827952, 0.0042438703, -0.99954516, -0.08903079, -0.32512316, 0.44097614, 0
1825, 688563265, 0.028304268, 0.007909958, 0.004862548, -0.99955606, -0.06594499, -0.39422777, 0.42025948, 0
1827, 688596599, 0.027377356, 0.0078060757, 0.004808415, -0.9995828, -0.098956674, -0.3004339, 0.44811916, 0
1830, 688646600, 0.027170643, 0.0071383757, 0.004621636, -0.99959445, -0.08452993, -0.32906327, 0.43373013, 0
1833, 688696601, 0.026186295, 0.0072064768, 0.004685279, -0.99961996, -0.116198234, -0.32771623, 0.42533207, 0
1835, 688729935, 0.026748292, 0.007242925, 0.004523049, -0.99960554, -0.10251855, -0.29896298, 0.42037582, 0
1838, 688779936, 0.027927542, 0.007235526, 0.0039307293, -0.99957585, -0.08046757, -0.32064313, 0.44431782, 0
1841, 688829937, 0.027968101, 0.0070875376, 0.0045686797, -0.99957305, -0.11902083, -0.3160968, 0.4416151, 0
1843, 688863271, 0.028194424, 0.0068546683, 0.004614014, -0.9995681, -0.081365354, -0.299592, 0.42310715, 0
1846, 688913272, 0.027865052, 0.0055290926, 0.0043359594, -0.9995868, -0.24828652, -0.3346613, 0.39800167, 0
1849, 688963273, 0.027689736, 0.0055815107, 0.0043605953, -0.9995912, -0.08582657, -0.31855592, 0.41518116, 0
1853, 689029941, 0.027680786, 0.005558111, 0.0043433295, -0.9995917, -0.09179418, -0.30308524, 0.42950058, 0
1856, 689079942, 0.027670417, 0.005551068, 0.0043231677, -0.99959207, -0.08662475, -0.31201908, 0.42351532, 0
1858, 689113276, 0.027671535, 0.0055464115, 0.004319889, -0.9995921, -0.07703789, -0.30157605, 0.42199516, 0
1861, 689163277, 0.027681235, 0.005506294, 0.0042922897, -0.9995922, -0.08128034, -0.32312313, 0.43469238, 0
1865, 689229945, 0.027670942, 0.0054659974, 0.004269, -0.9995927, -0.09165718, -0.31620947, 0.4169922, 0
1868, 689279946, 0.027671386, 0.0054408074, 0.004250386, -0.99959296, -0.08295838, -0.30214247, 0.4229269, 0
1870, 689313280, 0.02767397, 0.0054282006, 0.004230839, -0.999593, -0.090747476, -0.32963797, 0.4081993, 0
1873, 689363281, 0.027656414, 0.0054260907, 0.0042047054, -0.99959373, -0.08347042, -0.29985836, 0.4308834, 0
1876, 689413282, 0.027644841, 0.005410306, 0.004206479, -0.99959403, -0.07600674, -0.32547545, 0.42364788, 0
1879, 689463283, 0.027648441, 0.0053935684, 0.004198325, -0.99959403, -0.07081258, -0.3134678, 0.4149542, 0
1881, 689496617, 0.027645793, 0.005378396, 0.004199579, -0.99959415, -0.07519813, -0.315726, 0.41564083, 0
1884, 689546618, 0.027639493, 0.005353612, 0.0041860035, -0.9995946, -0.07602358, -0.31475925, 0.41358757, 0
1887, 689596619, 0.02763122, 0.005337362, 0.0041516344, -0.99959505, -0.07579658, -0.29729918, 0.41610432, 0
1889, 689629953, 0.027625257, 0.0053172414, 0.00412745, -0.99959534, -0.09076811, -0.3090864, 0.41834927, 0
1892, 689679954, 0.027630944, 0.0052967994, 0.004099051, -0.9995956, -0.07978945, -0.31017393, 0.41321564, 0
1895, 689729955, 0.027632415, 0.005271462, 0.0040687434, -0.9995957, -0.06776208, -0.31627828, 0.43987846, 0
1897, 689763289, 0.027645968, 0.0052572726, 0.004057598, -0.9995954, -0.08456177, -0.30903858, 0.42846394, 0
1900, 689813290, 0.02764699, 0.0052383696, 0.004032846, -0.99959564, -0.07942199, -0.307519, 0.4226408, 0
1903, 689863291, 0.027633868, 0.005235912, 0.0040052743, -0.9995961, -0.08327291, -0.31099352, 0.43288803, 0
1906, 689913292, 0.027636949, 0.0052094995, 0.003977533, -0.9995963, -0.08466708, -0.30673686, 0.41338062, 0
1908, 689946626, 0.027629413, 0.005180693, 0.0039657825, -0.9995967, -0.0655281, -0.30187464, 0.43977928, 0
1911, 689996627, 0.027638182, 0.0051642708, 0.0039432715, -0.9995967, -0.07775021, -0.3166531, 0.42890453, 0
1914, 690046628, 0.027640456, 0.005134738, 0.003919127, -0.99959683, -0.08138019, -0.30334178, 0.41441345, 0
1916, 690079962, 0.027645707, 0.0051164045, 0.0038938602, -0.99959683, -0.07252258, -0.31426707, 0.44420624, 0
1919, 690129963, 0.027656807, 0.0050840965, 0.0038595945, -0.9995968, -0.07140737, -0.2964182, 0.4281807, 0
1922, 690179964, 0.027677814, 0.0050731413, 0.0038327726, -0.9995964, -0.06927888, -0.3038842, 0.4260521, 0
1924, 690213298, 0.027667012, 0.005058296, 0.0037957393, -0.99959695, -0.060235567, -0.29724807, 0.43389702, 0
1927, 690263299, 0.027660575, 0.0050330246, 0.0037645414, -0.99959725, -0.06656699, -0.29302496, 0.4353199, 0
1930, 690313300, 0.027662007, 0.005000662, 0.003753049, -0.99959755, -0.0685879, -0.30259982, 0.45177364, 0
1934, 690379968, 0.027665002, 0.0049727205, 0.0037207934, -0.9995978, -0.05848787, -0.30327976, 0.4279709, 0
1937, 690429969, 0.027661558, 0.0049514077, 0.0037002743, -0.999598, -0.06743651, -0.2983471, 0.4405594, 0
1939, 690463303, 0.027664801, 0.0049234144, 0.0036748624, -0.99959815, -0.07727232, -0.29753643, 0.43095493, 0
1942, 690513304, 0.027659945, 0.0049145026, 0.0036190276, -0.9995985, -0.074645996, -0.302262, 0.4155922, 0
1945, 690563305, 0.027662817, 0.004883996, 0.00358524, -0.9995987, -0.062343903, -0.29364815, 0.42911434, 0
1947, 690596639, 0.027668975, 0.0048789675, 0.0035674705, -0.99959856, -0.07457562, -0.31006184, 0.42904854, 0
1950, 690646640, 0.027666032, 0.0048774495, 0.0035261104, -0.9995988, -0.08046883, -0.30594522, 0.42774105, 0
1953, 690696641, 0.027639115, 0.0048674014, 0.003496232, -0.99959975, -0.051167242, -0.30241105, 0.40612984, 0
1956, 690746642, 0.027639322, 0.00484506, 0.0034524766, -0.9996, -0.06867944, -0.3010507, 0.4224367, 0
1958, 690779976, 0.027628664, 0.004815625, 0.0034263863, -0.9996006, -0.057182543, -0.30022627, 0.41874695, 0
1962, 690846644, 0.02760968, 0.0047850814, 0.0033854686, -0.9996014, -0.055842757, -0.2921826, 0.41043854, 0
1965, 690896645, 0.027609147, 0.0047653536, 0.0033505368, -0.99960154, -0.075402856, -0.29877374, 0.42588234, 0
1968, 690946646, 0.027607018, 0.004755253, 0.0033082047, -0.9996018, -0.057834644, -0.29461512, 0.41221714, 0
1970, 690979980, 0.027610179, 0.004743033, 0.003280156, -0.9996019, -0.058028866, -0.28585997, 0.43712807, 0
1973, 691029981, 0.027604826, 0.004716837, 0.0032350845, -0.9996023, -0.068834305, -0.30748418, 0.43891716, 0
1976, 691079982, 0.027603809, 0.0046906783, 0.003201295, -0.9996027, -0.05389989, -0.28529736, 0.43655777, 0
1978, 691113316, 0.02760576, 0.0046586436, 0.003167345, -0.99960285, -0.056245964, -0.29342374, 0.4188938, 0
1981, 691163317, 0.027613437, 0.0046460894, 0.003123589, -0.99960274, -0.057387803, -0.30222932, 0.43306923, 0
1984, 691213318, 0.02762235, 0.004640914, 0.0030721652, -0.9996026, -0.062049214, -0.2779588, 0.42176342, 0
1987, 691263319, 0.027622916, 0.004605488, 0.0030268542, -0.99960303, -0.07104411, -0.30031204, 0.4286871, 0
1991, 691329987, 0.027618062, 0.0045697265, 0.0029556418, -0.9996034, -0.05795156, -0.2887612, 0.44502544, 0
1993, 691363321, 0.02760924, 0.0045514014, 0.0029407176, -0.9996038, -0.06456304, -0.29214928, 0.43820953, 0
1996, 691413322, 0.027619006, 0.0045557995, 0.0028832082, -0.9996037, -0.06825207, -0.28177172, 0.42606354, 0
1999, 691463323, 0.02762251, 0.004537028, 0.0028469095, -0.99960387, -0.058039725, -0.28175303, 0.4304762, 0
2001, 691496657, 0.027629498, 0.004526619, 0.0028069594, -0.99960375, -0.06649413, -0.2855327, 0.43029976, 0
2004, 691546658, 0.027631156, 0.004491907, 0.0027566638, -0.9996041, -0.05721481, -0.29206768, 0.44393635, 0
2007, 691596659, 0.027623676, 0.0044649057, 0.0027073608, -0.9996045, -0.04909419, -0.28246164, 0.42917156, 0
2010, 691646660, 0.02762723, 0.0044376794, 0.002653551, -0.9996047, -0.043685503, -0.28079486, 0.43742847, 0
2012, 691679994, 0.02763017, 0.0044168714, 0.002617879, -0.99960476, -0.05564684, -0.29319462, 0.44387913, 0
2015, 691729995, 0.027630534, 0.004382174, 0.0025706931, -0.99960506, -0.05416856, -0.278273, 0.45281792, 0
2018, 691779996, 0.027623376, 0.0043441155, 0.0025244588, -0.99960554, -0.058570705, -0.27521366, 0.4582386, 0
2020, 691813330, 0.027620599, 0.0043334914, 0.0024779323, -0.9996058, -0.052753072, -0.29167932, 0.4393587, 0
2023, 691863331, 0.027620476, 0.004312652, 0.0024270157, -0.99960595, -0.059540883, -0.27551666, 0.4400139, 0
2026, 691913332, 0.027621578, 0.0042905584, 0.0023858538, -0.9996061, -0.061653093, -0.2681107, 0.4266777, 0
2028, 691946666, 0.027625814, 0.004280805, 0.0023531504, -0.9996062, -0.04695486, -0.273984, 0.4349785, 0
2031, 691996667, 0.027620923, 0.00425648, 0.0022985137, -0.99960655, -0.05456857, -0.26432192, 0.4353323, 0
2034, 692046668, 0.027615268, 0.0042377324, 0.0022542228, -0.99960685, -0.047331575, -0.27855527, 0.42927265, 0
2037, 692096669, 0.027607884, 0.004226552, 0.002203659, -0.9996072, -0.043129835, -0.24986614, 0.4407835, 0
2039, 692130003, 0.02760418, 0.0042105033, 0.0021714605, -0.99960744, -0.057634264, -0.28380805, 0.4328966, 0
2042, 692180004, 0.027816549, 0.0041695987, 0.002245942, -0.99960154, -0.06210558, -0.27344447, 0.42987823, 0
2045, 692230005, 0.027801566, 0.0041499045, 0.0021985054, -0.9996022, -0.050477706, -0.26272082, 0.4471531, 0
2047, 692263339, 0.027794324, 0.0041390485, 0.0021689776, -0.9996025, -0.055330362, -0.2702972, 0.43894482, 0
2050, 692313340, 0.027785085, 0.0041220537, 0.0021071513, -0.9996029, -0.05231887, -0.27157453, 0.41943932, 0
2053, 692363341, 0.027796268, 0.004104406, 0.0020465585, -0.99960285, -0.05703081, -0.26451054, 0.436306, 0
2055, 692396675, 0.027799182, 0.0040974114, 0.0020086258, -0.9996028, -0.051293485, -0.25967902, 0.41877556, 0
2058, 692446676, 0.02781512, 0.004077644, 0.0019625565, -0.9996026, -0.053036787, -0.27158415, 0.43494034, 0
2061, 692496677, 0.02780902, 0.004052564, 0.0019154607, -0.999603, -0.05289191, -0.25982225, 0.45003796, 0
2064, 692546678, 0.027803775, 0.0040288926, 0.0018602153, -0.9996033, -0.048563983, -0.26330733, 0.43105602, 0
2066, 692580012, 0.027798431, 0.0040128566, 0.0018450947, -0.9996036, -0.041625176, -0.25690162, 0.43377686, 0
2070, 692646680, 0.027803084, 0.0039807786, 0.0017751881, -0.9996037, -0.034254715, -0.2598935, 0.39780807, 0
2073, 692696681, 0.027815944, 0.003937216, 0.0017226704, -0.9996035, -0.04311295, -0.27094358, 0.43873978, 0
2076, 692746682, 0.027821003, 0.003913806, 0.0016730765, -0.9996036, -0.046954922, -0.25525615, 0.44285774, 0
2078, 692780016, 0.027819213, 0.0039017159, 0.0016403762, -0.99960375, -0.04703814, -0.25260493, 0.43749714, 0
2081, 692830017, 0.027811464, 0.0038650623, 0.001591251, -0.99960417, -0.04724512, -0.2538369, 0.41813946, 0
2084, 692880018, 0.027812164, 0.0038404593, 0.0015482527, -0.9996043, -0.037554044, -0.2501732, 0.42078972, 0
2086, 692913352, 0.027807092, 0.0038274813, 0.0015084877, -0.9996046, -0.045760863, -0.2669495, 0.42383575, 0
2089, 692963353, 0.027791621, 0.0038048106, 0.001445129, -0.9996052, -0.03715529, -0.25477123, 0.43656063, 0
2092, 693013354, 0.027803976, 0.0037796963, 0.0013608022, -0.99960506, -0.04579474, -0.26978534, 0.42590714, 0
2095, 693063355, 0.027800398, 0.0037450693, 0.0012922225, -0.9996054, -0.048882775, -0.24795717, 0.43756104, 0
2099, 693130023, 0.027803086, 0.0037279322, 0.0012174235, -0.99960554, -0.045014676, -0.25694442, 0.43787766, 0
2101, 693163357, 0.027807947, 0.0037088182, 0.0011835105, -0.9996054, -0.04349759, -0.25289714, 0.43636894, 0
2104, 693213358, 0.027833838, 0.0036841203, 0.0011356288, -0.9996049, -0.046281632, -0.24922243, 0.4472475, 0
2107, 693263359, 0.027830169, 0.0036569326, 0.0010785718, -0.9996051, -0.044081453, -0.24160674, 0.44484806, 0
2109, 693296693, 0.027819626, 0.003639652, 0.0010465891, -0.99960554, -0.041017406, -0.24933225, 0.42901134, 0
2112, 693346694, 0.027825575, 0.003624533, 9.851899E-4, -0.99960554, -0.033156462, -0.2515779, 0.43371487, 0
2115, 693396695, 0.027830947, 0.0035950488, 9.2746323E-4, -0.9996054, -0.041860756, -0.25373343, 0.4334097, 0
2117, 693430029, 0.02783183, 0.0035799858, 8.8152185E-4, -0.9996056, -0.028631402, -0.25135317, 0.4392357, 0
2120, 693480030, 0.027834654, 0.003539699, 8.206461E-4, -0.9996057, -0.038610857, -0.24361505, 0.42067242, 0
2123, 693530031, 0.027840465, 0.003534463, 7.559514E-4, -0.99960554, -0.03231015, -0.23249552, 0.46351433, 0
2127, 693596699, 0.027846407, 0.0035395364, 6.6987466E-4, -0.9996054, -0.037788555, -0.24907242, 0.41766453, 0
2130, 693646700, 0.027851986, 0.0035229845, 6.1572687E-4, -0.99960536, -0.026712926, -0.23271194, 0.43317032, 0
2132, 693680034, 0.0278412, 0.0035163797, 5.69813E-4, -0.9996058, -0.042439643, -0.23150298, 0.41467953, 0
2135, 693730035, 0.027848199, 0.0034805583, 5.0598045E-4, -0.9996058, -0.028452031, -0.24699357, 0.4228468, 0
2138, 693780036, 0.027861828, 0.0034566629, 4.5479188E-4, -0.9996054, -0.027551558, -0.23048913, 0.4357214, 0
2140, 693813370, 0.027875284, 0.0034437857, 4.1784602E-4, -0.9996052, -0.03690797, -0.2233726, 0.4289608, 0
2143, 693863371, 0.027878912, 0.0034196395, 3.6597665E-4, -0.9996052, -0.042632654, -0.23147652, 0.4487524, 0
2146, 693913372, 0.027876467, 0.003415767, 3.1565223E-4, -0.99960524, -0.036112383, -0.22273359, 0.4391899, 0
2149, 693963373, 0.027881268, 0.0033943406, 2.4845265E-4, -0.9996052, -0.02878948, -0.2433976, 0.45282078, 0
2151, 693996707, 0.027881376, 0.0033780923, 2.0799987E-4, -0.9996052, -0.041003264, -0.23426944, 0.42067337, 0
2154, 694046708, 0.027869396, 0.0033610244, 1.6316798E-4, -0.9996056, -0.025834292, -0.23778345, 0.4282961, 0
2157, 694096709, 0.02786393, 0.003352777, 1.0947129E-4, -0.9996058, -0.032491412, -0.22949833, 0.42328072, 0
2159, 694130043, 0.027881663, 0.0033338945, 6.784313E-5, -0.9996054, -0.03262054, -0.22905341, 0.43400764, 0
2162, 694180044, 0.027776768, 0.0032623357, 2.564682E-5, -0.9996086, -0.036835317, -0.2288125, 0.44631386, 0
2165, 694230045, 0.027761897, 0.0032310379, -3.3753375E-5, -0.999609, -0.034802157, -0.23422776, 0.42199516, 0
2167, 694263379, 0.027751323, 0.0032242523, -7.732137E-5, -0.9996094, -0.023168, -0.2165391, 0.40215302, 0
2170, 694313380, 0.027753212, 0.003213442, -1.3291714E-4, -0.99960935, -0.035337407, -0.2305801, 0.43593597, 0
2173, 694363381, 0.0277609, 0.003216836, -1.9705044E-4, -0.9996091, -0.027915696, -0.22152773, 0.44219494, 0
2176, 694413382, 0.027767457, 0.0031883777, -2.4260457E-4, -0.9996091, -0.018235141, -0.21653795, 0.41960907, 0
2178, 694446716, 0.027774435, 0.0031663508, -2.764278E-4, -0.99960893, -0.028140925, -0.2145749, 0.46415615, 0
2181, 694496717, 0.027782625, 0.0031572152, -3.3173533E-4, -0.99960864, -0.027664533, -0.22507355, 0.4558506, 0
2184, 694546718, 0.027780328, 0.0031430079, -3.864679E-4, -0.9996088, -0.037034865, -0.21620375, 0.44483852, 0
2186, 694580052, 0.027760573, 0.003127618, -4.382147E-4, -0.99960935, -0.028656594, -0.21600859, 0.43801022, 0
2189, 694630053, 0.027775044, 0.0031203052, -5.056217E-4, -0.99960893, -0.020947888, -0.19754146, 0.4333601, 0
2192, 694680054, 0.027769297, 0.0031136456, -5.607789E-4, -0.9996091, -0.03381125, -0.21867442, 0.42942238, 0
2194, 694713388, 0.027769037, 0.0031088388, -6.0649874E-4, -0.9996091, -0.029337179, -0.21171397, 0.4400854, 0
2197, 694763389, 0.027769662, 0.0030923646, -6.622981E-4, -0.9996091, -0.02828773, -0.19867724, 0.44230747, 0
2200, 694813390, 0.027771845, 0.003079995, -7.1396027E-4, -0.99960893, -0.027881406, -0.20919028, 0.44040394, 0
2203, 694863391, 0.027794942, 0.0030545543, -7.6965144E-4, -0.99960846, -0.020009039, -0.20133454, 0.4188757, 0
2207, 694930059, 0.027780563, 0.0030478982, -8.7862345E-4, -0.9996088, -0.042355638, -0.20860924, 0.43583775, 0
2209, 694963393, 0.027770717, 0.003029256, -9.202801E-4, -0.9996091, -0.04539465, -0.20129412, 0.43885422, 0
2212, 695013394, 0.027791228, 0.0030131475, -9.825806E-4, -0.9996085, -0.028733583, -0.2053267, 0.44004917, 0
2215, 695063395, 0.027794408, 0.002992188, -0.0010344202, -0.9996084, -0.02404578, -0.21735416, 0.42893314, 0
2217, 695096729, 0.027788378, 0.002967506, -0.0010694982, -0.9996085, -0.028754225, -0.20634635, 0.44121933, 0
2220, 695146730, 0.027793912, 0.0029628547, -0.0011377751, -0.9996084, -0.025344506, -0.20838943, 0.45159054, 0
2223, 695196731, 0.027794506, 0.0029324691, -0.0011996987, -0.9996084, -0.03327717, -0.2070758, 0.43433094, 0
2225, 695230065, 0.027805176, 0.0029196665, -0.0012460083, -0.99960804, -0.032631077, -0.19444765, 0.43049812, 0
2228, 695280066, 0.027795255, 0.0029035567, -0.0013173745, -0.99960834, -0.027813794, -0.20102763, 0.4448328, 0
2231, 695330067, 0.027787719, 0.002895784, -0.0013777907, -0.99960846, -0.026975306, -0.19474372, 0.41989708, 0
2235, 695396735, 0.027780453, 0.0028858872, -0.0014419901, -0.99960864, -0.032323558, -0.18650457, 0.44050026, 0
2238, 695446736, 0.02780308, 0.00286913, -0.0014983711, -0.999608, -0.018373631, -0.19486481, 0.4324093, 0
2240, 695480070, 0.027809158, 0.0028745376, -0.0015275584, -0.9996076, -0.029506274, -0.19986534, 0.43695736, 0
2243, 695530071, 0.027815254, 0.0028499172, -0.0015918682, -0.99960756, -0.029104257, -0.19702116, 0.45578098, 0
2246, 695580072, 0.02782242, 0.0028253775, -0.0016345852, -0.9996072, -0.022791531, -0.18352255, 0.44396877, 0
2248, 695613406, 0.027807955, 0.0028149278, -0.0016722941, -0.9996077, -0.015262107, -0.19323051, 0.42344666, 0
2251, 695663407, 0.02781124, 0.0028008008, -0.0017471849, -0.9996075, -0.027351765, -0.1945573, 0.4124174, 0
2254, 695713408, 0.027812619, 0.0027933877, -0.0018139274, -0.9996074, -0.02267287, -0.17657964, 0.42207336, 0
2257, 695763409, 0.027789047, 0.0027836661, -0.0018647725, -0.999608, -0.029481178, -0.1944274, 0.43492985, 0
2259, 695796743, 0.027792886, 0.0027691002, -0.0019025588, -0.99960774, -0.025113292, -0.17852119, 0.4458027, 0
2263, 695863411, 0.027804602, 0.0027467073, -0.0019916072, -0.9996074, -0.03467134, -0.18501969, 0.43450546, 0
2266, 695913412, 0.027809326, 0.0027280385, -0.0020501704, -0.99960715, -0.025543751, -0.19912109, 0.44742107, 0
2269, 695963413, 0.027811255, 0.0027108237, -0.0021014826, -0.9996071, -0.009831906, -0.17889713, 0.4305935, 0
2271, 695996747, 0.027815703, 0.0027023575, -0.002141624, -0.9996068, -0.015428484, -0.1762462, 0.4346943, 0
2274, 696046748, 0.027822979, 0.0027011358, -0.0021911399, -0.99960655, -0.02093732, -0.17962612, 0.4209757, 0
2277, 696096749, 0.027846597, 0.0026818612, -0.002253056, -0.99960583, -0.019915827, -0.1828168, 0.44340324, 0
2279, 696130083, 0.027848087, 0.0026819697, -0.0022943951, -0.9996057, -0.023344092, -0.17681807, 0.4431324, 0
2282, 696180084, 0.027779229, 0.0026274752, -0.0022804153, -0.99960774, -0.02815364, -0.19241367, 0.40761185, 0
2285, 696230085, 0.02778319, 0.0026048478, -0.002342708, -0.99960756, -0.01898266, -0.17406617, 0.42244434, 0
2288, 696280086, 0.027787333, 0.0025910467, -0.0023941018, -0.9996074, -0.024675608, -0.16974525, 0.42751312, 0
2290, 696313420, 0.02779096, 0.0025770823, -0.0024289307, -0.9996072, -0.020594245, -0.17426711, 0.40378475, 0
2293, 696363421, 0.027797023, 0.0025620612, -0.0024706414, -0.999607, -0.0047657085, -0.18332388, 0.45601463, 0
2296, 696413422, 0.027802328, 0.0025164357, -0.0025311392, -0.9996067, -0.019767549, -0.1735351, 0.41893578, 0
2298, 696446756, 0.027802888, 0.002499009, -0.0025656428, -0.9996067, -0.018353144, -0.17919448, 0.43531513, 0
2301, 696496757, 0.02779847, 0.0024984556, -0.002615724, -0.99960667, -0.026976727, -0.16827983, 0.43066883, 0
2304, 696546758, 0.027799083, 0.0024807716, -0.0026635632, -0.9996066, -0.013972167, -0.18717198, 0.4242592, 0
2306, 696580092, 0.02778998, 0.0024731949, -0.00269702, -0.9996068, -0.019458592, -0.19059898, 0.4259224, 0
2309, 696630093, 0.027784552, 0.0024647722, -0.002757007, -0.9996069, -0.018700594, -0.17137541, 0.44052696, 0
2312, 696680094, 0.027782565, 0.0024462808, -0.0028110242, -0.9996067, -0.016037082, -0.15497614, 0.43755436, 0
2315, 696730095, 0.027806748, 0.0024458086, -0.0028590134, -0.999606, -0.020183532, -0.16824146, 0.43579674, 0
2317, 696763429, 0.027805202, 0.0024476533, -0.0028948986, -0.99960595, -0.024216468, -0.1738277, 0.44868088, 0
2320, 696813430, 0.027797895, 0.0024553232, -0.0029588598, -0.9996059, -0.016939105, -0.16579506, 0.4304428, 0
2323, 696863431, 0.027805667, 0.0024516606, -0.0030121347, -0.9996056, -0.010519663, -0.16799064, 0.44364357, 0
2325, 696896765, 0.027793847, 0.0024375045, -0.0030493136, -0.9996058, -0.015612535, -0.1632434, 0.4211197, 0
2328, 696946766, 0.027789399, 0.0024206806, -0.0031085422, -0.9996058, -0.017140249, -0.16537319, 0.43043137, 0
2331, 696996767, 0.027797503, 0.0024158987, -0.0031620762, -0.9996054, -0.019435775, -0.15969963, 0.4519825, 0
2333, 697030101, 0.02780728, 0.0023991321, -0.0031947535, -0.99960506, -0.0031236198, -0.17287722, 0.43435574, 0
2336, 697080102, 0.027797904, 0.0023973805, -0.0032485146, -0.99960524, -0.0062772804, -0.16227613, 0.4388399, 0
2339, 697130103, 0.027805699, 0.0023814351, -0.0032865684, -0.9996049, -0.0066306307, -0.16585065, 0.44979477, 0
2343, 697196771, 0.027807832, 0.0023939505, -0.0033441805, -0.9996045, -0.011303464, -0.15773195, 0.4496603, 0
2346, 697246772, 0.027806269, 0.0023699177, -0.0033971276, -0.99960446, -0.017342264, -0.15941039, 0.42494392, 0
2348, 697280106, 0.02780909, 0.0023634462, -0.0034268608, -0.99960434, -0.019554878, -0.15565929, 0.42511177, 0
2351, 697330107, 0.02781104, 0.00234907, -0.0034772374, -0.99960417, -0.0062077846, -0.1661399, 0.45175648, 0
2354, 697380108, 0.02781751, 0.0023314692, -0.00352756, -0.9996038, -0.01959155, -0.15983172, 0.4435711, 0
2356, 697413442, 0.02781018, 0.002318301, -0.003555291, -0.999604, -0.014759921, -0.14815569, 0.43402958, 0
2359, 697463443, 0.027822405, 0.0023103699, -0.0036103225, -0.9996034, -0.017662749, -0.15379024, 0.44109154, 0
2362, 697513444, 0.027819086, 0.002303487, -0.0036438566, -0.99960345, -0.0117653655, -0.16423993, 0.4312477, 0
2365, 697563445, 0.027812734, 0.0022938356, -0.0036862069, -0.99960345, -0.018178472, -0.14890265, 0.43821526, 0
2367, 697596779, 0.027811565, 0.002284168, -0.0037175068, -0.9996034, -0.012670892, -0.1589151, 0.43385124, 0
2371, 697663447, 0.027820863, 0.0022806935, -0.0037725726, -0.999603, -0.013055567, -0.15495163, 0.42861176, 0
2374, 697713448, 0.027818985, 0.0022873182, -0.0038216133, -0.9996028, -0.007885217, -0.14826669, 0.42751408, 0
2377, 697763449, 0.027830236, 0.0022837743, -0.0038439434, -0.99960244, -0.01866835, -0.15268537, 0.42272377, 0
2379, 697796783, 0.02783063, 0.0022759691, -0.0038706034, -0.9996023, -0.009801185, -0.15964855, 0.43977833, 0
2382, 697846784, 0.027828082, 0.002262825, -0.003915254, -0.9996022, -0.016704243, -0.14106634, 0.43529797, 0
2385, 697896785, 0.027832821, 0.0022677686, -0.0039482336, -0.99960196, -0.010934488, -0.15057006, 0.44255447, 0
2387, 697930119, 0.027829837, 0.0022680815, -0.0039769663, -0.99960196, -0.021335684, -0.14697555, 0.42543697, 0
2390, 697980120, 0.027818441, 0.0022560356, -0.004016774, -0.99960214, -0.0029792404, -0.15558249, 0.4076004, 0
2393, 698030121, 0.027820438, 0.0022541096, -0.0040576723, -0.9996019, -0.008496106, -0.15571085, 0.43024254, 0
2396, 698080122, 0.027825495, 0.002240609, -0.004100706, -0.99960154, -0.010430491, -0.1465083, 0.42752552, 0
2400, 698146790, 0.027830012, 0.0022101658, -0.0041551385, -0.9996013, -0.010075852, -0.15208128, 0.42445278, 0
2402, 698180124, 0.02771004, 0.0021868474, -0.0041858265, -0.9996046, -0.019413445, -0.14078926, 0.43217468, 0
2405, 698230125, 0.027722277, 0.0021891047, -0.0042041177, -0.9996042, -0.0037804514, -0.12774312, 0.4523239, 0
2408, 698280126, 0.027741978, 0.0021628265, -0.004246669, -0.99960357, -0.014719034, -0.14632384, 0.43940926, 0
2410, 698313460, 0.027742501, 0.0021650915, -0.0042742365, -0.99960345, -0.020937214, -0.13662246, 0.4270563, 0
2413, 698363461, 0.027742881, 0.002158225, -0.0043367264, -0.9996031, 0.003350862, -0.13621129, 0.4472475, 0
2416, 698413462, 0.027741503, 0.0021560814, -0.004375979, -0.9996029, -0.018296897, -0.13817969, 0.4294157, 0
2419, 698463463, 0.02774195, 0.0021541722, -0.004442389, -0.9996027, -0.016972752, -0.13618895, 0.45016575, 0
2421, 698496797, 0.027737003, 0.0021441868, -0.0044695674, -0.99960274, -0.010703836, -0.13353764, 0.4459238, 0
2424, 698546798, 0.027744327, 0.00212565, -0.004507011, -0.9996023, -0.003546308, -0.13639352, 0.45392132, 0
2427, 698596799, 0.027740657, 0.0021159134, -0.004540275, -0.9996023, -0.01217114, -0.13025478, 0.44954395, 0
2429, 698630133, 0.027741853, 0.0021106652, -0.0045643104, -0.99960226, -0.0070007453, -0.13763495, 0.4484911, 0
2432, 698680134, 0.02772681, 0.0020983345, -0.0046116514, -0.99960244, -0.019483605, -0.13547646, 0.4334011, 0
2435, 698730135, 0.027720269, 0.0020943175, -0.0046404884, -0.99960244, -0.018608829, -0.13917503, 0.44485664, 0
2437, 698763469, 0.027727235, 0.0020978588, -0.0046621994, -0.9996021, -0.009766837, -0.13053694, 0.430233, 0
2440, 698813470, 0.027721558, 0.0020791048, -0.0047009806, -0.9996022, -0.0031015954, -0.118546106, 0.4418888, 0
2443, 698863471, 0.02772393, 0.0020953312, -0.0047266735, -0.99960196, -0.013864536, -0.12417332, 0.43998337, 0
2446, 698913472, 0.027730841, 0.0020771562, -0.004767469, -0.9996016, -0.020295847, -0.13262476, 0.43274593, 0
2448, 698946806, 0.027729785, 0.002065153, -0.0048083924, -0.9996015, 0.0076417257, -0.12555155, 0.42361832, 0
2451, 698996807, 0.02772648, 0.0020723934, -0.004851107, -0.99960136, -0.003497395, -0.12897107, 0.4308815, 0
2454, 699046808, 0.027725028, 0.0020606564, -0.0048890063, -0.9996012, -0.003174754, -0.13030647, 0.43858242, 0
2456, 699080142, 0.027722767, 0.0020577412, -0.0049048346, -0.99960124, -0.012386367, -0.12597832, 0.4429636, 0
2459, 699130143, 0.027717201, 0.0020506536, -0.004921892, -0.99960124, -0.0031381978, -0.12666643, 0.40887356, 0
2462, 699180144, 0.02772173, 0.002050827, -0.0049511013, -0.9996011, -0.016072799, -0.13278289, 0.4242735, 0
2464, 699213478, 0.02772028, 0.002038202, -0.004976724, -0.99960095, -0.023738211, -0.124658905, 0.43949413, 0
2467, 699263479, 0.027710171, 0.0020230724, -0.005009297, -0.9996011, -0.0027452137, -0.11917244, 0.43799496, 0
2470, 699313480, 0.027698845, 0.0020199902, -0.0050487, -0.9996013, -0.018212896, -0.13018884, 0.44258308, 0
2473, 699363481, 0.027698003, 0.0020098498, -0.0050802357, -0.9996012, -0.009182452, -0.12622027, 0.41644287, 0
2475, 699396815, 0.027686378, 0.0020064078, -0.005104025, -0.99960136, -0.008616245, -0.1314421, 0.4323187, 0
2479, 699463483, 0.027693607, 0.002001764, -0.00515462, -0.9996008, 0.0026606931, -0.121967636, 0.44442654, 0
2482, 699513484, 0.027682796, 0.001993823, -0.0051936787, -0.99960095, -0.0016230309, -0.12282471, 0.43984413, 0
2485, 699563485, 0.027676089, 0.001979069, -0.0052283085, -0.999601, -0.0024309147, -0.11436198, 0.42144012, 0
2487, 699596819, 0.027669521, 0.0019660217, -0.005232741, -0.9996013, -0.0071588764, -0.12726864, 0.42625523, 0
2490, 699646820, 0.026326165, 0.0030298745, -0.005404032, -0.9996341, -0.06242513, -0.09018507, 0.38703728, 0
2493, 699696821, 0.045226842, 0.0047102612, -0.0061849253, -0.99894625, 0.22111696, -2.1444032, 0.47583008, 0
2496, 699746822, 0.09521644, 0.0032675874, -0.005372402, -0.99543655, -0.0036437223, -0.5414331, 0.32455158, 0
2498, 699780156, 0.1351842, 0.0034390686, -0.00581647, -0.9907973, -0.47465134, -1.6999812, 0.45817947, 0
2501, 699830157, 0.24859875, 0.0034495303, -0.004014899, -0.9685919, -0.31225434, -1.4759499, 0.3034048, 0
2504, 699880158, 0.35035864, 0.0027729366, -0.0020379426, -0.9366091, 0.58383477, -1.2098464, 0.40074253, 0
2508, 699946826, 0.47347358, 0.0010877629, -3.8370644E-4, -0.8808071, -0.05956943, 1.095648, 0.41739368, 0
2510, 699980160, 0.5100809, 9.030623E-4, -1.5219706E-4, -0.86012584, 0.46494123, 0.66274476, 0.43358898, 0
2513, 700030161, 0.573742, 4.0208524E-5, 0.0013218882, -0.8190347, 0.10499645, -1.6365325, 0.42034626, 0
2516, 700080162, 0.66414005, -2.635638E-4, 0.0025356899, -0.7476034, 0.16863167, 1.3360395, 0.49539948, 0
2518, 700113496, 0.6886887, -6.3370424E-4, 0.0033980366, -0.7250486, 0.4667027, 0.19135416, 0.37412357, 0
2521, 700163497, 0.7259145, -6.7259395E-4, 0.0038075089, -0.68777376, -0.52429557, -0.061055712, 0.4387617, 0
2524, 700213498, 0.7320361, -6.402901E-4, 0.003446162, -0.6812566, 0.44947723, 0.16895731, 0.45408154, 0
2527, 700263499, 0.721978, 0.0012655233, 0.001420329, -0.6919129, -0.28708848, -0.31029743, 0.3638897, 0
2529, 700296833, 0.71780545, 0.002585021, 5.1401596E-4, -0.69623834, 2.5341039, -0.63368917, 0.45878792, 0
2532, 700346834, 0.7106891, 0.00461278, -0.0012037804, -0.7034897, 0.2967249, -0.07942596, 0.43153572, 0
2536, 700413502, 0.7076574, 0.004276117, -6.930056E-4, -0.7065422, 0.3336448, -0.12222288, 0.43550205, 0
2539, 700463503, 0.70543134, 0.0026014308, -5.6799676E-4, -0.7087729, 0.35127485, -0.14427221, 0.43292332, 0
2541, 700496837, 0.70512545, -6.874256E-4, 0.0026602605, -0.7090768, 0.21216905, -0.21177714, 0.27294922, 0
2544, 700546838, 0.70512253, -7.052381E-4, 0.0026023353, -0.7090799, 0.31188235, -0.14202741, 0.42233753, 0
2547, 700596839, 0.7051242, -7.363172E-4, 0.0025838797, -0.7090783, 0.31734, -0.12847081, 0.43050098, 0
2549, 700630173, 0.70512205, -7.4870884E-4, 0.0025695174, -0.7090806, 0.32176214, -0.15253364, 0.43999958, 0
2552, 700680174, 0.70511204, -7.916903E-4, 0.0025318135, -0.7090906, 0.30998936, -0.14519066, 0.4312334, 0
2555, 700730175, 0.7051133, -8.306344E-4, 0.002498072, -0.70908934, 0.3149898, -0.16343734, 0.4568653, 0
2558, 700780176, 0.7051176, -8.759905E-4, 0.0024580196, -0.70908517, 0.31676403, -0.14042439, 0.4183445, 0
2560, 700813510, 0.705109, -8.8730705E-4, 0.0024298404, -0.70909387, 0.31566584, -0.13522401, 0.41369057, 0
2563, 700863511, 0.705099, -9.127559E-4, 0.0023903109, -0.70910394, 0.32123208, -0.122081466, 0.429986, 0
2566, 700913512, 0.70510316, -8.9730317E-4, 0.0023192964, -0.70909995, 0.3525741, -0.15620889, 0.46912766, 0
2568, 700946846, 0.70509773, -9.388906E-4, 0.0023315758, -0.70910525, 0.315843, -0.13929006, 0.41510677, 0
2571, 700996847, 0.7051006, -9.66417E-4, 0.0023212435, -0.70910245, 0.32397103, -0.13608155, 0.4322939, 0
2574, 701046848, 0.7050863, -9.786222E-4, 0.0022840914, -0.7091168, 0.31456292, -0.14164138, 0.42991257, 0
2577, 701096849, 0.7050946, -0.001001324, 0.0022543932, -0.70910865, 0.3153368, -0.13404699, 0.4398508, 0
2579, 701130183, 0.70509243, -0.0010134107, 0.0022177512, -0.70911086, 0.31542695, -0.123962015, 0.43210983, 0
2582, 701180184, 0.70509845, -0.0010424643, 0.002197166, -0.70910496, 0.2955188, -0.12425024, 0.4491825, 0
2585, 701230185, 0.70509756, -0.0010608259, 0.0021720745, -0.7091058, 0.30500868, -0.14388016, 0.4210596, 0
2587, 701263519, 0.70509607, -0.0010739639, 0.0021530609, -0.7091073, 0.3103533, -0.13119423, 0.43682194, 0
2590, 701313520, 0.70508575, -0.001093595, 0.002112922, -0.70911777, 0.30584875, -0.13788874, 0.43008614, 0
2593, 701363521, 0.7050708, -0.0011158457, 0.0020780961, -0.7091327, 0.31348634, -0.1395391, 0.44369125, 0
2595, 701396855, 0.70507276, -0.0010411099, 0.0018988448, -0.70913124, 0.32895106, -0.12735888, 0.4485979, 0
2598, 701446856, 0.7050759, -0.0010366585, 0.0018194262, -0.7091284, 0.30126128, -0.13778964, 0.41704178, 0
2601, 701496857, 0.7050734, -0.0010407601, 0.001768202, -0.709131, 0.29332042, -0.1321071, 0.4174366, 0
2604, 701546858, 0.7050745, -0.0010547575, 0.0017061754, -0.70913005, 0.30980298, -0.11948778, 0.44378662, 0
2606, 701580192, 0.70507115, -0.0010692545, 0.0016919177, -0.70913345, 0.2972888, -0.14283107, 0.43157673, 0
2609, 701630193, 0.70506275, -0.0010838704, 0.0016668125, -0.70914185, 0.3121948, -0.124508716, 0.43328476, 0
2612, 701680194, 0.7050555, -0.0011410923, 0.0016779825, -0.709149, 0.3061282, -0.12701906, 0.4535637, 0
2616, 701746862, 0.7074697, -0.0011766002, 0.0016380097, -0.7067405, 0.5484269, -1.9895957, 0.49130344, 0
2618, 701780196, 0.7155656, -0.0013729678, 0.0018934339, -0.6985412, 0.05777288, 1.3522497, 0.4116106, 0
2621, 701830197, 0.7156109, -0.0013857607, 0.0018303583, -0.698495, 0.31469047, -0.11348652, 0.43972778, 0
2624, 701880198, 0.71561855, -0.0013950551, 0.001768144, -0.6984872, 0.31421226, -0.11397574, 0.4412899, 0
2626, 701913532, 0.71562, -0.001424988, 0.0017400223, -0.69848585, 0.31285426, -0.121532306, 0.4106846, 0
2629, 701963533, 0.7156143, -0.0014390697, 0.0016893322, -0.6984917, 0.3193434, -0.10894803, 0.4219284, 0
2632, 702013534, 0.7156126, -0.0014421986, 0.0016174992, -0.6984936, 0.31351683, -0.111599505, 0.42648315, 0
2635, 702063535, 0.715612, -0.0014386356, 0.0015830668, -0.6984944, 0.31199574, -0.10391376, 0.42375374, 0
2637, 702096869, 0.71562386, -0.0014442154, 0.0015534778, -0.6984823, 0.30041155, -0.111176066, 0.46014118, 0
2640, 702146870, 0.7156206, -0.0014515135, 0.0014976155, -0.6984858, 0.30768937, -0.11407677, 0.45186996, 0
2644, 702213538, 0.7156274, -0.00146792, 0.0014167167, -0.69847894, 0.32656887, -0.12088924, 0.42066193, 0
2647, 702263539, 0.7156123, -0.0014990492, 0.0013659402, -0.69849443, 0.31606686, -0.10564256, 0.4486904, 0
2649, 702296873, 0.71560353, -0.0014921819, 0.0013223828, -0.69850343, 0.31151724, -0.111850694, 0.44356918, 0
2652, 702346874, 0.7156104, -0.001499823, 0.0012686795, -0.6984965, 0.3109926, -0.109770864, 0.41853523, 0
2655, 702396875, 0.71561855, -0.0014936754, 0.0012243878, -0.69848824, 0.3177166, -0.09595209, 0.45280457, 0
2658, 702446876, 0.715622, -0.0015054501, 0.001171156, -0.6984848, 0.3119536, -0.11064137, 0.4417057, 0
2660, 702480210, 0.7156208, -0.0014866258, 0.0011319419, -0.6984861, 0.30833185, -0.1085944, 0.41312885, 0
2663, 702530211, 0.7156288, -0.0014918272, 0.0010726285, -0.698478, 0.30376172, -0.09422647, 0.41892433, 0
2666, 702580212, 0.7156399, -0.0014782045, 0.0010130635, -0.69846684, 0.30739886, -0.10463872, 0.42961025, 0
2668, 702613546, 0.71565145, -0.0014803687, 9.77971E-4, -0.6984551, 0.30751458, -0.12256297, 0.43444157, 0
2672, 702680214, 0.71567523, -0.0014709148, 8.971589E-4, -0.6984308, 0.31217235, -0.1123142, 0.4260664, 0
2675, 702730215, 0.7156647, -0.0014828901, 8.338591E-4, -0.6984416, 0.29443255, -0.1076152, 0.45020485, 0
2678, 702780216, 0.71565473, -0.0014836693, 7.860129E-4, -0.6984519, 0.30476633, -0.11249108, 0.4281969, 0
2680, 702813550, 0.7156549, -0.001490925, 7.3844404E-4, -0.6984517, 0.30139726, -0.10635032, 0.4377756, 0
2683, 702863551, 0.71565807, -0.0014805716, 6.8358856E-4, -0.6984486, 0.291054, -0.07713974, 0.43365097, 0
2686, 702913552, 0.71565765, -0.0014689728, 6.121199E-4, -0.69844913, 0.30566323, -0.10432688, 0.4434929, 0
2689, 702963553, 0.71565396, -0.001474969, 5.6892086E-4, -0.69845283, 0.2935889, -0.09870117, 0.42096996, 0
2691, 702996887, 0.7156546, -0.0014822358, 5.3413765E-4, -0.6984522, 0.29522264, -0.10692476, 0.4576187, 0
2694, 703046888, 0.71565807, -0.0014734163, 4.8535806E-4, -0.69844866, 0.30807433, -0.10340883, 0.42933655, 0
2697, 703096889, 0.7156645, -0.0014729977, 4.2699536E-4, -0.69844216, 0.29770726, -0.09854294, 0.4200697, 0
2699, 703130223, 0.7156643, -0.0014708053, 3.802888E-4, -0.6984423, 0.29564622, -0.098394886, 0.42419052, 0
2702, 703180224, 0.715656, -0.0014694207, 3.309375E-4, -0.69845104, 0.2891675, -0.096755326, 0.4278221, 0
2705, 703230225, 0.71566147, -0.0014660304, 2.6797183E-4, -0.6984453, 0.2789642, -0.1012547, 0.42772865, 0
2707, 703263559, 0.7156554, -0.0014677317, 2.253681E-4, -0.69845164, 0.30601367, -0.07892259, 0.4226799, 0
2710, 703313560, 0.71566623, -0.0014620479, 1.5401068E-4, -0.69844043, 0.30633837, -0.09061244, 0.44450474, 0
2713, 703363561, 0.71566284, -0.0014505652, 9.092891E-5, -0.698444, 0.2887294, -0.092173204, 0.43172836, 0
2716, 703413562, 0.715672, -0.0014463925, -7.449307E-8, -0.69843465, 0.2712459, -0.086033516, 0.44596672, 0
2718, 703446896, 0.7156689, -0.0014414677, -4.296309E-5, -0.69843787, 0.2793155, -0.082093365, 0.39949512, 0
2721, 703496897, 0.7156686, -0.0014398138, -1.00526595E-4, -0.6984382, 0.28844053, -0.08691587, 0.44607925, 0
2724, 703546898, 0.71564835, -0.0014563045, -1.7597797E-4, -0.6984589, 0.28997195, -0.08936683, 0.42013264, 0
2726, 703580232, 0.7156465, -0.0014458717, -2.1486908E-4, -0.69846076, 0.2914695, -0.08612097, 0.42228985, 0
2729, 703630233, 0.7156426, -0.0014466128, -2.8421357E-4, -0.69846475, 0.2992402, -0.07840906, 0.42233086, 0
2732, 703680234, 0.7156462, -0.0014385425, -3.5006437E-4, -0.698461, 0.2920816, -0.08061883, 0.43229675, 0
2734, 703713568, 0.71564096, -0.0014299266, -3.999299E-4, -0.69846636, 0.28736374, -0.087945044, 0.4239273, 0
2737, 703763569, 0.71565354, -0.0014403118, -4.6558256E-4, -0.6984535, 0.27444956, -0.07114841, 0.4351282, 0
2740, 703813570, 0.71565443, -0.0014365929, -5.373285E-4, -0.69845253, 0.26394445, -0.08917661, 0.42044067, 0
2743, 703863571, 0.7156604, -0.0014331536, -6.175075E-4, -0.69844633, 0.29441333, -0.08295232, 0.43680382, 0
2745, 703896905, 0.71565616, -0.0014385291, -6.5840344E-4, -0.6984506, 0.2772872, -0.08206278, 0.44975471, 0
2748, 703946906, 0.7156635, -0.0014281938, -7.131601E-4, -0.698443, 0.26428163, -0.06747221, 0.424716, 0
2752, 704013574, 0.71565783, -0.0014002842, -8.110092E-4, -0.69844884, 0.28055865, -0.08485994, 0.420228, 0
2755, 704063575, 0.7156612, -0.0013876625, -8.8634813E-4, -0.69844526, 0.2747526, -0.07402778, 0.43273926, 0
2757, 704096909, 0.7156713, -0.0013772766, -9.4042846E-4, -0.69843495, 0.28213653, -0.0701655, 0.46656322, 0
2760, 704146910, 0.7156739, -0.0013721084, -0.0010250998, -0.6984321, 0.2874659, -0.07976642, 0.4137411, 0
2763, 704196911, 0.7156248, -0.0013474036, -0.0010634776, -0.6984825, 0.26061115, -0.07128684, 0.44820976, 0
2765, 704230245, 0.71562964, -0.0013451155, -0.001107303, -0.69847745, 0.2666266, -0.07168995, 0.41077232, 0
2768, 704280246, 0.71562034, -0.001337765, -0.0011784127, -0.6984868, 0.26339713, -0.07791828, 0.44649124, 0
2771, 704330247, 0.71562, -0.0013276231, -0.0012610669, -0.69848704, 0.27254438, -0.06474256, 0.46100044, 0
2774, 704380248, 0.7156294, -0.0012943792, -0.0013167586, -0.6984774, 0.26698044, -0.08013747, 0.41664982, 0
2776, 704413582, 0.7156327, -0.0012811184, -0.0013675354, -0.69847393, 0.263585, -0.06447172, 0.44079494, 0
2780, 704480250, 0.71562415, -0.0012709086, -0.001469926, -0.69848245, 0.26968524, -0.0758072, 0.4300871, 0
2783, 704530251, 0.71562505, -0.0012630576, -0.0015480998, -0.69848144, 0.2678194, -0.07378166, 0.44894695, 0
2786, 704580252, 0.7156092, -0.0012420139, -0.0016246625, -0.6984975, 0.26520285, -0.062116653, 0.43900776, 0
2788, 704613586, 0.71560365, -0.0012207037, -0.0016636172, -0.6985031, 0.26441628, -0.06248334, 0.44086075, 0
2791, 704663587, 0.7156125, -0.0012321575, -0.0017200051, -0.6984939, 0.2669949, -0.07382402, 0.41420078, 0
2794, 704713588, 0.7156126, -0.0012053787, -0.0017967924, -0.6984936, 0.24852552, -0.06642605, 0.4475479, 0
2797, 704763589, 0.7156121, -0.0011684474, -0.0018610895, -0.698494, 0.24619189, -0.05912934, 0.43496227, 0
2799, 704796923, 0.7156183, -0.0011753751, -0.0019086883, -0.6984875, 0.26687253, -0.06559807, 0.4314375, 0
2802, 704846924, 0.7156265, -0.0011720968, -0.0019878647, -0.6984791, 0.26349452, -0.08060173, 0.42228508, 0
2805, 704896925, 0.7156356, -0.0011414629, -0.002057044, -0.6984696, 0.25613996, -0.0686394, 0.42563343, 0
2809, 704963593, 0.7156274, -0.0011264625, -0.0021562171, -0.6984776, 0.26187515, -0.05757939, 0.4354496, 0
2811, 704996927, 0.71563303, -0.0011194905, -0.0022135025, -0.6984717, 0.25722256, -0.05438256, 0.4372549, 0
2814, 705046928, 0.71563154, -0.0011176137, -0.0022892302, -0.6984729, 0.24221504, -0.06372743, 0.4165411, 0
2817, 705096929, 0.7156438, -0.0010936075, -0.0023548934, -0.69846016, 0.25959587, -0.057181768, 0.41595078, 0
2819, 705130263, 0.71563965, -0.0010858789, -0.0023868554, -0.6984643, 0.25320345, -0.05072694, 0.4219265, 0
2822, 705180264, 0.7156256, -0.0010858391, -0.0024611133, -0.6984786, 0.25039533, -0.050281245, 0.4405136, 0
2825, 705230265, 0.7156286, -0.0010698037, -0.0025281967, -0.69847524, 0.25116286, -0.06140915, 0.426054, 0
2828, 705280266, 0.71562225, -0.0010514989, -0.0025989166, -0.69848156, 0.24515896, -0.048086315, 0.4044752, 0
2830, 705313600, 0.71562874, -0.0010330727, -0.0026410858, -0.69847465, 0.24801405, -0.055090856, 0.4257841, 0
2833, 705363601, 0.71562934, -0.0010230505, -0.0027099345, -0.6984739, 0.23229381, -0.060053125, 0.40773296, 0
2836, 705413602, 0.7156233, -0.0010115776, -0.0027870962, -0.6984798, 0.23897734, -0.067119285, 0.43192387, 0
2838, 705446936, 0.7156284, -0.001004697, -0.0028290674, -0.69847435, 0.2404033, -0.051529836, 0.42424393, 0
2841, 705496937, 0.715618, -0.0010065276, -0.0029035206, -0.6984847, 0.24517451, -0.055426657, 0.43083668, 0
2844, 705546938, 0.715614, -9.7635254E-4, -0.002967339, -0.6984886, 0.23229462, -0.051934358, 0.43184853, 0
2846, 705580272, 0.7156181, -9.594034E-4, -0.0030085577, -0.69848424, 0.24327613, -0.042320594, 0.4098215, 0
2849, 705630273, 0.7156165, -9.420527E-4, -0.0030752288, -0.69848555, 0.2329634, -0.041788764, 0.41540527, 0
2852, 705680274, 0.7156266, -9.259115E-4, -0.0031501674, -0.698475, 0.24362502, -0.051309217, 0.42939186, 0
2855, 705730275, 0.7156225, -9.0141717E-4, -0.0032182024, -0.6984789, 0.24238002, -0.04706736, 0.4309044, 0
2857, 705763609, 0.71562386, -8.812867E-4, -0.00326945, -0.6984773, 0.23486127, -0.06047903, 0.41388702, 0
2860, 705813610, 0.71561825, -8.694757E-4, -0.0033266814, -0.6984829, 0.23003644, -0.041840192, 0.44729996, 0
2863, 705863611, 0.71561646, -8.577621E-4, -0.003391323, -0.69848436, 0.24320821, -0.04046098, 0.41087532, 0
2865, 705896945, 0.71561646, -8.4678346E-4, -0.0034296997, -0.6984842, 0.2157628, -0.046775058, 0.44253063, 0
2868, 705946946, 0.7155956, -8.104187E-4, -0.0034988888, -0.6985052, 0.23857194, -0.042004116, 0.4189167, 0
2871, 705996947, 0.7155996, -7.777256E-4, -0.003571494, -0.6985008, 0.22955897, -0.039465908, 0.43473148, 0
2873, 706030281, 0.7155977, -7.579924E-4, -0.0036146988, -0.69850254, 0.23309694, -0.042264383, 0.4325285, 0
2876, 706080282, 0.71559167, -7.4071815E-4, -0.0036854493, -0.6985084, 0.2273978, -0.042173337, 0.44635773, 0
2879, 706130283, 0.7155828, -7.1717217E-4, -0.0037497994, -0.6985172, 0.24078621, -0.031789202, 0.43256855, 0
2882, 706180284, 0.71568626, -6.334556E-4, -0.0037962082, -0.698411, 0.21944147, -0.040439647, 0.43111038, 0
2884, 706213618, 0.7156841, -6.290414E-4, -0.003837737, -0.69841295, 0.21536914, -0.054110616, 0.44192314, 0
2888, 706280286, 0.71569407, -5.941596E-4, -0.0039476496, -0.69840205, 0.23158015, -0.038417008, 0.41838074, 0
2891, 706330287, 0.71569216, -5.621636E-4, -0.0040160655, -0.6984038, 0.2203919, -0.030300988, 0.4131384, 0
2894, 706380288, 0.7157045, -5.4359256E-4, -0.004071275, -0.6983908, 0.21737862, -0.049416695, 0.4286213, 0
2896, 706413622, 0.71570307, -5.328902E-4, -0.0040938524, -0.69839215, 0.22753581, -0.04502092, 0.43020725, 0
2899, 706463623, 0.71569777, -5.113405E-4, -0.004160128, -0.6983972, 0.2263017, -0.047626026, 0.44661713, 0
2902, 706513624, 0.7157011, -4.8131062E-4, -0.004235047, -0.69839334, 0.21756402, -0.047269195, 0.44661236, 0
2904, 706546958, 0.7157056, -4.747358E-4, -0.004271728, -0.6983886, 0.21108164, -0.046862047, 0.44560337, 0
2907, 706596959, 0.7157079, -4.546088E-4, -0.0043167653, -0.6983859, 0.20645158, -0.03495335, 0.43912792, 0
2910, 706646960, 0.71571386, -4.386882E-4, -0.0044026067, -0.6983793, 0.20739171, -0.030923607, 0.46054173, 0
2913, 706696961, 0.7157163, -4.276613E-4, -0.0044913813, -0.69837624, 0.2182059, -0.028036537, 0.43902588, 0
2917, 706763629, 0.71559656, -4.18355E-4, -0.0045513557, -0.6984985, 0.21454991, -0.035665706, 0.427783, 0
2919, 706796963, 0.7155911, -3.9089582E-4, -0.0046021594, -0.6985038, 0.20634341, -0.036022227, 0.4212923, 0
2922, 706846964, 0.7155911, -3.6610212E-4, -0.0046672435, -0.69850343, 0.2040176, -0.029215723, 0.42134, 0
2925, 706896965, 0.71558905, -3.4493266E-4, -0.0047355066, -0.6985049, 0.20161852, -0.03282871, 0.4286356, 0
2927, 706930299, 0.7156007, -3.2566208E-4, -0.004769994, -0.6984929, 0.2075971, -0.035125356, 0.4478693, 0
2930, 706980300, 0.71561104, -3.019162E-4, -0.004850616, -0.6984816, 0.20003438, -0.030036693, 0.42371082, 0
2933, 707030301, 0.71561307, -2.8640783E-4, -0.004897723, -0.6984793, 0.20849414, -0.031903088, 0.42956066, 0
2936, 707080302, 0.71560824, -2.555187E-4, -0.0049625346, -0.6984838, 0.20370112, -0.030924097, 0.41990852, 0
2938, 707113636, 0.7156132, -2.358655E-4, -0.004990435, -0.6984785, 0.20534873, -0.029045546, 0.43057537, 0
2941, 707163637, 0.71560997, -2.1979731E-4, -0.0050532124, -0.69848144, 0.19982994, -0.023054719, 0.4359522, 0
2945, 707230305, 0.7156225, -1.7919598E-4, -0.0051519214, -0.69846785, 0.2088991, -0.009300128, 0.4421053, 0
2948, 707280306, 0.71563166, -1.4865151E-4, -0.005205204, -0.69845825, 0.1961672, -0.032076214, 0.45751858, 0
2950, 707313640, 0.7156281, -1.3753146E-4, -0.0052283676, -0.6984616, 0.19998083, -0.02777, 0.43415165, 0
2953, 707363641, 0.7156157, -1.1429154E-4, -0.005274018, -0.69847393, 0.19135612, -0.05058486, 0.42628765, 0
2956, 707413642, 0.715627, -8.541456E-5, -0.0053075473, -0.69846207, 0.18510051, -0.024182413, 0.43794918, 0
2959, 707463643, 0.71562225, -5.550753E-5, -0.0053760726, -0.69846636, 0.19470444, -0.01863067, 0.43013763, 0
2961, 707496977, 0.7156191, -3.4126424E-5, -0.0054123974, -0.69846934, 0.19378996, -0.037497103, 0.4344492, 0
2964, 707546978, 0.7156139, -1.7346443E-5, -0.005468437, -0.6984743, 0.20218758, -0.027310543, 0.41357803, 0
2967, 707596979, 0.7156151, -7.6247525E-6, -0.0055245124, -0.6984727, 0.18537052, -0.042562127, 0.44635582, 0
2969, 707630313, 0.7156159, 6.5882778E-6, -0.0055491216, -0.69847155, 0.19565114, -0.030836405, 0.4389515, 0
2972, 707680314, 0.71561855, 2.8646464E-5, -0.0056027113, -0.69846845, 0.19642673, -0.02481315, 0.45023918, 0
2975, 707730315, 0.7156069, 3.82085E-5, -0.005661784, -0.6984799, 0.19055767, -0.02620014, 0.41497898, 0
2977, 707763649, 0.7155978, 5.244127E-5, -0.00568606, -0.698489, 0.19405447, -0.020561708, 0.44986916, 0
2980, 707813650, 0.71559715, 8.614245E-5, -0.0057343086, -0.69848925, 0.19987246, -0.033039067, 0.42883587, 0
2983, 707863651, 0.7156035, 1.192441E-4, -0.0057998965, -0.6984823, 0.17203273, -0.020315213, 0.4212742, 0
2986, 707913652, 0.71560335, 1.2970822E-4, -0.0058593415, -0.69848186, 0.17920093, -0.022905046, 0.43281937, 0
2988, 707946986, 0.71560955, 1.4423812E-4, -0.00589032, -0.69847524, 0.18169218, -0.03032203, 0.42479897, 0
2991, 707996987, 0.7156051, 1.855637E-4, -0.0059410166, -0.6984794, 0.17370868, -0.014806114, 0.41080093, 0
2994, 708046988, 0.71560794, 2.0929132E-4, -0.0059890547, -0.69847614, 0.18457532, -0.023104211, 0.446064, 0
2996, 708080322, 0.7156103, 2.1717077E-4, -0.006025544, -0.69847333, 0.17749235, -0.0134168295, 0.44799042, 0
2999, 708130323, 0.71561813, 2.5340435E-4, -0.006067466, -0.69846493, 0.16450232, -0.032454927, 0.44806385, 0
3002, 708180324, 0.7156182, 2.496356E-4, -0.0060999608, -0.69846463, 0.17788595, -0.01622374, 0.46957207, 0
3004, 708213658, 0.7156157, 2.6966492E-4, -0.006130685, -0.69846684, 0.1815243, -0.011783078, 0.42564583, 0
