sep=									
DeviceTag:	Xsens_4								
FirmwareVersion:	2.4.0								
AppVersion:	2022.0.1								
SyncStatus:	Synced								
OutputRate:	60Hz								
FilterProfile:	General								
Measurement Mode:	Sensor fusion Mode - Extended (Quaternion)								
StartTime:	2020-11-25 11:23:35.414 +0100								
© Xsens Technologies B. V. 2005-2020									
PacketCounter	SampleTimeFine	Quat_W	Quat_X	Quat_Y	Quat_Z	FreeAcc_X	FreeAcc_Y	FreeAcc_Z	Status
1	2979875757	2.19E-17	2.35E-16	0.707106781	0.707106781	0.495047	-0.7457571	-0.023412758	0
2	2979892424	0.002281374	0.005076463	0.712399423	0.701752155	0.75099467	-0.699180026	-0.439238982	0
3	2979909091	0.004202696	0.01070075	0.716640838	0.697347647	0.751396321	-0.584123368	-0.70254103	0
4	2979925758	0.00576651	0.01664876	0.720157159	0.69358722	0.485093754	-0.539754613	-0.764028297	0
5	2979942425	0.006761398	0.023172733	0.724259288	0.689105066	-0.152919138	-0.350263589	-0.312470478	0
6	2979959092	0.007304779	0.030154327	0.728703387	0.684126253	-0.56131168	-0.361001649	-0.171420312	0
7	2979975759	0.007851504	0.037076093	0.733691495	0.67842502	-0.469079723	-0.225141852	-0.276608796	0
8	2979992426	0.008001941	0.043861394	0.739442779	0.671741412	-0.576928893	0.192843354	-0.284479688	0
9	2980009093	0.007238986	0.050229065	0.745960247	0.664054175	-0.707487984	0.61185807	-0.390245501	0
10	2980025760	0.005494397	0.056097354	0.753026144	0.655571907	-0.799582382	0.631893124	-0.653702389	0
11	2980042427	0.003211628	0.061968317	0.760037151	0.646910459	-0.642681608	0.528810437	-0.869054032	0
12	2980059094	0.000607572	0.067560356	0.766467307	0.638719889	-0.324822995	0.414203992	-1.049694665	0
13	2980075761	0.002105004	-0.072565451	-0.77209999	-0.631340978	0.043459591	0.219705396	-1.306034003	0
14	2980092428	0.004864746	-0.076964625	-0.776664137	-0.625176454	0.172745552	0.043818351	-1.494713965	0
15	2980109095	0.007582517	-0.080546501	-0.780150033	-0.620339176	0.126195124	-0.298672832	-1.531460509	0
16	2980125762	0.010392115	-0.083449494	-0.782616573	-0.616797768	-0.115583177	-0.568399342	-1.330565195	0
17	2980142429	0.013248631	-0.085952338	-0.783798731	-0.61489529	-0.702793157	-0.665698421	-1.0480661	0
18	2980159096	0.015227974	-0.087568899	-0.783494868	-0.615008608	-0.786330581	-0.971684757	-1.669470184	0
21	2980209097	0.019140009	-0.085612985	-0.781679243	-0.617480071	1.131290927	-0.063858013	0.020791891	0
24	2980259098	0.022971402	-0.075912292	-0.791426211	-0.606097509	0.821955386	-0.006967355	-0.661788277	0
27	2980309099	0.02576538	-0.060925945	-0.803987263	-0.590955713	0.351949699	-0.307808508	-0.243269724	0
29	2980342433	0.028674195	-0.051866051	-0.809466808	-0.584167091	0.454866511	0.050298835	0.518459197	0
32	2980392434	0.034655155	-0.043071734	-0.816180772	-0.575145889	0.571039278	-0.027549381	0.549439396	0
35	2980442435	0.037839961	-0.041321069	-0.818071578	-0.572380642	0.912877381	-0.281480689	-0.191256773	0
39	2980509103	0.034801915	-0.044641579	-0.81363511	-0.578613744	-0.215470748	0.541314954	0.418632972	0
41	2980542437	0.032757595	-0.047242343	-0.811100774	-0.582074424	-0.789560724	0.923224745	0.344841989	0
44	2980592438	0.030753589	-0.05281656	-0.804294081	-0.591080078	-0.771805311	0.65692128	0.356068268	0
47	2980642439	0.029611257	-0.05701774	-0.797047472	-0.600489365	-1.022397924	0.127738555	0.65916018	0
51	2980709107	0.032831204	-0.058695401	-0.790677185	-0.608528184	-0.740687895	-0.852571774	0.53480028	0
54	2980759108	0.037450313	-0.058348718	-0.78582907	-0.614545014	-1.158659964	-0.64485842	0.756145706	0
56	2980792442	0.041393231	-0.058251903	-0.782178486	-0.618942754	-1.095305808	-0.464353052	0.587166532	0
59	2980842443	0.048062406	-0.058854209	-0.775219212	-0.627105542	-0.766454185	0.272879436	0.298867153	0
62	2980892444	0.05113453	-0.061137144	-0.764129661	-0.64011981	-0.158303892	0.166469971	-0.305048054	0
64	2980925778	0.050971559	-0.063017018	-0.754179558	-0.651647106	0.088528346	0.562763884	-0.427367085	0
67	2980975779	0.04376358	-0.063039574	-0.741085314	-0.667010733	1.859726921	1.035518421	-1.146287047	0
70	2981025780	0.027485087	-0.057316819	-0.72675554	-0.683948636	1.96542883	1.143236849	-1.443380978	0
72	2981059114	0.010954684	-0.055249163	-0.714032651	-0.697843033	2.273290932	1.034352191	-0.6461417	0
75	2981109115	0.018540109	0.051974792	0.699037283	0.712952847	-0.135602056	-0.193122724	0.892349659	0
78	2981159116	0.04686372	0.049823624	0.6832165	0.727005235	-1.927054074	-0.270078728	-0.436902252	0
81	2981209117	0.06837669	0.046717549	0.657647222	0.748760462	-2.764337337	-0.029846989	-0.470658094	0
83	2981242451	0.078799353	0.041387962	0.641394018	0.76203111	-1.611391435	-0.26223362	0.122862583	0
86	2981292452	0.088571787	0.034131605	0.634293433	0.76724306	-1.386017064	-0.282284553	-0.098870268	0
89	2981342453	0.090014234	0.026906738	0.648637956	0.755276286	-1.766548012	-0.395247037	-0.545515528	0
91	2981375787	0.09082096	0.022056768	0.661768857	0.743859551	0.413671319	-0.716405088	-0.955858532	0
95	2981442455	0.093506084	0.014666842	0.665936324	0.739979938	-0.856835146	-0.879245645	0.566921465	0
99	2981509123	0.089261472	0.00795258	0.684437342	0.723543137	-0.498208884	0.104590574	0.233267219	0
102	2981559124	0.085571807	0.003048663	0.708259724	0.700739848	1.13807055	-0.327561119	-0.673429213	0
106	2981625792	0.087896259	-0.000565088	0.718015697	0.690454478	-0.767992927	0.365306956	1.310411274	0
109	2981675793	0.085166597	0.004129033	0.729064239	0.679113347	-1.167994147	-0.657899122	0.455071878	0
113	2981742461	0.072603148	0.019205325	0.729797124	0.679526377	-1.536716298	-1.350410232	1.106970837	0
116	2981792462	0.046842197	0.038324321	0.722760511	0.688443389	-2.397432209	-0.594646874	2.102350074	0
118	2981825796	0.024529119	0.057087495	0.716243824	0.695078502	-0.989090366	0.582722371	0.682042508	0
121	2981875797	0.011545448	-0.088765565	-0.698110336	-0.710372674	1.349687537	1.531642749	-3.637629202	0
125	2981942465	0.047957376	-0.114189354	-0.668498975	-0.733328031	0.28413802	0.39666384	-0.934242715	0
129	2982009133	0.058663349	-0.107892177	-0.667244714	-0.734644391	0.648347206	0.429583397	-1.052164221	0
132	2982059134	0.057310753	-0.099013173	-0.657066327	-0.745101141	0.586435537	-0.116664232	-0.227111492	0
135	2982109135	0.054089207	-0.091517834	-0.635759462	-0.76453172	0.057432692	-0.430848424	0.523335123	0
137	2982142469	0.053254715	-0.087883835	-0.621556148	-0.77660049	0.129291852	-0.66636746	1.722877903	0
141	2982209137	0.057202424	-0.085518837	-0.607643119	-0.787517779	0.171389994	-0.575533697	1.837242709	0
144	2982259138	0.061242102	-0.092211006	-0.60126817	-0.791342608	-0.528107002	-0.228226452	0.521147088	0
147	2982309139	0.070936695	-0.102533855	-0.600347161	-0.78996081	-1.109138934	-0.391920485	0.155974962	0
149	2982342473	0.077685048	-0.111585408	-0.599395753	-0.788820931	-0.409039224	0.091121328	-0.339420102	0
152	2982392474	0.086219189	-0.121590308	-0.600210163	-0.785830649	-0.234850995	0.301626982	-0.993948061	0
156	2982459142	0.085647733	-0.117037162	-0.605183437	-0.782764189	0.176541736	1.50608838	-0.918547392	0
159	2982509143	0.077368502	-0.104841628	-0.610592839	-0.781152183	-0.704283864	0.397728316	0.47749964	0
162	2982559144	0.070472889	-0.098195927	-0.622228381	-0.773448753	-0.09542047	0.021465343	-0.821952126	0
164	2982592478	0.066261833	-0.096265257	-0.626513488	-0.77059926	0.018002534	-0.310530249	-0.318745952	0
167	2982642479	0.062029016	-0.098292861	-0.633870702	-0.764656032	-0.175901035	-0.311196234	0.025611857	0
170	2982692480	0.060660989	-0.102648045	-0.644381159	-0.755351935	0.266146775	-0.382431164	-1.454046858	0
172	2982725814	0.059198968	-0.105806267	-0.646627863	-0.753108838	1.080169774	0.739834522	-2.261875469	0
175	2982775815	0.054202387	-0.107320453	-0.643118407	-0.756269222	0.217815008	0.916117251	-1.010308732	0
178	2982825816	0.046685775	-0.107071513	-0.641015534	-0.758587645	-0.351063439	-0.184266865	-0.795237911	0
180	2982859150	0.043715149	-0.106384063	-0.642110996	-0.757934619	-0.898502764	-0.653652819	-0.693163144	0
185	2982942485	0.042748347	-0.10531626	-0.643433829	-0.757016494	0.595172195	0.38467907	-1.455141906	0
187	2982975819	0.042454225	-0.104136159	-0.642383792	-0.758087306	0.439537671	-0.205359191	-1.110224806	0
190	2983025820	0.043495221	-0.099133903	-0.648450672	-0.75351998	-0.007440492	-0.841040078	-0.412354776	0
193	2983075821	0.046737069	-0.091158295	-0.661342801	-0.743055524	0.807201069	-0.254882253	-0.53203299	0
195	2983109155	0.049466465	-0.084639377	-0.669541405	-0.736276817	1.025279335	-0.173786807	-0.619745253	0
198	2983159156	0.054330366	-0.074940686	-0.674771762	-0.732198862	0.750068523	0.432953884	-0.052727073	0
201	2983209157	0.058530009	-0.067360375	-0.673006651	-0.734233522	0.217871251	0.242433128	-0.07862194	0
203	2983242491	0.060993506	-0.063890904	-0.668582832	-0.738373036	-0.084905843	0.048303684	0.095444891	0
206	2983292492	0.06389706	-0.0611107	-0.664882019	-0.741697074	-0.240903583	0.211097829	0.277417612	0
209	2983342493	0.064717901	-0.061529526	-0.670488809	-0.736525945	0.254471319	-0.214035464	0.22046728	0
212	2983392494	0.063650276	-0.063242793	-0.680310389	-0.727411002	-0.214375903	0.0670708	0.826604224	0
214	2983425828	0.063416319	-0.065409836	-0.68585296	-0.722014987	-0.135163785	0.701514316	0.357540783	0
217	2983475829	0.064034626	-0.07009709	-0.683659063	-0.723599509	0.202085842	0.253562658	-0.100248692	0
221	2983542497	0.065504657	-0.073567759	-0.676720407	-0.729620734	-0.042962273	-0.354824485	0.137521573	0
224	2983592498	0.067204311	-0.074117371	-0.672935084	-0.732904202	-0.336473871	0.478495883	-0.006808313	0
226	2983625832	0.068672782	-0.074721767	-0.668994127	-0.736306705	-0.457299052	0.549589203	-0.072459036	0
229	2983675833	0.069969349	-0.075927637	-0.664517245	-0.740105476	-0.122872732	-0.081892803	-0.255324838	0
232	2983725834	0.070130616	-0.07596719	-0.665938633	-0.738807431	-0.157512024	-0.094191345	0.068258555	0
234	2983759168	0.070037085	-0.075866881	-0.669813064	-0.735315907	0.010857179	-0.006072232	-0.032811484	0
239	2983842503	0.069716623	-0.077608179	-0.674290124	-0.731060457	0.131352232	-0.091591705	-0.305780298	0
241	2983875837	0.069076902	-0.078255982	-0.67350741	-0.731773293	0.021583845	-0.085245807	-0.131461459	0
244	2983925838	0.068322155	-0.078670932	-0.67407341	-0.731278337	-0.135478111	0.062491801	-0.025190757	0
247	2983975839	0.067626095	-0.078961151	-0.676808037	-0.728781674	0.031620087	0.231565103	-0.171338187	0
249	2984009173	0.066835992	-0.078792464	-0.679395967	-0.726461161	0.217916294	0.211051152	0.123167471	0
252	2984059174	0.066126904	-0.078132225	-0.684043571	-0.722223636	0.402767273	0.103197328	-0.068408621	0
255	2984109175	0.065706021	-0.078137843	-0.684712649	-0.721627178	0.445553168	-0.271496402	-0.121654043	0
257	2984142509	0.065145007	-0.078817034	-0.684154081	-0.72213378	0.229229641	-0.229548216	0.112268787	0
260	2984192510	0.063574799	-0.08168192	-0.686069319	-0.720135542	-0.048589024	-0.043458669	-0.064261723	0
263	2984242511	0.059866054	-0.08826261	-0.689500289	-0.716390339	-0.294796496	-0.004938296	-0.448841816	0
267	2984309179	0.052281552	-0.098345966	-0.69672392	-0.708639888	-0.598708173	0.180258782	-0.302781278	0
270	2984359180	0.045911174	-0.106160843	-0.70288441	-0.701837264	-0.047157717	-0.56017013	-0.869457987	0
272	2984392514	0.041341441	-0.112465629	-0.705596655	-0.698409427	0.536658659	-1.185414337	-1.137575418	0
275	2984442515	0.037860328	-0.11981527	-0.710479343	-0.692408839	0.770272008	0.407417919	-0.878236061	0
278	2984492516	0.034980664	-0.1250729	-0.714881715	-0.687078785	0.174957896	-0.014239082	-0.918072497	0
280	2984525850	0.034114621	-0.127437997	-0.715094998	-0.686465508	0.053496293	-0.423779387	-0.200070612	0
283	2984575851	0.033262136	-0.129867236	-0.713948636	-0.687244845	0.197675319	-0.379884605	-1.18894146	0
286	2984625852	0.033093259	-0.132301714	-0.711127823	-0.68970886	0.286093397	-0.608208111	-0.67894122	0
290	2984692520	0.033168877	-0.1357459	-0.723694652	-0.675824627	0.424897482	0.570884824	-0.119932975	0
293	2984742521	0.030950134	-0.13692092	-0.743065565	-0.654330435	0.046200876	1.29883925	1.475506451	0
297	2984809189	0.028161225	-0.142553895	-0.755802485	-0.638473129	-0.614087162	-0.385457867	0.284263232	0
299	2984842523	0.024593891	-0.143369267	-0.74860631	-0.646860871	-1.270060351	0.486752129	1.434630676	0
302	2984892524	0.021458468	-0.141882817	-0.744448314	-0.652077839	-1.576545102	0.022198988	1.822893753	0
305	2984942525	0.021181188	-0.144460086	-0.746238723	-0.649469329	-0.307835843	-0.553733273	1.192768299	0
307	2984975859	0.019433516	-0.146536063	-0.748087717	-0.646926803	-0.208530997	-0.580569683	0.764308356	0
310	2985025860	0.015274465	-0.147708178	-0.746436217	-0.648677084	-0.935849871	-0.061891503	0.872979494	0
313	2985075861	0.012028578	-0.148057549	-0.738839994	-0.657304905	-1.126227671	0.91718441	0.737621033	0
315	2985109195	0.010642062	-0.148188547	-0.732217459	-0.66466871	-0.933105083	1.264789697	-0.007226326	0
318	2985159196	0.011592134	-0.14688977	-0.729522046	-0.66789715	0.059910396	1.387093423	0.617482317	0
321	2985209197	0.012200465	-0.147676347	-0.736291035	-0.660241136	0.813084673	-0.906807929	-0.708533121	0
325	2985275865	0.009625328	-0.148530453	-0.730552117	-0.666438041	-0.021275402	-0.687406747	-0.741001277	0
328	2985325866	0.010488885	-0.151790936	-0.720262428	-0.676809818	0.63994241	-0.313670899	-1.789862331	0
330	2985359200	0.01229368	-0.152880066	-0.716036747	-0.681005087	0.901289173	-0.177841253	-2.072118525	0
333	2985409201	0.014492623	-0.150857567	-0.712788401	-0.68480994	0.115912883	-0.47559389	-1.951704222	0
336	2985459202	0.01568373	-0.143891983	-0.710676312	-0.68846808	-0.445399979	-1.17493718	-1.492780927	0
338	2985492536	0.016563158	-0.136120537	-0.711965235	-0.688696134	-0.293556133	-0.660228576	-0.669836304	0
341	2985542537	0.020479129	-0.121003279	-0.72404829	-0.678743608	0.046433888	0.701623884	0.233115041	0
344	2985592538	0.025010668	-0.109007985	-0.738159716	-0.665290883	0.760545095	0.153024948	0.251747659	0
347	2985642539	0.027150349	-0.103370247	-0.742706659	-0.661032729	0.411600367	-0.56366569	0.181934365	0
349	2985675873	0.027746821	-0.101223927	-0.741986943	-0.662147421	0.172283237	-0.228161013	-0.001125372	0
352	2985725874	0.02843706	-0.098088187	-0.73898423	-0.665937196	-0.013096439	0.233766414	0.037568148	0
355	2985775875	0.029296722	-0.093700087	-0.735920699	-0.669912473	0.203468491	0.108407216	-0.242700879	0
357	2985809209	0.029662929	-0.089926892	-0.732529274	-0.674117295	0.060928741	-0.125826573	-0.129147643	0
360	2985859210	0.030622396	-0.084708633	-0.727081328	-0.68061697	-0.342194602	-0.302746367	0.325959133	0
363	2985909211	0.032474329	-0.081834937	-0.723337269	-0.684858859	-0.309766408	-0.088627961	0.122437227	0
367	2985975879	0.034609776	-0.082382853	-0.719120416	-0.689116141	0.003344036	-0.133851399	0.016403519	0
369	2986009213	0.03473372	-0.083223482	-0.71763899	-0.690551736	0.0020968	-0.065981805	0.037539511	0
374	2986092548	0.035532691	-0.084303491	-0.714971073	-0.693142636	-0.096009954	-0.000227923	0.077200346	0
376	2986125882	0.036077247	-0.084703963	-0.714029389	-0.694035807	-0.149139786	0.028203362	0.009240576	0
379	2986175883	0.036915888	-0.084890586	-0.713971359	-0.694028605	-0.11653655	-0.030684746	0.004446357	0
382	2986225884	0.037616301	-0.084930937	-0.714983963	-0.69294277	0.017545604	-0.044677614	-0.028025708	0
384	2986259218	0.037792725	-0.085113516	-0.715671293	-0.692200838	0.054991816	0.022229804	0.078677393	0
387	2986309219	0.037815152	-0.085975791	-0.716367941	-0.691371934	0.080606513	0.025649139	0.018117554	0
390	2986359220	0.037629381	-0.08723363	-0.716887383	-0.690685749	0.023468249	0.128139861	0.170062821	0
392	2986392554	0.037472184	-0.088129008	-0.717631985	-0.689806819	0.072239475	-0.00904773	0.321125905	0
395	2986442555	0.037156572	-0.089836662	-0.719209293	-0.687958398	-0.041162865	0.148329006	0.726557691	0
398	2986492556	0.035837137	-0.092995832	-0.719308486	-0.687504747	0.006916313	0.174932092	0.484310194	0
400	2986525890	0.032946427	-0.097368425	-0.717098705	-0.689349963	0.234309275	0.155130227	0.097759842	0
403	2986575891	0.027099447	-0.104709722	-0.714395225	-0.691332739	0.977339969	-0.289549413	0.072195642	0
409	2986675893	0.023698874	-0.126141634	-0.716243901	-0.685945571	0.572590529	-1.205943674	-2.194902083	0
411	2986709227	0.025633439	-0.129390703	-0.714439735	-0.687151248	0.337997038	-0.483950723	-2.036906967	0
415	2986775895	0.029822533	-0.123766052	-0.720661329	-0.681498224	0.187788405	0.531050276	0.603927306	0
418	2986825896	0.036406137	-0.112778415	-0.744663888	-0.656834314	-0.31937673	2.837248111	1.901543582	0
421	2986875897	0.04009109	-0.113166823	-0.749801582	-0.650679308	-0.648693411	-0.53500325	1.051242294	0
423	2986909231	0.039674211	-0.115718861	-0.738580792	-0.662973239	-0.831370645	-1.090180925	1.7084995	0
426	2986959232	0.038508331	-0.11766386	-0.723508519	-0.679122778	-1.189554804	-0.789320183	1.156972309	0
429	2987009233	0.037604851	-0.118430239	-0.71551474	-0.687458224	-1.359588194	0.624212066	1.393206311	0
432	2987059234	0.03507172	-0.120302888	-0.712907682	-0.689970888	-0.470252734	1.391399854	-0.3378232	0
434	2987092568	0.032656814	-0.121787604	-0.709243985	-0.693595186	-0.040489562	1.519363489	-1.037035598	0
438	2987159236	0.026488122	-0.124373032	-0.701980449	-0.700751866	1.516973202	-1.042273218	-1.314774291	0
441	2987209237	0.025079586	-0.122362233	-0.706807512	-0.696291347	0.261614325	-1.00968583	-0.655231383	0
445	2987275905	0.03101109	-0.118200778	-0.710121558	-0.693393295	-0.433580598	-1.199250689	-1.987679052	0
448	2987325906	0.034798192	-0.114302339	-0.699305414	-0.704766627	-0.606571794	0.062588303	-0.582429023	0
450	2987359240	0.038217395	-0.107925869	-0.702933885	-0.701979622	0.23110675	1.59315342	0.366493814	0
453	2987409241	0.042522023	-0.099224845	-0.718953904	-0.686623325	0.408851434	0.257660242	-0.883013006	0
456	2987459242	0.041742841	-0.095765064	-0.726604119	-0.679067774	-0.095181231	-0.413813274	0.376974861	0
459	2987509243	0.039462427	-0.091829838	-0.731742575	-0.674212728	-0.938056395	0.746596986	0.986405133	0
461	2987542577	0.038419163	-0.089410997	-0.731826067	-0.674507412	-1.134087187	0.219533988	0.571889892	0
464	2987592578	0.035181708	-0.086020324	-0.725520733	-0.681896192	-0.989971249	-0.956767472	1.396372874	0
468	2987659246	0.032311223	-0.080313547	-0.720115722	-0.688432325	-1.280182014	-0.677317349	0.431140007	0
471	2987709247	0.034394955	-0.082355868	-0.714130298	-0.694299946	-0.744314551	2.047966233	-0.256199603	0
475	2987775915	0.039637679	-0.084264645	-0.715949925	-0.69191331	2.055325994	-0.651008097	-1.588241546	0
477	2987809249	0.037989309	-0.079479114	-0.721870828	-0.686398128	1.027463869	-0.997223339	-0.092888025	0
481	2987875917	0.033658607	-0.070395711	-0.733367005	-0.675340195	-0.609065111	-0.061894059	0.077130294	0
486	2987959252	0.038566147	-0.073031252	-0.728416812	-0.680138248	0.807169833	-0.004574338	-0.542298632	0
488	2987992586	0.039812803	-0.074307789	-0.725753903	-0.682769774	0.987254897	-0.308773389	-0.767754299	0
491	2988042587	0.038732084	-0.073490809	-0.725557458	-0.683129053	0.201103666	-0.071119914	-0.223603117	0
494	2988092588	0.037376739	-0.072175874	-0.728344521	-0.68037334	-0.211262626	-0.102865525	0.127709441	0
498	2988159256	0.038339998	-0.072580684	-0.729605968	-0.678923575	0.053332396	-0.145848648	0.007921062	0
502	2988225924	0.039988872	-0.075253107	-0.727235735	-0.681077122	-0.056548128	-0.146858613	0.052631394	0
504	2988259258	0.040662424	-0.07664971	-0.726714406	-0.681437863	-0.043124188	-0.164036072	0.048214812	0
507	2988309259	0.041599205	-0.078374445	-0.72553842	-0.682437509	-0.251043489	0.006219836	0.088385283	0
510	2988359260	0.042754094	-0.079994055	-0.722610993	-0.685278331	-0.387683847	0.088914236	0.213005433	0
513	2988409261	0.044119902	-0.0814153	-0.719159324	-0.688647116	-0.492118752	0.068240485	0.266361256	0
517	2988475929	0.044884468	-0.082519899	-0.716585939	-0.6911443	-0.486225759	-0.012376123	0.401249591	0
519	2988509263	0.044707824	-0.083206049	-0.716913689	-0.69073347	-0.303121717	-0.025554789	0.517748514	0
522	2988559264	0.043995423	-0.08495796	-0.718625236	-0.688784667	-0.266273769	0.009995854	0.441178449	0
525	2988609265	0.043110965	-0.088923251	-0.718699548	-0.688262349	-0.126553748	0.074931663	0.386477399	0
527	2988642599	0.042557563	-0.092576936	-0.717148917	-0.689431502	-0.140688583	0.076701681	0.16756784	0
530	2988692600	0.040978653	-0.098918241	-0.71269987	-0.693249469	-0.068055825	0.192283814	-0.258995787	0
533	2988742601	0.03744807	-0.105891286	-0.70677421	-0.698466101	0.655728936	0.26266681	-1.123916632	0
535	2988775935	0.035005106	-0.109718496	-0.704852043	-0.69994292	1.023718717	0.109176752	-1.105508424	0
538	2988825936	0.030337989	-0.113208156	-0.709939467	-0.694441843	0.892604575	-0.254903001	-1.048010134	0
542	2988892604	0.024719528	-0.116436765	-0.721208878	-0.682414228	0.238974978	-1.103107274	-1.35191801	0
545	2988942605	0.021981751	-0.122028351	-0.722368701	-0.680300922	-0.290398744	-0.807386075	-0.99536923	0
548	2988992606	0.022114618	-0.127764136	-0.724392895	-0.677083602	-0.289076749	0.125417071	-0.563908609	0
550	2989025940	0.023817768	-0.129931237	-0.730826784	-0.669658718	0.033176857	0.850012509	-0.227744321	0
553	2989075941	0.025121232	-0.130661064	-0.743337877	-0.655549701	0.076454828	-0.247456727	-0.502774327	0
557	2989142609	0.022113183	-0.132228625	-0.747006847	-0.651158482	-0.470189568	-0.262096689	0.215778289	0
560	2989192610	0.019567562	-0.133168712	-0.745065784	-0.653268843	-0.687680344	0.203718497	0.290254267	0
564	2989259278	0.017380248	-0.132127088	-0.744505795	-0.654180006	-0.385278953	0.068581365	0.182117016	0
567	2989309279	0.016369456	-0.127458153	-0.748331746	-0.650758065	-0.291100343	0.073900771	0.422351443	0
572	2989392614	0.01466314	-0.119911024	-0.755097095	-0.644387085	-0.069304135	0.124642748	0.363943499	0
575	2989442615	0.012859754	-0.117551279	-0.753065239	-0.647231851	0.365890159	-0.13762831	0.130071977	0
577	2989475949	0.012076627	-0.116444717	-0.748894898	-0.652266215	0.0875236	-0.29604909	0.301325438	0
580	2989525950	0.011916054	-0.116249388	-0.744074145	-0.657797654	0.202110806	-0.417503128	0.538854187	0
583	2989575951	0.014103312	-0.119303922	-0.739914717	-0.661886608	-0.000500003	-0.532289844	0.59141061	0
585	2989609285	0.017368731	-0.122866376	-0.737122171	-0.664268835	0.001274469	-0.282643356	0.868366895	0
589	2989675953	0.027248761	-0.134717073	-0.730328334	-0.669125803	0.347497904	-0.209415464	0.187326766	0
592	2989725954	0.03461281	-0.147405953	-0.721537356	-0.675616224	0.068385607	-0.157230883	0.115520753	0
595	2989775955	0.04190094	-0.160498366	-0.712245814	-0.682048742	-0.004419964	-0.035038764	0.082883708	0
598	2989825956	0.049174418	-0.172669969	-0.703658624	-0.687481999	-0.015450667	-0.000362695	-0.068946998	0
600	2989859290	0.053089631	-0.180562764	-0.697553888	-0.691373382	0.099002138	0.244276868	-0.194423297	0
603	2989909291	0.056980221	-0.192649681	-0.686381005	-0.698942394	-0.092119197	0.128761354	-0.750154539	0
606	2989959292	0.059324576	-0.204610897	-0.672958286	-0.708337575	-0.152718237	0.014727117	-0.950416606	0
608	2989992626	0.060588028	-0.211289236	-0.665156356	-0.713619627	-0.092119546	-0.069358137	-0.861658303	0
611	2990042627	0.062170989	-0.217260803	-0.657656232	-0.718624235	-0.273311648	0.053341641	-1.307991211	0
614	2990092628	0.063547934	-0.219909557	-0.654134438	-0.720908859	-0.327000643	-0.017749176	-1.244984493	0
619	2990175963	0.066621356	-0.215985859	-0.665853114	-0.711021332	-0.426492083	0.698212363	0.154438184	0
622	2990225964	0.066513108	-0.210791838	-0.675276885	-0.703664648	-0.18944309	-0.096620839	0.415720091	0
625	2990275965	0.06204305	-0.203520362	-0.677428221	-0.704145672	-0.742917113	0.063069662	1.851950918	0
627	2990309299	0.059389274	-0.197791912	-0.679042147	-0.704452296	-1.284639626	-0.000652565	1.499972979	0
630	2990359300	0.054063607	-0.192901838	-0.674010178	-0.711038879	-1.260823768	-0.417112549	1.605010369	0
633	2990409301	0.048303506	-0.189171505	-0.670654783	-0.715613775	-1.213552107	-0.474208759	1.861986751	0
635	2990442635	0.044566437	-0.186500903	-0.670448835	-0.716749333	-1.005536247	-0.073912464	1.656638879	0
638	2990492636	0.039557232	-0.184695664	-0.668404978	-0.719414708	-0.863035463	1.05936843	0.771471135	0
641	2990542637	0.036922541	-0.188348319	-0.662414861	-0.724132715	0.4744689	0.399522509	-0.724188538	0
643	2990575971	0.036300715	-0.191349875	-0.659031418	-0.726460648	0.656386208	-0.243502732	-0.73490942	0
646	2990625972	0.03612362	-0.192017092	-0.662224811	-0.7233829	0.447755233	0.187718169	-1.246489216	0
649	2990675973	0.038591631	-0.188448694	-0.670830539	-0.716229128	0.610060448	0.688775392	-1.472878366	0
652	2990725974	0.039994488	-0.1831338	-0.678180718	-0.710586635	1.856422758	0.092500088	-2.199162739	0
654	2990759308	0.036300189	-0.178707524	-0.678759174	-0.711359192	1.460877527	-0.200677525	-2.053520869	0
658	2990825976	0.022908009	-0.169801446	-0.675872041	-0.716826113	0.002547847	-0.875816673	-0.966083157	0
661	2990875977	0.01390489	-0.162097166	-0.677880118	-0.716944704	-0.094871578	-0.594441597	-1.195560935	0
664	2990925978	0.008439839	-0.151805405	-0.683211703	-0.714216813	0.217426918	-0.080420443	-0.803001927	0
666	2990959312	0.007162661	-0.143538364	-0.687705225	-0.711622764	0.246389795	-0.228537481	-0.86178215	0
670	2991025980	0.004567005	-0.128100751	-0.687733988	-0.714556717	0.204202085	-0.307057042	-0.430852078	0
673	2991075981	0.001350982	-0.119091131	-0.684171545	-0.71953094	1.997787979	-0.177658478	-0.692146698	0
676	2991125982	0.002831486	0.111241442	0.678811225	0.725832381	1.130536313	-0.371169108	-0.059678411	0
679	2991175983	0.006432976	0.109707734	0.669893117	0.734279267	1.08073306	-1.013514091	-0.696848337	0
681	2991209317	0.008997675	0.111891728	0.657932748	0.744663537	0.861985416	-0.916601478	-0.586274447	0
684	2991259318	0.012325278	0.117905441	0.641200729	0.758160946	0.587297542	-0.960188237	-0.029772935	0
687	2991309319	0.01453168	0.128430701	0.624227252	0.770476945	-0.143847891	-0.407666431	0.279885814	0
689	2991342653	0.014312829	0.137004846	0.614492843	0.776803296	-0.468624469	0.004421711	1.013450664	0
692	2991392654	0.009357641	0.15057112	0.604084306	0.782510654	-0.764602889	0.395302388	1.56686741	0
695	2991442655	0.00169596	0.166126398	0.599490507	0.782949728	-0.062285501	0.036786938	1.250553788	0
697	2991475989	0.00467684	-0.176154935	-0.596130974	-0.783310557	-1.699405591	-0.430093016	0.948319776	0
702	2991559324	0.028613355	-0.195013121	-0.598820107	-0.776251015	-1.336250005	0.149310888	0.338887822	0
704	2991592658	0.039862287	-0.199327334	-0.601987123	-0.772198884	-0.892161009	0.461858179	0.135966191	0
707	2991642659	0.053598645	-0.199771806	-0.611557028	-0.763686069	0.058612482	1.223673214	-0.632383597	0
710	2991692660	0.059067894	-0.192077317	-0.619591798	-0.75876432	1.56537167	0.911780551	-1.517570855	0
712	2991725994	0.056750415	-0.185138132	-0.618600999	-0.761469675	1.031703378	0.756594866	-1.586278102	0
715	2991775995	0.043814781	-0.173030359	-0.61064185	-0.77152919	0.6093923	0.674611742	-0.988407233	0
718	2991825996	0.025801178	-0.159969169	-0.599418564	-0.783863221	-0.382665293	0.448812068	-0.176081532	0
720	2991859330	0.014473633	-0.150912231	-0.592454051	-0.791210598	-0.697759477	0.492621604	-0.056440477	0
723	2991909331	0.000371976	0.139085047	0.582197781	0.801062391	-0.678286298	0.384493965	0.083198729	0
726	2991959332	0.010087327	0.130544574	0.570689742	0.810659965	-0.345300211	-0.200843202	0.243546532	0
730	2992026000	0.017556085	0.124261553	0.565190267	0.815359315	-0.131265162	-0.488402834	0.542528953	0
733	2992076001	0.016121401	0.119758243	0.582441738	0.803840585	-1.375917972	-0.048193825	0.416473312	0
735	2992109335	0.00993	0.116589603	0.601573039	0.790201328	-1.275352549	-0.513936793	-0.20167401	0
738	2992159336	0.002889015	-0.113305351	-0.622375977	-0.774468652	0.472055759	-0.878686772	-0.231544088	0
741	2992209337	0.015738338	-0.110455976	-0.638762454	-0.761271508	1.087877396	-0.73330253	-0.184583378	0
743	2992242671	0.022226468	-0.108280344	-0.648207117	-0.753398224	0.822742774	0.071036145	-0.416593146	0
746	2992292672	0.031288332	-0.107811863	-0.658836255	-0.74386318	-0.106933755	0.004423211	-0.561183979	0
749	2992342673	0.0366596	-0.107607309	-0.658658702	-0.743804715	0.403124152	-0.405083505	-0.922623831	0
752	2992392674	0.036139938	-0.094886535	-0.665413244	-0.739537467	0.447960752	-0.368936373	-0.553304691	0
754	2992426008	0.034856213	-0.085204867	-0.671793988	-0.734995246	-0.066646613	-0.805262451	0.382544555	0
758	2992492676	0.035742225	-0.079750492	-0.673051026	-0.734414507	0.360069679	-0.34197164	0.013839836	0
761	2992542677	0.039011373	-0.080033705	-0.671648025	-0.735500951	0.466742177	-0.128096474	0.314719419	0
764	2992592678	0.042910826	-0.084454494	-0.673468188	-0.733121203	0.201165809	0.330483147	0.253663916	0
766	2992626012	0.04609643	-0.090535385	-0.671787081	-0.73374422	0.165539008	0.237583058	-0.165680383	0
769	2992676013	0.051438455	-0.100372319	-0.667642355	-0.735889372	-0.058811468	0.217459161	-0.282817224	0
772	2992726014	0.053802502	-0.103817843	-0.665008444	-0.737625186	0.571923596	0.402818894	-1.035953281	0
774	2992759348	0.052786101	-0.101412519	-0.664983394	-0.738055699	0.409378613	0.172845135	-0.502987492	0
777	2992809349	0.049771104	-0.09809618	-0.66555203	-0.738200835	-0.114557731	0.029540053	0.177992373	0
780	2992859350	0.048479352	-0.098672382	-0.665373084	-0.738371297	-0.358608133	-0.095210816	0.125579319	0
783	2992909351	0.050214511	-0.101071028	-0.665203937	-0.738083242	-0.038443262	-0.029561555	0.080164625	0
785	2992942685	0.051776953	-0.102079682	-0.665874506	-0.737231326	0.289992694	0.057773546	-0.393546203	0
788	2992992686	0.052574394	-0.101498925	-0.665848871	-0.737278226	0.445284973	0.09179379	-0.548327625	0
791	2993042687	0.051382579	-0.100544771	-0.663070128	-0.739992287	-0.072640698	-0.01267182	-0.1185262	0
793	2993076021	0.05083407	-0.100609472	-0.661343202	-0.741565102	-0.28271895	0.001113068	-0.068195267	0
796	2993126022	0.051290199	-0.100650565	-0.660285105	-0.742470444	-0.215073216	0.03859946	-0.197945355	0
800	2993192690	0.052627852	-0.09907603	-0.66149472	-0.741511284	-0.033151293	-0.038359722	-0.24282915	0
803	2993242691	0.052505364	-0.097018596	-0.663734609	-0.739788448	-0.058933665	0.075575516	-0.181828423	0
806	2993292692	0.051856876	-0.09546305	-0.665618396	-0.738342618	-0.108222546	0.04651127	-0.181476797	0
808	2993326026	0.05155997	-0.094957223	-0.666205756	-0.737898764	-0.059116458	0.01160992	-0.106010295	0
811	2993376027	0.051227973	-0.096254599	-0.664753092	-0.73906297	-0.085012607	-0.053275394	-0.131299474	0
814	2993426028	0.051020889	-0.098891163	-0.65979802	-0.743158112	0.072804891	0.064082413	-0.218636118	0
816	2993459362	0.050346349	-0.100959209	-0.655704919	-0.746541052	0.160301399	0.06668757	-0.407653852	0
819	2993509363	0.048828207	-0.102188806	-0.652852138	-0.748970854	-0.053267629	0.065950813	-0.136594467	0
822	2993559364	0.048336583	-0.100576046	-0.654232741	-0.748015744	-0.280202017	0.042168628	-0.20815463	0
824	2993592698	0.048492772	-0.098718227	-0.655332833	-0.747289797	-0.078565724	-0.130571177	-0.097209047	0
827	2993642699	0.049261869	-0.096258647	-0.657404095	-0.745739497	-0.17730026	-0.200114438	-0.066696391	0
830	2993692700	0.050105899	-0.093280162	-0.659409868	-0.744289484	-0.596077501	-0.193974139	-0.336634805	0
833	2993742701	0.052247091	-0.091120633	-0.658049677	-0.745612429	-0.089388	-0.162332616	-0.379966483	0
835	2993776035	0.054141278	-0.089337807	-0.65677983	-0.746811712	-0.18856117	-0.004779904	-0.147195712	0
839	2993842703	0.057155922	-0.084952319	-0.653860162	-0.749655382	-0.069641982	0.013131579	-0.203278485	0
842	2993892704	0.060072123	-0.081878578	-0.649099137	-0.753894919	0.072617561	0.162518457	-0.153956526	0
845	2993942705	0.06470431	-0.077767375	-0.644072235	-0.758245701	0.023192282	0.236852669	0.080778048	0
849	2994009373	0.071691817	-0.071866075	-0.641947961	-0.759998925	0.340723777	0.062212872	-0.056738122	0
851	2994042707	0.074527785	-0.068740393	-0.643378992	-0.758804217	0.424096571	-0.020535891	-0.169870695	0
854	2994092708	0.077422804	-0.06592057	-0.643490996	-0.758669576	-0.023804515	0.068621173	-0.009030671	0
857	2994142709	0.079409507	-0.063135832	-0.644571085	-0.757783685	0.203244411	0.128516484	-0.027695492	0
860	2994192710	0.080322581	-0.060887093	-0.64422799	-0.758163137	0.171092655	0.00581993	-0.199433418	0
862	2994226044	0.080790478	-0.059207446	-0.642795875	-0.759460887	-0.183212654	0.021363047	-0.071169492	0
865	2994276045	0.080607787	-0.05574126	-0.642897336	-0.759656706	0.119214272	0.119416993	0.03656828	0
869	2994342713	0.079651333	-0.053530842	-0.641843695	-0.760806667	0.051141843	0.020197369	0.126733921	0
872	2994392714	0.07948555	-0.052880256	-0.641099657	-0.761496524	0.038356916	-0.050505984	-0.050772785	0
874	2994426048	0.07965179	-0.0527451	-0.640254931	-0.762198904	-0.021487862	0.01554936	-0.06071598	0
877	2994476049	0.080065594	-0.051797523	-0.640169287	-0.762292465	0.180446109	0.172055041	0.035091594	0
880	2994526050	0.080410298	-0.050772239	-0.638977512	-0.763324376	0.242246006	0.022484153	-0.067940752	0
882	2994559384	0.08020486	-0.050356184	-0.638397965	-0.763858281	0.217324529	0.075174031	0.089290631	0
885	2994609385	0.07960567	-0.05118757	-0.637031116	-0.765005965	-0.079754783	0.043559079	-0.167426246	0
888	2994659386	0.079785185	-0.05261219	-0.635944703	-0.765794109	-0.021555445	0.053688217	-0.055283398	0
891	2994709387	0.080208112	-0.054463894	-0.635009457	-0.766396329	0.17478663	0.070899848	-0.295608268	0
893	2994742721	0.080082932	-0.0551195	-0.634702656	-0.76661666	0.077748505	0.130345116	-0.105224312	0
897	2994809389	0.079676004	-0.056025008	-0.634980308	-0.766363452	0.034305012	-0.006827624	-0.205300158	0
900	2994859390	0.079634222	-0.056684652	-0.635506158	-0.765883257	0.100808447	0.077803535	-0.026209231	0
903	2994909391	0.079881676	-0.057841304	-0.635203695	-0.76602191	0.171293121	-0.004717076	-0.148893597	0
905	2994942725	0.079827011	-0.05839729	-0.63468445	-0.766415719	0.168011186	0.069316056	-0.192273461	0
908	2994992726	0.079710057	-0.058999201	-0.633623774	-0.767258961	-0.036170573	0.133811807	-0.207995566	0
912	2995059394	0.079225313	-0.058728246	-0.634637763	-0.766491522	-0.00635925	0.051892134	-0.164209203	0
915	2995109395	0.079024165	-0.058693001	-0.635518506	-0.765784919	-0.054119022	0.122842016	-0.125126565	0
918	2995159396	0.079013429	-0.058918632	-0.635964038	-0.765398729	0.044493844	0.140137208	-0.125526707	0
920	2995192730	0.078809316	-0.059128868	-0.636355064	-0.765078494	0.060910222	0.094124229	-0.210415896	0
923	2995242731	0.07852495	-0.059396567	-0.63693788	-0.764601869	-0.041551163	-0.017549765	-0.071084226	0
926	2995292732	0.078440887	-0.059248604	-0.637766651	-0.76393084	0.005122907	0.133140293	-0.173644944	0
928	2995326066	0.078549836	-0.059076716	-0.638038595	-0.763705844	0.038671776	0.065479921	-0.10806173	0
931	2995376067	0.078717492	-0.058726792	-0.638137324	-0.763633076	0.002739128	0.07017087	-0.139649623	0
934	2995426068	0.078924887	-0.058158337	-0.638379634	-0.763452627	0.04193026	0.11296699	-0.111448445	0
936	2995459402	0.079095299	-0.057875761	-0.638481904	-0.763370937	0.016332589	0.100503068	-0.165866969	0
939	2995509403	0.079142012	-0.057452828	-0.639018066	-0.762949294	0.009329866	0.061176303	-0.080589276	0
942	2995559404	0.079124211	-0.057180631	-0.639671644	-0.762423716	0.045645706	0.100653669	-0.150648517	0
945	2995609405	0.079052081	-0.05667706	-0.640027751	-0.7621699	0.000101151	0.041474989	-0.07908528	0
947	2995642739	0.079057172	-0.056353022	-0.640110236	-0.762124128	-0.015187281	0.06601178	-0.154813526	0
950	2995692740	0.078845509	-0.056024406	-0.639863119	-0.762377754	-0.02779779	0.11066394	-0.073772656	0
953	2995742741	0.078793632	-0.055699323	-0.639986451	-0.762303412	0.083724505	0.068647673	-0.068482812	0
955	2995776075	0.078700242	-0.055648168	-0.639903415	-0.762386499	0.067618309	0.025292491	-0.204785357	0
958	2995826076	0.078508633	-0.055615888	-0.639964653	-0.762357206	-0.05416646	0.019036404	-0.086110461	0
961	2995876077	0.078359434	-0.055778058	-0.640304237	-0.762075516	0.067263406	0.024953527	-0.102802578	0
963	2995909411	0.078171827	-0.055845886	-0.640686968	-0.761768082	-0.040796015	0.13587525	-0.11282744	0
966	2995959412	0.078025981	-0.056000181	-0.640937211	-0.761561172	0.046887938	0.094621839	-0.1502563	0
969	2996009413	0.07789154	-0.056264216	-0.640955714	-0.7615399	0.021800962	-0.030196437	-0.068264885	0
972	2996059414	0.077748418	-0.056592064	-0.641155603	-0.761361947	0.026132159	0.06380003	-0.137048497	0
974	2996092748	0.077793735	-0.056856027	-0.641380404	-0.76114828	-0.00528922	-0.020078922	-0.092752461	0
978	2996159416	0.077685248	-0.057320615	-0.641945042	-0.76064835	-0.012073633	0.088554538	-0.125102167	0
981	2996209417	0.077515596	-0.057416834	-0.642092108	-0.760534263	0.106321422	0.120095902	-0.068181059	0
984	2996259418	0.077387793	-0.057534569	-0.642111472	-0.760522031	-0.040317426	0.004666263	-0.076079303	0
986	2996292752	0.077381283	-0.057526423	-0.6424516	-0.760236009	0.076231065	0.062183053	-0.053663214	0
989	2996342753	0.077546109	-0.057557894	-0.642467317	-0.76020355	0.054571717	0.043615244	-0.055151158	0
992	2996392754	0.077657601	-0.057844975	-0.642074442	-0.760502247	0.025587793	0.06691708	-0.080372521	0
994	2996426088	0.077710713	-0.058180786	-0.641810723	-0.760693787	0.038429548	0.035425973	-0.079147634	0
997	2996476089	0.077544816	-0.058916329	-0.641504592	-0.760912298	0.010923278	0.080837081	-0.104736293	0
1000	2996526090	0.077327927	-0.059411321	-0.642003874	-0.760474663	-0.046269664	0.140512728	-0.149272028	0
1003	2996576091	0.07700987	-0.059635495	-0.642674959	-0.759922354	0.080662759	0.028871004	-0.051998667	0
1007	2996642759	0.076605672	-0.059755912	-0.644318255	-0.758560998	0.061231947	0.068395069	-0.119254777	0
1009	2996676093	0.076413478	-0.059898517	-0.644779289	-0.758177299	0.075389911	0.040205641	-0.023846514	0
1012	2996726094	0.076236833	-0.06035834	-0.645271795	-0.757739484	0.050983113	0.065145574	-0.120186036	0
1015	2996776095	0.07604185	-0.060708833	-0.645275865	-0.757727611	0.018429604	0.059854945	-0.113214797	0
1017	2996809429	0.075944439	-0.060841897	-0.645443553	-0.757583873	0.024828179	0.059233337	-0.073763079	0
1020	2996859430	0.075684327	-0.060841686	-0.646185992	-0.756976774	0.059772527	0.066506028	-0.110413271	0
1023	2996909431	0.075565449	-0.060724002	-0.646857992	-0.756423953	0.039399846	0.053033446	-0.057004886	0
1026	2996959432	0.075551337	-0.060700007	-0.646975878	-0.756326462	0.100200096	0.051364481	-0.070628259	0
1028	2996992766	0.075563527	-0.060591638	-0.646913177	-0.756387565	0.070119782	0.046683557	-0.063285315	0
1031	2997042767	0.075596454	-0.060354296	-0.646872569	-0.756437978	0.052104081	0.048898156	-0.052419951	0
1035	2997109435	0.075623395	-0.060133952	-0.647062737	-0.756290172	0.101611677	0.008482896	-0.037509288	0
1038	2997159436	0.075506842	-0.060098727	-0.64709182	-0.756279734	0.019606187	0.128611311	-0.125353666	0
1040	2997192770	0.075468683	-0.060058685	-0.647127146	-0.756256497	0.032850649	0.001508466	0.007334768	0
1043	2997242771	0.075346227	-0.059869402	-0.647714156	-0.755781035	0.060688591	0.020665102	-0.1732103	0
1046	2997292772	0.075415773	-0.059928671	-0.647621562	-0.755848747	0.028041523	0.134425718	-0.032664517	0
1048	2997326106	0.075447582	-0.060143249	-0.647115577	-0.756261782	0.074105036	0.176967701	-0.131777692	0
1051	2997376107	0.074865201	-0.060578883	-0.647502349	-0.755953774	-0.167111274	0.191011846	-0.0573486	0
1054	2997426108	0.073607114	-0.058791672	-0.649214746	-0.754748797	0.175091894	0.154819768	-0.163829435	0
1057	2997476109	0.070728484	-0.056638144	-0.649827297	-0.754661571	0.082646362	0.266116482	-0.339396202	0
1059	2997509443	0.066759906	-0.054374524	-0.649248267	-0.755687246	0.16014332	0.605973191	-0.284604869	0
1062	2997559444	0.057562201	-0.048811213	-0.645285212	-0.760204613	1.096768129	0.659859094	-1.37632575	0
1065	2997609445	0.038940746	-0.040337896	-0.630073268	-0.774508973	1.710079692	0.882547035	-1.13864953	0
1067	2997642779	0.021434199	-0.031298992	-0.619603911	-0.783997411	1.276182597	1.036744014	-0.875832108	0
1070	2997692780	0.011490327	0.012398711	0.603759135	0.796987548	1.057489137	1.506911219	-0.728583325	0
1073	2997742781	0.049103595	-0.00982195	0.587080888	0.807977968	0.385526596	1.163264211	-0.53543782	0
1075	2997776115	0.075851532	-0.023633111	0.569905566	0.81786042	0.294860191	1.106879876	0.160132167	0
1078	2997826116	0.114616988	-0.045721252	0.540163433	0.8324638	-0.374025935	0.524285772	0.290046407	0
1081	2997876117	0.1517453	-0.069474848	0.504815532	0.84694031	-0.060342173	1.212278424	0.900379896	0
1084	2997926118	0.185003162	-0.095358372	0.462052136	0.862083775	-0.506471815	0.910169438	0.894080515	0
1086	2997959452	0.206496412	-0.114962234	0.436944484	0.867883883	-0.880000971	0.201983176	1.162077094	0
1089	2998009453	0.238107258	-0.14296653	0.407263277	0.870058693	-0.741199858	0.557465818	0.736222845	0
1092	2998059454	0.267953111	-0.170884379	0.377128459	0.869927459	-0.563195402	0.44733388	0.190204896	0
1094	2998092788	0.286150767	-0.19056879	0.354094427	0.869723181	-0.169937573	0.149386183	-0.159549291	0
1097	2998142789	0.310796614	-0.219894123	0.319908975	0.867588777	-0.800399573	0.161893785	-0.510233187	0
1100	2998192790	0.330273447	-0.249824962	0.28612999	0.864081343	-0.489184652	-0.227896876	-0.686703339	0
1102	2998226124	0.341365135	-0.268897272	0.267030225	0.860150545	-0.312604657	-0.532843986	-1.447597734	0
1105	2998276125	0.354704432	-0.293435404	0.246180557	0.85292178	-0.025013178	-0.663929191	-1.084415799	0
1108	2998326126	0.361907798	-0.313172006	0.225687953	0.848534612	0.329727787	-0.84167546	-0.472918063	0
1111	2998376127	0.367429483	-0.324810243	0.213597641	0.844908237	0.573673258	-0.998149283	-0.770553311	0
1115	2998442795	0.369883988	-0.333317284	0.204600955	0.842747811	0.148892829	-0.223300476	-0.03695491	0
1117	2998476129	0.367458792	-0.337852383	0.197875145	0.843608458	0.515380297	-0.480157759	-0.313173995	0
1120	2998526130	0.365373059	-0.341860688	0.19406484	0.843784709	0.134005697	-0.365708868	0.240778674	0
1123	2998576131	0.362750119	-0.345154649	0.190259816	0.844441722	0.07954498	0.141914524	0.400213406	0
1125	2998609465	0.361366824	-0.347276607	0.187756862	0.844725007	0.102675797	-0.176050781	0.140050485	0
1128	2998659466	0.360156224	-0.35023116	0.184879458	0.844656862	-0.070190365	-0.044152025	0.663607718	0
1131	2998709467	0.359021246	-0.353660362	0.180636598	0.844629216	0.027174093	0.109764143	0.459443404	0
1134	2998759468	0.358288044	-0.357047937	0.176326747	0.844426034	-0.194847297	0.07226696	0.261433684	0
1136	2998792802	0.357428558	-0.358954177	0.173234766	0.844622069	-0.146072673	0.1561508	0.213205792	0
1139	2998842803	0.35595381	-0.361319536	0.168646308	0.845164777	-0.016125715	-0.012990152	0.454718478	0
1143	2998909471	0.353946312	-0.364114118	0.164120905	0.845699264	0.023964135	-0.093383131	0.302997263	0
1146	2998959472	0.352164007	-0.366107217	0.161663168	0.846056167	0.211640098	0.016359868	-0.090574396	0
1148	2998992806	0.351125709	-0.367173149	0.161744953	0.846010157	-0.041860505	0.234557403	0.282754272	0
1151	2999042807	0.347809408	-0.369407005	0.160372955	0.846668527	-0.119004578	0.198128605	0.236732214	0
1154	2999092808	0.344023797	-0.371958127	0.159179581	0.84732322	-0.055610009	-0.029789799	0.248694702	0
1156	2999126142	0.342212533	-0.373460105	0.159806734	0.847277959	-0.037074625	0.093490473	0.483017275	0
1159	2999176143	0.340750554	-0.375122777	0.160600194	0.846982609	-0.121381893	0.057118978	0.541992065	0
1162	2999226144	0.339629593	-0.376460962	0.16036303	0.846884043	-0.083108519	-0.089066259	0.367885052	0
1165	2999276145	0.33958642	-0.376943706	0.160192801	0.846718827	-0.103125529	-0.010235961	0.439638776	0
1167	2999309479	0.339751369	-0.377032698	0.159485637	0.846746529	-0.154412948	-0.023967101	0.359737477	0
1171	2999376147	0.339490126	-0.377213065	0.156762142	0.847279404	0.102303034	-0.222932433	0.229953343	0
1174	2999426148	0.339862156	-0.377034814	0.155220423	0.847493413	-0.156518607	-0.063097931	0.380095755	0
1177	2999476149	0.340472574	-0.376802887	0.153675037	0.847633171	-0.124297442	0.025900968	0.512373515	0
1179	2999509483	0.340662653	-0.376886521	0.151868097	0.847845262	0.00477004	-0.021444127	0.324662936	0
1182	2999559484	0.341346981	-0.37664274	0.150087617	0.847995396	-0.058112864	-0.02996819	0.395035162	0
1185	2999609485	0.341931415	-0.376351457	0.14822779	0.84821637	-0.174927427	0.130342645	0.418474568	0
1188	2999659486	0.341808772	-0.376190084	0.146150235	0.848697763	0.010962775	0.104018416	0.234065651	0
1190	2999692820	0.341721704	-0.375790249	0.14514321	0.84908269	-0.248822225	-0.020609374	0.394774455	0
1193	2999742821	0.342000788	-0.374698215	0.14406611	0.849636196	-0.169050623	0.051451616	0.389468897	0
1196	2999792822	0.342230399	-0.373691816	0.1419888	0.850336381	0.014883715	-0.103713124	0.297721363	0
1198	2999826156	0.342656163	-0.3727677	0.140762118	0.850774366	-0.003602922	0.016859423	0.430058334	0
1201	2999876157	0.343557266	-0.370825257	0.139665372	0.85144032	-0.022582443	0.18382468	0.385897397	0
1204	2999926158	0.343316597	-0.368772588	0.137151898	0.852836356	0.16608878	-0.081974171	0.138869985	0
1206	2999959492	0.34359538	-0.366704454	0.136786708	0.853674092	0.031337068	0.080465689	0.443440929	0
1209	3000009493	0.343487048	-0.363269491	0.135107797	0.855451815	-0.136320405	0.004563756	0.31980139	0
1212	3000059494	0.342867937	-0.359453858	0.132625207	0.857697532	-0.048274211	0.032503664	0.28222431	0
1215	3000109495	0.342163263	-0.356325163	0.130685472	0.859580122	0.12620334	0.16682584	0.203839071	0
1217	3000142829	0.342361936	-0.35428507	0.131665097	0.860194569	-0.330961402	0.373917011	0.294538365	0
1220	3000192830	0.342146161	-0.352218653	0.13223042	0.861041893	-0.168884019	0.322063392	0.52032073	0
1223	3000242831	0.341605723	-0.351599794	0.131123312	0.861678474	-0.285508715	0.166494169	0.669056437	0
1225	3000276165	0.340668949	-0.352211739	0.128463591	0.862199898	-0.101251696	0.126708918	0.497003466	0
1228	3000326166	0.339460616	-0.352970352	0.124549195	0.862940275	-0.03464267	0.092274286	0.324622826	0
1231	3000376167	0.337342229	-0.354407828	0.120250608	0.863791122	0.274668458	0.092723357	-0.061785978	0
1233	3000409501	0.336973151	-0.354599634	0.120509728	0.863820352	-0.074569196	0.107964988	0.353600311	0
1236	3000459502	0.335556678	-0.35556954	0.120746758	0.863939951	-0.083278804	0.069374092	0.337276501	0
1239	3000509503	0.333438804	-0.356957782	0.12049773	0.864222195	0.029374269	0.064893527	0.437250437	0
1242	3000559504	0.330995109	-0.359193708	0.119128682	0.864424939	0.046263677	-0.009290961	0.266085078	0
1244	3000592838	0.329732517	-0.360524692	0.119254841	0.864335986	0.121534031	0.159270526	0.165590342	0
1247	3000642839	0.328701741	-0.362010658	0.120925424	0.863875275	0.029004602	-0.039153255	0.373183532	0
1251	3000709507	0.326364663	-0.364251202	0.120984925	0.863811215	-0.088976295	-0.075125225	0.446562427	0
1254	3000759508	0.324943418	-0.365363221	0.121216277	0.863844955	-0.046983512	-0.027715165	0.386082492	0
1256	3000792842	0.323981678	-0.365881409	0.121380563	0.863963787	-0.131908194	-0.009774353	0.43262011	0
1259	3000842843	0.3229074	-0.366431185	0.121662068	0.864093362	-0.184738505	-0.007915489	0.549270927	0
1262	3000892844	0.321849774	-0.366869956	0.120998808	0.864394844	-0.169050141	-0.033800724	0.451332754	0
1264	3000926178	0.321783333	-0.366945084	0.120983634	0.864389815	-0.041172907	0.100650709	0.418487812	0
1267	3000976179	0.321589022	-0.367282808	0.120204821	0.864427348	-0.1179838	-0.043788401	0.368901507	0
1270	3001026180	0.322103172	-0.367214703	0.121024889	0.864150383	-0.130916674	-0.048026366	0.408135375	0
1273	3001076181	0.322084696	-0.36753666	0.120722002	0.864062758	-0.037193966	0.160618994	0.459169821	0
1275	3001109515	0.322646381	-0.367619376	0.121180306	0.863753808	-0.046408288	0.071960208	0.370760553	0
1279	3001176183	0.323768388	-0.367968306	0.121471937	0.863144209	-0.08364826	-0.006382301	0.374846813	0
1282	3001226184	0.324053928	-0.368813542	0.120728335	0.862780558	-0.131273879	0.147955899	0.372002873	0
1285	3001276185	0.324172255	-0.369918904	0.120879729	0.862241523	-0.143845752	-0.016754669	0.354372466	0
1287	3001309519	0.323991444	-0.370669506	0.120739329	0.862006773	0.098529492	0.09002722	0.173112918	0
1290	3001359520	0.323933645	-0.371467288	0.12130367	0.861605749	-0.05894285	-0.032587707	0.456713249	0
1293	3001409521	0.323572137	-0.371769357	0.121560246	0.861575141	-0.169777114	-0.083410856	0.47198386	0
1295	3001442855	0.322744764	-0.372033964	0.120968369	0.861854512	-0.069729805	0.021223254	0.387961378	0
1298	3001492856	0.32240329	-0.372018789	0.121347391	0.861935583	-0.234116703	-0.031794563	0.58603978	0
1301	3001542857	0.322955436	-0.372077985	0.122246041	0.861576268	-0.177195487	0.201985287	0.585194843	0
1304	3001592858	0.323173256	-0.372875824	0.121205641	0.861296615	-0.052292712	0.005669424	0.322498056	0
1308	3001659526	0.324067219	-0.373710074	0.121727679	0.860525183	-0.161854609	0.125782028	0.350302183	0
1310	3001692860	0.324069525	-0.37418225	0.121949498	0.860287688	-0.033374767	-0.017176267	0.23797563	0
1313	3001742861	0.323496478	-0.374926649	0.122249231	0.860136711	-0.040531394	0.014496766	0.302481055	0
1316	3001792862	0.323617249	-0.375192149	0.123836456	0.85974837	-0.202806934	-0.01713283	0.4515843	0
1318	3001826196	0.323373438	-0.375381396	0.123840988	0.859756847	-0.024994387	-0.061866755	0.342575501	0
1321	3001876197	0.323973896	-0.374867956	0.125062021	0.859578048	-0.162373545	-0.002070807	0.583867974	0
1324	3001926198	0.324163294	-0.374642485	0.124805457	0.859642231	-0.181663801	0.074715336	0.288041823	0
1327	3001976199	0.324216216	-0.374374339	0.1247102	0.859752909	-0.071779515	0.027732296	0.342656551	0
1329	3002009533	0.32456221	-0.374122765	0.125145615	0.859668601	-0.139163773	0.120239782	0.332765166	0
1332	3002059534	0.324835577	-0.373930144	0.12548164	0.859600171	-0.042732961	0.017860923	0.358512676	0
1335	3002109535	0.326076887	-0.373393605	0.126564148	0.85920463	-0.163688348	0.085916893	0.450899001	0
1337	3002142869	0.32702685	-0.372957009	0.126608047	0.859026723	-0.122734024	-0.050393335	0.469481739	0
1340	3002192870	0.32876909	-0.371748158	0.126542799	0.858895286	-0.036656348	0.00769494	0.272598714	0
1343	3002242871	0.331094452	-0.369560556	0.126490428	0.8589538	-0.048544697	-0.141513563	0.503657693	0
1345	3002276205	0.33241886	-0.36832807	0.125545088	0.859110334	-0.023548624	0.034648814	0.288468823	0
1348	3002326206	0.333707	-0.366728216	0.124074405	0.859508927	-0.104051248	0.181302043	0.109727194	0
1351	3002376207	0.333958971	-0.365383149	0.123669006	0.860042172	-0.099119003	0.067705912	0.234574866	0
1354	3002426208	0.333564626	-0.364422066	0.124117648	0.860538208	-0.2756017	0.116504594	0.360620282	0
1356	3002459542	0.332961511	-0.363804781	0.124331614	0.861001953	-0.274624362	0.033676127	0.434264406	0
1359	3002509543	0.332252317	-0.3633343	0.123192302	0.861638115	-0.063355683	-0.148856018	0.516324273	0
1362	3002559544	0.333275729	-0.361894155	0.122684777	0.861921316	0.068707018	-0.002495728	0.584462689	0
1364	3002592878	0.334400186	-0.360544443	0.121782385	0.862179373	-0.209693927	-0.026441616	0.495811082	0
1367	3002642879	0.335857001	-0.358305634	0.119777967	0.862826973	-0.015324666	-0.146122069	0.279009471	0
1370	3002692880	0.336714561	-0.355969824	0.11827147	0.863666978	-0.065954369	-0.00062753	0.290423646	0
1372	3002726214	0.336673733	-0.354710572	0.117619941	0.864289742	-0.102279142	0.109354812	0.007421807	0
1375	3002776215	0.336063761	-0.352973992	0.118352878	0.865137622	-0.235823916	0.178017335	0.45001227	0
1378	3002826216	0.334712395	-0.352201203	0.118065032	0.866015342	-0.337530835	0.067685689	0.395460973	0
1381	3002876217	0.334322382	-0.351255232	0.118651541	0.866469918	-0.160320382	0.066107616	0.40781439	0
1383	3002909551	0.334588246	-0.350590762	0.118809832	0.866614705	-0.198793244	0.068427911	0.639177407	0
1387	3002976219	0.334451317	-0.350070982	0.118092457	0.86697566	-0.151747844	0.201977061	0.463286761	0
1390	3003026220	0.334258644	-0.349869233	0.11807764	0.867133409	-0.088236029	0.039968084	0.405633746	0
1393	3003076221	0.33404058	-0.349961245	0.117640613	0.867239704	-0.157088965	0.004030478	0.290111413	0
1395	3003109555	0.334312258	-0.349729666	0.118140071	0.867160538	-0.21364154	0.008959195	0.314158381	0
1398	3003159556	0.334196187	-0.349548144	0.117557947	0.867357558	-0.095950217	-0.191836885	0.258930378	0
1401	3003209557	0.33380182	-0.348955758	0.117008071	0.867822179	-0.100565075	0.017971847	0.385041406	0
1404	3003259558	0.33298335	-0.348216075	0.115890226	0.868583392	-0.09565135	0.169234719	0.170547997	0
1406	3003292892	0.33246404	-0.347334913	0.11590903	0.869132451	-0.104873021	0.012111526	0.42405098	0
1409	3003342893	0.331729113	-0.346377347	0.115848883	0.869803176	-0.127397947	-0.027582572	0.44154186	0
1412	3003392894	0.331334488	-0.345679584	0.11563141	0.870259995	-0.214357167	0.267894299	0.376605267	0
1416	3003459562	0.330871837	-0.345478377	0.114463305	0.870670242	-0.192641716	0.051754791	0.250029279	0
1418	3003492896	0.33052796	-0.345590732	0.114410252	0.870763233	-0.249482848	0.267583234	0.316646371	0
1421	3003542897	0.330033658	-0.346185044	0.114552845	0.870695897	-0.135106041	0.183360516	0.341664526	0
1424	3003592898	0.329706579	-0.34718236	0.114737013	0.870398414	-0.147974102	0.109128558	0.339286028	0
1426	3003626232	0.329496896	-0.348284841	0.114908228	0.870014692	-0.272422419	0.34350092	0.423964344	0
1429	3003676233	0.328007954	-0.351898374	0.113480428	0.869310364	-0.248303475	0.114730558	0.488478342	0
1432	3003726234	0.325135439	-0.358153307	0.111334804	0.868111581	-0.21234847	1.04607642	-0.057207314	0
1435	3003776235	0.321980648	-0.367120454	0.114139586	0.865172347	-0.320798641	0.60958961	0.379065018	0
1437	3003809569	0.317581482	-0.375619498	0.114229877	0.86313587	-0.180953953	0.27172229	0.027077722	0
1440	3003859570	0.311172001	-0.387976475	0.119938875	0.859221105	-0.347661756	0.347645785	0.126895927	0
1444	3003926238	0.301186773	-0.405662859	0.13020528	0.853094811	-0.324066064	0.157202242	0.24148064	0
1447	3003976239	0.289417748	-0.421493043	0.133192086	0.849023469	-0.418318334	-0.233797324	0.423812636	0
1449	3004009573	0.280166053	-0.432419888	0.133053035	0.846650408	-0.114066444	-0.048647407	0.134906727	0
1452	3004059574	0.266040651	-0.448674923	0.134535976	0.842504158	-0.464104907	-0.124365113	0.457915723	0
1455	3004109575	0.251292332	-0.463456911	0.133187303	0.839238344	0.179039349	-0.637957681	0.100852507	0
1458	3004159576	0.236065066	-0.476345793	0.132329408	0.836574502	-0.117159916	-0.389366047	0.427582613	0
1460	3004192910	0.22504057	-0.482598149	0.13029266	0.836348965	0.41168574	-0.215756221	0.024961646	0
1463	3004242911	0.209955713	-0.487249557	0.131064561	0.83745361	0.07135206	-0.546848199	0.199068866	0
1466	3004292912	0.193837113	-0.489921061	0.130237268	0.839906412	0.071918088	-0.003746746	0.529863702	0
1468	3004326246	0.182656496	-0.490118981	0.129704514	0.842375645	-0.093732006	-0.133535736	0.213032822	0
1471	3004376247	0.161951062	-0.493917808	0.127665086	0.844700348	-0.926343287	-0.076248905	0.15377385	0
1474	3004426248	0.135235859	-0.502753644	0.122227999	0.844991333	-1.315209067	0.234187222	-0.543070554	0
1476	3004459582	0.114587223	-0.511339324	0.120230442	0.843176437	-1.773213996	0.123729568	-0.441893714	0
1479	3004509583	0.075647338	-0.52833314	0.114097298	0.837928028	-1.646990158	-0.282768484	-0.169325009	0
1482	3004559584	0.032743482	-0.545600425	0.106087483	0.830658466	-0.160448735	-0.067117091	-0.484883349	0
1485	3004609585	0.007219507	0.564386285	-0.107314238	-0.818473979	-0.703941216	-0.819005601	0.449448916	0
1487	3004642919	0.033148401	0.57692909	-0.109888579	-0.808689377	-0.182812255	-0.287461071	0.142897723	0
1490	3004692920	0.075090973	0.594051047	-0.115838733	-0.792493588	-0.131798284	-0.869110357	0.420395421	0
1493	3004742921	0.115817787	0.608196961	-0.121542564	-0.775828655	-0.299844727	0.140577495	1.293004387	0
1495	3004776255	0.141633844	0.615787739	-0.125504641	-0.764848939	-0.097255597	-0.287968341	1.043705832	0
1498	3004826256	0.17590531	0.625045713	-0.1330812	-0.748775382	-0.516621404	0.289631067	1.261845504	0
1501	3004876257	0.204489036	0.634078702	-0.143060556	-0.731889411	0.095422159	-0.060077731	1.212103783	0
1503	3004909591	0.221315868	0.638544643	-0.148097621	-0.722043711	-0.728308994	0.809181783	1.428076436	0
1506	3004959592	0.244611731	0.642157539	-0.153282224	-0.710143194	-0.213981941	0.679162781	1.548746537	0
1509	3005009593	0.259322164	0.644170109	-0.156256228	-0.702410761	-0.06199386	1.381254539	1.432773206	0
1512	3005059594	0.262993346	0.644611688	-0.159852133	-0.699826812	-0.324299285	0.830144758	1.182554382	0
1514	3005092928	0.262164531	0.644608517	-0.16233716	-0.699568627	-0.647987349	0.452896585	1.240206128	0
1517	3005142929	0.256593865	0.646655921	-0.163490322	-0.699475963	-0.27899112	0.364393048	0.72400854	0
1520	3005192930	0.250135821	0.64726126	-0.163549741	-0.701239199	0.045646903	0.09419537	0.723294764	0
1524	3005259598	0.243616413	0.64561217	-0.161534874	-0.705508649	-0.330890067	0.160832783	0.528404881	0
1526	3005292932	0.240858986	0.643651351	-0.159583865	-0.708683905	-0.546921208	0.212790941	0.853440199	0
1529	3005342933	0.230259029	0.638826607	-0.150522728	-0.718487477	-1.32287193	4.155728616	2.140934341	0
1532	3005392934	0.170739323	0.631037494	-0.134470848	-0.744686078	0.906866737	4.951167486	7.334631564	0
1534	3005426268	0.118144215	0.618369126	-0.113008986	-0.768694047	0.656547664	0.15351031	6.02041318	0
1537	3005476269	0.038214687	0.582748837	-0.06788575	-0.808909732	1.336330119	-4.421018989	-0.25059946	0
1540	3005526270	0.046162084	-0.537032477	0.025963478	0.841897309	-1.418815141	-2.859381822	-2.957922081	0
1543	3005576271	0.118580428	-0.48985164	-0.003211176	0.863697714	-3.238163571	-0.082806709	-2.48832094	0
1545	3005609605	0.150975202	-0.462016602	-0.025634173	0.873550249	-2.636980006	0.211950655	-0.48472758	0
1548	3005659606	0.194740889	-0.42733165	-0.057967865	0.880967294	-1.643676609	0.463397238	-0.79551232	0
1552	3005726274	0.229118104	-0.392170928	-0.087794532	0.886565834	0.395673313	1.352171472	-1.389259899	0
1555	3005776275	0.237037081	-0.377458942	-0.101625835	0.889387632	0.29549886	0.978052685	-0.238609291	0
1557	3005809609	0.23571646	-0.373694625	-0.110480545	0.89027194	-0.184383535	1.028184746	0.108132151	0
1560	3005859610	0.231210571	-0.37357776	-0.116517667	0.890732823	-0.94984471	0.568743422	0.793158608	0
1563	3005909611	0.224855291	-0.379812327	-0.118648217	0.889441002	-0.976027813	-0.110234854	1.06034279	0
1566	3005959612	0.222361417	-0.387832113	-0.1200692	0.886411327	-0.425898111	-0.558804252	0.447545841	0
1568	3005992946	0.221872781	-0.393221239	-0.120899954	0.884043397	-0.131596356	-0.325568285	0.135875795	0
1571	3006042947	0.221672733	-0.401541402	-0.120875987	0.880349191	-0.225973955	-0.500638817	0.177742542	0
1574	3006092948	0.220635246	-0.40763045	-0.123241193	0.877478839	-0.11857772	-0.594396736	0.378312334	0
1576	3006126282	0.220522866	-0.410728965	-0.124452437	0.875889818	-0.250219209	-0.283536766	0.3034659	0
1580	3006192950	0.221089618	-0.41471121	-0.124233364	0.873899344	-0.103011899	-0.155510805	0.3499482	0
1583	3006242951	0.221876854	-0.415839461	-0.123835975	0.873219821	-9.80E-05	-0.037920726	0.029664224	0
1586	3006292952	0.220884226	-0.415590495	-0.122867094	0.873726717	-0.100735234	-0.262407328	0.207849796	0
1588	3006326286	0.220197016	-0.41488606	-0.121931359	0.874365813	-0.219435186	-0.379079795	0.299341827	0
1591	3006376287	0.219788287	-0.413795907	-0.120998828	0.875114473	-0.485407232	-0.345231429	0.680403085	0
1594	3006426288	0.220501369	-0.413035987	-0.12025972	0.875395922	-0.392004254	-0.159341742	0.402494094	0
1597	3006476289	0.221066454	-0.413830583	-0.120927229	0.87478596	-0.495650663	-0.273788397	0.644600443	0
1599	3006509623	0.221346035	-0.416181612	-0.121709006	0.873490536	-0.401819395	-0.19491137	0.405855753	0
1602	3006559624	0.222731719	-0.418424324	-0.12213608	0.872005989	-0.037121098	-0.19788209	0.157327334	0
1605	3006609625	0.22274621	-0.421527686	-0.125206027	0.870070104	0.266724789	-0.360500612	-0.014545517	0
1607	3006642959	0.222785885	-0.423318657	-0.127945277	0.868790982	0.402493053	-0.239971583	-0.245595225	0
1610	3006692960	0.223600205	-0.42477827	-0.126932311	0.868017602	-0.387725463	-0.362660986	0.327580521	0
1613	3006742961	0.223849751	-0.426302563	-0.126235988	0.867307263	-1.1267873	-0.635198021	1.157573565	0
1615	3006776295	0.224113852	-0.428814444	-0.127869834	0.865760048	-1.12470643	-0.366810751	0.962372516	0
1618	3006826296	0.227204661	-0.435709883	-0.126423325	0.861714618	-0.845578293	-0.06675673	0.672451518	0
1621	3006876297	0.229320399	-0.446193089	-0.128423101	0.855471443	-0.873506993	-0.43875005	0.735449715	0
1624	3006926298	0.231045709	-0.45890313	-0.135453826	0.847158816	-0.278579852	-0.732511172	0.213788834	0
1626	3006959632	0.233165683	-0.467278791	-0.140192768	0.841207634	0.143313115	-0.629620403	-0.174967953	0
1629	3007009633	0.239509504	-0.47557971	-0.144126999	0.834078261	0.850776835	-0.81376118	-0.109285291	0
1632	3007059634	0.24695012	-0.476731564	-0.149163388	0.830357115	1.007252836	-0.746348358	-0.22828293	0
1634	3007092968	0.251681163	-0.474500437	-0.151967128	0.829705924	0.925990512	-0.134004245	-0.280820018	0
1637	3007142969	0.257981819	-0.468309068	-0.152459801	0.831196732	0.091166696	-0.016317526	-0.009276091	0
1640	3007192970	0.260979976	-0.460274812	-0.153038698	0.834635074	-0.473039704	-0.027221445	0.347084982	0
1642	3007226304	0.262129088	-0.455268262	-0.153819309	0.836874406	-0.823629573	0.060559086	0.323082104	0
1645	3007276305	0.26582836	-0.448068311	-0.152881927	0.839760197	-0.990363464	-0.441141684	0.554959534	0
1648	3007326306	0.271270924	-0.441774079	-0.149632342	0.841936999	-0.565483214	-0.205431387	0.528182539	0
1651	3007376307	0.275361167	-0.437886083	-0.149369324	0.842686662	-0.088966234	0.06780239	0.12188274	0
1653	3007409641	0.276932984	-0.4353961	-0.148737277	0.843573103	-0.229104856	0.389159581	0.220978955	0
1656	3007459642	0.277266005	-0.433077606	-0.147051261	0.844951641	-0.258519762	0.045001764	0.342250608	0
1660	3007526310	0.275463689	-0.432157128	-0.145077401	0.84635248	-0.679658323	-0.166872999	0.523391857	0
1663	3007576311	0.275490542	-0.432935596	-0.143076446	0.846286513	-0.612791486	-0.218927936	0.464717657	0
1665	3007609645	0.276062736	-0.433957559	-0.142041915	0.84575073	-0.537426064	-0.143201424	0.487023489	0
1668	3007659646	0.276896664	-0.436471735	-0.142033698	0.844184275	-0.60571727	-0.117975216	0.328438737	0
1671	3007709647	0.277156287	-0.438986128	-0.143078096	0.842617487	-0.260335518	-0.291251501	0.334306639	0
1674	3007759648	0.276633059	-0.442170406	-0.145040775	0.840786927	-0.32225216	-0.096056944	0.218970635	0
1676	3007792982	0.276362492	-0.444118027	-0.145703219	0.839734198	-0.093031825	-0.236913482	0.0111565	0
1679	3007842983	0.274299547	-0.446783074	-0.146689506	0.838824673	0.247450157	-0.265362838	-0.021999396	0
1682	3007892984	0.272822713	-0.447560753	-0.14642273	0.838938332	0.065020111	-0.569738838	-0.108547909	0
1684	3007926318	0.272391102	-0.446101791	-0.14573931	0.839974008	0.16299342	-0.596273363	0.08828903	0
1688	3007992986	0.274231637	-0.440913758	-0.144361555	0.842348983	-0.147888124	-0.401415554	0.275246877	0
1691	3008042987	0.276041499	-0.436208048	-0.143329692	0.844381566	-0.514728706	-0.249569974	0.441238405	0
1694	3008092988	0.277251316	-0.432758567	-0.141335487	0.846094564	-0.920530276	-0.164653286	0.494588132	0
1696	3008126322	0.278126993	-0.431272779	-0.140015884	0.84678493	-0.56979427	-0.350181063	0.467091118	0
1699	3008176323	0.279738961	-0.430019683	-0.139094404	0.847043053	-0.329855013	-0.466214577	0.313886023	0
1702	3008226324	0.281582119	-0.428263916	-0.138950749	0.847345394	-0.237591168	-0.540375929	0.247294551	0
1705	3008276325	0.284155445	-0.426294096	-0.138441161	0.847563019	-0.261231641	-0.106578817	0.146793118	0
1707	3008309659	0.285475814	-0.424598673	-0.137619687	0.848103973	-0.245741928	0.004976392	0.335826276	0
1710	3008359660	0.285135378	-0.422844623	-0.139402262	0.848803423	-0.570807294	-0.17228763	0.398809293	0
1713	3008409661	0.285478924	-0.421386948	-0.140277113	0.8492686	-0.565843927	-0.247283406	0.401379364	0
1717	3008476329	0.28617826	-0.420805198	-0.139979794	0.849370735	-0.360529272	-0.069706328	0.348294241	0
1719	3008509663	0.285498758	-0.421221276	-0.141116539	0.849205051	-0.238825658	-0.088324664	0.270793362	0
1722	3008559664	0.283485626	-0.421967127	-0.143369071	0.849131882	-0.156746753	-0.171333744	0.210029482	0
1725	3008609665	0.281213341	-0.422562374	-0.145497888	0.849229334	-0.327414351	-0.255643367	0.220928082	0
1728	3008659666	0.278924	-0.422695782	-0.147145143	0.84963403	-0.27605083	-0.151388807	0.335563639	0
1730	3008693000	0.277808746	-0.422839652	-0.147290776	0.849902557	-0.268828945	-0.142246239	0.375375188	0
1733	3008743001	0.276490838	-0.423172726	-0.146587856	0.850287987	-0.463554471	-0.10321655	0.325513094	0
1736	3008793002	0.274747004	-0.424438767	-0.145919589	0.850337162	-0.618200075	0.008434262	0.326310266	0
1738	3008826336	0.273159696	-0.426615691	-0.145426413	0.84984351	-0.548383896	0.11656971	0.298817044	0
1741	3008876337	0.269126596	-0.429949038	-0.14563182	0.849415136	-0.214587873	-0.288170468	0.241314644	0
1744	3008926338	0.26482431	-0.433092244	-0.147768173	0.848801367	-0.172267958	-0.336633972	0.232975456	0
1746	3008959672	0.26279597	-0.434315013	-0.147425671	0.848866549	-0.220283241	-0.325052266	0.237280317	0
1749	3009009673	0.260446879	-0.435359823	-0.147055351	0.849119527	-0.38038767	-0.321739447	0.279414757	0
1752	3009059674	0.258116139	-0.435831657	-0.146956623	0.84960613	-0.230783101	-0.110904213	0.199472307	0
1755	3009109675	0.255566487	-0.436347392	-0.146337988	0.850218747	-0.287881738	-0.344172392	0.30790165	0
1757	3009143009	0.253612806	-0.43674909	-0.146643377	0.850544823	-0.259161619	-0.149677804	0.329280541	0
1760	3009193010	0.250965144	-0.437658302	-0.146258096	0.850929067	-0.440126516	-0.395748424	0.348394456	0
1763	3009243011	0.249293029	-0.438523404	-0.145367682	0.85112775	-0.32456604	-0.268442974	0.205774636	0
1765	3009276345	0.248196501	-0.438872987	-0.14461076	0.851396927	-0.273496911	-0.267016253	0.271751003	0
1768	3009326346	0.246904286	-0.438974664	-0.144277753	0.851776642	-0.30119097	-0.324711375	0.182534225	0
1771	3009376347	0.246422773	-0.438601228	-0.143270985	0.852278244	-0.386965986	-0.273606443	0.250400067	0
1773	3009409681	0.245818397	-0.438699506	-0.142787091	0.852483376	-0.242553614	-0.148437353	0.195897585	0
1776	3009459682	0.244347727	-0.438805316	-0.142272612	0.852937622	-0.265712335	-0.181832727	0.329573487	0
1779	3009509683	0.243201927	-0.439117674	-0.14162674	0.853211789	-0.330811651	-0.199985214	0.338567096	0
1782	3009559684	0.24210539	-0.439354346	-0.140477169	0.853591767	-0.2728104	-0.352079144	0.395264592	0
1784	3009593018	0.242064061	-0.439447349	-0.139777018	0.853670547	-0.300225512	-0.411997303	0.339292896	0
1787	3009643019	0.242086415	-0.439361348	-0.138513763	0.853914346	-0.227623201	-0.367169643	0.322936856	0
1790	3009693020	0.242683417	-0.438593422	-0.137933865	0.854233468	-0.202288855	-0.292215198	0.230469022	0
1792	3009726354	0.243042105	-0.437822306	-0.137701025	0.854564562	-0.310663617	-0.199099009	0.289119399	0
1796	3009793022	0.243505744	-0.436249811	-0.137298684	0.85530119	-0.326545485	-0.311758527	0.236464242	0
1799	3009843023	0.243651363	-0.434710826	-0.137290009	0.856044371	-0.401654424	-0.150872579	0.28664362	0
1802	3009893024	0.244065608	-0.433045817	-0.135952144	0.856983263	-0.408633537	-0.189308051	0.243175255	0
1804	3009926358	0.244016866	-0.43242161	-0.135607273	0.857366892	-0.32202472	-0.153020995	0.28285633	0
1807	3009976359	0.244230746	-0.431721988	-0.134155391	0.857886822	-0.31208205	-0.079120634	0.209058956	0
1810	3010026360	0.243681034	-0.431145322	-0.133452263	0.858442635	-0.370428045	-0.199026237	0.409618536	0
1813	3010076361	0.243148548	-0.43127319	-0.133277167	0.858556588	-0.434054602	-0.168366231	0.24592844	0
1815	3010109695	0.243169919	-0.430990231	-0.132072961	0.858878655	-0.345226869	-0.166649591	0.328848197	0
1818	3010159696	0.242977838	-0.430838754	-0.131379632	0.859115319	-0.362901838	-0.286186382	0.320518491	0
1821	3010209697	0.242598036	-0.430636439	-0.131005569	0.859381167	-0.351048174	-0.227925845	0.26265853	0
1825	3010276365	0.243115181	-0.430403258	-0.130342044	0.85945273	-0.278355196	-0.207837464	0.249924753	0
1827	3010309699	0.243110798	-0.430310365	-0.130496096	0.859477108	-0.278312809	-0.204210188	0.262072007	0
1830	3010359700	0.242845654	-0.430086618	-0.130749365	0.859625554	-0.117114642	-0.165413109	0.27289663	0
1833	3010409701	0.242156508	-0.42981557	-0.130526749	0.859989285	-0.1820806	-0.180758111	0.189056353	0
1836	3010459702	0.240369439	-0.428991315	-0.13004833	0.860974109	-0.261081267	-0.314329056	0.259121536	0
1838	3010493036	0.239239564	-0.42837649	-0.129904504	0.861616407	-0.503553243	-0.372161695	0.162062753	0
1841	3010543037	0.238379382	-0.426265728	-0.128993466	0.86303736	-0.451581536	-0.306917195	0.500868442	0
1844	3010593038	0.240488831	-0.423933883	-0.126953552	0.863902761	-0.422935081	-0.048781311	0.419442651	0
1846	3010626372	0.241888371	-0.422689783	-0.125874261	0.864279488	-0.350482271	-0.030518099	0.35194429	0
1849	3010676373	0.24282916	-0.421488955	-0.125431776	0.864666369	-0.252245932	0.064492288	0.24966024	0
1853	3010743041	0.242661383	-0.421098291	-0.12356937	0.865171829	-0.224644476	0.036587347	0.292402456	0
1856	3010793042	0.24122705	-0.421368568	-0.121965569	0.865668782	-0.429102998	-0.126984762	0.098654972	0
1858	3010826376	0.240276335	-0.421260914	-0.120958864	0.86612671	-0.432587919	-0.229424994	0.300421457	0
1861	3010876377	0.239310436	-0.420707442	-0.119338448	0.866887593	-0.448967057	-0.213758981	0.479594837	0
1864	3010926378	0.239671229	-0.420502545	-0.118702901	0.866974586	-0.454791913	-0.262242407	0.378766896	0
1867	3010976379	0.239637972	-0.42064935	-0.119430097	0.866812678	-0.325910811	-0.148601142	0.195637454	0
1869	3011009713	0.239364464	-0.420846966	-0.119774264	0.866744835	-0.261055798	-0.167304784	0.262856649	0
1872	3011059714	0.238262527	-0.421164935	-0.120883811	0.866739967	-0.24897332	-0.150394673	0.228900901	0
1875	3011109715	0.237604599	-0.420895865	-0.120872847	0.867052755	-0.241492331	-0.104027625	0.278784706	0
1877	3011143049	0.237311248	-0.420715581	-0.120234235	0.867309345	-0.381756645	-0.054016058	0.273090003	0
1880	3011193050	0.236837435	-0.420133339	-0.118978515	0.867894072	-0.445775241	-0.16850612	0.319319227	0
1883	3011243051	0.237166295	-0.419606958	-0.118153208	0.868171624	-0.45017169	-0.155139622	0.360091934	0
1885	3011276385	0.237765463	-0.419395198	-0.117472298	0.86820246	-0.350985687	-0.157106033	0.350767479	0
1888	3011326386	0.237733004	-0.419612365	-0.118434966	0.867975599	-0.344756189	-0.176819812	0.143055291	0
1891	3011376387	0.238286343	-0.419236084	-0.119380338	0.867876177	-0.277604604	-0.105569939	0.360514708	0
1894	3011426388	0.240413469	-0.418435	-0.119229173	0.867696905	-0.442587838	-0.090592386	0.242437844	0
1896	3011459722	0.2412331	-0.41786947	-0.119172027	0.867749806	-0.229787362	0.062465818	0.308928601	0
1899	3011509723	0.241303173	-0.417763871	-0.119519991	0.867733311	-0.215753406	0.026362636	0.234169448	0
1902	3011559724	0.240751961	-0.417668432	-0.119563367	0.867926366	-0.212379798	-0.103055236	0.216151063	0
1904	3011593058	0.240375374	-0.417212752	-0.11888803	0.86834258	-0.2537484	0.069091532	0.250214275	0
1907	3011643059	0.239351176	-0.416839246	-0.118443926	0.868865406	-0.406447961	-0.03795447	0.278063995	0
1910	3011693060	0.237238085	-0.417033706	-0.119322081	0.869231396	-0.608528877	-0.174114538	0.409056206	0
1912	3011726394	0.23642128	-0.417632473	-0.118661726	0.869256861	-0.438418356	-0.033731306	0.345079812	0
1915	3011776395	0.235127958	-0.419374248	-0.116468355	0.869065709	-0.402623466	-0.103841906	0.297810577	0
1918	3011826396	0.232863047	-0.422069459	-0.114633272	0.868614636	-0.193213831	0.118808481	0.178745335	0
1921	3011876397	0.229029052	-0.425404424	-0.112948319	0.868227762	-0.413270858	-0.113836924	0.109410466	0
1923	3011909731	0.225375833	-0.427837003	-0.112074673	0.868101665	-0.226083211	-0.011611938	0.149126601	0
1926	3011959732	0.22116305	-0.430611367	-0.108248672	0.868298901	-0.622499277	-0.058383616	0.372633737	0
1929	3012009733	0.212895572	-0.435549233	-0.103784067	0.868447585	-0.791248072	0.315364662	0.141873372	0
1933	3012076401	0.185793748	-0.448924358	-0.104150958	0.867813449	-0.563518208	0.615294335	-0.442663381	0
1935	3012109735	0.165855588	-0.457552396	-0.104666323	0.867284664	-0.44094783	0.606454629	-0.364174229	0
1938	3012159736	0.1283448	-0.471608988	-0.106223308	0.865926777	-0.957460994	0.144828732	-0.525374133	0
1941	3012209737	0.086307085	-0.48570131	-0.104256453	0.863583185	-0.832103194	-0.240818374	-0.369356409	0
1943	3012243071	0.05608028	-0.495518698	-0.100178227	0.860976507	-0.818666367	-0.706075683	-0.652979251	0
1946	3012293072	0.011728686	-0.508864045	-0.086328369	0.856427017	-0.510215435	-0.872950527	-0.18245327	0
1949	3012343073	0.028790585	0.520761613	0.064448054	-0.850778992	-0.432367393	-0.728666614	0.067298559	0
1952	3012393074	0.067671696	0.532577388	0.039966545	-0.842724476	-0.332236923	-0.903744318	-0.006584351	0
1954	3012426408	0.094590771	0.53956792	0.022768526	-0.836301764	-0.177119411	-0.757939021	-0.117489009	0
1957	3012476409	0.13534166	0.549591347	-0.003103855	-0.824392111	0.256405814	-0.828215889	0.666758507	0
1961	3012543077	0.186097358	0.557687899	-0.036977311	-0.808074662	0.389942986	-0.101084143	0.849307158	0
1964	3012593078	0.217088803	0.561594732	-0.065024095	-0.795773633	-0.030485112	-0.253999116	1.117252595	0
1966	3012626412	0.236367384	0.56274384	-0.083135624	-0.787742533	-0.078394441	0.108514215	0.779339256	0
1969	3012676413	0.262279509	0.562662403	-0.109502062	-0.776292328	-0.330755313	-0.170544838	0.9557751	0
1972	3012726414	0.286162108	0.562979066	-0.135630011	-0.763393947	-0.16023882	0.121345991	0.606418873	0
1975	3012776415	0.308874583	0.562709025	-0.158797504	-0.750158915	-0.207145265	0.587590872	1.426272981	0
1977	3012809749	0.321588581	0.5621156	-0.172594787	-0.742171056	-0.153817296	0.569776935	1.096119465	0
1980	3012859750	0.336906723	0.561200271	-0.192550394	-0.731076236	-0.564409939	0.877311435	1.086426951	0
1983	3012909751	0.34953704	0.559937266	-0.209319259	-0.721442696	-0.381420653	0.280994899	0.757528772	0
1985	3012943085	0.356568144	0.558836563	-0.219308632	-0.715866313	-0.414327426	0.684614989	0.704392755	0
1989	3013009753	0.368434224	0.5574365	-0.235468741	-0.70574446	-0.362125364	0.413834597	0.651022369	0
1992	3013059754	0.376519921	0.557137804	-0.245218896	-0.698353714	-0.380221945	0.55388517	0.335655559	0
1995	3013109755	0.383745629	0.556302708	-0.253702929	-0.692027031	-0.150674439	0.35799635	0.225707832	0
1997	3013143089	0.387467517	0.55548399	-0.259914304	-0.688295732	-0.442353249	0.060557023	0.516542861	0
2000	3013193090	0.392904079	0.554240916	-0.269794274	-0.682388776	-0.468946748	0.031510895	0.405287118	0
2003	3013243091	0.3985489	0.552418031	-0.27999045	-0.676460229	-0.48266382	0.586787067	0.348067102	0
2006	3013293092	0.403402974	0.54992966	-0.29043467	-0.671186347	-0.322942896	-0.088463573	0.326554332	0
2008	3013326426	0.405862143	0.548418698	-0.297602638	-0.667791526	-0.659053388	0.793482202	0.290899969	0
2011	3013376427	0.407185968	0.548021959	-0.307194856	-0.662950104	-0.690000662	0.585230219	0.198731184	0
2014	3013426428	0.406993075	0.550185866	-0.313948574	-0.658094554	-0.540160621	0.584321834	0.181521902	0
2016	3013459762	0.406054091	0.551706014	-0.317236628	-0.655821219	-0.431583142	0.813567455	0.217062634	0
2019	3013509763	0.404880556	0.553128513	-0.319747259	-0.654127108	-0.229731153	0.156984049	0.286898287	0
2022	3013559764	0.40432156	0.55346842	-0.32098507	-0.653578893	-0.440547746	-0.027548401	0.439020926	0
2024	3013593098	0.404365199	0.553080459	-0.322602668	-0.653083692	-0.340550014	0.041113322	0.345960146	0
2027	3013643099	0.404383415	0.553007278	-0.325120059	-0.651884922	-0.474194726	-0.05899436	0.416689905	0
2030	3013693100	0.404306032	0.553335699	-0.328292682	-0.650061652	-0.41857388	0.477469149	0.244815135	0
2033	3013743101	0.403394064	0.553589509	-0.331251924	-0.648909892	-0.338965619	0.345696002	0.186513545	0
2035	3013776435	0.40185928	0.553858781	-0.332316195	-0.649088219	-0.47527513	0.600662798	0.163877321	0
2038	3013826436	0.399325558	0.554027178	-0.333319894	-0.649992949	-0.405332564	0.234597887	0.039426449	0
2041	3013876437	0.39687843	0.554609691	-0.332311166	-0.651509702	-0.361225522	0.184951341	0.230631173	0
2043	3013909771	0.395673372	0.554084737	-0.33124541	-0.653229794	-0.352360626	0.047090767	0.265995367	0
2046	3013959772	0.394837554	0.552665563	-0.329845709	-0.655641587	-0.416300926	0.031232552	0.211826356	0
2049	3014009773	0.395190551	0.550588082	-0.329076128	-0.657560715	-0.461043754	0.099981446	0.297303593	0
2051	3014043107	0.395164311	0.54932903	-0.329375173	-0.658479141	-0.37628696	0.248951411	0.16862031	0
2054	3014093108	0.394921674	0.547991114	-0.330115617	-0.659368098	-0.494815553	0.168396216	0.332472902	0
2057	3014143109	0.394597931	0.547612801	-0.330877067	-0.659494549	-0.447956765	0.159205047	0.301813169	0
2060	3014193110	0.394728297	0.547199714	-0.330536548	-0.659930023	-0.328665333	0.223567681	0.288754454	0
2062	3014226444	0.394702152	0.546911166	-0.330318745	-0.660293809	-0.319435495	0.110322175	0.315587793	0
2065	3014276445	0.395513187	0.545751769	-0.330038715	-0.660907537	-0.292483776	0.148731042	0.354156006	0
2069	3014343113	0.397380991	0.543561431	-0.330602705	-0.661310192	-0.554962307	0.122517419	0.444096733	0
2072	3014393114	0.397953612	0.542664935	-0.331272502	-0.661366934	-0.606419632	0.3136223	0.280623207	0
2074	3014426448	0.39746651	0.542462081	-0.330972334	-0.661976267	-0.481180654	0.292574302	0.204653933	0
2077	3014476449	0.396384515	0.54187251	-0.329553223	-0.663813356	-0.295950754	0.049179932	0.282769476	0
2080	3014526450	0.396471641	0.540442939	-0.328020193	-0.665683424	-0.355156419	-0.05292615	0.405866974	0
2083	3014576451	0.396731426	0.539307532	-0.327755995	-0.666579004	-0.484665485	0.20781122	0.400017702	0
2085	3014609785	0.396553856	0.539222224	-0.328238198	-0.666516404	-0.528725649	0.075581085	0.392241132	0
2088	3014659786	0.395693611	0.539974321	-0.329411109	-0.665839785	-0.471265806	0.037098693	0.444491335	0
2091	3014709787	0.394870093	0.540954769	-0.330722717	-0.664881969	-0.423133133	0.353711919	0.279773491	0
2093	3014743121	0.394181468	0.541584601	-0.331176537	-0.664551873	-0.410160969	0.263826713	0.28407345	0
2097	3014809789	0.393095657	0.54202406	-0.331479284	-0.664685795	-0.415184615	0.091440168	0.335775273	0
2100	3014859790	0.392892215	0.542069362	-0.331798139	-0.664610042	-0.353772798	0.031957086	0.302607564	0
2103	3014909791	0.392916541	0.542054428	-0.333016714	-0.663998085	-0.355013613	-0.239221831	0.371309422	0
2105	3014943125	0.393702548	0.541819823	-0.33468663	-0.662883431	-0.427395234	-0.163437997	0.41986203	0
2108	3014993126	0.394012958	0.542156453	-0.337937753	-0.660770947	-0.496598377	0.332121599	0.219483472	0
2111	3015043127	0.393855073	0.542847114	-0.340836306	-0.658806349	-0.433194315	0.249913593	0.339141828	0
2114	3015093128	0.39383276	0.542653117	-0.343086009	-0.657811023	-0.274361144	-0.099907187	0.342071714	0
2116	3015126462	0.394668893	0.54175105	-0.34465544	-0.657232754	-0.32586446	-0.091469093	0.442573428	0
2119	3015176463	0.396193324	0.540379648	-0.34722842	-0.656089255	-0.415863287	0.338930294	0.225676137	0
2122	3015226464	0.396776214	0.539632631	-0.349300163	-0.655251597	-0.494061902	0.405590852	0.250004597	0
2126	3015293132	0.397232043	0.539056597	-0.350271377	-0.654931028	-0.505288493	0.249862293	0.292195652	0
2128	3015326466	0.39751968	0.538902701	-0.350316997	-0.654858751	-0.286079788	0.171573207	0.337978684	0
2131	3015376467	0.397636183	0.538869019	-0.350170586	-0.654894042	-0.443338756	0.198722039	0.369965607	0
2134	3015426468	0.397563083	0.539162664	-0.350211835	-0.654674642	-0.511557987	0.097997811	0.405331028	0
2137	3015476469	0.39718834	0.539875879	-0.350040338	-0.654406005	-0.533135207	0.185889252	0.370084627	0
2139	3015509803	0.396947267	0.540440128	-0.349840211	-0.654193521	-0.416532929	0.077216445	0.365653178	0
2142	3015559804	0.396532193	0.541422371	-0.349461028	-0.653835626	-0.431980283	0.184813482	0.283030216	0
2145	3015609805	0.395915509	0.542127164	-0.348827448	-0.653963653	-0.463191732	0.167015891	0.364908503	0
2147	3015643139	0.395415569	0.542644853	-0.348664134	-0.653923859	-0.347217486	0.142317011	0.150996473	0
2150	3015693140	0.394141713	0.543058013	-0.348378364	-0.654501963	-0.46396429	0.1052237	0.386183312	0
2153	3015743141	0.392926283	0.543652587	-0.348169226	-0.654850357	-0.359180349	0.136319868	0.322833725	0
2155	3015776475	0.392182238	0.54418037	-0.347762817	-0.65507392	-0.454744069	0.23967102	0.323866102	0
2158	3015826476	0.391099609	0.544804141	-0.346987083	-0.65561384	-0.242670605	0.090825356	0.230883654	0
2161	3015876477	0.390291899	0.544892569	-0.346085322	-0.656497732	-0.38561536	0.073388614	0.317631311	0
2164	3015926478	0.389458756	0.544882882	-0.345743884	-0.657180104	-0.478425581	0.21834576	0.205007998	0
2168	3015993146	0.388505135	0.545062078	-0.345326781	-0.657814948	-0.508607088	0.011528951	0.264715063	0
2170	3016026480	0.388173313	0.545379351	-0.345196385	-0.657816311	-0.413660149	0.204033363	0.226307842	0
2173	3016076481	0.387611035	0.54573961	-0.344636031	-0.658142819	-0.403010999	0.13005487	0.271061447	0
2176	3016126482	0.386385216	0.545828835	-0.344169745	-0.65903303	-0.369095141	0.185376349	0.23051739	0
2178	3016159816	0.385526211	0.54572485	-0.343678413	-0.659878077	-0.33095895	0.083834878	0.06055326	0
2181	3016209817	0.384759945	0.545030317	-0.342664362	-0.66142488	-0.420076032	-0.192644655	0.338773129	0
2184	3016259818	0.385106656	0.544107197	-0.342148332	-0.662249757	-0.424641979	0.057629417	0.323503602	0
2187	3016309819	0.385751086	0.54361927	-0.34251324	-0.662086754	-0.432138077	0.186468299	0.217715711	0
2189	3016343153	0.385991786	0.543613438	-0.342887133	-0.661757648	-0.459745318	0.029358758	0.420417003	0
2192	3016393154	0.385975384	0.543848925	-0.344119144	-0.660933706	-0.472107063	0.307251016	0.174955871	0
2195	3016443155	0.385687055	0.544698355	-0.344639777	-0.660130762	-0.452385189	0.135881797	0.256898169	0
2197	3016476489	0.385388427	0.545512444	-0.344812184	-0.659542639	-0.452061283	0.094155231	0.254615346	0
2200	3016526490	0.385513135	0.546325796	-0.344648026	-0.658881997	-0.341174794	0.139073457	0.275895759	0
2203	3016576491	0.385705887	0.546535594	-0.344434046	-0.658707068	-0.296263656	0.058911108	0.318261321	0
2207	3016643159	0.386102449	0.546470612	-0.344164991	-0.658669286	-0.47864741	0.182466621	0.412475025	0
2209	3016676493	0.386300562	0.546480917	-0.343803455	-0.658733381	-0.415223006	0.117654504	0.423863868	0
2212	3016726494	0.386291128	0.546765332	-0.343169679	-0.658833369	-0.480891763	-0.070613081	0.395073502	0
2215	3016776495	0.385978475	0.547726656	-0.342870751	-0.658373583	-0.595632791	0.02852497	0.317908776	0
2218	3016826496	0.385639557	0.549253688	-0.343004562	-0.657229327	-0.413765119	0.038082707	0.133248473	0
2220	3016859830	0.385343411	0.549664741	-0.343500331	-0.656800312	-0.362404826	0.086514858	0.208874014	0
2223	3016909831	0.384624738	0.550157809	-0.344343643	-0.65636701	-0.308399448	0.011631513	0.089700153	0
2226	3016959832	0.38456597	0.549914447	-0.345580338	-0.655955292	-0.351629903	0.020491238	0.217245561	0
2228	3016993166	0.384789649	0.549292875	-0.346604056	-0.655804766	-0.407775937	0.120148491	0.187513431	0
2231	3017043167	0.384960115	0.548398102	-0.348066339	-0.65567908	-0.406282275	0.118279966	0.235529351	0
2235	3017109835	0.384425355	0.54754707	-0.349935534	-0.655709139	-0.409522025	0.095931698	0.175027131	0
2238	3017159836	0.384010841	0.546731646	-0.350901926	-0.656115858	-0.459463363	0.088217631	0.243770958	0
2241	3017209837	0.383659181	0.546133991	-0.35141418	-0.656545025	-0.549802596	0.134707811	0.26705189	0
2243	3017243171	0.383444681	0.545925648	-0.351657387	-0.656713367	-0.446195867	0.157989589	0.243140051	0
2246	3017293172	0.382897914	0.546109724	-0.351275481	-0.657083628	-0.295976085	0.256881275	0.227849187	0
2249	3017343173	0.381650473	0.546150655	-0.349645756	-0.658642713	-0.413479083	0.598060937	0.121825577	0
2251	3017376507	0.379939672	0.546350147	-0.347329218	-0.660688865	-0.352674984	0.735744739	0.088438869	0
2254	3017426508	0.375551012	0.547001935	-0.34160588	-0.665624326	-0.439079554	-0.072652041	0.393055781	0
2257	3017476509	0.372462994	0.546346254	-0.334843426	-0.67130989	-0.461156871	0.151851933	0.213995532	0
2259	3017509843	0.371287281	0.545076561	-0.330520515	-0.675124793	-0.394951084	-0.173344182	0.234905613	0
2263	3017576511	0.366646599	0.544020072	-0.32097811	-0.68307063	-0.489971979	0.272094496	0.457030207	0
2266	3017626512	0.362440384	0.543255713	-0.313055042	-0.689569967	-0.680895585	0.800341993	0.072821173	0
2269	3017676513	0.356740296	0.54231887	-0.301772359	-0.698255002	-0.308179166	1.33596749	0.168990048	0
2272	3017726514	0.347962244	0.541204509	-0.287491163	-0.709484874	-0.0520116	0.58801003	0.316245063	0
2274	3017759848	0.339864443	0.539830922	-0.277244589	-0.718477678	0.095644181	1.067267519	0.30730179	0
2277	3017809849	0.324563494	0.536011032	-0.261209333	-0.734248184	0.198199564	0.614537544	0.559044343	0
2280	3017859850	0.303968951	0.529754668	-0.247631078	-0.752091562	0.24549212	-0.036899718	0.506231562	0
2282	3017893184	0.287487908	0.524853132	-0.24250129	-0.76359218	-0.116245065	-0.290789203	0.065781875	0
2285	3017943185	0.260966353	0.516192015	-0.234657253	-0.781267137	0.097839471	-0.291525115	0.586794507	0
2288	3017993186	0.235390113	0.504761028	-0.228592321	-0.79846938	0.083797223	-0.42256931	-0.064858884	0
2290	3018026520	0.217329908	0.495242917	-0.224501757	-0.810617743	0.360368292	-0.074218276	0.436978597	0
2293	3018076521	0.187102784	0.479031604	-0.221335098	-0.828572293	0.187503186	-0.625565464	0.03823001	0
2296	3018126522	0.153146289	0.458957524	-0.225491109	-0.845611001	-0.269014919	-0.362983345	0.337466301	0
2299	3018176523	0.119667604	0.433563878	-0.235328815	-0.861581323	0.387852649	-0.704385821	0.003834023	0
2301	3018209857	0.100204426	0.414172025	-0.243427666	-0.871299936	-0.755690801	-1.016210603	-0.080405038	0
2304	3018259858	0.074562166	0.381009313	-0.259790318	-0.884184018	-0.788493136	-0.08633736	-0.469521407	0
2307	3018309859	0.058828225	0.345693034	-0.269074773	-0.897014121	-1.101070737	-0.428219454	-0.580665644	0
2309	3018343193	0.051898523	0.322331902	-0.274909977	-0.904341303	-1.519952563	-0.407636301	-0.656761449	0
2312	3018393194	0.046958921	0.28720609	-0.283633417	-0.913706521	-0.930096463	0.338335682	0.019265619	0
2315	3018443195	0.048503754	0.25295133	-0.28695446	-0.922670119	-1.124953525	0.540950344	0.161986722	0
2317	3018476529	0.051542455	0.230494252	-0.288313787	-0.927949856	-0.80495104	0.278824821	0.101261676	0
2320	3018526530	0.055294756	0.199381411	-0.295720061	-0.932598085	-0.281295352	0.060087635	0.222232667	0
2323	3018576531	0.059091381	0.169716488	-0.306346838	-0.934802726	0.018375894	0.097203321	0.781065177	0
2326	3018626532	0.062884001	0.137686051	-0.315338812	-0.93682954	1.030536931	-0.66143106	0.720736623	0
2328	3018659866	0.062921473	0.112147812	-0.321070472	-0.938284343	1.097173799	-0.868605227	0.431188154	0
2331	3018709867	0.0562706	0.072629215	-0.342857336	-0.934883663	0.182417065	-0.128980941	0.731579972	0
2334	3018759868	0.04624503	0.035767964	-0.381193987	-0.922644674	-0.273207786	0.87787118	0.532602139	0
2336	3018793202	0.040973127	0.011653687	-0.407361294	-0.912273079	-0.299663054	1.116660125	0.475878783	0
2339	3018843203	0.033636221	-0.021604569	-0.447002816	-0.893638814	-0.513397077	1.19446696	0.318663581	0
2343	3018909871	0.030006109	-0.059157743	-0.492308457	-0.867889612	0.42788669	1.611821644	-0.491435749	0
2346	3018959872	0.028404742	-0.078681502	-0.515261963	-0.852940503	0.033345247	0.963642678	-0.698614068	0
2349	3019009873	0.028277786	-0.092916571	-0.532992334	-0.840527245	-1.447880814	0.085982718	-0.227776458	0
2351	3019043207	0.030599777	-0.102612627	-0.54156279	-0.833812957	-1.559380695	0.071668388	-0.848577335	0
2354	3019093208	0.036082371	-0.116074273	-0.546756891	-0.828421226	-0.773755171	0.350953122	-0.751127718	0
2357	3019143209	0.043840946	-0.125743772	-0.553092397	-0.822408217	-0.278205308	0.280538806	-0.491263863	0
2359	3019176543	0.048414708	-0.130019781	-0.559380933	-0.817217134	-0.017972445	0.713764285	-0.508445736	0
2362	3019226544	0.05141277	-0.131258852	-0.56798246	-0.810878392	0.969004602	1.239095318	-1.013982286	0
2365	3019276545	0.049074433	-0.127199285	-0.571356601	-0.809298262	-0.456614713	0.261183175	0.117598006	0
2367	3019309879	0.047472182	-0.123848178	-0.57548322	-0.806986421	-1.04141756	0.033713299	0.108111891	0
2371	3019376547	0.047271493	-0.119076863	-0.586666545	-0.799630209	-0.023020242	-0.031574171	0.029327393	0
2374	3019426548	0.046057123	-0.118990194	-0.593666125	-0.794531691	0.082010134	0.103217097	-0.176508996	0
2377	3019476549	0.043193455	-0.117428787	-0.601772915	-0.78880553	-0.115136964	0.171414738	-0.156034515	0
2380	3019526550	0.041447515	-0.117097914	-0.605773217	-0.785881029	-0.235210939	-0.02770542	-0.43770398	0
2382	3019559884	0.040016058	-0.116904215	-0.606427921	-0.785479023	-0.167149746	-0.005902725	-0.097534252	0
2385	3019609885	0.039268584	-0.116834513	-0.607744906	-0.784508639	-0.206718581	0.0184213	-0.120012352	0
2388	3019659886	0.039393285	-0.117708253	-0.607633347	-0.78445819	-0.422436081	0.017559604	-0.087560946	0
2390	3019693220	0.039785445	-0.118084304	-0.608157696	-0.783975403	-0.201939995	0.087022877	-0.369011784	0
2393	3019743221	0.040256018	-0.117703762	-0.609298997	-0.783121963	-0.244513797	0.172481963	-0.209143648	0
2396	3019793222	0.040625192	-0.117396099	-0.608454672	-0.783805245	-0.455721476	0.071966504	-0.214649978	0
2400	3019859890	0.041765958	-0.11647948	-0.607376589	-0.784717666	-0.55763552	0.174532301	-0.225421737	0
2403	3019909891	0.042364269	-0.116321471	-0.606227407	-0.785597171	-0.414551968	0.142939932	-0.256431777	0
2405	3019943225	0.042392936	-0.116182583	-0.605436116	-0.786226148	-0.42527216	0.257362985	-0.242474839	0
2409	3020009893	0.041588808	-0.115458812	-0.605983658	-0.785953841	-0.285151734	0.245057132	-0.160878322	0
2412	3020059894	0.040659668	-0.115194432	-0.607024027	-0.785238094	-0.438660956	0.027692364	-0.307780396	0
2415	3020109895	0.039901414	-0.11511432	-0.60714078	-0.785198474	-0.431053329	0.023577972	-0.269564754	0
2417	3020143229	0.039680825	-0.11467409	-0.607134643	-0.78527881	-0.494884557	0.022961389	-0.347264387	0
2420	3020193230	0.039909706	-0.113353205	-0.608042467	-0.784756411	-0.49184901	0.000413649	-0.220316357	0
2423	3020243231	0.040280139	-0.111912909	-0.609596435	-0.783737965	-0.398562459	0.110975813	-0.219143379	0
2425	3020276565	0.040404838	-0.111185416	-0.610922216	-0.782802209	-0.278245424	0.233997543	-0.151673624	0
2428	3020326566	0.040295276	-0.110365208	-0.611630895	-0.782370411	-0.330207297	0.150461523	-0.212223713	0
2431	3020376567	0.040535505	-0.109670339	-0.611268281	-0.782739023	-0.446330718	0.091230676	-0.1312219	0
2434	3020426568	0.04101146	-0.10880522	-0.610278413	-0.78360688	-0.392073558	0.206191094	-0.265997153	0
2436	3020459902	0.041368945	-0.107937514	-0.610345586	-0.783655772	-0.420332134	-0.002443109	-0.122739107	0
2439	3020509903	0.041782728	-0.106691543	-0.612669844	-0.78198899	-0.294572254	0.275053146	-0.241939913	0
2442	3020559904	0.04163641	-0.105789989	-0.613378068	-0.781563966	-0.233927308	0.005167802	-0.08598924	0
2444	3020593238	0.04134476	-0.10593754	-0.613146732	-0.781740963	-0.422144142	-0.024185788	-0.060054399	0
2447	3020643239	0.041530658	-0.106643625	-0.612095533	-0.782458561	-0.438468426	0.170125149	-0.19986123	0
2450	3020693240	0.041775451	-0.106784133	-0.611076393	-0.783222575	-0.368019465	0.10151511	-0.187931082	0
2452	3020726574	0.041804465	-0.106673862	-0.610643239	-0.783573805	-0.439490682	0.21546761	-0.15144887	0
2455	3020776575	0.041644719	-0.106370402	-0.610329896	-0.783867638	-0.377067528	0.072056229	-0.207869349	0
2458	3020826576	0.041395415	-0.106204122	-0.610406914	-0.783843418	-0.465450363	0.038883515	-0.182995277	0
2461	3020876577	0.041613273	-0.106218204	-0.610091655	-0.784075379	-0.368444424	0.12301566	-0.208380067	0
2463	3020909911	0.041567808	-0.106471219	-0.609453553	-0.784539587	-0.266084043	0.144188379	-0.201471161	0
2466	3020959912	0.04162922	-0.106769757	-0.609094456	-0.784774598	-0.41742655	0.157477628	-0.16299706	0
2469	3021009913	0.041697037	-0.107079793	-0.608152038	-0.785459339	-0.325334276	0.135716144	-0.23574345	0
2471	3021043247	0.04175843	-0.10729653	-0.607343574	-0.786051825	-0.374296788	-0.031066361	-0.212979622	0
2474	3021093248	0.041817922	-0.107182247	-0.606956979	-0.7863628	-0.551041971	0.218866949	-0.124488267	0
2477	3021143249	0.041973283	-0.106815332	-0.607270548	-0.786162331	-0.265844143	0.151683534	-0.238462972	0
2481	3021209917	0.041397299	-0.106746186	-0.606892265	-0.786494307	-0.415329338	0.045835344	-0.162338177	0
2483	3021243251	0.040926142	-0.106786209	-0.607367332	-0.786146729	-0.426787494	0.096969609	-0.267527411	0
2486	3021293252	0.039565684	-0.106997984	-0.607980057	-0.78571384	-0.393546784	0.039721594	-0.150548856	0
2489	3021343253	0.038237769	-0.107679758	-0.608370847	-0.78538389	-0.390030665	0.085590237	-0.07084439	0
2492	3021393254	0.037650846	-0.108121925	-0.60798627	-0.785649259	-0.380255824	0.203982633	-0.249701591	0
2494	3021426588	0.037750562	-0.108000813	-0.607800521	-0.78580484	-0.404765587	0.208599718	-0.187833101	0
2497	3021476589	0.037841924	-0.106665627	-0.609063608	-0.78500443	-0.199576091	0.128755019	-0.205854761	0
2500	3021526590	0.037637068	-0.105148864	-0.609778132	-0.78466413	-0.427761723	0.012651931	-0.085589958	0
2502	3021559924	0.037680005	-0.104739674	-0.609818849	-0.784685153	-0.355455009	0.06539208	-0.178641291	0
2505	3021609925	0.037872424	-0.104422013	-0.609803841	-0.784729888	-0.396662418	0.129259023	-0.185872409	0
2509	3021676593	0.037830526	-0.10329261	-0.610976809	-0.783968639	-0.337179071	0.069813031	-0.226513434	0
2512	3021726594	0.03779005	-0.102836705	-0.611216904	-0.783843365	-0.319446811	0.057711437	-0.151519976	0
2515	3021776595	0.03814434	-0.103020669	-0.610317045	-0.784502935	-0.232304567	0.09694975	-0.154190044	0
2517	3021809929	0.038520149	-0.10331257	-0.60929552	-0.785239887	-0.222998156	0.086410969	-0.221181842	0
2520	3021859930	0.038889639	-0.103629682	-0.607957343	-0.786216481	-0.342103643	0.191793584	-0.208931486	0
2523	3021909931	0.039178003	-0.103760264	-0.607710318	-0.786375903	-0.343833317	0.018622865	-0.143180509	0
2525	3021943265	0.0391535	-0.103918853	-0.607597393	-0.786443439	-0.321601285	0.110702028	-0.21673636	0
2528	3021993266	0.039526531	-0.104739911	-0.606556611	-0.787118975	-0.429116406	0.10083788	-0.133485339	0
2531	3022043267	0.040019077	-0.105215657	-0.605541697	-0.787811774	-0.23683155	0.154426013	-0.221395886	0
2533	3022076601	0.040322455	-0.105134065	-0.604723123	-0.788435712	-0.368205383	0.243916872	-0.16125443	0
2537	3022143269	0.040787474	-0.10506254	-0.603417562	-0.789420985	-0.4814294	0.099866359	-0.143668959	0
2540	3022193270	0.040954562	-0.105154835	-0.603339358	-0.789459818	-0.269910638	0.0864483	-0.226735056	0
2543	3022243271	0.040861378	-0.105171811	-0.602931784	-0.789773703	-0.338423095	0.076115789	-0.122326698	0
2546	3022293272	0.040898721	-0.105072614	-0.602928017	-0.789787849	-0.334826442	0.124131986	-0.19826322	0
2548	3022326606	0.041144058	-0.10457902	-0.603375471	-0.789498851	-0.378550626	0.061123707	-0.174312169	0
2551	3022376607	0.041589163	-0.103846347	-0.60377375	-0.789267722	-0.278277007	0.126479687	-0.120863945	0
2554	3022426608	0.041645143	-0.103466286	-0.603958496	-0.78917333	-0.328465943	0.092077765	-0.201160126	0
2556	3022459942	0.041554405	-0.103478181	-0.604081468	-0.789082427	-0.398708033	0.088825582	-0.137082996	0
2559	3022509943	0.041454928	-0.103421983	-0.604548968	-0.788736919	-0.33460732	0.091562208	-0.143226746	0
2562	3022559944	0.041539171	-0.103358984	-0.60465338	-0.788660705	-0.303828373	0.040423846	-0.174959515	0
2564	3022593278	0.041624206	-0.103116273	-0.604898532	-0.788499984	-0.316067962	0.047824525	-0.196466752	0
2567	3022643279	0.041797168	-0.103038823	-0.60434357	-0.788926389	-0.274480527	0.044741816	-0.177885766	0
2570	3022693280	0.041885039	-0.102935495	-0.603822935	-0.789333764	-0.365529406	0.230492154	-0.055505593	0
2573	3022743281	0.042151395	-0.102487071	-0.603896344	-0.789321776	-0.312878639	0.073977282	-0.25875283	0
2575	3022776615	0.042343931	-0.101919477	-0.604307023	-0.789070614	-0.291844309	0.084859495	-0.135396156	0
2578	3022826616	0.042664841	-0.100980451	-0.605061589	-0.788595671	-0.356315842	0.098904563	-0.137641076	0
2581	3022876617	0.043072125	-0.10040463	-0.605605889	-0.788229161	-0.31796194	0.111779355	-0.173046648	0
2583	3022909951	0.043264728	-0.09995687	-0.605841123	-0.788094741	-0.285555735	0.10105277	-0.149653662	0
2586	3022959952	0.043450613	-0.099594914	-0.605824262	-0.788143299	-0.347963487	0.036401997	-0.175276721	0
2589	3023009953	0.043476518	-0.099592375	-0.60570463	-0.788234135	-0.33251594	0.091234747	-0.1098098	0
2591	3023043287	0.043550759	-0.099605359	-0.605873955	-0.788098252	-0.386635245	0.081286418	-0.13329178	0
2594	3023093288	0.043749873	-0.099573946	-0.60614554	-0.787882328	-0.252335916	0.167087802	-0.198077037	0
2597	3023143289	0.044029619	-0.09941781	-0.606015795	-0.787986261	-0.265782338	0.143530887	-0.13645086	0
2600	3023193290	0.044282787	-0.099401768	-0.605389994	-0.788454995	-0.299560327	-0.037358488	-0.147256627	0
2602	3023226624	0.044279454	-0.09942612	-0.605166169	-0.788623919	-0.334019662	0.209362576	-0.170648023	0
2605	3023276625	0.044489142	-0.099244768	-0.605082539	-0.788699128	-0.366691077	0.025106249	-0.15585596	0
2608	3023326626	0.044869051	-0.098876188	-0.605043224	-0.788754058	-0.33813221	0.093184978	-0.149821336	0
2610	3023359960	0.045114936	-0.098689512	-0.60497469	-0.788815978	-0.292268554	0.104389159	-0.102058301	0
2613	3023409961	0.045368596	-0.098600081	-0.604902672	-0.788867842	-0.299287137	0.085704038	-0.186726944	0
2617	3023476629	0.045317554	-0.098748568	-0.604651301	-0.789044893	-0.297726011	0.092445452	-0.155128066	0
2620	3023526630	0.04550853	-0.098584346	-0.604883851	-0.78887618	-0.348746046	0.095046272	-0.158712957	0
2623	3023576631	0.045864326	-0.098092008	-0.604989358	-0.78883604	-0.266804221	0.159699948	-0.145769456	0
2625	3023609965	0.04599298	-0.097828705	-0.604766489	-0.789032118	-0.326808793	0.123484098	-0.148745484	0
2628	3023659966	0.046189832	-0.097575239	-0.604681436	-0.789117186	-0.322010899	0.105992221	-0.135900699	0
2631	3023709967	0.046324768	-0.097537177	-0.604432458	-0.789304706	-0.307729558	0.122497544	-0.147478759	0
2633	3023743301	0.046405079	-0.097343952	-0.604366096	-0.789374655	-0.369322563	0.107282889	-0.146865506	0
2636	3023793302	0.046522757	-0.096964587	-0.604401347	-0.789387429	-0.301053076	0.042028617	-0.108035692	0
2639	3023843303	0.046582398	-0.096374043	-0.60493157	-0.789050011	-0.311656225	0.206115914	-0.117089361	0
2641	3023876637	0.046627528	-0.096142921	-0.604726807	-0.789232476	-0.225247532	0.059501443	-0.186880133	0
2645	3023943305	0.046494497	-0.095712302	-0.604556538	-0.789423087	-0.301539609	0.061363186	-0.142984339	0
2648	3023993306	0.046415905	-0.095568337	-0.604867819	-0.789206676	-0.227032976	0.058496195	-0.140020115	0
2651	3024043307	0.046370361	-0.09531467	-0.605329843	-0.788885723	-0.327871951	0.074620671	-0.068708017	0
2654	3024093308	0.04638405	-0.094909613	-0.60587708	-0.78851357	-0.22864586	0.067199672	-0.136407545	0
2656	3024126642	0.046422599	-0.094660649	-0.605796401	-0.788603211	-0.280749305	0.070181375	-0.176005189	0
2659	3024176643	0.046510563	-0.093879521	-0.606201286	-0.788380241	-0.320343384	0.101021903	-0.120670814	0
2662	3024226644	0.046666425	-0.093257911	-0.606866107	-0.787933205	-0.279909127	0.095052137	-0.157736158	0
2664	3024259978	0.0467226	-0.09299906	-0.607064839	-0.787807372	-0.295630759	0.069897221	-0.144747598	0
2667	3024309979	0.047040755	-0.092510629	-0.607200836	-0.787741135	-0.325888869	0.093670825	-0.156984336	0
2670	3024359980	0.047859876	-0.091219505	-0.607333581	-0.78774003	-0.216244089	0.072767725	-0.114391987	0
2674	3024426648	0.049921823	-0.088565974	-0.606434955	-0.788606699	-0.243260464	-0.007979573	-0.004567399	0
2677	3024476649	0.051637594	-0.08649318	-0.606268507	-0.788854223	-0.227052508	0.086922509	-0.200502351	0
2679	3024509983	0.052533709	-0.085228324	-0.606639489	-0.788647496	-0.230273141	-0.004146372	-0.064945757	0
2682	3024559984	0.053606226	-0.083908083	-0.608026108	-0.787648436	-0.312521123	0.095593379	-0.194823293	0
2685	3024609985	0.054232088	-0.083404974	-0.608855476	-0.787018107	-0.353086982	0.280778731	-0.071792395	0
2687	3024643319	0.054402675	-0.083466802	-0.609624894	-0.786403923	-0.3895391	0.175766475	-0.196008699	0
2690	3024693320	0.053824923	-0.084023315	-0.610477801	-0.785722479	-0.51758794	0.199316688	-0.264089653	0
2693	3024743321	0.052731826	-0.083970271	-0.614219178	-0.782881312	-0.495153105	0.044957219	-0.19599298	0
2695	3024776655	0.05166247	-0.083847357	-0.617432511	-0.780434305	-0.437574535	0.046487498	-0.18559592	0
2698	3024826656	0.050092283	-0.083224662	-0.623393041	-0.775851491	-0.324283973	0.111779707	-0.043983676	0
2701	3024876657	0.049573867	-0.082576567	-0.627607443	-0.772549312	-0.092766886	0.060732554	-0.206412069	0
2704	3024926658	0.049940285	-0.081496174	-0.629350669	-0.771221159	-0.142709454	0.131292084	-0.080487931	0
2706	3024959992	0.050579307	-0.080683515	-0.630118071	-0.770638126	-0.31264908	-0.006278485	-0.055495635	0
2709	3025009993	0.051956438	-0.079745119	-0.631323542	-0.769656956	-0.277830665	0.057094341	-0.095077922	0
2712	3025059994	0.052871317	-0.079567804	-0.631164546	-0.769743402	-0.290341031	0.00916459	-0.0322517	0
2714	3025093328	0.053080513	-0.079854749	-0.631225021	-0.769649694	-0.282282326	-0.008335332	0.038692804	0
2717	3025143329	0.05322643	-0.079964688	-0.631541755	-0.769368317	-0.404296114	0.104794779	-0.129782313	0
2720	3025193330	0.053915822	-0.080078039	-0.630518582	-0.77014733	-0.196782866	0.098507749	-0.009188379	0
2722	3025226664	0.054137813	-0.080274044	-0.62959512	-0.7708665	-0.172186597	0.157052339	-0.206810142	0
2725	3025276665	0.054603755	-0.080218888	-0.628119523	-0.772042243	-0.265219218	0.16718406	0.022368818	0
2728	3025326666	0.054971008	-0.079924524	-0.626740929	-0.77316626	-0.314109411	0.059545534	-0.097138833	0
2731	3025376667	0.054856149	-0.079953178	-0.625731827	-0.773988355	-0.374467586	0.070563614	-0.061765731	0
2733	3025410001	0.054582408	-0.080257941	-0.625463269	-0.774193208	-0.328630603	0.066635701	-0.134065384	0
2736	3025460002	0.053709559	-0.080710621	-0.625584212	-0.774109471	-0.183527008	0.138641217	-0.060144235	0
2739	3025510003	0.05313924	-0.080578289	-0.625763558	-0.774017655	-0.192247889	0.022428007	-0.084137322	0
2741	3025543337	0.052712671	-0.080410204	-0.625634678	-0.774168472	-0.254500765	0.047396169	-0.097200087	0
2744	3025593338	0.052337487	-0.080252765	-0.625728924	-0.774134093	-0.32938475	0.025500095	0.02029805	0
2747	3025643339	0.051905993	-0.080575917	-0.625866742	-0.774018159	-0.225134758	-0.004436347	-0.134547154	0
2749	3025676673	0.051612573	-0.08085913	-0.625713516	-0.77413212	-0.224747036	0.097833037	-0.039492194	0
2753	3025743341	0.051249587	-0.081346694	-0.624301305	-0.775244526	-0.279675559	0.07140348	-0.094552347	0
2756	3025793342	0.050881978	-0.081414292	-0.624403644	-0.775179222	-0.342367001	0.157629258	-0.107869817	0
2759	3025843343	0.050961903	-0.081429611	-0.624292495	-0.775261881	-0.215888963	0.019252345	-0.094399012	0
2762	3025893344	0.050765017	-0.08145203	-0.623928706	-0.775565245	-0.299950712	0.01921622	-0.072644692	0
2764	3025926678	0.050642771	-0.081361822	-0.624016558	-0.775512024	-0.341469165	0.045992161	0.000908618	0
2767	3025976679	0.050699338	-0.081264201	-0.623999172	-0.775532553	-0.185198729	0.025032289	-0.150722045	0
2770	3026026680	0.050821449	-0.081036178	-0.623824198	-0.77568917	-0.239149253	0.089503561	-0.040436286	0
2772	3026060014	0.050920611	-0.081004721	-0.623226525	-0.776166236	-0.210386151	0.070793699	-0.14992716	0
2775	3026110015	0.050760528	-0.080917362	-0.622727053	-0.776586613	-0.322090122	0.053370479	-0.044621316	0
2778	3026160016	0.050977781	-0.080390657	-0.622938325	-0.77645763	-0.223110489	0.1037671	-0.081664128	0
2782	3026226684	0.051241137	-0.07947346	-0.623149187	-0.776365511	-0.299806704	0.038817179	-0.037621821	0
2785	3026276685	0.051513595	-0.078494979	-0.624010924	-0.775754635	-0.150173234	0.087311397	-0.218521813	0
2787	3026310019	0.051470893	-0.078214167	-0.623887433	-0.775885147	-0.224882627	0.084325875	-0.0038391	0
2790	3026360020	0.051394808	-0.077920098	-0.624249252	-0.775628715	-0.27652095	0.050429451	-0.15136338	0
2793	3026410021	0.051194908	-0.077662353	-0.62458449	-0.775397869	-0.245250144	0.001271958	-0.027693069	0
2795	3026443355	0.05107612	-0.077054966	-0.625734687	-0.774538485	-0.230955838	0.032603577	-0.104164882	0
2798	3026493356	0.051261556	-0.076168201	-0.627074317	-0.77352987	-0.219866346	0.078906616	-0.022857903	0
2801	3026543357	0.05144907	-0.075302635	-0.6283263	-0.772585638	-0.124017128	0.036201176	-0.15522441	0
2803	3026576691	0.051337282	-0.075168257	-0.628521166	-0.772447643	-0.374009545	0.017169863	-0.102495567	0
2806	3026626692	0.051180387	-0.075097882	-0.629771547	-0.771445834	-0.274563878	0.061679862	-0.140534847	0
2810	3026693360	0.051184759	-0.075287562	-0.631147112	-0.770302036	-0.264322998	0.005195049	-0.015125332	0
2813	3026743361	0.05148608	-0.075176934	-0.632477904	-0.769200437	-0.227706188	0.136490827	-0.129960576	0
2816	3026793362	0.05160618	-0.075661168	-0.633081427	-0.768648227	-0.166705421	0.102553316	0.053602174	0
2818	3026826696	0.05150204	-0.076003522	-0.634544993	-0.767413615	-0.114956407	-0.033954464	-0.025813095	0
2821	3026876697	0.050832854	-0.077360942	-0.63685205	-0.765408892	-0.279253739	0.06229677	-0.086282149	0
2824	3026926698	0.049912729	-0.080382124	-0.636723563	-0.765265011	-0.225748196	0.170114908	-0.153984193	0
2826	3026960032	0.049422572	-0.082073838	-0.636030255	-0.765693679	-0.196395933	0.177799225	-0.122260991	0
2829	3027010033	0.048772845	-0.084097672	-0.634579906	-0.766718419	-0.467509707	-0.003725799	-0.027363386	0
2832	3027060034	0.048397464	-0.085158392	-0.63391423	-0.767175653	-0.260731119	0.037202573	-0.002470739	0
2834	3027093368	0.047966339	-0.085807693	-0.633070394	-0.767826899	-0.310750182	-0.003616939	-0.056041877	0
2837	3027143369	0.046975778	-0.087458109	-0.631618256	-0.768897089	-0.282990337	0.093276122	-0.084982282	0
2840	3027193370	0.045031757	-0.090187023	-0.629212065	-0.770668943	-0.249829079	-0.118725791	-0.287636631	0
2843	3027243371	0.043125089	-0.0922056	-0.62795227	-0.771566135	-0.423569309	0.04037635	-0.271469649	0
2845	3027276705	0.042511217	-0.092507628	-0.627600461	-0.771850243	-0.267909548	0.199276813	-0.237762078	0
2848	3027326706	0.042277625	-0.091726663	-0.62681646	-0.772593002	-0.276590673	0.164631535	-0.125355286	0
2851	3027376707	0.042031347	-0.089758979	-0.627601012	-0.772200532	-0.423609424	-0.10180861	-0.183098372	0
2853	3027410041	0.041713932	-0.087688429	-0.630062239	-0.77044939	-0.297136745	-0.072634294	-0.210162353	0
2856	3027460042	0.040921609	-0.084785741	-0.63481045	-0.766911007	-0.269715649	0.004593257	-0.014908549	0
2859	3027510043	0.040729853	-0.082612357	-0.637550586	-0.764882689	-0.225266266	0.06709867	-0.147486551	0
2861	3027543377	0.040973735	-0.081099713	-0.638489402	-0.764248175	-0.102376213	-0.033534096	-0.044147124	0
2864	3027593378	0.041739011	-0.078464772	-0.639793933	-0.76339037	-0.047796191	-0.035168126	-0.006580905	0
2867	3027643379	0.042841851	-0.07703743	-0.638882474	-0.764237525	-0.113386561	-0.103504273	0.087479607	0
2870	3027693380	0.043605269	-0.077315503	-0.63724548	-0.765531901	-0.146691319	-0.003004447	0.090534223	0
2872	3027726714	0.043883246	-0.078521317	-0.636208951	-0.766255071	-0.16328853	0.20193592	0.053496672	0
2875	3027776715	0.043854893	-0.080903475	-0.634403454	-0.76750481	-0.14201402	0.433376043	0.058113074	0
2878	3027826716	0.043723019	-0.08226563	-0.635113491	-0.766779967	-0.151253312	0.305832813	0.074905648	0
2880	3027860050	0.043762286	-0.083009889	-0.636214921	-0.765783778	-0.055737587	0.050924759	0.02135989	0
2883	3027910051	0.044168381	-0.084447093	-0.636686608	-0.765211085	-0.10481554	-0.161950004	-0.062746486	0
2886	3027960052	0.045004594	-0.085708508	-0.635781075	-0.765774812	-0.168410328	-0.090892518	-0.00027399	0
2890	3028026720	0.046379262	-0.086618934	-0.633451037	-0.767519321	-0.178243574	0.102910556	0.004269579	0
2893	3028076721	0.047490177	-0.08698894	-0.629919336	-0.770311131	-0.321770768	-0.08470001	-0.052861273	0
2895	3028110055	0.048334076	-0.087364695	-0.627150524	-0.772472296	-0.426702384	-0.127552608	-0.022150402	0
2898	3028160056	0.049229793	-0.087846707	-0.624097587	-0.774830036	-0.20744029	0.060937601	-0.109756026	0
2901	3028210057	0.049818168	-0.08892657	-0.620531151	-0.777528974	-0.24223729	0.17993588	-0.094262113	0
2903	3028243391	0.050306143	-0.08995297	-0.617919944	-0.779456668	-0.298171641	0.142450212	0.088130849	0
2906	3028293392	0.051530842	-0.093068357	-0.612812613	-0.783034836	-0.075740533	-0.069674747	-0.178165424	0
2909	3028343393	0.051890474	-0.096880867	-0.606937657	-0.787113814	-0.125170734	0.113353355	-0.072247987	0
2911	3028376727	0.052071128	-0.099083704	-0.603931085	-0.78913767	-0.23927128	0.028491363	0.068713707	0
2914	3028426728	0.052512582	-0.102298237	-0.599516146	-0.792059272	-0.093051289	0.006456385	-0.14196065	0
2918	3028493396	0.053241936	-0.104357661	-0.594444444	-0.795556773	-0.19670827	0.116905197	-0.11676982	0
2921	3028543397	0.053753871	-0.104654548	-0.592689534	-0.796791732	-0.24645863	0.199493949	-0.098555336	0
2924	3028593398	0.05417142	-0.103943827	-0.592270976	-0.797167629	-0.184319644	0.102333903	-0.192575684	0
2926	3028626732	0.054008391	-0.103770811	-0.591485329	-0.797784318	-0.161145735	0.10739058	-0.090850594	0
2929	3028676733	0.053255715	-0.10324173	-0.592368603	-0.797248025	-0.301071354	0.009414856	-0.006679393	0
2932	3028726734	0.052380765	-0.103887974	-0.594047	-0.795972177	-0.208683389	0.043528009	-0.130119701	0
2934	3028760068	0.05163599	-0.104484601	-0.595270659	-0.795028009	-0.039411291	0.08269274	-0.067345535	0
2937	3028810069	0.050126191	-0.104498724	-0.59750044	-0.793448553	-0.195934446	0.011230498	-0.221082646	0
2940	3028860070	0.048701537	-0.103161528	-0.601561178	-0.790638988	-0.408606629	0.250378215	-0.022454643	0
2942	3028893404	0.048420682	-0.102541659	-0.603720765	-0.789089275	-0.222835488	0.087867679	-0.078075706	0
2947	3028976739	0.047700037	-0.101199031	-0.60727352	-0.786576338	-0.217356303	-0.038711346	-0.088881678	0
2949	3029010073	0.047517427	-0.101032211	-0.607712643	-0.786269629	-0.161072743	0.02252404	-0.093188779	0
2952	3029060074	0.047623626	-0.100791342	-0.608077096	-0.786012303	-0.148598774	0.01799867	-0.080025168	0
2955	3029110075	0.047790444	-0.100271526	-0.608936869	-0.785402817	-0.223191313	0.065967133	-0.126281865	0
2957	3029143409	0.047989789	-0.099883327	-0.609755567	-0.784804721	-0.178137696	0.036057267	-0.058635961	0
2960	3029193410	0.048148983	-0.099448907	-0.611239324	-0.783695144	-0.182313355	0.160118579	-0.06019836	0
2963	3029243411	0.04820082	-0.09934571	-0.612800357	-0.782485037	-0.210242414	0.049100531	-0.078270669	0
2965	3029276745	0.048223397	-0.099094571	-0.613808942	-0.781724601	-0.158731586	-0.082905214	-0.103122055	0
2968	3029326746	0.048233452	-0.09863201	-0.615095077	-0.780770969	-0.203646555	0.030830426	-0.046070702	0
2971	3029376747	0.048310439	-0.098390254	-0.615917021	-0.7801485	-0.136729237	0.132311889	-0.029083588	0
2974	3029426748	0.048168623	-0.097848743	-0.617115402	-0.779277863	-0.203085119	0.093192291	-0.092853251	0
2976	3029460082	0.048015731	-0.097329842	-0.617618415	-0.778953712	-0.153245512	0.020574417	-0.043681513	0
2979	3029510083	0.047778838	-0.096390429	-0.618181072	-0.778638703	-0.187676338	0.095161163	-0.075033644	0
2982	3029560084	0.047754615	-0.095195722	-0.619184581	-0.777989541	-0.210809578	0.013610919	-0.077913395	0
2984	3029593418	0.04762433	-0.094448895	-0.620024949	-0.777419058	-0.186192321	0.02791507	-0.138138179	0
2987	3029643419	0.047259346	-0.093266615	-0.621630226	-0.77630133	-0.16232126	0.070115595	-0.019994899	0
2990	3029693420	0.047022063	-0.092256441	-0.622791916	-0.775504935	-0.120856309	0.094218281	-0.054820668	0
2992	3029726754	0.046912456	-0.091550409	-0.623296474	-0.775189815	-0.130808776	0.009165237	-0.058218978	0
2995	3029776755	0.046925244	-0.090226705	-0.624373221	-0.774477401	-0.168702264	0.05205138	-0.026665089	0
2998	3029826756	0.047158239	-0.089026	-0.625426005	-0.773752405	-0.109565042	-0.029043543	-0.101443196	0
3001	3029876757	0.047366129	-0.088130815	-0.625912227	-0.77344896	-0.196740521	0.056186637	-0.053653322	0
3003	3029910091	0.047469025	-0.087538249	-0.625889274	-0.773528515	-0.218517761	0.016790112	-0.038517999	0
3006	3029960092	0.047699526	-0.086331628	-0.627116991	-0.772655087	-0.248943848	0.025355036	-0.016644048	0
3009	3030010093	0.047707972	-0.085494983	-0.628899206	-0.771297832	-0.050086366	-0.083933908	0.04701188	0
3011	3030043427	0.047491855	-0.085140477	-0.630029153	-0.770427731	-0.068465178	0.023952149	0.006400344	0
3014	3030093428	0.047284464	-0.084742757	-0.630699791	-0.769935464	-0.088651941	0.096411138	0.013126836	0
3017	3030143429	0.047262134	-0.084159888	-0.630909456	-0.769828983	-0.125636556	0.049641445	0.01282486	0
3019	3030176763	0.047414291	-0.083546007	-0.631039751	-0.769779698	-0.141424989	0.062012705	0.045158167	0
3022	3030226764	0.047924929	-0.083074609	-0.630003013	-0.770647789	-0.081704459	-0.022188825	-0.036250137	0
3026	3030293432	0.048014804	-0.083565352	-0.628610585	-0.771725432	-0.271430236	0.052019745	-0.065465019	0
3029	3030343433	0.047657366	-0.084219137	-0.627969089	-0.772198638	-0.154287209	0.017044839	-0.128466343	0
3032	3030393434	0.047107441	-0.084169867	-0.62798218	-0.772227107	-0.239371856	0.063444972	0.013345688	0
3034	3030426768	0.047054984	-0.083679223	-0.628742958	-0.771664376	-0.182455975	0.074628861	-0.03539828	0
3037	3030476769	0.047231564	-0.082699433	-0.630008836	-0.770726183	-0.093097095	0.014598576	-0.125353763	0
3040	3030526770	0.047378436	-0.080406741	-0.632343774	-0.769045767	-0.18964915	0.029227032	-0.195916561	0
3042	3030560104	0.047496192	-0.078489555	-0.634215306	-0.76769424	-0.190186585	0.122819008	0.102106486	0
3045	3030610105	0.047721191	-0.077295347	-0.635273043	-0.766926514	-0.19617779	0.096455853	0.095160008	0
3048	3030660106	0.047662769	-0.077345394	-0.635221664	-0.766967658	-0.102626617	-0.026935025	-0.050999583	0
3050	3030693440	0.047622342	-0.077825818	-0.634799325	-0.767271185	-0.198943616	0.01274182	-0.038899539	0
3055	3030776775	0.04787636	-0.077638255	-0.634495453	-0.767525684	-0.150050133	0.012892041	-0.093479309	0
3057	3030810109	0.048065401	-0.076985737	-0.634676214	-0.767430138	-0.261436015	0.042880368	-0.023697528	0
3060	3030860110	0.048324247	-0.076592539	-0.635055831	-0.767139128	-0.148646827	0.043211331	-0.007715084	0
3063	3030910111	0.048533527	-0.07669525	-0.634957375	-0.76719715	-0.152182916	0.055499494	-0.046279279	0
3065	3030943445	0.048755441	-0.076749244	-0.634722152	-0.767372302	-0.213743757	0.05254681	-0.025365236	0
3068	3030993446	0.049020849	-0.076705625	-0.634607491	-0.767454582	-0.234102179	0.049435746	-0.088972637	0
3071	3031043447	0.049263894	-0.076313032	-0.634928363	-0.767212724	-0.204144322	0.060967231	-0.013218121	0
3073	3031076781	0.049350874	-0.076161058	-0.635358753	-0.766865855	-0.194598462	0.045177905	-0.053416069	0
3076	3031126782	0.049347683	-0.075861637	-0.636066748	-0.766308626	-0.108512651	0.04414094	-0.048916199	0
3079	3031176783	0.04914509	-0.075868646	-0.636236598	-0.76617994	-0.259150053	0.032650337	0.039201612	0
3083	3031243451	0.049310559	-0.075635364	-0.636901712	-0.765639582	-0.113732177	0.041659992	-0.057848336	0
3086	3031293452	0.049675721	-0.075470127	-0.635889493	-0.76647318	-0.176683329	0.062479423	-0.007635934	0
3088	3031326786	0.049997593	-0.075305156	-0.635179824	-0.767056689	-0.15845888	0.043496604	-0.042790366	0
3091	3031376787	0.050311592	-0.075020299	-0.633834513	-0.768176092	-0.141814484	0.011016424	-0.094810193	0
3094	3031426788	0.050708222	-0.074524052	-0.633041802	-0.768851688	-0.180756452	0.078516967	0.042175272	0
3096	3031460122	0.05120963	-0.073858313	-0.633089151	-0.76884371	-0.155927216	0.046486534	-0.095048025	0
3099	3031510123	0.051705243	-0.073811867	-0.632588206	-0.769227234	-0.142697712	0.017823554	0.022233615	0
3102	3031560124	0.051954673	-0.073918269	-0.632536034	-0.769243113	-0.090012593	-0.021616035	0.041352679	0
3104	3031593458	0.05208726	-0.073950313	-0.632080375	-0.769605528	-0.009767332	-0.065715112	0.012243846	0
3107	3031643459	0.052346589	-0.073793003	-0.631005695	-0.770484419	-0.223795444	0.03307287	-0.004317728	0
3110	3031693460	0.052761405	-0.073733384	-0.630777913	-0.770648329	-0.135658281	0.195927509	-0.011554233	0
3113	3031743461	0.052981874	-0.073767175	-0.630320511	-0.771004136	-0.144964435	0.109179806	-0.048500528	0
3115	3031776795	0.053013119	-0.07372529	-0.630288833	-0.771031891	-0.135556427	0.028855185	0.008950989	0
3118	3031826796	0.052763256	-0.073903097	-0.630364971	-0.770969762	-0.154239038	-0.027552189	-0.028856836	0
3121	3031876797	0.052601308	-0.074748375	-0.630169193	-0.771059382	-0.18897223	0.101559837	-0.029450931	0
3123	3031910131	0.052582501	-0.075095448	-0.62975545	-0.771364912	-0.152897305	0.097470258	0.061697814	0
3126	3031960132	0.052698046	-0.075438659	-0.629476659	-0.771551074	-0.120615751	0.017810332	0.041476044	0
3129	3032010133	0.052945438	-0.075719122	-0.62956296	-0.771436242	-0.14041008	0.093052828	0.010249381	0
3131	3032043467	0.053142798	-0.075840641	-0.62913848	-0.771756965	-0.185021159	-0.029438159	0.014950491	0
3134	3032093468	0.053287917	-0.07616373	-0.628795135	-0.771994923	-0.145729062	-0.004090522	-0.032006181	0
3137	3032143469	0.053185827	-0.076438176	-0.628619929	-0.772117515	-0.205864869	0.060666059	0.080924372	0
3140	3032193470	0.052977747	-0.07682307	-0.628817886	-0.771932406	-0.108104747	0.160703994	-0.018521202	0
3142	3032226804	0.052902303	-0.076982229	-0.628515934	-0.772167601	-0.147843937	-0.030351827	0.097047406	0
3145	3032276805	0.05270209	-0.077307397	-0.626987752	-0.773390209	-0.180349284	-0.001125308	-0.143459816	0
3148	3032326806	0.052561022	-0.077867551	-0.625286895	-0.774719486	-0.17268736	-0.081534437	-0.082786214	0
3150	3032360140	0.052405239	-0.078265312	-0.624660415	-0.7751952	-0.21246858	0.155050596	-0.018898644	0
3153	3032410141	0.052549029	-0.079245035	-0.623742465	-0.775824826	-0.099116159	0.053305717	0.001302212	0
3156	3032460142	0.052617493	-0.080913316	-0.62240864	-0.776718688	-0.065567511	-0.07678608	-0.056266638	0
3158	3032493476	0.052596318	-0.082084049	-0.621490619	-0.777332134	-0.272793843	-0.067135885	-0.051061834	0
3164	3032593478	0.052115174	-0.085078841	-0.619417456	-0.778696099	-0.215877808	0.14251817	-0.003088347	0
3167	3032643479	0.051997712	-0.08568519	-0.619309729	-0.778723151	-0.154786282	0.080622383	-0.106600303	0
3169	3032676813	0.051788399	-0.085846615	-0.618987758	-0.778975273	-0.170406886	0.072245576	-0.086256206	0
3172	3032726814	0.051390154	-0.085582032	-0.619423549	-0.778684297	-0.277760198	0.0369091	-0.072912862	0
3175	3032776815	0.050956845	-0.085273431	-0.620265667	-0.778076053	-0.1998645	0.011633156	0.018009888	0
3179	3032843483	0.050485572	-0.084492483	-0.621757228	-0.777000758	-0.144015983	0.043658965	-0.013033164	0
3181	3032876817	0.050274614	-0.083914881	-0.622231396	-0.776697397	-0.107387433	0.006337132	-0.097587056	0
3184	3032926818	0.050266988	-0.083135881	-0.622759322	-0.776358475	-0.179639235	-0.013895728	0.018008959	0
3187	3032976819	0.050549762	-0.082584383	-0.623428317	-0.775861891	-0.050747836	-0.017159893	-0.108696168	0
