sep=									
DeviceTag:	Xsens_3								
FirmwareVersion:	2.2.1								
AppVersion:	2023.0.0								
SyncStatus:	Un-synced								
OutputRate:	60Hz								
FilterProfile:	General								
Measurement Mode:	Sensor fusion Mode - Extended (Quaternion)								
StartTime:	2023-07-11 15:23:06.897 +0200								
© Movella Technologies B. V. 2005-2023									
PacketCounter	SampleTimeFine	Quat_W	Quat_X	Quat_Y	Quat_Z	FreeAcc_X	FreeAcc_Y	FreeAcc_Z	Status
1	32480280	2.69E-18	-6.90E-17	-0.707106781	-0.707106781	-0.012892619	0.021354675	-0.012136935	0
2	32496947	8.32E-06	7.09E-05	0.707230792	0.706982745	-0.004817845	0.02095551	-0.011582203	0
3	32513614	3.10E-05	-0.000121045	-0.707345341	-0.70686813	0.001617483	-0.013675297	-0.003246267	0
4	32530281	0.000108636	-0.000131227	-0.707502815	-0.706710504	-0.012605862	0.017454116	-0.01341856	0
5	32546948	0.00019131	-0.000182005	-0.707645363	-0.70656774	-0.017403079	0.025353996	-0.015972678	0
6	32563615	0.000221483	-0.000191136	-0.707798699	-0.706414125	-0.016535727	0.026062087	-0.033100987	0
7	32580282	0.000244671	-0.000220836	-0.70792805	-0.70628448	-0.003772386	0.030345369	-0.031973467	0
8	32596949	0.000296507	-0.000225373	-0.708054644	-0.706157547	-0.018997365	0.01604902	-0.019262672	0
9	32613616	0.000372192	-0.000251635	-0.708191483	-0.70602027	-0.00520143	0.025368372	-0.024076403	0
10	32630283	0.000472198	-0.000277681	-0.70834371	-0.705867473	-0.021986793	0.007782979	-0.03270016	0
11	32646950	0.000517564	-0.000275649	-0.708495635	-0.705714951	-0.028832359	0.028392376	-0.042525045	0
12	32663617	0.000590877	-0.000307792	-0.708643805	-0.705566095	-0.024162754	0.026036607	-0.039979973	0
13	32680284	0.000671941	-0.000330925	-0.708790635	-0.70541851	-0.02747341	0.004672881	-0.050108243	0
14	32696951	0.000730865	-0.000357886	-0.708933101	-0.705275263	-0.023397643	0.00064899	-0.053572395	0
15	32713618	0.00078952	-0.000371879	-0.709079722	-0.70512778	-0.019907181	-0.001055568	-0.048240756	0
16	32730285	0.0008718	-0.000392795	-0.709223461	-0.704983097	-0.014112955	0.008383676	-0.04896925	0
17	32746952	0.000934529	-0.000416377	-0.709370509	-0.70483504	-0.023434182	0.017054858	-0.059244546	0
18	32763619	0.001007368	-0.000428429	-0.709521948	-0.704682486	-0.029165381	0.053378271	-0.068418687	0
19	32780286	0.001081102	-0.000426128	-0.709670066	-0.704533212	-0.0260856	0.009850667	-0.072696971	0
20	32796953	0.00115024	-0.000430655	-0.70982282	-0.704379199	-0.010786989	0.044996045	-0.059613653	0
21	32813620	0.001220902	-0.000432467	-0.709967724	-0.704233025	-0.02104951	0.019289094	-0.081825947	0
22	32830287	0.00129882	-0.000433905	-0.710117852	-0.704081502	-0.027233119	0.034401891	-0.08487929	0
23	32846954	0.001370507	-0.00043746	-0.710266158	-0.703931754	-0.022641954	0.054077194	-0.079597943	0
24	32863621	0.001431101	-0.000435325	-0.71041168	-0.703784773	-0.02698182	-5.28E-05	-0.098982928	0
25	32880288	0.001509697	-0.000431649	-0.710561732	-0.703633114	-0.033553569	0.029430605	-0.097618666	0
26	32896955	0.001579305	-0.000435159	-0.710709707	-0.703483496	-0.0351525	0.02646307	-0.087655766	0
27	32913622	0.001653399	-0.000432787	-0.710853799	-0.703337725	-0.034613667	0.025156735	-0.09832132	0
28	32930289	0.001719088	-0.000423542	-0.710997346	-0.703192463	-0.036127146	0.012003456	-0.110293874	0
29	32946956	0.001789129	-0.000421919	-0.711142752	-0.703045239	-0.041905705	0.041085362	-0.121919095	0
30	32963623	0.001860039	-0.000411472	-0.711289431	-0.702896661	-0.038548049	0.014936242	-0.121163285	0
31	32980290	0.001919928	-0.00041864	-0.711437174	-0.702746957	-0.032142332	0.010517868	-0.121013652	0
32	32996957	0.00198472	-0.00042421	-0.711584774	-0.702597317	-0.047128397	0.025125884	-0.129412326	0
33	33013624	0.002057971	-0.000416136	-0.711726902	-0.702453136	-0.035593726	0.007017386	-0.135735813	0
34	33030291	0.002117493	-0.000402153	-0.711875734	-0.702302139	-0.044520223	0.021851835	-0.126897115	0
35	33046958	0.002182698	-0.000396757	-0.712020884	-0.702154782	-0.028631068	0.040872883	-0.138357436	0
36	33063625	0.002248672	-0.000385701	-0.712163858	-0.702009568	-0.047521865	0.027763504	-0.141188956	0
37	33080292	0.002312461	-0.000383839	-0.712308245	-0.701862856	-0.047185197	0.029004834	-0.147900963	0
38	33096959	0.002378091	-0.000372135	-0.712456261	-0.701712393	-0.048846914	0.060694438	-0.151576121	0
39	33113626	0.002449377	-0.000364442	-0.712599577	-0.701566612	-0.061190498	0.017765105	-0.154266593	0
40	33130293	0.002512358	-0.000354584	-0.712742866	-0.701420822	-0.057588861	0.009924206	-0.164339143	0
41	33146960	0.002574461	-0.000339866	-0.712889892	-0.701271174	-0.052525121	0.035510572	-0.148880014	0
42	33163627	0.002641322	-0.000325767	-0.713042155	-0.701116112	-0.063558231	0.019228058	-0.158717409	0
43	33180294	0.002697897	-0.000320073	-0.713190057	-0.700965449	-0.052101321	0.024361539	-0.176840142	0
44	33196961	0.002756764	-0.000308704	-0.713328516	-0.700824324	-0.058823815	0.031971886	-0.174759088	0
45	33213628	0.002829555	-0.00031585	-0.713473708	-0.700676217	-0.057964659	0.006303651	-0.182761665	0
46	33230295	0.002890354	-0.000300035	-0.713612709	-0.700534409	-0.056434228	0.000865123	-0.187499705	0
47	33246962	0.002953856	-0.000288809	-0.713749072	-0.700395212	-0.067483559	0.011265039	-0.1930148	0
48	33263629	0.003010106	-0.000263004	-0.713885207	-0.700256226	-0.06014571	0.023623338	-0.189554974	0
49	33280296	0.003071159	-0.00025942	-0.714021499	-0.70011699	-0.056636297	0.034526576	-0.200340165	0
50	33296963	0.003123508	-0.000258593	-0.714163662	-0.699971742	-0.070359518	0.022951001	-0.193534755	0
51	33313630	0.003178409	-0.000244537	-0.714309503	-0.699822672	-0.075405923	0.002067268	-0.185884598	0
52	33330297	0.003238836	-0.000250422	-0.714449299	-0.699679674	-0.061973464	0.039393808	-0.196694616	0
53	33346964	0.003298794	-0.000246222	-0.714592084	-0.699533567	-0.076137315	-0.001989827	-0.212686498	0
54	33363631	0.003355013	-0.000230826	-0.714738123	-0.69938409	-0.069304359	0.037313392	-0.198880894	0
55	33380298	0.003402326	-0.000217894	-0.714881613	-0.699237196	-0.075842579	0.020888571	-0.215095454	0
56	33396965	0.003457412	-0.000199851	-0.715018988	-0.699096454	-0.075523467	0.029076769	-0.234765765	0
57	33413632	0.003507934	-0.000180174	-0.715158712	-0.698953273	-0.0700417	0.016761771	-0.217822661	0
58	33430299	0.003556438	-0.000164528	-0.715297032	-0.698811477	-0.07756092	0.022344583	-0.220454395	0
59	33446966	0.00361894	-0.000152061	-0.715437985	-0.698666851	-0.083996729	0.029165873	-0.240968607	0
60	33463633	0.003672787	-0.000145727	-0.715571891	-0.698529425	-0.096390141	0.030512645	-0.234803556	0
61	33480300	0.003729953	-0.000120273	-0.715702575	-0.69839523	-0.088932009	0.029232064	-0.233103487	0
62	33496967	0.003779415	-0.000110299	-0.715838074	-0.698256082	-0.074440396	0.00029132	-0.239671898	0
63	33513634	0.003831377	-0.000108229	-0.715976031	-0.69811434	-0.084443843	0.0091983	-0.251595209	0
64	33530301	0.003879461	-9.70E-05	-0.716111495	-0.697975119	-0.095769009	0.031540891	-0.25631744	0
65	33546968	0.003930483	-9.03E-05	-0.716247945	-0.697834811	-0.084967028	0.015765301	-0.265355424	0
66	33563635	0.003969498	-7.95E-05	-0.716381192	-0.697697803	-0.082795472	-0.004035918	-0.251431601	0
67	33580302	0.004019818	-7.60E-05	-0.716511547	-0.697563645	-0.077404852	0.032622574	-0.26153024	0
68	33596969	0.004062559	-5.57E-05	-0.716642224	-0.697429147	-0.097117339	0.034674132	-0.255274338	0
69	33613636	0.004114549	-4.32E-05	-0.716775364	-0.697292009	-0.086101519	0.013941985	-0.261230034	0
70	33630303	0.004162111	-2.51E-05	-0.716909446	-0.697153872	-0.094153072	0.011969473	-0.270969231	0
71	33646970	0.004208522	-9.86E-06	-0.717036407	-0.697023012	-0.09453133	0.033597781	-0.26180834	0
72	33663637	0.004253642	-3.93E-07	-0.717160538	-0.696895021	-0.094723184	-0.002723449	-0.283814695	0
73	33680304	0.004288644	1.94E-05	-0.717284169	-0.696767556	-0.099152904	0.033248031	-0.290923525	0
74	33696971	0.004340177	3.22E-05	-0.717403292	-0.696644586	-0.114093027	0.02305845	-0.29395237	0
75	33713638	0.00437971	4.98E-05	-0.717526296	-0.696517645	-0.091990299	0.012090566	-0.275849283	0
76	33730305	0.00442031	6.28E-05	-0.717650003	-0.696389927	-0.089468755	0.015725842	-0.299611396	0
77	33746972	0.004464251	8.81E-05	-0.717774581	-0.69626124	-0.09916189	0.014345372	-0.300954739	0
78	33763639	0.00449793	0.000109701	-0.717895135	-0.69613672	-0.100615808	0.026123316	-0.292826846	0
79	33780306	0.004534949	0.000126318	-0.718013509	-0.696014382	-0.094025296	0.031679111	-0.305587313	0
80	33796973	0.004582863	0.00015086	-0.718135378	-0.69588832	-0.096488886	0.011153367	-0.298990864	0
81	33813640	0.004618679	0.00017401	-0.718252104	-0.6957676	-0.110486224	0.025488629	-0.311423877	0
82	33830307	0.00465166	0.000194104	-0.71837571	-0.695639751	-0.093608195	0.032439058	-0.314558664	0
83	33846974	0.004685472	0.000212957	-0.718492602	-0.695518786	-0.098974239	0.014951599	-0.318470497	0
84	33863641	0.004710941	0.000229507	-0.718609815	-0.695397504	-0.097379339	0.03162993	-0.323260484	0
85	33880308	0.004740258	0.000257111	-0.718730359	-0.695272705	-0.120283556	0.014729307	-0.296572771	0
86	33896975	0.004772007	0.000278184	-0.71884519	-0.695153755	-0.111338504	-0.005934464	-0.324481116	0
87	33913642	0.00480392	0.000300764	-0.718956481	-0.695038424	-0.109998348	0.04156675	-0.327997908	0
88	33930309	0.004815025	0.000328459	-0.719067599	-0.694923374	-0.108326931	0.033227819	-0.340265222	0
89	33946976	0.004851195	0.000357385	-0.71917459	-0.694812382	-0.122061364	0.003797779	-0.339020854	0
90	33963643	0.004867786	0.000373659	-0.719281442	-0.694701642	-0.114151383	-0.004407717	-0.33874593	0
91	33980310	0.004880128	0.000386367	-0.719387771	-0.694591441	-0.111588674	0.004835339	-0.32857281	0
92	33996977	0.004917885	0.000414371	-0.719500314	-0.694474579	-0.11923624	0.007394083	-0.342213628	0
93	34013644	0.004940226	0.000441773	-0.719606079	-0.694364811	-0.101313115	0.025250155	-0.346624088	0
94	34030311	0.004969265	0.000467046	-0.719718146	-0.694248427	-0.105460364	0.001871066	-0.356651182	0
95	34046978	0.004998882	0.000488756	-0.719822079	-0.694140438	-0.120326164	0.014351513	-0.344483733	0
96	34063645	0.005026498	0.000507472	-0.719919386	-0.694039303	-0.115855225	0.039426584	-0.353814533	0
97	34080312	0.005054989	0.000533267	-0.720024332	-0.693930202	-0.106410356	0.029356997	-0.352838323	0
98	34096979	0.005080558	0.000562911	-0.720121414	-0.693829245	-0.116443885	0.014971149	-0.360012688	0
99	34113646	0.005094996	0.00058249	-0.720222588	-0.693724099	-0.119057731	0.025930007	-0.382859095	0
100	34130313	0.005105244	0.000611903	-0.720318034	-0.693624893	-0.123994046	0.014945862	-0.373632131	0
101	34146980	0.005122344	0.000635066	-0.720410965	-0.693528226	-0.133719923	0.025223875	-0.359389323	0
102	34163647	0.00514561	0.000663882	-0.720512593	-0.693422444	-0.116042473	0.028024664	-0.381855518	0
103	34180314	0.005160883	0.000697948	-0.720604061	-0.693327243	-0.11737568	0.005913903	-0.391448305	0
104	34196981	0.005163598	0.000728791	-0.720687276	-0.693240692	-0.118905189	0.019672516	-0.387666369	0
105	34213648	0.00518102	0.000759813	-0.720778585	-0.693145591	-0.139345017	0.016865341	-0.372656513	0
106	34230315	0.005195317	0.000791553	-0.720868986	-0.693051432	-0.13354386	0.021036399	-0.372215361	0
107	34246982	0.005206945	0.00082531	-0.720952719	-0.692964201	-0.112956664	0.011194357	-0.375415597	0
108	34263649	0.005216106	0.000854497	-0.721036045	-0.692877394	-0.131062098	0.029332525	-0.387480716	0
109	34280316	0.005225683	0.000885626	-0.721118606	-0.692791356	-0.12624651	0.025486015	-0.388143284	0
110	34296983	0.00523376	0.000915395	-0.721197717	-0.692708902	-0.134761597	0.012187243	-0.388872887	0
111	34313650	0.005245619	0.000963943	-0.72127907	-0.692624038	-0.131357252	0.008344662	-0.391838035	0
112	34330317	0.005237894	0.000988153	-0.721357508	-0.692542369	-0.12788235	0.032068534	-0.408625524	0
113	34346984	0.005237439	0.001024591	-0.721432838	-0.692463847	-0.128720888	0.01847213	-0.399421057	0
114	34363651	0.005247262	0.001059009	-0.721512677	-0.692380533	-0.111089142	0.027237415	-0.406725122	0
115	34380318	0.005243024	0.001090139	-0.721583395	-0.692306815	-0.137640663	0.015180684	-0.392763696	0
116	34396985	0.005240996	0.001129161	-0.72165247	-0.692234765	-0.134465387	0.015933622	-0.401953143	0
117	34413652	0.00525491	0.001178262	-0.721723969	-0.692160032	-0.132748057	0.02069279	-0.402110539	0
118	34430319	0.005251154	0.00121216	-0.721793035	-0.692087979	-0.135370034	0.022896072	-0.41016755	0
119	34446986	0.001867916	-0.001026868	0.706999133	0.7072112	-0.005199872	0.039465271	-0.002815452	0
120	34463653	0.001857129	-0.001035386	0.706998054	0.707212296	-0.000492374	0.019597375	-0.001495128	0
121	34480320	0.001866832	-0.001039135	0.706990692	0.707219624	0.000907027	0.040877478	0.002160628	0
122	34496987	0.001860107	-0.001030785	0.706986804	0.70722354	-0.008590274	0.030222596	-0.00769547	0
123	34513654	0.001853638	-0.001018516	0.706989774	0.707220606	0.013608176	0.022459347	-0.00641263	0
124	34530321	0.001846249	-0.001007784	0.706986744	0.70722367	-0.000811319	0.02598758	0.006857806	0
125	34546988	0.001832768	-0.00100532	0.706991444	0.707219011	-0.004124751	0.022697989	-0.008387603	0
126	34563655	0.001815174	-0.001004526	0.706999828	0.707210675	0.006949728	0.025350496	0.004149343	0
127	34580322	0.001806025	-0.000993787	0.707000763	0.707209779	0.003488814	0.020870126	-1.66E-05	0
128	34596989	0.001798599	-0.000999205	0.706999091	0.707211462	0.003203689	0.032239159	0.008120161	0
129	34613656	0.001789869	-0.000992355	0.706991674	0.707218908	-0.018765302	0.026204104	0.003236649	0
130	34630323	0.001771876	-0.000981529	0.706989742	0.707220901	0.002786566	0.028756899	-0.001859395	0
131	34646990	0.001774297	-0.000968188	0.706990056	0.707220598	0.002763607	0.027568158	-0.005938199	0
132	34663657	0.001766086	-0.000980369	0.706992229	0.707218431	-0.000216595	0.012375933	0.010531237	0
133	34680324	0.001764287	-0.000955628	0.706987528	0.707223168	0.020635887	0.02872558	-0.008253241	0
134	34696991	0.00176013	-0.000950584	0.70698216	0.707228551	-0.003673979	0.026812217	0.000342133	0
135	34713658	0.001750994	-0.000942096	0.706979491	0.707231253	-0.003058581	0.031551824	0.0096458	0
136	34730325	0.001750005	-0.000930249	0.706974563	0.707236198	-0.01097753	0.022638957	0.000101144	0
137	34746992	0.001736674	-0.000930918	0.706977057	0.707233737	0.015009074	0.008682615	-0.009837992	0
138	34763659	0.001732537	-0.000925814	0.706979414	0.707231397	0.011971043	0.001128507	0.004503588	0
139	34780326	0.001731233	-0.000913038	0.706980247	0.707230584	-0.000431774	0.033611895	0.005943976	0
140	34796993	0.001721763	-0.000902846	0.706981204	0.707229664	0.002741078	0.008101856	-0.002814224	0
141	34813660	0.001717468	-0.000898434	0.70697711	0.707233773	0.005431771	0.032058353	0.008203483	0
142	34830327	0.001718064	-0.000889864	0.706977286	0.707233606	0.001800942	0.043695866	-0.006437036	0
143	34846994	0.001714474	-0.000884753	0.706979796	0.707231112	-0.00612754	0.012704138	0.006586643	0
144	34863661	0.001711559	-0.000864103	0.706980145	0.707230796	0.009798174	0.028800093	0.00665972	0
145	34880328	0.00170042	-0.000856332	0.706990175	0.707220805	0.001706848	0.03085749	0.007870942	0
146	34896995	0.001692723	-0.000846219	0.706990845	0.707220167	0.001936649	0.048669276	-0.01111091	0
147	34913662	0.001695066	-0.000841971	0.706992496	0.707218515	0.000966127	0.02558556	-0.006175959	0
148	34930329	0.001683634	-0.000844647	0.706987385	0.707223648	0.001019604	0.009841483	-0.003220056	0
149	34946996	0.001673779	-0.000841806	0.706988568	0.707222493	0.002645416	0.031847569	0.000247092	0
150	34963663	0.001668738	-0.000834427	0.706985736	0.707225344	0.00250369	0.046252794	-0.007360883	0
151	34980330	0.001660279	-0.000827235	0.70698385	0.707227258	-0.002838531	0.020360945	-0.013485467	0
152	34996997	0.001658273	-0.000822285	0.70699092	0.707220202	0.00202165	0.014573215	-0.018229851	0
153	35013664	0.001645461	-0.000813213	0.706989676	0.707221485	0.003017532	0.016134254	-0.005399222	0
154	35030331	0.001644261	-0.00080219	0.706991219	0.707219958	0.002097928	0.001057259	-0.006500768	0
155	35046998	0.001627856	-0.000795541	0.706990383	0.707220839	0.005156369	0.044144581	0.010692543	0
156	35063665	0.001616706	-0.000781672	0.706983038	0.707228223	-0.002473799	0.020205218	-0.001085837	0
157	35080332	0.001615403	-0.00077676	0.706977784	0.707233483	-0.012368901	0.025887053	-0.007289889	0
158	35096999	0.001603514	-0.000767952	0.706975823	0.70723548	0.001513525	0.027549845	0.002645282	0
159	35113666	0.001582191	-0.000766394	0.706978009	0.707233345	0.001160997	0.02403591	0.000397453	0
160	35130333	0.001583204	-0.000756301	0.706980077	0.707231286	0.007971192	0.006605859	0.00295387	0
161	35147000	0.001578271	-0.000748111	0.70697312	0.707238261	-0.002407049	0.025585747	0.000139788	0
162	35163667	0.001569723	-0.000744956	0.706972603	0.7072388	0.014377958	0.036364194	-0.006729123	0
163	35180334	0.001573732	-0.000728754	0.706974621	0.70723679	0.017309723	0.005065125	0.005657222	0
164	35197001	0.00156672	-0.000716798	0.706974832	0.707236607	0.011592566	0.017677688	-0.001358237	0
165	35213668	0.001556756	-0.000710246	0.706976218	0.707235251	0.007596244	0.065342228	-0.001126364	0
166	35230335	0.001550457	-0.00070061	0.706973731	0.70723776	0.008266268	0.013906249	0.001483117	0
167	35247002	0.00154898	-0.000700527	0.70697571	0.707235785	0.006772063	0.031969709	0.008104247	0
168	35263669	0.001547729	-0.000695514	0.706980708	0.707230796	0.002810043	0.018166373	0.0092308	0
169	35280336	0.00153941	-0.000702231	0.706979798	0.707231718	0.022481934	0.018294401	0.014463013	0
170	35297003	0.001540367	-0.000703159	0.706981735	0.707229778	0.015084882	0.011739199	-0.005061867	0
171	35313670	0.001532141	-0.000698327	0.70698424	0.707227297	0.018216381	0.007294377	0.01606266	0
172	35330337	0.001528663	-0.00068568	0.706980205	0.70723135	0.013096935	0.008736737	-0.006424347	0
173	35347004	0.0015255	-0.00066731	0.706982163	0.707229418	0.000443503	0.04397089	0.002691746	0
174	35363671	0.001523788	-0.000665597	0.706991282	0.707220307	-0.002443172	0.022817607	0.008940888	0
175	35380338	0.001522225	-0.000663814	0.706992908	0.707218686	0.000442863	0.010966374	0.001403521	0
176	35397005	0.001513995	-0.000651598	0.706998434	0.707213191	0.006714599	0.033947031	-0.003073249	0
177	35413672	0.001508514	-0.000644873	0.707003384	0.70720826	0.011293407	0.028549751	-0.00157222	0
178	35430339	0.001497323	-0.000628354	0.707003567	0.707208116	0.009759045	0.019249904	-0.003993734	0
179	35447006	0.001485752	-0.000626559	0.707000384	0.707211324	0.012676898	0.012871433	0.00202271	0
180	35463673	0.001463366	-0.000632207	0.707000854	0.707210896	0.001326453	0.029464944	0.00481425	0
181	35480340	0.001457374	-0.000635034	0.707003076	0.707208685	-0.015504408	0.037267642	0.002815494	0
182	35497007	0.001453143	-0.000627351	0.707010419	0.70720136	0.016221003	0.028692138	0.003687634	0
183	35513674	0.001443044	-0.000616274	0.707015656	0.707196154	0.00688523	0.013676247	0.001016781	0
184	35530341	0.001443638	-0.000599661	0.707018166	0.707193657	-0.005680362	0.028475838	0.011964675	0
185	35547008	0.001435908	-0.000600973	0.707019096	0.707192742	1.00E-05	0.008739564	-0.008893241	0
186	35563675	0.001421198	-0.00059155	0.707021647	0.70719023	-0.000920551	0.020329292	-0.000563252	0
187	35580342	0.001415458	-0.000590368	0.707021754	0.707190135	-0.001144525	-0.003373071	-0.001179911	0
188	35597009	0.001413806	-0.000590559	0.707018001	0.70719389	-0.003759342	0.004714883	0.010069448	0
189	35613676	0.001411804	-0.000584015	0.707016159	0.707195741	-0.005039817	0.023363157	0.008840235	0
190	35630343	0.001397343	-0.000587258	0.707021118	0.70719081	0.007339967	0.027820665	-0.001087975	0
191	35647010	0.001393701	-0.000583028	0.707025866	0.707186073	-0.000528904	0.022499598	0.006079712	0
192	35663677	0.001386272	-0.000586536	0.707022089	0.707189862	0.009742441	0.043499056	0.00797101	0
193	35680344	0.001372385	-0.00056966	0.70701913	0.707192861	-0.00414838	0.023215028	0.003841558	0
194	35697011	0.001369673	-0.000560123	0.70701744	0.707194563	0.00044156	0.014383586	0.014888863	0
195	35713678	0.001366999	-0.00055323	0.707015265	0.707196748	-0.008250528	0.017289643	0.001845569	0
196	35730345	0.001347456	-0.000549042	0.707013021	0.707199032	0.010118917	0.018053545	-0.000797448	0
197	35747012	0.001335746	-0.000548205	0.707012569	0.707199507	0.002906933	0.016077858	0.010081906	0
198	35763679	0.001331957	-0.00053347	0.707012237	0.707199857	0.00106843	0.020056419	0.008210955	0
199	35780346	0.001324596	-0.000523792	0.707010193	0.707201922	0.008416469	0.049992852	-0.004474619	0
200	35797013	0.001316691	-0.000525261	0.707013021	0.707199108	-0.012921235	0.009857486	-0.015445415	0
201	35813680	0.001309035	-0.00051966	0.707017951	0.707194198	0.013685205	0.010403992	-0.013967537	0
202	35830347	0.001295283	-0.000521763	0.70701987	0.707192303	-0.011147326	0.044409896	-0.010166999	0
203	35847014	0.001279749	-0.000520429	0.70702406	0.707188143	-0.005477697	0.023517391	-0.011156371	0
204	35863681	0.001264633	-0.000517303	0.707025076	0.707187157	0.002156951	0.016161335	-0.005688264	0
205	35880348	0.001258116	-0.000510836	0.707023437	0.707188812	-0.009344672	0.030206147	-0.002970745	0
206	35897015	0.001245303	-0.000498716	0.707024258	0.707188022	0.005484886	0.026911623	-0.00403132	0
207	35913682	0.00123819	-0.000489669	0.70702701	0.70718529	0.00641049	0.020213449	-0.005065393	0
208	35930349	0.001225617	-0.000495694	0.707032353	0.707179966	0.000161925	0.026805789	-0.008317284	0
209	35947016	0.00121778	-0.000488131	0.707029371	0.707182966	0.00422525	0.03332276	-0.003802595	0
210	35963683	0.001209263	-0.00048964	0.707030874	0.707181477	0.005922877	0.042190466	0.007034996	0
211	35980350	0.001196659	-0.000470452	0.707035455	0.707176931	0.010093863	0.026236976	0.004668163	0
212	35997017	0.001195393	-0.000464628	0.707036479	0.707175913	-0.007178594	0.025241978	-0.003740511	0
213	36013684	0.00118713	-0.000463557	0.707038034	0.707174373	0.002910205	0.027507845	0.011643841	0
214	36030351	0.0011829	-0.000457828	0.707039779	0.70717264	0.001740385	0.008247948	-0.001522445	0
215	36047018	0.001177503	-0.000443999	0.707039676	0.707172761	-0.008466112	0.001005093	-0.014043423	0
216	36063685	0.001171735	-0.00044049	0.707040053	0.707172395	-0.002209998	0.033449716	-0.011050098	0
217	36080352	0.001165204	-0.000432086	0.707032535	0.707179928	-0.00239709	0.023693637	-0.01094959	0
218	36097019	0.00115471	-0.000430517	0.707037155	0.707175327	-0.004041753	0.036064129	-8.54E-05	0
219	36113686	0.001155188	-0.00042537	0.707040974	0.707171511	-0.004440778	0.020680615	-0.012909403	0
220	36130353	0.001144127	-0.000430254	0.707041229	0.707171271	0.003254641	-0.004230707	-0.005751977	0
221	36147020	0.001143683	-0.000440494	0.707038828	0.707173665	0.000451413	0.032340696	-0.001114253	0
222	36163687	0.001137647	-0.000430879	0.707035782	0.707176727	0.007790903	0.019922329	-0.004932599	0
223	36180354	0.001125962	-0.000431116	0.707035148	0.707177379	0.001997489	0.029874862	0.004859606	0
224	36197021	0.001126244	-0.000428853	0.70703419	0.707178338	-0.009883793	0.038792965	0.002719923	0
225	36213688	0.001121225	-0.000429249	0.707031748	0.707180787	-0.006360659	0.036782915	-0.007351432	0
226	36230355	0.001112008	-0.00041601	0.707036652	0.707175907	0.008604117	0.008295972	0.000937008	0
227	36247022	0.0011118	-0.000404158	0.707041947	0.70717062	0.012695203	0.026284379	-0.005059182	0
228	36263689	0.001105097	-0.000396568	0.707039258	0.707173323	-0.00033648	0.04401356	0.006480127	0
229	36280356	0.001100512	-0.0003903	0.707042305	0.707170288	0.018356811	0.031563459	-0.003807227	0
230	36297023	0.001092881	-0.000388015	0.707042242	0.707170363	0.003856623	0.018184475	0.000873206	0
231	36313690	0.001081022	-0.000383168	0.707039298	0.707173328	0.009434022	0.018018286	-0.00452411	0
232	36330357	0.001074683	-0.000382307	0.707034928	0.707177707	-0.005131351	0.032454009	-0.011917863	0
233	36347024	0.001068516	-0.000380302	0.707032402	0.707180243	-0.00758305	0.036219377	0.000627176	0
234	36363691	0.001065952	-0.000375097	0.707030256	0.707182395	-0.004069625	0.03519716	0.005012654	0
235	36380358	0.001056647	-0.000363953	0.707035294	0.707177378	0.01680614	0.025478805	0.006453721	0
236	36397025	0.001051428	-0.000359464	0.707031821	0.707180861	-0.002511791	0.020744747	-0.003994766	0
237	36413692	0.001047178	-0.000354494	0.707028465	0.707184225	0.009937867	0.023545611	0.011518592	0
238	36430359	0.001035708	-0.000348783	0.707024994	0.707187714	0.015493904	0.020010568	-0.008960124	0
239	36447026	0.00126069	-0.000492111	0.706965115	0.707247124	0.003321785	0.020840354	0.00982193	0
240	36463693	0.001251843	-0.000496353	0.706961965	0.707250285	0.000477269	0.012154559	0.009771439	0
241	36480360	0.001256508	-0.000495175	0.706960405	0.707251837	-0.001267958	0.020540506	0.014893434	0
242	36497027	0.001251335	-0.000494284	0.706960551	0.707251702	0.007741332	0.020129002	-0.004375964	0
243	36513694	0.001247122	-0.000496731	0.706958822	0.707253436	0.007441719	0.018750699	0.001592739	0
244	36530361	0.001253532	-0.000496357	0.706956985	0.707255261	-0.001553125	0.016448602	0.000919444	0
245	36547028	0.001250247	-0.000494262	0.706954907	0.707257345	0.003351847	0.023935286	-0.012836182	0
246	36563695	0.001241001	-0.000492741	0.706952953	0.707259316	0.010250526	0.04628129	-0.010408868	0
247	36580362	0.001234525	-0.000484259	0.706944189	0.707268093	-0.000935115	0.036135265	0.001346728	0
248	36597029	0.001234503	-0.000471687	0.706942053	0.707270236	0.006611768	0.047262559	-0.008121045	0
249	36613696	0.001231199	-0.000467881	0.706943272	0.707269026	0.001845368	0.040338942	0.000806999	0
250	36630363	0.001227637	-0.000467953	0.70694131	0.707270993	0.010534321	0.036109599	0.004968736	0
251	36647030	0.001219646	-0.000467693	0.706939029	0.707273288	0.006034154	0.029040503	0.002225449	0
252	36663697	0.001208688	-0.000463298	0.706939697	0.707272641	0.013168269	0.024375468	0.006870202	0
253	36680364	0.001213807	-0.000470478	0.706936855	0.707275468	0.008711818	0.022343403	0.008226977	0
254	36697031	0.001216776	-0.000462835	0.706936482	0.707275841	-0.00277365	0.032294794	0.007222185	0
255	36713698	0.001213909	-0.000461887	0.706942684	0.707269648	0.010442821	0.045479524	0.004156738	0
256	36730365	0.001212721	-0.000457273	0.706938118	0.707274217	-0.005963504	0.025019422	-0.001273474	0
257	36747032	0.001216657	-0.000457132	0.706944566	0.707267765	-0.01387999	0.023074307	0.0047373	0
258	36763699	0.001210629	-0.000466109	0.706951649	0.70726069	3.98E-05	0.029886259	0.007301251	0
259	36780366	0.001210781	-0.000469045	0.70695001	0.707262325	0.014084862	0.007346265	-0.001806586	0
260	36797033	0.001210576	-0.00047102	0.706953118	0.707259218	0.016294785	0.015848524	-0.00916844	0
261	36813700	0.001208318	-0.0004687	0.706956359	0.707255984	0.006731823	0.028792432	0.002970814	0
262	36830367	0.001203146	-0.000470466	0.706958807	0.707253544	-0.006783419	0.018329451	-0.006639056	0
263	36847034	0.001201393	-0.000468499	0.706961958	0.707250399	-0.003485557	0.023280353	-0.002193205	0
264	36863701	0.001196171	-0.000468824	0.706959362	0.707253002	-0.005970932	0.018549884	-0.014689737	0
265	36880368	0.001195472	-0.000465311	0.706963493	0.707248877	-0.00285913	0.019761865	0.010362765	0
266	36897035	0.001199707	-0.000467454	0.706967391	0.707244971	0.01534215	0.009093687	0.002995316	0
267	36913702	0.001200596	-0.000460455	0.706971422	0.707240945	0.00655195	0.020670234	-0.001504014	0
268	36930369	0.001197618	-0.000451182	0.706971503	0.707240876	0.006685121	0.011872218	-0.004454395	0
269	36947036	0.001194923	-0.000446464	0.706972669	0.707239718	-0.000451456	0.038047289	-0.00823431	0
270	36963703	0.001195073	-0.000438751	0.706972064	0.707240327	0.014444458	0.049129261	-0.002580654	0
271	36980370	0.001192139	-0.00044328	0.706973045	0.707239348	0.000951251	0.026932627	-0.011908306	0
272	36997037	0.0011875	-0.000441431	0.706973621	0.707238782	-0.013065193	0.032452725	0.00037442	0
273	37013704	0.001190026	-0.000442025	0.706983791	0.70722861	0.002835347	0.039140179	-0.00425727	0
274	37030371	0.001181934	-0.000442598	0.706982431	0.707229983	0.008079739	0.019634682	-0.005768912	0
275	37047038	0.001176229	-0.000438303	0.706982892	0.707229534	0.015303309	0.022518348	0.002654369	0
276	37063705	0.001175048	-0.000440538	0.706981707	0.70723072	0.013124466	0.012646585	-0.010784234	0
277	37080372	0.001177928	-0.000444005	0.70698359	0.70722883	0.006482918	0.032215387	0.001686747	0
278	37097039	0.001181137	-0.000435245	0.706984567	0.707227854	0.008470281	0.019787764	0.017902915	0
279	37113706	0.001179201	-0.000435025	0.706982857	0.707229566	0.000493457	0.045253399	0.012659286	0
280	37130373	0.001175043	-0.000431922	0.706984013	0.70722842	0.008486539	0.030888021	0.004498112	0
281	37147040	0.001178674	-0.000432206	0.706983277	0.70722915	-0.001178466	0.026056822	-0.001549215	0
282	37163707	0.001177101	-0.000442839	0.706974593	0.707237826	-0.003718798	0.032628435	-0.004095091	0
283	37180374	0.001167984	-0.000442682	0.706975003	0.707237432	0.0071962	0.034523954	0.003594954	0
284	37197041	0.001173568	-0.000444154	0.706976746	0.707235679	0.007193074	0.025131172	0.005887935	0
285	37213708	0.001163504	-0.000438014	0.706969468	0.707242975	-0.000475897	0.026084561	0.006835736	0
286	37230375	0.001168559	-0.000438803	0.706971468	0.707240967	-0.001612873	0.000275981	0.011508072	0
287	37247042	0.001153093	-0.000430944	0.70696984	0.707242624	0.00967526	0.019501088	0.012036257	0
288	37263709	0.001158281	-0.000426027	0.706971083	0.707241377	-0.004565039	0.02758285	0.001905255	0
289	37280376	0.001159661	-0.000429871	0.7069661	0.707246353	0.009062879	0.020910612	0.011080609	0
290	37297043	0.00114222	-0.000429909	0.706961653	0.707250827	-0.005214914	0.034760145	0.005019589	0
291	37313710	0.00113496	-0.000433269	0.706963962	0.707248529	-0.008732796	0.032872722	-0.002201901	0
292	37330377	0.001127999	-0.000430997	0.706960368	0.707252133	0.010954585	0.021305961	-0.00185566	0
293	37347044	0.001124667	-0.000430664	0.706963482	0.707249026	0.001000759	0.042429511	0.004545182	0
294	37363711	0.001121319	-0.000435559	0.706969418	0.707243095	0.001107179	0.024625955	0.00877819	0
295	37380378	0.00112132	-0.000432735	0.706978669	0.707233849	0.001560153	0.037972796	0.002328374	0
296	37397045	0.001120428	-0.000432185	0.706983382	0.70722914	0.002493842	0.01499979	-0.011931254	0
297	37413712	0.00111881	-0.000431569	0.706983701	0.707228824	-0.003050239	0.035420382	0.012086174	0
298	37430379	0.001116663	-0.00042465	0.706981078	0.707231453	-0.000225496	0.000803689	-0.009289248	0
299	37447046	0.001115072	-0.0004319	0.706977583	0.707234945	0.008502372	0.029748217	-0.008707169	0
300	37463713	0.001118625	-0.000431896	0.706968056	0.707244463	0.005048781	0.022688916	-0.010063865	0
301	37480380	0.001116065	-0.000428204	0.706978865	0.707233664	-0.008574096	0.035462526	-0.003756187	0
302	37497047	0.001113689	-0.000430235	0.706972217	0.707240312	-0.000596198	0.038225386	-0.001151516	0
303	37513714	0.001106904	-0.000426282	0.70697	0.707242542	0.002142595	0.031406348	0.000351123	0
304	37530381	0.001094932	-0.000418004	0.706967331	0.707245233	-0.012390608	0.036625174	-0.003514514	0
305	37547048	0.001090876	-0.000414559	0.70696713	0.707245442	-0.008301566	0.011193232	-0.012934509	0
306	37563715	0.00108341	-0.000418712	0.706970901	0.707241681	-0.004819571	0.018937341	-0.005789064	0
307	37580382	0.001081412	-0.000416376	0.706966476	0.70724611	-0.003626063	0.028445389	-0.014002194	0
308	37597049	0.001079557	-0.00042237	0.706968518	0.707244067	-0.005507107	0.027179282	-0.004215141	0
309	37613716	0.00107957	-0.000419209	0.706973009	0.70723958	0.00781096	0.002661858	-0.001007534	0
310	37630383	0.001078111	-0.000413315	0.706971395	0.707241199	-0.002221667	0.030256098	-0.007593041	0
311	37647050	0.001075265	-0.000414584	0.706971363	0.707241235	-0.011873952	0.051256239	0.003445893	0
312	37663717	0.00108207	-0.000410529	0.70696637	0.707246217	-0.00575524	0.024426273	-0.001445886	0
313	37680384	0.00108737	-0.000402464	0.706969831	0.707242754	-0.001936739	0.035187126	-0.002573975	0
314	37697051	0.001075766	-0.000404878	0.706965835	0.707246765	0.00252903	0.032328946	-0.009733014	0
315	37713718	0.001072599	-0.000399389	0.706958449	0.707254156	-0.004145079	0.024898378	-0.001728753	0
316	37730385	0.001078022	-0.000389725	0.706954098	0.707258503	-0.001295274	0.030311646	0.003386071	0
317	37747052	0.001079114	-0.000383734	0.706956554	0.707256049	0.001819955	0.021979613	-0.002467122	0
318	37763719	0.001072799	-0.000371524	0.706953627	0.707258991	0.007005834	0.042271683	0.012702639	0
319	37780386	0.001073318	-0.000373955	0.706955842	0.707256775	0.008383856	0.017007957	-0.0035471	0
320	37797053	0.001072197	-0.000378511	0.706951834	0.707260781	0.003617895	0.01247742	0.007963535	0
321	37813720	0.001069229	-0.000370762	0.706950509	0.707262113	0.006773704	0.03443472	0.00639716	0
322	37830387	0.001065623	-0.000361703	0.706954694	0.70725794	-0.007706907	0.033203946	0.004000599	0
323	37847054	0.00106711	-0.000358402	0.706954001	0.707258632	0.000720407	0.049624775	0.001960849	0
324	37863721	0.001069282	-0.000359377	0.706956298	0.707256333	-0.00035842	0.048172471	0.004287302	0
325	37880388	0.001054248	-0.000353969	0.706957845	0.707254812	0.00109251	0.016155642	0.010549664	0
326	37897055	0.00104573	-0.000359705	0.706952345	0.707260319	-0.001835179	0.020770389	-0.006889886	0
327	37913722	0.001039553	-0.000343296	0.706950148	0.707262533	0.006522182	0.023735808	-0.007679497	0
328	37930389	0.001041599	-0.000325785	0.706949431	0.707263254	0.012570577	0.026515669	0.0076867	0
329	37947056	0.001038625	-0.000321031	0.706950077	0.707262615	0.005709957	0.035276861	-0.007945839	0
330	37963723	0.001027144	-0.000324904	0.706955631	0.707257078	0.010333272	0.052825823	-0.004880338	0
331	37980390	0.001028301	-0.00032652	0.706951775	0.70726093	0.003918015	0.023268801	0.00172399	0
332	37997057	0.001038649	-0.000325818	0.70695132	0.707261371	8.26E-05	0.029599962	-0.019546367	0
333	38013724	0.001043066	-0.000324767	0.706959499	0.707253189	5.40E-05	0.018026239	-0.003270435	0
334	38030391	0.001041347	-0.000329994	0.706965604	0.707247087	0.002738217	0.04862201	0.002018007	0
335	38047058	0.00104395	-0.000327763	0.706967641	0.707245047	-0.008346288	0.033704633	-0.001454697	0
336	38063725	0.001049212	-0.000329526	0.706972351	0.707240331	0.009951878	0.029373037	-0.000468542	0
337	38080392	0.001047597	-0.000328072	0.706977759	0.707234928	0.001463666	0.020878654	0.002039645	0
338	38097059	0.001041661	-0.000330272	0.706976948	0.707235746	-0.003409726	0.017235256	-0.010619222	0
339	38113726	0.001041662	-0.000329596	0.70697155	0.707241142	0.019879417	0.036770879	-0.011696266	0
340	38130393	0.001042526	-0.00032968	0.706961588	0.707251099	0.006517159	0.03080371	-0.00843252	0
341	38147060	0.00105022	-0.000323547	0.70696046	0.707252218	-0.008089471	0.047228826	-0.005616336	0
342	38163727	0.001034302	-0.000330312	0.70696452	0.70724818	-0.000794872	0.042557603	-0.003418343	0
343	38180394	0.001026446	-0.000331549	0.706969733	0.70724298	0.000912136	0.023769345	-0.002367238	0
344	38197061	0.001023971	-0.000337601	0.70697088	0.707241834	-0.003338177	0.034849303	-0.006921203	0
345	38213728	0.00102352	-0.000334298	0.7069668	0.707245915	0.000376935	0.050653335	0.009139362	0
346	38230395	0.001025286	-0.000330487	0.706978042	0.707234677	0.003259936	0.017427006	0.001956464	0
347	38247062	0.001021544	-0.000323665	0.706975238	0.707237488	0.004477803	0.019487346	0.0115409	0
348	38263729	0.001015298	-0.00032228	0.706980013	0.707232725	0.001748948	0.033597723	-0.009162801	0
349	38280396	0.00101154	-0.000317823	0.70698274	0.707230005	0.008580984	-0.004622246	-0.013783833	0
350	38297063	0.001012791	-0.000320906	0.706984276	0.707228467	0.016878396	0.0188722	-0.002771859	0
351	38313730	0.001011347	-0.000314953	0.706988816	0.707223933	0.017665268	0.02453176	0.007452393	0
352	38330397	0.001013784	-0.000319164	0.706992997	0.707219749	-0.009505824	0.027420289	-0.010514904	0
353	38347064	0.001009733	-0.000325841	0.706989271	0.707223476	0.0055042	0.02967209	-0.001028442	0
354	38363731	0.001010504	-0.000328353	0.706990485	0.70722226	0.013150281	0.00102989	-0.006884394	0
355	38380398	0.001010968	-0.000323337	0.706987487	0.707225259	-0.006274809	0.028263711	-0.007293433	0
356	38397065	0.001012715	-0.000319477	0.706986503	0.707226242	-0.003837692	0.052320598	-0.006500282	0
357	38413732	0.001008329	-0.000323908	0.706985354	0.707227394	0.017698768	0.031313773	-0.007700523	0
358	38430399	0.00099931	-0.000325448	0.706984976	0.707227784	-0.00067953	0.017266463	0.000868965	0
359	38447066	0.001044989	-0.000307318	0.706963514	0.70724918	-9.88E-05	0.040701532	0.002091453	0
360	38463733	0.001049802	-0.000309966	0.706966971	0.707245717	-0.00070989	0.009504372	-0.009828332	0
361	38480400	0.001061712	-0.000302986	0.706954107	0.70725856	-0.013518967	0.045755471	0.005661985	0
362	38497067	0.001061165	-0.000295543	0.706950422	0.707262248	-0.006309393	0.032739943	-0.004375872	0
363	38513734	0.001052673	-0.000293421	0.706955251	0.707257435	-0.00323822	0.027578309	0.004082114	0
364	38530401	0.001059162	-0.000289474	0.706957105	0.707255573	0.004887578	0.008674039	0.000849516	0
365	38547068	0.001055989	-0.000281615	0.706960965	0.707251723	0.004373793	0.014561717	-0.002320091	0
366	38563735	0.00104845	-0.000275391	0.706962668	0.707250034	0.003097044	0.049636718	0.008637453	0
367	38580402	0.001043658	-0.000264409	0.706963753	0.707248961	0.001404854	0.037388459	0.008869974	0
368	38597069	0.001047208	-0.000259253	0.706966109	0.707246603	0.00498049	0.027080638	-0.003180844	0
369	38613736	0.001048006	-0.000256856	0.706960652	0.707252058	0.001560456	0.022196142	-0.00737205	0
370	38630403	0.001050196	-0.000247117	0.70696061	0.707252099	-0.004327777	0.007419446	-0.005797886	0
371	38647070	0.001048343	-0.000245993	0.706960675	0.707252038	0.005376869	0.016273048	-0.009242399	0
372	38663737	0.001037407	-0.000247106	0.706962142	0.707250587	0.001931336	0.021846576	-0.005446574	0
373	38680404	0.001035536	-0.000256536	0.706970267	0.707242464	-0.005691923	0.007012337	-0.008397419	0
374	38697071	0.001035402	-0.000258246	0.706970856	0.707241875	-0.007796869	0.016972007	-0.0077423	0
375	38713738	0.001032357	-0.000258695	0.70697146	0.707241276	-0.005757642	0.015021466	-0.001482214	0
376	38730405	0.001031343	-0.000247192	0.706970497	0.707242244	-0.001411909	0.025866769	-0.003529652	0
377	38747072	0.001031291	-0.000248855	0.706965763	0.707246976	-0.007285262	0.017244629	-0.013065883	0
378	38763739	0.001024545	-0.000237663	0.706967373	0.707245379	0.001811569	0.039429812	0.0119194	0
379	38780406	0.001018895	-0.000243141	0.706967057	0.707245702	-0.002646899	0.02779994	0.002306536	0
380	38797073	0.001026172	-0.000236486	0.706956837	0.70725591	0.001729637	0.026670808	-0.011509906	0
381	38813740	0.001028885	-0.000240572	0.70695337	0.70725937	0.00785645	0.026660284	0.001615892	0
382	38830407	0.00103126	-0.000247886	0.706953267	0.707259467	-0.007052533	0.00232734	0.004387169	0
383	38847074	0.001037633	-0.000233282	0.706951435	0.707261294	0.004354422	0.00852916	-0.006696659	0
384	38863741	0.001037851	-0.000232673	0.706951737	0.707260992	-0.000309211	0.040385917	-0.004586262	0
385	38880408	0.001032703	-0.000232438	0.706951169	0.707261567	-0.002028756	0.032664744	0.003174286	0
386	38897075	0.001019133	-0.000227302	0.706949088	0.707263669	-0.007319072	0.017163345	0.006542289	0
387	38913742	0.001021662	-0.000221733	0.70694513	0.707267623	0.002828105	0.030419668	-0.013116935	0
388	38930409	0.001013034	-0.000213368	0.706940469	0.707272296	0.00687437	0.022161513	-0.001847338	0
389	38947076	0.001007479	-0.000197565	0.706947429	0.707265352	0.001637095	0.018190603	0.007799526	0
390	38963743	0.000993633	-0.000199136	0.706949353	0.707263449	0.007681608	0.012093334	0.006184429	0
391	38980410	0.000988079	-0.000201213	0.706944087	0.707268719	0.001301212	0.045823497	-0.006244827	0
392	38997077	0.000980606	-0.000201927	0.706947468	0.70726535	-0.002661961	0.004675639	-0.004302578	0
393	39013744	0.000994396	-0.000192701	0.706946668	0.707266133	0.003306769	0.033728629	0.00687509	0
394	39030411	0.000992737	-0.000193146	0.706939676	0.707273124	-0.003431287	0.040870527	0.000795531	0
395	39047078	0.000990753	-0.000189932	0.70693486	0.707277941	0.003113913	0.025955257	0.000711297	0
396	39063745	0.000983678	-0.00018697	0.706932152	0.707280658	0.002404735	0.025865106	-0.013915235	0
397	39080412	0.000991109	-0.000173674	0.706931885	0.707280918	0.001833625	0.012136515	-0.000680073	0
398	39097079	0.000997253	-0.000165679	0.706932193	0.707280604	-0.003441262	0.021056664	-0.003593858	0
399	39113746	0.000993815	-0.000158207	0.706936211	0.707276594	-0.000676369	0.047597884	-0.006062428	0
400	39130413	0.000989983	-0.000157514	0.706941	0.707271813	0.00914128	0.026576907	-0.015729919	0
401	39147080	0.000994384	-0.000159385	0.706934666	0.707278137	0.003593587	0.02388062	-0.011835281	0
402	39163747	0.000993345	-0.000151541	0.70693626	0.707276547	0.013670227	0.011771295	-0.013511882	0
403	39180414	0.000993442	-0.000161399	0.706930873	0.70728193	0.001969866	0.018427968	0.012737272	0
404	39197081	0.000980775	-0.000157373	0.706930909	0.707281912	0.001718331	0.0216205	-0.010614687	0
405	39213748	0.000980668	-0.000156837	0.706931996	0.707280826	-0.009445415	0.020789108	-0.013387618	0
406	39230415	0.000977439	-0.000154173	0.706931397	0.70728143	-0.005640201	0.012194691	0.005319704	0
407	39247082	0.000971779	-0.000155524	0.706925341	0.707287491	8.02E-05	0.028645973	0.004120901	0
408	39263749	0.000976242	-0.00015916	0.706927309	0.707285517	0.006741134	0.029449737	-0.003221463	0
409	39280416	0.00097496	-0.000148109	0.706926526	0.707286303	0.00306655	-0.01655996	-0.001241631	0
410	39297083	0.000979879	-0.000141454	0.706925624	0.707287199	-0.010889223	0.026786123	-0.006337036	0
411	39313750	0.000984173	-0.000142926	0.706927435	0.707285383	-7.76E-05	0.041496521	-0.00344578	0
412	39330417	0.000986281	-0.000137105	0.7069281	0.707284716	0.006385959	0.030015841	-0.000384536	0
413	39347084	0.00099125	-0.000135563	0.706927408	0.707285401	-0.008840355	0.042410377	0.008661011	0
414	39363751	0.0009838	-0.000133033	0.706922814	0.707290004	-0.004911683	0.035844122	-0.003978582	0
415	39380418	0.00097905	-0.000131295	0.706916994	0.707295828	0.002507239	0.029724007	0.004456766	0
416	39397085	0.000976542	-0.00013875	0.706921236	0.70729159	0.014777818	0.01830494	0.005124462	0
417	39413752	0.00097085	-0.000132528	0.706926013	0.707286825	0.00871775	0.022489068	0.004985974	0
418	39430419	0.000967437	-0.000125997	0.706925553	0.70728729	0.000218337	0.02396083	0.02372164	0
419	39447086	0.000958948	-0.00011613	0.706929284	0.707283574	0.000378731	0.018168253	0.004664143	0
420	39463753	0.000963302	-0.00011657	0.70693566	0.707277196	0.005555136	0.042023359	0.027021678	0
421	39480420	0.000958448	-0.000110193	0.706935725	0.707277138	0.004011297	0.034286816	0.004532111	0
422	39497087	0.000952656	-0.000112826	0.70694032	0.707272552	-0.000342614	0.019967442	0.008358258	0
423	39513754	0.000945076	-0.000109506	0.706945659	0.707267226	-0.003134031	0.021096744	0.016335071	0
424	39530421	0.000949833	-0.00010992	0.70695175	0.707261132	-0.010009762	0.026806403	0.004269573	0
425	39547088	0.0009584	-0.00010718	0.706949684	0.707263186	0.002754809	0.024534874	0.00982566	0
426	39563755	0.000950772	-0.000110529	0.70695344	0.707259441	-0.005137399	0.040733734	-0.012454129	0
427	39580422	0.000941904	-0.000108611	0.706952649	0.707260244	-0.003087054	0.021312415	0.006102102	0
428	39597089	0.000948698	-0.000109829	0.70694421	0.70726867	0.005019974	0.053630171	0.001718838	0
429	39613756	0.000941853	-0.00010673	0.706943221	0.707269668	-0.008316758	0.034102715	-0.012061812	0
430	39630423	0.000937233	-0.000118784	0.706940222	0.70727267	0.008464319	0.035248262	-0.003187294	0
431	39647090	0.000935249	-0.000112337	0.706939407	0.707273489	0.002346835	0.017307365	0.005096773	0
432	39663757	0.000929863	-0.000115665	0.706933764	0.707279136	0.006047688	0.027605795	-0.008482977	0
433	39680424	0.000909988	-0.000116911	0.706932799	0.707280125	0.005139548	-0.008267591	-0.005664666	0
434	39697091	0.000951596	-8.32E-05	0.706936667	0.707276209	-0.014757008	0.087339866	-0.003682385	0
435	39713758	0.000921803	-0.000115427	0.706939692	0.707273221	0.015671117	0.009674323	0.000492345	0
436	39730425	0.000917765	-0.00011923	0.706938396	0.707274521	0.004924519	0.014502947	-0.006641887	0
437	39747092	0.000928659	-0.000103876	0.70694082	0.707272086	0.001178132	0.034816049	0.002201542	0
438	39763759	0.000910973	-0.00010541	0.706942545	0.707270385	-0.002153626	-0.002153717	-0.002014917	0
439	39780426	0.00092087	-9.08E-05	0.706940916	0.707272002	0.011919416	0.027225285	-0.000824994	0
440	39797093	0.00092088	-0.000100265	0.706933834	0.707279079	0.005754469	0.016427654	-0.018030371	0
441	39813760	0.000913897	-0.00010501	0.706936755	0.707276169	-0.010140272	0.022362803	0.009847881	0
442	39830427	0.00091637	-9.05E-05	0.706939386	0.707273538	-0.008255019	0.02883579	-0.010302249	0
443	39847094	0.000900121	-9.41E-05	0.706940054	0.70727289	0.003744233	0.030469556	0.007699937	0
444	39863761	0.000896397	-9.29E-05	0.706935999	0.707276948	0.003404646	0.006506673	0.00449715	0
445	39880428	0.000890156	-8.85E-05	0.706935847	0.707277108	0.013422848	0.032350325	0.011783377	0
446	39897095	0.00088637	-7.61E-05	0.706941173	0.707271791	-8.05E-05	0.027534044	0.007470375	0
447	39913762	0.000881164	-7.15E-05	0.706941763	0.707271209	0.00319411	0.013026865	0.002674371	0
448	39930429	0.00088163	-6.60E-05	0.706945633	0.70726734	-0.001715536	0.024775958	0.004428308	0
449	39947096	0.000869937	-6.30E-05	0.706944003	0.707268984	-0.008667915	0.023896031	0.012498259	0
450	39963763	0.000873009	-5.95E-05	0.706940689	0.707272293	-0.005701487	0.030612037	0.012378535	0
451	39980430	0.000881894	-6.32E-05	0.706943526	0.707269446	0.005963142	0.036955768	0.00209037	0
452	39997097	0.000883168	-6.25E-05	0.706943202	0.707269769	0.004245191	-0.000710807	-0.001049245	0
453	40013764	0.00089045	-5.03E-05	0.706947703	0.707265261	-0.009863224	0.020917263	0.00643543	0
454	40030431	0.000889013	-5.54E-05	0.706945295	0.707267669	0.01388562	0.035032836	-0.001744993	0
455	40047098	0.000879237	-5.79E-05	0.706942925	0.707270051	-0.000189185	0.007730925	-0.00232984	0
456	40063765	0.000879528	-5.08E-05	0.706943852	0.707269124	-0.007510686	0.011810942	0.003059517	0
457	40080432	0.000877229	-4.79E-05	0.706944267	0.707268713	0.004976699	0.042966708	-0.009884942	0
458	40097099	0.000873501	-4.51E-05	0.706950096	0.707262891	0.009071984	0.017464453	0.000175023	0
459	40113766	0.000872508	-5.26E-05	0.706959198	0.707253793	0.001390376	0.017019261	0.010417004	0
460	40130433	0.000873226	-4.93E-05	0.706964213	0.70724878	-0.008360293	0.037726821	0.001384758	0
461	40147100	0.000861733	-4.96E-05	0.706962038	0.707250968	0.006818909	0.027824113	0.008583625	0
462	40163767	0.000851947	-4.87E-05	0.706961896	0.707251122	-1.42E-05	0.026658494	-0.008941092	0
463	40180434	0.000852084	-4.56E-05	0.706964986	0.707248033	-0.001578881	0.035852784	0.008591189	0
464	40197101	0.000842984	-4.24E-05	0.706962258	0.707250771	0.005393553	0.020590491	-0.007476416	0
465	40213768	0.000846405	-3.94E-05	0.706965435	0.707247591	0.011388662	0.032649439	0.00081553	0
466	40230435	0.000840581	-4.09E-05	0.706970697	0.707242339	-0.007606754	0.026534284	0.008077317	0
467	40247102	0.000826174	-3.96E-05	0.706971717	0.707241336	-0.005239133	0.035295314	0.00521492	0
468	40263769	0.000830059	-2.25E-05	0.706969031	0.707244017	0.000588293	0.025048912	0.001963741	0
469	40280436	0.000820739	-2.49E-05	0.706972279	0.707240781	-0.001209169	0.023697842	-0.005396791	0
470	40297103	0.000823341	-1.86E-05	0.706973249	0.707239808	0.020168616	0.029935413	-0.004087978	0
471	40313770	0.000825513	-1.21E-05	0.70697075	0.707242304	0.004304613	0.041277892	-0.017641531	0
472	40330437	0.00082483	-7.60E-06	0.70697437	0.707238687	0.00892848	0.015094181	-0.010513798	0
473	40347104	0.000816438	-1.06E-05	0.706980251	0.707232818	0.000527909	0.035221567	0.000127456	0
474	40363771	0.000820343	-6.53E-08	0.70697568	0.707237383	0.001776879	0.028401528	0.001122217	0
475	40380438	0.000826735	5.88E-06	0.706973113	0.707239941	-0.006535508	0.056186901	0.000662421	0
476	40397105	0.000824803	-2.40E-06	0.706969679	0.707243376	-0.011227199	0.044323252	0.003395057	0
477	40413772	0.000831091	-3.30E-06	0.706967035	0.707246012	-0.006176155	0.015086587	-0.020819248	0
478	40430439	0.000828563	4.05E-06	0.706967983	0.707245067	0.00203124	0.036511743	-0.001095965	0
479	40447106	0.000892985	-0.000121632	0.706948512	0.707264441	-0.008895099	0.019098091	-0.005510685	0
480	40463773	0.000883406	-0.000120233	0.706947095	0.70726587	-0.004169106	0.031231757	-0.010240635	0
481	40480440	0.000880242	-0.000115245	0.706947525	0.707265444	-0.007554599	0.032625326	0.019302749	0
482	40497107	0.000876585	-0.000114357	0.706951797	0.707261179	0.005132437	0.000642742	0.011309063	0
483	40513774	0.000865616	-0.000115807	0.706951622	0.707261367	-0.00100696	0.030302865	-0.000744331	0
484	40530441	0.000862284	-0.000111203	0.706952561	0.707260434	0.005074931	0.021871778	0.004198744	0
485	40547108	0.000860123	-0.000113847	0.706950482	0.707262513	-0.004980961	0.034232627	-0.009051246	0
486	40563775	0.000858802	-0.000114874	0.706954466	0.707258532	-0.00926094	0.024421494	-0.003606242	0
487	40580442	0.000847822	-0.000118414	0.706954385	0.707258626	0.008678686	0.034490275	-0.007399765	0
488	40597109	0.000842853	-0.000113284	0.706950333	0.707262683	0.002060099	0.033467164	-0.002788038	0
489	40613776	0.000843162	-0.000111673	0.706955791	0.707257228	-0.000736515	0.023027198	0.001702947	0
490	40630443	0.000843817	-0.000103314	0.706957499	0.707255521	0.00163161	0.02384822	0.000975264	0
491	40647110	0.000843807	-0.000111405	0.706961077	0.707251943	0.007935072	0.026269669	0.008392216	0
492	40663777	0.000840134	-0.000106535	0.706963721	0.707249306	0.008274261	0.018136769	0.00465155	0
493	40680444	0.000834235	-0.00010685	0.706967308	0.707245727	-0.0094863	0.041704381	0.0091164	0
494	40697111	0.000836551	-0.000105033	0.706968542	0.707244491	0.009480043	0.016636276	-0.003658115	0
495	40713778	0.000821543	-0.000113896	0.706966855	0.707246193	0.00896739	0.022005235	0.013713568	0
496	40730445	0.0008177	-0.000114692	0.706972062	0.707240993	-0.01273398	0.027697831	-0.002484118	0
497	40747112	0.000811725	-0.000117262	0.706966143	0.707246916	0.003023958	0.015819073	-0.004007108	0
498	40763779	0.000808542	-0.000113225	0.706969923	0.707243142	-0.01332043	0.011889309	-0.00042535	0
499	40780446	0.000809657	-0.000109301	0.706964082	0.707248979	0.003027814	0.025995439	0.010414485	0
500	40797113	0.000810706	-0.00010285	0.706958835	0.707254224	-0.005061216	0.044201517	-0.003520751	0
501	40813780	0.000807822	-0.000101259	0.706955345	0.707257717	-0.000334277	0.029767126	-0.005087063	0
502	40830447	0.000816183	-9.44E-05	0.706954359	0.707258693	-0.012156684	-0.006776413	0.006678728	0
503	40847114	0.000810976	-9.30E-05	0.706958235	0.707254825	-0.002495994	0.036817551	0.003692626	0
504	40863781	0.000813788	-9.40E-05	0.706958806	0.707254251	-0.010248462	0.039159902	-0.005844286	0
505	40880448	0.000807461	-8.71E-05	0.706953963	0.7072591	0.010681347	0.026164445	0.010830904	0
506	40897115	0.000801291	-9.02E-05	0.706952066	0.707261003	8.12E-05	0.03349498	-0.003426	0
507	40913782	0.000798153	-8.85E-05	0.706950498	0.707262574	0.000390017	0.011187271	0.006255772	0
508	40930449	0.000787005	-8.20E-05	0.706944346	0.707268737	0.006157276	0.025452694	0.002278671	0
509	40947116	0.000791438	-7.60E-05	0.706946874	0.707266205	-0.005090547	0.048793657	-0.0081092	0
510	40963783	0.000787746	-7.26E-05	0.706946223	0.70726686	0.007246995	0.030279738	-0.016557259	0
511	40980450	0.000788267	-6.52E-05	0.706943008	0.707270074	0.010412547	0.025199305	-0.002514087	0
512	40997117	0.000790565	-5.43E-05	0.706950843	0.707262241	-0.004189104	0.010805855	-0.010005875	0
513	41013784	0.000783606	-5.66E-05	0.70695403	0.707259063	-0.008285794	0.021287476	0.00174423	0
514	41030451	0.000777617	-5.90E-05	0.706951953	0.707261145	0.006768107	0.010769481	0.000974113	0
515	41047118	0.000776298	-4.91E-05	0.706949861	0.707263239	-0.003399425	0.013302323	-0.000182389	0
516	41063785	0.000782018	-4.01E-05	0.706950997	0.707262097	0.002074361	0.020999071	-0.001644807	0
517	41080452	0.000788612	-3.26E-05	0.706949899	0.707263188	-0.000750149	0.030787439	-0.0102765	0
518	41097119	0.000787143	-4.07E-05	0.706959439	0.707253654	0.008250492	0.02353182	-0.000575035	0
519	41113786	0.000790152	-3.86E-05	0.706967163	0.70724593	-0.001203712	0.02593038	-0.01460267	0
520	41130453	0.000795113	-3.41E-05	0.706972998	0.707240091	0.00023873	0.032663697	-0.00828017	0
521	41147120	0.000795058	-3.60E-05	0.70697023	0.707242858	-0.002738062	0.023728907	0.000155256	0
522	41163787	0.000799164	-2.48E-05	0.706966218	0.707246865	0.001107325	0.028652959	-0.008230153	0
523	41180454	0.000790433	-1.86E-05	0.706961434	0.707251657	0.003719204	-0.055811481	0.012115059	0
524	41197121	0.000842833	2.89E-05	0.706964028	0.707249002	0.006916006	0.148706661	-0.022224071	0
525	41213788	0.000738035	-5.98E-05	0.706972276	0.707240873	-0.011746437	-0.059809242	0.003093643	0
526	41230455	0.000800643	-8.94E-06	0.706967686	0.707245395	-0.000173862	-0.037366573	-0.008059514	0
527	41247122	0.000818187	1.44E-05	0.706970234	0.707242828	0.014960155	0.103904131	-5.59E-05	0
528	41263789	0.000775523	-2.71E-05	0.706974461	0.707238651	0.011854827	-0.000560529	0.006199638	0
529	41280456	0.000792647	-7.12E-07	0.706961769	0.70725132	-0.006237667	0.023027419	0.007323583	0
530	41297123	0.000775674	-1.11E-05	0.706967334	0.707245776	-0.002360919	0.048542059	0.009175381	0
531	41313790	0.000778557	-1.59E-05	0.706967129	0.707245977	-0.009291165	-0.029180833	-0.013832376	0
532	41330457	0.000804486	-3.41E-07	0.70696155	0.707251525	0.001962829	0.042462531	-0.011322888	0
533	41347124	0.000797001	-4.74E-06	0.706968204	0.707244882	-0.006160948	0.048370351	-0.008947814	0
534	41363791	0.000781117	-1.83E-05	0.706970636	0.707242468	0.002215819	-0.023935772	-0.005182853	0
535	41380458	0.000792388	2.42E-06	0.706967834	0.707245257	0.015281597	0.043470004	0.005142196	0
536	41397125	0.000780483	-1.28E-05	0.706969582	0.707243523	0.00436368	0.015233627	-0.001838866	0
537	41413792	0.000773961	-1.93E-05	0.706965998	0.707247112	0.001545059	0.009203826	0.015568447	0
538	41430459	0.000785857	-1.15E-05	0.706959785	0.70725331	-0.005610749	0.024417859	-0.002465944	0
539	41447126	0.000778282	-1.82E-05	0.706958892	0.707254211	-0.003644557	0.026147538	-0.007840149	0
540	41463793	0.00078197	-1.84E-05	0.706959574	0.707253525	-0.006174826	-0.003574638	0.015150084	0
541	41480460	0.000784004	-1.81E-05	0.706955451	0.707257644	0.01527556	0.021742808	-0.005266864	0
542	41497127	0.000765229	-2.12E-05	0.706956557	0.707256559	-0.002757701	0.028384726	0.00339383	0
543	41513794	0.000768622	-1.33E-05	0.706953091	0.70726002	0.008192703	0.010440474	-0.003997928	0
544	41530461	0.00077632	-6.00E-06	0.706959403	0.707253702	-0.005249841	0.038718644	0.005717778	0
545	41547128	0.000763161	-1.72E-05	0.706961301	0.70725182	0.004788425	0.033725558	-1.63E-05	0
546	41563795	0.000763426	-1.92E-05	0.706955338	0.707257779	0.004249835	0.006828957	-0.000211482	0
547	41580462	0.00076781	-2.18E-06	0.706955533	0.707257581	-0.004908263	0.060274074	-0.006467361	0
548	41597129	0.000761823	-3.22E-06	0.706958691	0.70725443	-0.002866715	0.024346699	0.002953337	0
549	41613796	0.000759934	3.58E-07	0.706950314	0.707262806	-0.002177687	0.027497415	0.010578416	0
550	41630463	0.000749279	7.24E-06	0.706953005	0.707260127	0.002649205	0.034703454	9.69E-05	0
551	41647130	0.000735078	2.41E-06	0.70695283	0.707260317	0.015436864	0.015521249	-0.004376392	0
552	41663797	0.000726149	8.65E-06	0.706946076	0.707267077	-0.002361143	0.017830667	-0.006697766	0
553	41680464	0.000720905	9.23E-06	0.706942245	0.707270911	-0.004921946	0.044770081	0.002696975	0
554	41697131	0.000713468	9.87E-06	0.706940493	0.70727267	-0.001534312	0.011334188	0.006611876	0
555	41713798	0.000725603	7.45E-06	0.706937495	0.707275654	-0.00196146	0.022909817	0.002101283	0
556	41730465	0.000721633	4.58E-06	0.706936736	0.707276417	-0.006661456	0.035935124	-0.001413819	0
557	41747132	0.000719829	4.14E-06	0.706937116	0.707276039	0.009340547	0.01548067	-0.000390952	0
558	41763799	0.000722629	8.62E-06	0.706931514	0.707281635	0.006861341	0.035087505	-0.004893611	0
559	41780466	0.00072124	1.30E-05	0.706932837	0.707280315	0.006854286	0.028259127	0.005669929	0
560	41797133	0.000713501	6.55E-06	0.70692957	0.707283588	-0.001959076	0.050259225	0.000548815	0
561	41813800	0.000724315	1.71E-05	0.706930847	0.707282301	0.003355033	0.01852164	-0.001149878	0
562	41830467	0.000718498	1.86E-05	0.706932708	0.707280446	0.004786005	0.024929088	-0.002639954	0
563	41847134	0.000721609	2.01E-05	0.706933985	0.707279167	-0.008260938	0.036387191	-0.005187606	0
564	41863801	0.000724009	2.87E-05	0.706937428	0.707275723	-0.001712662	0.010956624	-0.00905056	0
565	41880468	0.000722312	3.34E-05	0.706937648	0.707275505	-0.011342662	0.033409175	0.007565732	0
566	41897135	0.000724439	3.32E-05	0.706932722	0.707280425	-0.012101059	0.027333613	-0.001414775	0
567	41913802	0.00073596	3.22E-05	0.706929313	0.707283821	0.001426633	0.04351179	-0.001065933	0
568	41930469	0.000742882	3.67E-05	0.706929795	0.707283332	0.018731696	0.022950071	0.007106056	0
569	41947136	0.000744245	3.25E-05	0.70692634	0.707286784	0.006449176	0.012731751	0.00969309	0
570	41963803	0.000748252	3.82E-05	0.706919166	0.707293949	0.008425059	0.035501712	-0.012335741	0
571	41980470	0.000746013	4.03E-05	0.706922999	0.707290121	0.009474322	0.045145332	0.006422489	0
572	41997137	0.000742155	4.05E-05	0.706925805	0.70728732	0.00342883	0.02499828	-0.009146087	0
573	42013804	0.000740069	4.59E-05	0.706923628	0.707289498	0.00507684	0.029107816	-0.016759291	0
574	42030471	0.000728079	5.50E-05	0.706920811	0.707292325	0.006361778	0.010443151	-0.012300724	0
575	42047138	0.000725281	6.21E-05	0.70692237	0.707290769	0.01525272	0.008714006	0.005215581	0
576	42063805	0.00072102	7.24E-05	0.706917502	0.707295639	0.011604028	0.025217803	0.00548317	0
577	42080472	0.000716884	7.63E-05	0.706915975	0.707297168	-0.004259545	0.024265934	0.003680172	0
578	42097139	0.000712705	7.85E-05	0.706911489	0.707301656	-0.005981508	0.037183227	0.008386682	0
579	42113806	0.000710197	7.57E-05	0.706912013	0.707301135	0.000132163	0.020225356	0.004618645	0
580	42130473	0.000701654	6.78E-05	0.706918717	0.707294444	-0.00398535	0.045802891	-0.006470121	0
581	42147140	0.000692207	7.30E-05	0.706915501	0.707297667	0.000890068	0.02921419	-0.007403277	0
582	42163807	0.000692439	7.52E-05	0.706914514	0.707298653	0.006840518	0.009094972	-0.000611411	0
583	42180474	0.000684991	7.39E-05	0.706916915	0.707296261	-0.003961334	0.026205743	-0.005665486	0
584	42197141	0.000688576	8.06E-05	0.706921891	0.707291283	0.00333299	0.008299193	-0.004699281	0
585	42213808	0.000680576	7.57E-05	0.70692123	0.707291953	-0.003573798	0.026712479	-4.37E-05	0
586	42230475	0.000672328	7.44E-05	0.706930531	0.707282664	-0.005885647	0.027137847	0.00105764	0
587	42247142	0.000673707	7.23E-05	0.706931564	0.70728163	0.005066397	0.028869194	0.001986067	0
588	42263809	0.000674859	7.56E-05	0.70693461	0.707278585	-0.003084985	0.04116504	0.002326423	0
589	42280476	0.000679031	6.58E-05	0.706933878	0.707279314	-0.009115868	0.047061502	0.008723338	0
590	42297143	0.000680752	7.08E-05	0.706930926	0.707282262	-0.006761293	0.02576982	-0.003493043	0
591	42313810	0.000681128	6.88E-05	0.706929258	0.707283928	-0.00017754	0.007418625	0.008367466	0
592	42330477	0.000674231	7.87E-05	0.706932349	0.707280845	-0.005065286	0.033261472	-0.001767086	0
593	42347144	0.000658526	6.18E-05	0.706924443	0.707288763	0.003707123	0.028115935	0.006213951	0
594	42363811	0.000660203	6.36E-05	0.70692593	0.707287275	-0.000943167	0.017972806	-0.00699102	0
595	42380478	0.000670929	7.17E-05	0.706917693	0.707295497	0.00816734	0.029713146	-0.004195938	0
596	42397145	0.000679008	6.90E-05	0.706917684	0.707295499	-0.003725674	0.015223642	0.007482057	0
597	42413812	0.000672283	7.16E-05	0.706922091	0.7072911	-0.007220601	0.016637264	-0.01457372	0
598	42430479	0.000682406	7.83E-05	0.706922196	0.707290984	0.004704464	0.023459021	0.015528938	0
599	42447146	0.000777531	-2.36E-06	0.706922168	0.707290919	0.002230722	0.039302398	0.001005973	0
600	42463813	0.000779336	-1.88E-06	0.706921146	0.707291939	0.002467567	0.003472202	0.011367921	0
601	42480480	0.000774819	-5.50E-06	0.706919409	0.70729368	-0.005178251	0.031263029	0.004002491	0
602	42497147	0.0007777	-1.23E-05	0.706915547	0.707297536	0.004659053	0.043728679	0.016954412	0
603	42513814	0.000771204	-1.79E-05	0.706918009	0.707295083	-0.004003917	0.031047255	0.003723952	0
604	42530481	0.000772563	-1.93E-05	0.706918495	0.707294595	0.007254812	0.022519402	0.003819359	0
605	42547148	0.000776847	-7.07E-06	0.706913921	0.707299162	0.005685956	0.024843024	0.007942234	0
606	42563815	0.000778278	4.53E-07	0.70691788	0.707295204	0.009334136	0.027137351	0.001230969	0
607	42580482	0.000776368	-2.98E-06	0.706920782	0.707292305	-0.002730734	0.028412991	-0.001371354	0
608	42597149	0.000784215	1.50E-07	0.706919446	0.707293632	0.004985034	0.018224607	0.009251219	0
609	42613816	0.000780121	4.46E-06	0.706919677	0.707293406	0.018710201	0.036173714	0.017290078	0
610	42630483	0.000780184	1.34E-05	0.706919993	0.707293089	-0.006600691	0.028467072	-0.002700217	0
611	42647150	0.000780995	2.15E-05	0.706921313	0.707291769	0.004873616	0.02144041	0.000232396	0
612	42663817	0.000769691	2.99E-05	0.706928623	0.707284475	-0.001250562	0.011872174	-0.00666559	0
613	42680484	0.000770619	2.59E-05	0.706929858	0.70728324	0.010458679	-0.002407108	0.000192288	0
614	42697151	0.000762508	2.58E-05	0.706929072	0.707284034	-0.001605614	0.005439311	-0.003934793	0
615	42713818	0.000755352	2.08E-05	0.706934305	0.707278812	0.001417895	-0.005606474	-0.011020652	0
616	42730485	0.000756823	2.97E-05	0.706934683	0.707278432	-0.012777825	0.008981932	-0.006983455	0
617	42747152	0.00075329	4.09E-05	0.70693483	0.707278288	0.001760534	0.011071381	0.001492993	0
618	42763819	0.000753747	4.26E-05	0.706925842	0.707287271	-0.0022445	0.017256427	0.001464926	0
