sep=,
DeviceTag:,Xsens_5,,,,,,,,,,,,,,,,,
FirmwareVersion:,2.2.1,,,,,,,,,,,,,,,,,
AppVersion:,2023.0.0,,,,,,,,,,,,,,,,,
StartTime:,2023-07-03 13:36:14.000 +0200,,,,,,,,,,,,,,,,,
© Movella Technologies B. V. 2005-2023,,,,,,,,,,,,,,,,,,,

PacketCounter,SampleTimeFine,Quat_W,Quat_X,Quat_Y,Quat_Z,Acc_X,Acc_Y,Acc_Z,Gyr_X,Gyr_Y,Gyr_Z,Mag_X,Mag_Y,Mag_Z,Status,
0, 2022930953, 0.1628755, -0.57527614, -0.14170127, -0.7889549, 0.0, 0.0, 0.0, 0.0, 0.0, 0.0, -0.84228515625, -1.02978515625, 0.2841796875, 0, 
1, 2022947620, 0.16279413, -0.575814, -0.14127062, -0.78865653, 9.495112419128418, 0.259018212556839, 2.975609064102173, -1.5918679237365723, -4.148245811462402, -4.049317359924316, -0.84130859375, -1.03271484375, 0.2841796875, 0, 
2, 2022964287, 0.16267963, -0.57628167, -0.14069693, -0.78844106, 9.55674934387207, 0.2654778063297272, 2.963726758956909, -1.1805789470672607, -3.720296621322632, -4.051826477050781, -0.841796875, -1.033935546875, 0.28515625, 0, 
3, 2022980954, 0.16247977, -0.5767647, -0.14030771, -0.7881984, 9.553319931030273, 0.25996336340904236, 2.967583417892456, -1.4017062187194824, -3.4677038192749023, -4.032783508300781, -0.839111328125, -1.035400390625, 0.287353515625, 0, 
4, 2022997621, 0.16221115, -0.5771637, -0.14004378, -0.7880085, 9.54341983795166, 0.23969832062721252, 2.9739999771118164, -1.4839744567871094, -3.1123149394989014, -4.009092330932617, -0.84033203125, -1.03662109375, 0.2880859375, 0, 
5, 2023014288, 0.16192137, -0.5774919, -0.13981417, -0.7878686, 9.528497695922852, 0.23819434642791748, 2.9722964763641357, -1.6606636047363281, -2.9008820056915283, -3.921945095062256, -0.84033203125, -1.04052734375, 0.286376953125, 0, 
6, 2023030955, 0.16148156, -0.5777624, -0.13951835, -0.78781277, 9.49843692779541, 0.2242967188358307, 2.935906171798706, -2.0007617473602295, -2.5082902908325195, -3.8778655529022217, -0.84033203125, -1.0400390625, 0.2890625, 0, 
7, 2023047622, 0.16111198, -0.5779996, -0.13928592, -0.7877556, 9.494263648986816, 0.19890406727790833, 2.941436529159546, -2.3451502323150635, -2.2111315727233887, -3.7681145668029785, -0.83984375, -1.04150390625, 0.290771484375, 0, 
8, 2023064289, 0.16078365, -0.57821095, -0.13900658, -0.7877168, 9.514418601989746, 0.2355082631111145, 2.909187078475952, -2.6956088542938232, -1.895224928855896, -3.3802106380462646, -0.838623046875, -1.042236328125, 0.2880859375, 0, 
9, 2023080956, 0.16036543, -0.5784307, -0.13864079, -0.78770536, 9.516946792602539, 0.22246111929416656, 2.917370319366455, -3.193788766860962, -1.5706478357315063, -3.0076229572296143, -0.841552734375, -1.0439453125, 0.28857421875, 0, 
10, 2023097623, 0.1599764, -0.57863915, -0.13826488, -0.78769743, 9.514711380004883, 0.21827958524227142, 2.930816650390625, -3.455371618270874, -1.3750948905944824, -2.6759254932403564, -0.837646484375, -1.045166015625, 0.287353515625, 0, 
11, 2023114290, 0.15957294, -0.5788286, -0.13781917, -0.7877182, 9.530950546264648, 0.22419995069503784, 2.9128129482269287, -3.682555913925171, -1.0995659828186035, -2.2563252449035645, -0.83984375, -1.04345703125, 0.286865234375, 0, 
12, 2023130957, 0.1592473, -0.5789976, -0.13734955, -0.7877419, 9.528115272521973, 0.2217843383550644, 2.9158926010131836, -3.8521499633789062, -0.8188763856887817, -1.6680269241333008, -0.83642578125, -1.04345703125, 0.2841796875, 0, 
13, 2023147624, 0.15890731, -0.5791647, -0.13680404, -0.78778267, 9.531283378601074, 0.23519723117351532, 2.921542167663574, -4.030043125152588, -0.629867434501648, -1.197957158088684, -0.838134765625, -1.046142578125, 0.28515625, 0, 
14, 2023164291, 0.15865983, -0.57930696, -0.13624877, -0.7878242, 9.515557289123535, 0.21924617886543274, 2.9314563274383545, -3.918654203414917, -0.39145174622535706, -0.5581135749816895, -0.8369140625, -1.04296875, 0.282470703125, 0, 
15, 2023180958, 0.15848519, -0.5794278, -0.13570338, -0.78786457, 9.510673522949219, 0.20569787919521332, 2.944464921951294, -3.546180486679077, -0.24868649244308472, -0.09092508256435394, -0.837890625, -1.045654296875, 0.28173828125, 0, 
16, 2023197625, 0.1583851, -0.5795186, -0.13522017, -0.787901, 9.518479347229004, 0.17738628387451172, 2.937255620956421, -2.8257083892822266, -0.14212486147880554, 0.15409240126609802, -0.833984375, -1.045166015625, 0.279052734375, 0, 
17, 2023214292, 0.15830828, -0.57959837, -0.13475175, -0.787938, 9.523168563842773, 0.17915013432502747, 2.942594289779663, -2.360248565673828, -0.07498118281364441, 0.3399253487586975, -0.836181640625, -1.045166015625, 0.28076171875, 0, 
18, 2023230959, 0.1583113, -0.5796387, -0.13430926, -0.78798324, 9.486531257629395, 0.21399769186973572, 2.9210634231567383, -2.207481622695923, 0.1957770735025406, 0.579365611076355, -0.835693359375, -1.045654296875, 0.28173828125, 0, 
19, 2023247626, 0.15834612, -0.5796401, -0.13382924, -0.78805697, 9.417936325073242, 0.23401719331741333, 2.9088988304138184, -2.4346535205841064, 0.5981525778770447, 0.9027516841888428, -0.834716796875, -1.045166015625, 0.282958984375, 0, 
20, 2023264293, 0.15842158, -0.5796404, -0.13337879, -0.7881178, 9.41817855834961, 0.1834089756011963, 2.9090259075164795, -2.2961783409118652, 0.5550591945648193, 1.0957560539245605, -0.834716796875, -1.0439453125, 0.279541015625, 0, 
21, 2023280960, 0.15855822, -0.57961947, -0.13305426, -0.7881607, 9.465364456176758, 0.12188936024904251, 2.9145655632019043, -1.0880147218704224, 0.5299075841903687, 1.0606155395507812, -0.83349609375, -1.04296875, 0.279541015625, 0, 
22, 2023297627, 0.15883142, -0.57953066, -0.13290434, -0.7881963, 9.468274116516113, 0.14755764603614807, 2.9229085445404053, 0.4342312812805176, 0.8191516995429993, 1.0286122560501099, -0.835205078125, -1.044189453125, 0.275634765625, 0, 
23, 2023314294, 0.1591427, -0.5794386, -0.13281164, -0.7882169, 9.453193664550781, 0.18086591362953186, 2.9112908840179443, 1.2320923805236816, 0.7681055665016174, 1.1493762731552124, -0.835205078125, -1.04296875, 0.279541015625, 0, 
24, 2023330961, 0.15953748, -0.5793257, -0.13276358, -0.788228, 9.457808494567871, 0.16592004895210266, 2.88696026802063, 1.553301453590393, 0.88148033618927, 1.3933629989624023, -0.836669921875, -1.04345703125, 0.27734375, 0, 
25, 2023347628, 0.15992334, -0.57922566, -0.13274658, -0.7882262, 9.480142593383789, 0.1406136006116867, 2.8645472526550293, 1.8489360809326172, 0.7584497332572937, 1.346325159072876, -0.835693359375, -1.040771484375, 0.275146484375, 0, 
26, 2023364295, 0.16031274, -0.57910126, -0.13276072, -0.7882361, 9.475814819335938, 0.14589060842990875, 2.873342514038086, 2.233292818069458, 0.9638506770133972, 1.2890167236328125, -0.836181640625, -1.0390625, 0.275146484375, 0, 
27, 2023380962, 0.16070831, -0.5789403, -0.13279389, -0.78826815, 9.44609260559082, 0.1661011278629303, 2.8633320331573486, 2.3152148723602295, 1.2715615034103394, 1.201446771621704, -0.836669921875, -1.04345703125, 0.2734375, 0, 
28, 2023397629, 0.16105613, -0.57875484, -0.13272735, -0.7883445, 9.45445442199707, 0.1965518444776535, 2.855783224105835, 1.8457213640213013, 1.6869226694107056, 1.3979603052139282, -0.83447265625, -1.040283203125, 0.2734375, 0, 
29, 2023414296, 0.16140933, -0.5785537, -0.13258739, -0.7884437, 9.433082580566406, 0.16252972185611725, 2.843066930770874, 1.3061773777008057, 1.982532024383545, 1.691379427909851, -0.83447265625, -1.03857421875, 0.271728515625, 0, 
30, 2023430963, 0.16171134, -0.5783526, -0.13236478, -0.78856665, 9.464720726013184, 0.13622234761714935, 2.848801374435425, 0.9773102402687073, 2.164804458618164, 1.858156442642212, -0.836181640625, -1.037841796875, 0.272216796875, 0, 
31, 2023447630, 0.16206457, -0.57814175, -0.13213776, -0.7886869, 9.518778800964355, 0.13570579886436462, 2.860017776489258, 0.8448668718338013, 2.2856838703155518, 2.0677454471588135, -0.8349609375, -1.03857421875, 0.27294921875, 0, 
32, 2023464297, 0.16243297, -0.5779368, -0.13185722, -0.7888082, 9.567506790161133, 0.12409990280866623, 2.883244037628174, 0.6894233822822571, 2.367938995361328, 2.4140031337738037, -0.836669921875, -1.036865234375, 0.268310546875, 0, 
33, 2023480964, 0.16280788, -0.5777419, -0.13152848, -0.7889285, 9.569060325622559, 0.13586099445819855, 2.887342691421509, 0.5117097496986389, 2.3973679542541504, 2.6894936561584473, -0.833251953125, -1.03369140625, 0.267333984375, 0, 
34, 2023497631, 0.16314785, -0.5775483, -0.13111171, -0.7890695, 9.5502347946167, 0.14190255105495453, 2.8709895610809326, 0.006832188926637173, 2.5667965412139893, 2.8932173252105713, -0.833251953125, -1.0341796875, 0.26611328125, 0, 
35, 2023514298, 0.16338438, -0.5773761, -0.13056658, -0.78923696, 9.552620887756348, 0.14640915393829346, 2.870990037918091, -0.5896812677383423, 2.6430325508117676, 3.0350606441497803, -0.83642578125, -1.03466796875, 0.263916015625, 0, 
36, 2023530965, 0.16367815, -0.5771957, -0.12995492, -0.789409, 9.519927024841309, 0.17264330387115479, 2.85528826713562, -1.3761192560195923, 2.8460001945495605, 3.4230546951293945, -0.83203125, -1.031982421875, 0.263427734375, 0, 
37, 2023547632, 0.1639458, -0.57699424, -0.12925059, -0.7896161, 9.481739044189453, 0.16696931421756744, 2.8438854217529297, -1.805247187614441, 3.2093164920806885, 3.692025899887085, -0.83642578125, -1.033447265625, 0.263916015625, 0, 
38, 2023564299, 0.16421837, -0.57678413, -0.12845275, -0.7898433, 9.490767478942871, 0.17685766518115997, 2.8151538372039795, -2.4895801544189453, 3.4683375358581543, 4.041882514953613, -0.835205078125, -1.02978515625, 0.2578125, 0, 
39, 2023580966, 0.16441824, -0.57658696, -0.12754168, -0.7900931, 9.47156810760498, 0.17166312038898468, 2.8122692108154297, -2.8632054328918457, 3.591188907623291, 4.303145408630371, -0.83349609375, -1.028076171875, 0.257080078125, 0, 
40, 2023597633, 0.16460294, -0.57640636, -0.12661338, -0.7903359, 9.505536079406738, 0.1614096760749817, 2.8588273525238037, -3.170494318008423, 3.5079100131988525, 4.310240268707275, -0.832275390625, -1.0302734375, 0.25439453125, 0, 
41, 2023614300, 0.16470964, -0.5762558, -0.12561351, -0.7905831, 9.535750389099121, 0.18931739032268524, 2.836239814758301, -3.706490993499756, 3.3953540325164795, 4.294885158538818, -0.83349609375, -1.028076171875, 0.252197265625, 0, 
42, 2023630967, 0.16481511, -0.5761212, -0.12460131, -0.79081917, 9.544219970703125, 0.17480242252349854, 2.810915231704712, -3.937671184539795, 3.3037760257720947, 4.3629889488220215, -0.83447265625, -1.025390625, 0.248779296875, 0, 
43, 2023647634, 0.16494186, -0.57601637, -0.1236263, -0.7910221, 9.521693229675293, 0.15316803753376007, 2.818805694580078, -3.8001697063446045, 3.019052505493164, 4.390011310577393, -0.8349609375, -1.023193359375, 0.25048828125, 0, 
44, 2023664301, 0.16507414, -0.5759361, -0.1227439, -0.79119045, 9.508624076843262, 0.1507788747549057, 2.7969517707824707, -3.5347836017608643, 2.675931930541992, 4.065689563751221, -0.837158203125, -1.02197265625, 0.2470703125, 0, 
45, 2023680968, 0.16523375, -0.57588446, -0.12199398, -0.7913106, 9.490181922912598, 0.13028141856193542, 2.8411951065063477, -2.636136293411255, 2.2309112548828125, 3.8246490955352783, -0.836669921875, -1.021484375, 0.244873046875, 0, 
46, 2023697635, 0.16537194, -0.57588315, -0.12132432, -0.79138565, 9.452244758605957, 0.161880224943161, 2.8594350814819336, -2.3410141468048096, 1.6868847608566284, 3.5014545917510986, -0.83642578125, -1.02099609375, 0.241943359375, 0, 
47, 2023714302, 0.1654467, -0.5759569, -0.120703615, -0.79141134, 9.423036575317383, 0.17134544253349304, 2.868009567260742, -2.2538537979125977, 0.9821767210960388, 3.1571691036224365, -0.838134765625, -1.020263671875, 0.241455078125, 0, 
48, 2023730969, 0.16546762, -0.57612115, -0.12017781, -0.7913673, 9.397782325744629, 0.1419142484664917, 2.891948699951172, -2.117311954498291, 0.06530597805976868, 2.6423916816711426, -0.838623046875, -1.019775390625, 0.240234375, 0, 
49, 2023747636, 0.16541745, -0.57637715, -0.11975393, -0.7912557, 9.374316215515137, 0.1114032045006752, 2.8738110065460205, -1.8417069911956787, -0.8797706961631775, 2.0510458946228027, -0.8369140625, -1.01806640625, 0.23974609375, 0, 
50, 2023764303, 0.16532022, -0.57673156, -0.11945986, -0.79106224, 9.361793518066406, 0.10377906262874603, 2.890817403793335, -1.3980308771133423, -1.9263312816619873, 1.4667304754257202, -0.83984375, -1.01806640625, 0.238525390625, 0, 
51, 2023780970, 0.16513966, -0.5771914, -0.11927546, -0.7907922, 9.38216495513916, 0.10126809775829315, 2.8934879302978516, -1.1473463773727417, -3.0029354095458984, 0.786354660987854, -0.84033203125, -1.01708984375, 0.23681640625, 0, 
52, 2023797637, 0.16488639, -0.57777053, -0.11918931, -0.79043525, 9.419208526611328, 0.125654399394989, 2.9084019660949707, -1.0057851076126099, -4.174370288848877, 0.20196253061294556, -0.83935546875, -1.017578125, 0.2392578125, 0, 
53, 2023814304, 0.16456112, -0.5784328, -0.11917077, -0.7900212, 9.46534538269043, 0.13554814457893372, 2.9343783855438232, -1.00417160987854, -4.995987892150879, -0.31373000144958496, -0.841552734375, -1.020263671875, 0.240966796875, 0, 
54, 2023830971, 0.16418101, -0.5791921, -0.11918344, -0.78954196, 9.490238189697266, 0.15381300449371338, 2.9272754192352295, -1.1285340785980225, -5.875925540924072, -0.5687556862831116, -0.84033203125, -1.0185546875, 0.240234375, 0, 
55, 2023847638, 0.1637722, -0.5800014, -0.119259074, -0.78902125, 9.48694896697998, 0.13486281037330627, 2.9091696739196777, -0.9188814759254456, -6.41823673248291, -0.8626102805137634, -0.838134765625, -1.02099609375, 0.241455078125, 0, 
56, 2023864305, 0.1633145, -0.58087504, -0.1193527, -0.7884591, 9.511228561401367, 0.160512313246727, 2.9214041233062744, -1.0135841369628906, -7.004612445831299, -1.0705982446670532, -0.841552734375, -1.020263671875, 0.24365234375, 0, 
57, 2023880972, 0.16284987, -0.58177286, -0.11949847, -0.7878708, 9.541267395019531, 0.15842022001743317, 2.9295547008514404, -0.8442076444625854, -7.319100379943848, -1.2734382152557373, -0.84033203125, -1.019287109375, 0.241943359375, 0, 
58, 2023897639, 0.16237365, -0.58266973, -0.11970485, -0.7872747, 9.531091690063477, 0.1418362706899643, 2.939985990524292, -0.4966559410095215, -7.439209938049316, -1.5362114906311035, -0.840576171875, -1.024169921875, 0.24755859375, 0, 
59, 2023914306, 0.16191277, -0.58355445, -0.11997144, -0.7866736, 9.526715278625488, 0.14083294570446014, 2.9476029872894287, -0.19122444093227386, -7.468344211578369, -1.7168196439743042, -0.841064453125, -1.023681640625, 0.244873046875, 0, 
60, 2023930973, 0.16144325, -0.5844182, -0.12027204, -0.7860828, 9.491922378540039, 0.1540350466966629, 2.936152935028076, 0.11370120197534561, -7.382106304168701, -1.8757718801498413, -0.840576171875, -1.01953125, 0.25048828125, 0, 
61, 2023947640, 0.16096741, -0.58525527, -0.12059577, -0.7855078, 9.477441787719727, 0.17465296387672424, 2.9395952224731445, -0.017134899273514748, -7.230415344238281, -2.1064400672912598, -0.84326171875, -1.02294921875, 0.25048828125, 0, 
62, 2023964307, 0.16047166, -0.5860489, -0.120905966, -0.7849697, 9.501066207885742, 0.13943099975585938, 2.9489376544952393, -0.10073475539684296, -6.875639915466309, -2.2085189819335938, -0.840087890625, -1.024658203125, 0.253173828125, 0, 
63, 2023980974, 0.15995543, -0.58677906, -0.12123102, -0.7844794, 9.536965370178223, 0.12150783836841583, 2.943221092224121, -0.08581537008285522, -6.402497291564941, -2.4820759296417236, -0.84130859375, -1.02587890625, 0.253173828125, 0, 
64, 2023997641, 0.15939808, -0.587447, -0.121506974, -0.78405017, 9.56316089630127, 0.15776149928569794, 2.920067548751831, -0.46887898445129395, -5.8286967277526855, -2.6157615184783936, -0.839599609375, -1.0234375, 0.252685546875, 0, 
65, 2024014308, 0.15879278, -0.5880755, -0.12168608, -0.7836738, 9.554206848144531, 0.18526311218738556, 2.9090538024902344, -1.1873406171798706, -5.3608784675598145, -2.5680575370788574, -0.840576171875, -1.02734375, 0.252685546875, 0, 
66, 2024030975, 0.15815182, -0.58864385, -0.121753484, -0.78336614, 9.554028511047363, 0.1685400754213333, 2.9093658924102783, -1.8591747283935547, -4.689135551452637, -2.406902551651001, -0.83740234375, -1.028076171875, 0.25439453125, 0, 
67, 2024047642, 0.15750672, -0.5891382, -0.121769205, -0.7831221, 9.54578971862793, 0.14578783512115479, 2.9043548107147217, -2.115955114364624, -4.005263328552246, -2.3444719314575195, -0.84130859375, -1.029541015625, 0.25537109375, 0, 
68, 2024064309, 0.15690629, -0.5895512, -0.121761836, -0.78293294, 9.5541410446167, 0.1613977700471878, 2.8889386653900146, -2.1468567848205566, -3.3059465885162354, -2.1721363067626953, -0.839599609375, -1.028076171875, 0.256591796875, 0, 
69, 2024080976, 0.1563388, -0.58989066, -0.12169657, -0.782801, 9.570209503173828, 0.17068922519683838, 2.911742925643921, -2.3609533309936523, -2.6120858192443848, -1.9004241228103638, -0.8369140625, -1.031494140625, 0.2548828125, 0, 
70, 2024097643, 0.15578358, -0.59016603, -0.121561915, -0.78272504, 9.589923858642578, 0.17221294343471527, 2.920415163040161, -2.501221179962158, -1.977543830871582, -1.6187995672225952, -0.835693359375, -1.0302734375, 0.25439453125, 0, 
71, 2024114310, 0.15528825, -0.59038144, -0.121397644, -0.78268635, 9.588029861450195, 0.1473124921321869, 2.895735502243042, -2.418466806411743, -1.4456959962844849, -1.2735916376113892, -0.839599609375, -1.03125, 0.25439453125, 0, 
72, 2024130977, 0.15487523, -0.5905243, -0.121280596, -0.7826785, 9.577862739562988, 0.11047661304473877, 2.8881170749664307, -1.9226045608520508, -0.9333139657974243, -1.1558499336242676, -0.837890625, -1.031494140625, 0.25537109375, 0, 
73, 2024147644, 0.15454783, -0.5906128, -0.12124661, -0.7826818, 9.576951026916504, 0.09647882729768753, 2.9258170127868652, -1.114498257637024, -0.6312249898910522, -1.1041122674942017, -0.839111328125, -1.032470703125, 0.253662109375, 0, 
74, 2024164311, 0.15427348, -0.590675, -0.121239066, -0.78269035, 9.540937423706055, 0.10373935103416443, 2.931101083755493, -0.6711935997009277, -0.4752180576324463, -0.9434822201728821, -0.839111328125, -1.03369140625, 0.252685546875, 0, 
75, 2024180978, 0.15402573, -0.5907135, -0.1212603, -0.7827066, 9.522151947021484, 0.11914251744747162, 2.9023141860961914, -0.2938544750213623, -0.34734660387039185, -0.9233121275901794, -0.83740234375, -1.03369140625, 0.25390625, 0, 
76, 2024197645, 0.15386085, -0.5907209, -0.12134195, -0.7827208, 9.498628616333008, 0.09285863488912582, 2.9012527465820312, 0.3321390748023987, -0.20324960350990295, -0.7705709338188171, -0.839111328125, -1.031494140625, 0.25439453125, 0, 
77, 2024214312, 0.15371805, -0.590705, -0.12145819, -0.78274286, 9.522355079650879, 0.11156240850687027, 2.8981027603149414, 0.5226079225540161, -0.08371511101722717, -0.8535432815551758, -0.83740234375, -1.033203125, 0.252685546875, 0, 
78, 2024230979, 0.15357322, -0.5906655, -0.12153625, -0.782789, 9.525233268737793, 0.13450908660888672, 2.878798246383667, 0.4405960440635681, 0.16180181503295898, -0.7263504862785339, -0.837890625, -1.031982421875, 0.253662109375, 0, 
79, 2024247646, 0.15339288, -0.590608, -0.12151047, -0.7828717, 9.508878707885742, 0.1719372272491455, 2.856642007827759, -0.35102203488349915, 0.4723813831806183, -0.571137547492981, -0.835205078125, -1.033203125, 0.249755859375, 0, 
80, 2024264313, 0.15318829, -0.59048766, -0.121354885, -0.7830267, 9.520339965820312, 0.13334183394908905, 2.8456509113311768, -0.8575772643089294, 1.2098735570907593, -0.2250332087278366, -0.835205078125, -1.035400390625, 0.2509765625, 0, 
81, 2024280980, 0.15304883, -0.5903241, -0.12118982, -0.7832029, 9.532966613769531, 0.10390031337738037, 2.841221570968628, -0.7422561049461365, 1.5817188024520874, 0.06927596032619476, -0.8349609375, -1.0341796875, 0.249267578125, 0, 
82, 2024297647, 0.15292545, -0.5901395, -0.121058986, -0.78338623, 9.542108535766602, 0.1248798593878746, 2.8305487632751465, -0.46814897656440735, 1.691558837890625, -0.010859785601496696, -0.833984375, -1.034912109375, 0.249755859375, 0, 
83, 2024314314, 0.15283523, -0.58992475, -0.12092912, -0.78358567, 9.549259185791016, 0.13303327560424805, 2.82324481010437, -0.3248714804649353, 1.939797043800354, 0.1156221255660057, -0.836669921875, -1.033203125, 0.245849609375, 0, 
84, 2024330981, 0.15276586, -0.5896907, -0.12075809, -0.78380173, 9.537615776062012, 0.14365161955356598, 2.836167812347412, -0.40273410081863403, 2.165931463241577, 0.37445127964019775, -0.8349609375, -1.03369140625, 0.24658203125, 0, 
85, 2024347648, 0.15273269, -0.58943063, -0.12058546, -0.7840304, 9.540180206298828, 0.12457123398780823, 2.7935595512390137, -0.24415306746959686, 2.3815133571624756, 0.5421119928359985, -0.83447265625, -1.034423828125, 0.245361328125, 0, 
86, 2024364315, 0.15270722, -0.589166, -0.120401405, -0.7842623, 9.532805442810059, 0.13143481314182281, 2.8103959560394287, -0.19040480256080627, 2.4373364448547363, 0.6447548866271973, -0.832275390625, -1.034912109375, 0.244873046875, 0, 
87, 2024380982, 0.15271963, -0.58888704, -0.12023089, -0.78449553, 9.531779289245605, 0.1352410912513733, 2.780484199523926, -0.038265377283096313, 2.533294677734375, 0.7541724443435669, -0.832275390625, -1.033203125, 0.244873046875, 0, 
88, 2024397649, 0.15277137, -0.58859444, -0.12008754, -0.78472704, 9.518102645874023, 0.11374887079000473, 2.7934277057647705, 0.23807643353939056, 2.60361385345459, 0.8346090316772461, -0.8349609375, -1.033203125, 0.2431640625, 0, 
89, 2024414316, 0.1528152, -0.58832467, -0.11993628, -0.7849438, 9.52783489227295, 0.12335046380758286, 2.8009095191955566, 0.1655925065279007, 2.4219560623168945, 0.8604779243469238, -0.83154296875, -1.034423828125, 0.24267578125, 0, 
90, 2024430983, 0.15288197, -0.5880565, -0.11980175, -0.7851523, 9.530573844909668, 0.11920128762722015, 2.8100719451904297, 0.41908136010169983, 2.3822946548461914, 0.9437318444252014, -0.832763671875, -1.03271484375, 0.23974609375, 0, 
91, 2024447650, 0.152946, -0.587799, -0.119681336, -0.7853509, 9.525421142578125, 0.1350996196269989, 2.8286001682281494, 0.5408697724342346, 2.266538381576538, 0.9068753123283386, -0.8349609375, -1.033203125, 0.240966796875, 0, 
92, 2024464317, 0.1529889, -0.58757514, -0.119560085, -0.78552866, 9.503870964050293, 0.14489394426345825, 2.807814836502075, 0.34415143728256226, 1.9833002090454102, 0.821815550327301, -0.8349609375, -1.03271484375, 0.23974609375, 0, 
93, 2024480984, 0.15302889, -0.58740455, -0.11947479, -0.78566146, 9.511683464050293, 0.13467782735824585, 2.815920352935791, 0.5339031219482422, 1.4744272232055664, 0.7617409229278564, -0.833740234375, -1.0322265625, 0.23583984375, 0, 
94, 2024497651, 0.15298837, -0.58726996, -0.11937338, -0.7857854, 9.491381645202637, 0.15719354152679443, 2.8178329467773438, 0.29334861040115356, 1.1957992315292358, 0.48938822746276855, -0.833740234375, -1.03173828125, 0.238525390625, 0, 
95, 2024514318, 0.15288948, -0.58719486, -0.11928331, -0.7858745, 9.506024360656738, 0.16758106648921967, 2.847308397293091, -0.13053512573242188, 0.6729928255081177, 0.15532180666923523, -0.83251953125, -1.03173828125, 0.234619140625, 0, 
96, 2024530985, 0.15263027, -0.5871828, -0.119094655, -0.7859623, 9.511059761047363, 0.18524976074695587, 2.817112922668457, -1.112730860710144, 0.2992907762527466, -0.18132510781288147, -0.83251953125, -1.03173828125, 0.234619140625, 0, 
97, 2024547652, 0.15224689, -0.58722603, -0.1188425, -0.7860426, 9.499869346618652, 0.18786278367042542, 2.8132472038269043, -2.0945169925689697, -0.06551729142665863, -0.5605851411819458, -0.83251953125, -1.03173828125, 0.2353515625, 0, 
98, 2024564319, 0.15179253, -0.58730966, -0.118565746, -0.78610975, 9.484369277954102, 0.2281576544046402, 2.8116602897644043, -2.7286102771759033, -0.36854109168052673, -0.8466276526451111, -0.83154296875, -1.03173828125, 0.234130859375, 0, 
99, 2024580986, 0.15124977, -0.5874326, -0.11826933, -0.78616726, 9.476812362670898, 0.22438856959342957, 2.825080633163452, -3.200946807861328, -0.6714112162590027, -1.186918020248413, -0.8330078125, -1.033447265625, 0.233154296875, 0, 
100, 2024597653, 0.15068035, -0.5875616, -0.11802293, -0.78621715, 9.467251777648926, 0.2224767655134201, 2.779374122619629, -3.0485901832580566, -0.809194803237915, -1.5154906511306763, -0.831298828125, -1.034423828125, 0.23193359375, 0, 
101, 2024614320, 0.15013146, -0.5877166, -0.11786695, -0.7862298, 9.47806453704834, 0.2029801607131958, 2.8198752403259277, -2.4016001224517822, -1.174636721611023, -1.682037115097046, -0.829833984375, -1.033935546875, 0.234130859375, 0, 
102, 2024630987, 0.14965296, -0.58789027, -0.11784048, -0.78619504, 9.487967491149902, 0.21583937108516693, 2.8043887615203857, -1.582775354385376, -1.5461362600326538, -1.8081414699554443, -0.831298828125, -1.03515625, 0.2314453125, 0, 
103, 2024647654, 0.14914133, -0.5880833, -0.11790908, -0.7861375, 9.5119047164917, 0.2298254519701004, 2.7923576831817627, -1.0860042572021484, -1.8662949800491333, -2.293245792388916, -0.828125, -1.033935546875, 0.232421875, 0, 
104, 2024664321, 0.14863738, -0.58831185, -0.11804872, -0.7860411, 9.509852409362793, 0.20928171277046204, 2.8281197547912598, -0.7513741254806519, -2.2803497314453125, -2.48490571975708, -0.829833984375, -1.037353515625, 0.234130859375, 0, 
105, 2024680988, 0.14813149, -0.5885855, -0.1182731, -0.785898, 9.498356819152832, 0.20030470192432404, 2.8289682865142822, -0.36418700218200684, -2.8048598766326904, -2.764596700668335, -0.829345703125, -1.037353515625, 0.233642578125, 0, 
106, 2024697655, 0.14756909, -0.5888915, -0.11854224, -0.78573406, 9.499176025390625, 0.2039245069026947, 2.836294174194336, -0.3423137068748474, -3.156047821044922, -3.194326162338257, -0.826904296875, -1.0390625, 0.230224609375, 0, 
107, 2024714322, 0.14695254, -0.58922845, -0.11890991, -0.7855414, 9.488242149353027, 0.1891801953315735, 2.8648476600646973, 0.24052250385284424, -3.58526611328125, -3.7497637271881104, -0.829833984375, -1.04248046875, 0.233154296875, 0, 
108, 2024730989, 0.14621015, -0.5896126, -0.11921844, -0.78534496, 9.506194114685059, 0.2519305348396301, 2.815608263015747, -0.7947237491607666, -3.9062697887420654, -4.193029880523682, -0.82861328125, -1.041748046875, 0.234130859375, 0, 
109, 2024747656, 0.14536954, -0.5900579, -0.119478375, -0.78512704, 9.47173023223877, 0.2387830764055252, 2.830064058303833, -1.6143046617507935, -4.360165596008301, -4.482888698577881, -0.8271484375, -1.0458984375, 0.23193359375, 0, 
110, 2024764323, 0.14439441, -0.5905452, -0.11965867, -0.78491306, 9.494845390319824, 0.2431001216173172, 2.833512544631958, -2.425292730331421, -4.603384494781494, -4.794800758361816, -0.82373046875, -1.045166015625, 0.236328125, 0, 
111, 2024780990, 0.14338769, -0.5910539, -0.11985834, -0.7846845, 9.505105018615723, 0.24176166951656342, 2.797161817550659, -2.7203633785247803, -4.835755348205566, -5.082597255706787, -0.824462890625, -1.04638671875, 0.237060546875, 0, 
112, 2024797657, 0.14239973, -0.59157324, -0.12012285, -0.7844322, 9.529776573181152, 0.2378469854593277, 2.8043577671051025, -2.296614408493042, -5.04307746887207, -5.213837146759033, -0.82373046875, -1.049072265625, 0.234130859375, 0, 
113, 2024814324, 0.14144647, -0.5920811, -0.12040528, -0.78417844, 9.519858360290527, 0.25455623865127563, 2.7958500385284424, -1.863413691520691, -4.976893424987793, -5.05900764465332, -0.82666015625, -1.049072265625, 0.236328125, 0, 
114, 2024830991, 0.14060128, -0.5925819, -0.12076971, -0.78389597, 9.545487403869629, 0.24486108124256134, 2.795954942703247, -1.2216362953186035, -5.059700012207031, -4.861021995544434, -0.8232421875, -1.052001953125, 0.237060546875, 0, 
115, 2024847658, 0.139845, -0.5930499, -0.12122727, -0.7836066, 9.540382385253906, 0.21747271716594696, 2.7726800441741943, -0.23882567882537842, -4.930675983428955, -4.762938499450684, -0.824462890625, -1.053466796875, 0.23876953125, 0, 
116, 2024864325, 0.13915387, -0.5934976, -0.12176501, -0.7833074, 9.553279876708984, 0.244331955909729, 2.7683677673339844, 0.41325458884239197, -4.892820358276367, -4.769495487213135, -0.820556640625, -1.0546875, 0.23876953125, 0, 
117, 2024880992, 0.13844906, -0.593926, -0.122292385, -0.7830254, 9.547187805175781, 0.26356440782546997, 2.7702670097351074, 0.4222317934036255, -4.723199844360352, -4.80650520324707, -0.821044921875, -1.056396484375, 0.240966796875, 0, 
118, 2024897659, 0.13774416, -0.59436846, -0.122802936, -0.782734, 9.543737411499023, 0.23191647231578827, 2.7864861488342285, 0.23012374341487885, -4.832335472106934, -4.745854377746582, -0.821044921875, -1.0576171875, 0.240478515625, 0, 
119, 2024914326, 0.13701332, -0.59482974, -0.123300545, -0.78243345, 9.576557159423828, 0.23610208928585052, 2.7648983001708984, 0.10180409997701645, -4.986140727996826, -4.800461292266846, -0.820556640625, -1.059326171875, 0.240966796875, 0, 
120, 2024930993, 0.13627508, -0.5952876, -0.12378684, -0.7821372, 9.584352493286133, 0.22605611383914948, 2.769122838973999, 0.10080518573522568, -4.951370716094971, -4.783427715301514, -0.818359375, -1.060791015625, 0.244384765625, 0, 
121, 2024947660, 0.13557747, -0.5957419, -0.12428704, -0.78183323, 9.601337432861328, 0.25438252091407776, 2.7755205631256104, 0.18441785871982574, -4.957645416259766, -4.671513080596924, -0.81689453125, -1.063232421875, 0.24609375, 0, 
122, 2024964327, 0.13488346, -0.59620494, -0.124754384, -0.7815257, 9.678677558898926, 0.2588837742805481, 2.744058132171631, 0.06073411554098129, -4.993951797485352, -4.502200603485107, -0.815673828125, -1.063232421875, 0.243896484375, 0, 
123, 2024980994, 0.13419065, -0.5966701, -0.125187, -0.78122085, 9.731903076171875, 0.2513018548488617, 2.738703489303589, -0.023666134104132652, -4.964074611663818, -4.338125228881836, -0.8173828125, -1.0654296875, 0.248291015625, 0, 
124, 2024997661, 0.13349979, -0.5971137, -0.1255871, -0.78093606, 9.776762008666992, 0.2572295069694519, 2.722712755203247, -0.3584882318973541, -4.749492168426514, -4.283904075622559, -0.81689453125, -1.067138671875, 0.244384765625, 0, 
125, 2025014328, 0.1327435, -0.5975178, -0.12583913, -0.78071517, 9.799830436706543, 0.291991263628006, 2.6641318798065186, -1.2293840646743774, -4.19104528427124, -4.076223373413086, -0.815185546875, -1.06640625, 0.248291015625, 0, 
126, 2025030995, 0.13196032, -0.5979003, -0.12596111, -0.7805355, 9.788256645202637, 0.31182143092155457, 2.647510528564453, -2.198030710220337, -3.819967746734619, -3.787952184677124, -0.814208984375, -1.072021484375, 0.24951171875, 0, 
127, 2025047662, 0.13120624, -0.598204, -0.12596503, -0.7804295, 9.766956329345703, 0.3032023012638092, 2.5625052452087402, -2.6766810417175293, -2.963824987411499, -3.2822036743164062, -0.81201171875, -1.071044921875, 0.25, 0, 
128, 2025064329, 0.1305392, -0.5984225, -0.12593463, -0.78037846, 9.703727722167969, 0.28728732466697693, 2.5451102256774902, -2.5289981365203857, -2.1738524436950684, -2.821110963821411, -0.8125, -1.07275390625, 0.25048828125, 0, 
129, 2025080996, 0.12997206, -0.5985704, -0.12589636, -0.780366, 9.63007640838623, 0.3139261305332184, 2.5451672077178955, -2.156627655029297, -1.5424351692199707, -2.364295721054077, -0.813720703125, -1.07373046875, 0.24951171875, 0, 
130, 2025097663, 0.12946826, -0.5986977, -0.12576908, -0.78037256, 9.569074630737305, 0.3466247320175171, 2.5709750652313232, -2.3663573265075684, -1.218344807624817, -1.6995432376861572, -0.8115234375, -1.07373046875, 0.251220703125, 0, 
131, 2025114330, 0.12904884, -0.59882015, -0.12560794, -0.780374, 9.592911720275879, 0.344066858291626, 2.5683913230895996, -2.262305498123169, -1.1174180507659912, -1.1317994594573975, -0.813720703125, -1.076416015625, 0.252685546875, 0, 
132, 2025130997, 0.12874265, -0.59891665, -0.12545842, -0.7803746, 9.584954261779785, 0.3434412479400635, 2.57435941696167, -1.7645868062973022, -0.8994923830032349, -0.6125404834747314, -0.810791015625, -1.0771484375, 0.248779296875, 0, 
133, 2025147664, 0.12851527, -0.5990187, -0.12536742, -0.78034836, 9.54323959350586, 0.38152366876602173, 2.596501111984253, -0.9576331973075867, -1.018488883972168, -0.3710639476776123, -0.814697265625, -1.078125, 0.24951171875, 0, 
134, 2025164331, 0.128343, -0.5991449, -0.12531677, -0.780288, 9.509943962097168, 0.39795950055122375, 2.634687662124634, -0.5776304602622986, -1.286820411682129, -0.21142002940177917, -0.813232421875, -1.078369140625, 0.25, 0, 
135, 2025180998, 0.12822655, -0.59932137, -0.12535724, -0.780165, 9.462489128112793, 0.40500739216804504, 2.66738224029541, 0.1425538808107376, -1.8542826175689697, -0.1936960369348526, -0.8125, -1.079345703125, 0.24658203125, 0, 
136, 2025197665, 0.12806311, -0.5995601, -0.12547487, -0.7799895, 9.414116859436035, 0.4029114842414856, 2.6800730228424072, 0.47083184123039246, -2.5192651748657227, -0.6347851157188416, -0.8115234375, -1.079833984375, 0.25, 0, 
137, 2025214332, 0.12785679, -0.5998555, -0.12569034, -0.7797615, 9.387113571166992, 0.44078725576400757, 2.7303452491760254, 0.738113284111023, -3.1794326305389404, -1.193872094154358, -0.813720703125, -1.0810546875, 0.247802734375, 0, 
138, 2025230999, 0.12753528, -0.60020465, -0.12592687, -0.77950746, 9.399426460266113, 0.4779653549194336, 2.7541489601135254, 0.447613924741745, -3.7059013843536377, -1.8034284114837646, -0.81103515625, -1.0810546875, 0.25, 0, 
139, 2025247666, 0.12712498, -0.6006205, -0.12620655, -0.7792088, 9.404675483703613, 0.4873860776424408, 2.7520267963409424, 0.2487185150384903, -4.382781028747559, -2.368905782699585, -0.8125, -1.082275390625, 0.251220703125, 0, 
140, 2025264333, 0.1265848, -0.6010733, -0.12646274, -0.778906, 9.412219047546387, 0.5507308840751648, 2.7566027641296387, -0.46877649426460266, -4.710995674133301, -2.935279607772827, -0.809814453125, -1.082763671875, 0.25341796875, 0, 
141, 2025281000, 0.12596817, -0.60154575, -0.12668009, -0.77860576, 9.413727760314941, 0.598986804485321, 2.7399137020111084, -1.0484687089920044, -4.859677314758301, -3.171659469604492, -0.809326171875, -1.086669921875, 0.252197265625, 0, 
142, 2025297667, 0.1253114, -0.602001, -0.12687056, -0.7783288, 9.44025707244873, 0.6089188456535339, 2.7202823162078857, -1.2676494121551514, -4.696830749511719, -3.2784128189086914, -0.810546875, -1.0888671875, 0.255615234375, 0, 
143, 2025314334, 0.1247568, -0.6023683, -0.12711921, -0.77809316, 9.430590629577637, 0.6908471584320068, 2.689394950866699, -0.600797176361084, -4.039494514465332, -3.1014676094055176, -0.809326171875, -1.087158203125, 0.255126953125, 0, 
144, 2025331001, 0.12429817, -0.6026418, -0.12742378, -0.777905, 9.449677467346191, 0.7494078278541565, 2.731034517288208, 0.12769852578639984, -3.3229918479919434, -2.9296321868896484, -0.808349609375, -1.090087890625, 0.2568359375, 0, 
145, 2025347668, 0.123909004, -0.60283977, -0.12777998, -0.77775526, 9.545066833496094, 0.7228702902793884, 2.766829013824463, 0.7123980522155762, -2.7628164291381836, -2.856174945831299, -0.80712890625, -1.091064453125, 0.255126953125, 0, 
146, 2025364335, 0.12349333, -0.60298616, -0.12811507, -0.77765274, 9.693764686584473, 0.759057343006134, 2.8243460655212402, 0.5603225827217102, -2.312378406524658, -2.966334819793701, -0.81005859375, -1.090576171875, 0.25439453125, 0, 
147, 2025381002, 0.12297855, -0.60310143, -0.12832029, -0.7776111, 9.773993492126465, 0.8669684529304504, 2.9008193016052246, -0.5863900184631348, -1.8930091857910156, -3.024078845977783, -0.80712890625, -1.0927734375, 0.25732421875, 0, 
148, 2025397669, 0.122304566, -0.6031824, -0.12826505, -0.7776637, 9.741232872009277, 0.9285035729408264, 2.916201114654541, -2.7539286613464355, -1.2679182291030884, -2.899447202682495, -0.804931640625, -1.091796875, 0.255126953125, 0, 
149, 2025414336, 0.12154615, -0.6032009, -0.12804317, -0.77780485, 9.632201194763184, 0.8619776964187622, 2.8960437774658203, -4.000818729400635, -0.5265202522277832, -2.760126829147339, -0.8056640625, -1.094482421875, 0.256103515625, 0, 
150, 2025431003, 0.12078501, -0.6031128, -0.12782021, -0.7780282, 9.489773750305176, 0.8043574094772339, 2.875523328781128, -4.073033809661865, 0.352065771818161, -2.9297215938568115, -0.803955078125, -1.0966796875, 0.255126953125, 0, 
151, 2025447670, 0.12010176, -0.60288185, -0.12773292, -0.77832735, 9.341264724731445, 0.816944420337677, 2.842595100402832, -2.9688963890075684, 1.3579790592193604, -3.2483694553375244, -0.802734375, -1.097900390625, 0.251708984375, 0, 
152, 2025464337, 0.11953989, -0.60254014, -0.12778264, -0.77867043, 9.214569091796875, 0.8423717617988586, 2.8419651985168457, -1.6255353689193726, 2.1045758724212646, -3.2717018127441406, -0.804443359375, -1.097412109375, 0.25048828125, 0, 
153, 2025481004, 0.119115256, -0.6021199, -0.12800771, -0.7790234, 9.157861709594727, 0.8096481561660767, 2.8738789558410645, -0.11381003260612488, 2.510678291320801, -3.3333773612976074, -0.80322265625, -1.100830078125, 0.25, 0, 
154, 2025497671, 0.11883561, -0.60167515, -0.12845759, -0.7793357, 9.17585563659668, 0.7619677782058716, 2.9147422313690186, 1.7673852443695068, 2.389120578765869, -3.4563188552856445, -0.802734375, -1.099609375, 0.250732421875, 0, 
155, 2025514338, 0.11871761, -0.6012197, -0.12919912, -0.77958244, 9.222713470458984, 0.7173555493354797, 2.9423627853393555, 4.00950813293457, 2.0447452068328857, -3.753835678100586, -0.79931640625, -1.10302734375, 0.248291015625, 0, 
156, 2025531005, 0.11871866, -0.60080296, -0.13019194, -0.7797384, 9.271781921386719, 0.7331106662750244, 3.0012316703796387, 6.032911777496338, 1.3424961566925049, -4.005122184753418, -0.800537109375, -1.103515625, 0.251220703125, 0, 
157, 2025547672, 0.11883812, -0.60045457, -0.13137487, -0.77979016, 9.305983543395996, 0.7563838362693787, 2.979827880859375, 7.510638236999512, 0.458589106798172, -4.017545223236084, -0.79931640625, -1.10205078125, 0.24951171875, 0, 
158, 2025564339, 0.11900086, -0.60020363, -0.13258192, -0.7797541, 9.347983360290527, 0.7897036075592041, 2.9731593132019043, 7.897146701812744, -0.43106186389923096, -3.698193073272705, -0.795654296875, -1.104736328125, 0.25390625, 0, 
159, 2025581006, 0.119247526, -0.600025, -0.13384627, -0.7796379, 9.44107437133789, 0.7777319550514221, 2.9643943309783936, 8.554585456848145, -1.1484864950180054, -3.344801664352417, -0.79443359375, -1.1025390625, 0.2529296875, 0, 
160, 2025597673, 0.11955571, -0.59988856, -0.13517524, -0.77946633, 9.567561149597168, 0.7298892736434937, 2.93198823928833, 9.249509811401367, -1.6202086210250854, -3.1717751026153564, -0.795166015625, -1.10595703125, 0.255615234375, 0, 
161, 2025614340, 0.11999667, -0.5997502, -0.13661116, -0.7792546, 9.635281562805176, 0.7209910750389099, 2.9004456996917725, 10.435430526733398, -1.7592216730117798, -2.8612725734710693, -0.795654296875, -1.1064453125, 0.2578125, 0, 
162, 2025631007, 0.12050607, -0.59958076, -0.13804334, -0.779054, 9.633004188537598, 0.7909252047538757, 2.854113817214966, 10.746508598327637, -1.4958205223083496, -2.5078041553497314, -0.7939453125, -1.10595703125, 0.26025390625, 0, 
163, 2025647674, 0.12104169, -0.5993459, -0.13927889, -0.77893186, 9.558775901794434, 0.8314442038536072, 2.815148115158081, 9.808380126953125, -0.6485137343406677, -1.672176718711853, -0.791748046875, -1.105224609375, 0.26123046875, 0, 
164, 2025664341, 0.12159392, -0.59904325, -0.14030883, -0.7788939, 9.492563247680664, 0.8166054487228394, 2.75114369392395, 8.81363296508789, 0.23948518931865692, -0.85063636302948, -0.7919921875, -1.104248046875, 0.26416015625, 0, 
165, 2025681008, 0.122143306, -0.59864587, -0.14110656, -0.7789694, 9.499798774719238, 0.779525637626648, 2.6948373317718506, 7.496998310089111, 1.3906993865966797, -0.09781491756439209, -0.7880859375, -1.104736328125, 0.262939453125, 0, 
166, 2025697675, 0.12271489, -0.5981445, -0.14172868, -0.7791517, 9.547198295593262, 0.762319028377533, 2.6682350635528564, 6.745110988616943, 2.5569608211517334, 0.5817604660987854, -0.7890625, -1.10302734375, 0.2646484375, 0, 
167, 2025714342, 0.12328066, -0.59753555, -0.14212143, -0.7794581, 9.582465171813965, 0.7660131454467773, 2.6199238300323486, 5.42627477645874, 3.822932481765747, 1.2761976718902588, -0.790283203125, -1.101318359375, 0.26416015625, 0, 
168, 2025731009, 0.12378385, -0.59684247, -0.14221525, -0.77989197, 9.609457969665527, 0.7585241198539734, 2.578611135482788, 3.5314600467681885, 4.989156246185303, 1.983210802078247, -0.7890625, -1.1025390625, 0.263427734375, 0, 
169, 2025747676, 0.12420749, -0.59610945, -0.14201495, -0.7804216, 9.639254570007324, 0.7264041900634766, 2.6005122661590576, 1.6044502258300781, 5.773404121398926, 2.651369571685791, -0.790771484375, -1.10205078125, 0.262939453125, 0, 
170, 2025764343, 0.1245285, -0.5953545, -0.14155756, -0.78102964, 9.682271957397461, 0.6979623436927795, 2.601264715194702, -0.2656165659427643, 6.331045150756836, 3.0587656497955322, -0.7900390625, -1.100830078125, 0.2607421875, 0, 
171, 2025781010, 0.12478845, -0.5945853, -0.14092828, -0.7816876, 9.682936668395996, 0.667259156703949, 2.5770950317382812, -1.4738445281982422, 6.703657627105713, 3.374160051345825, -0.788330078125, -1.0986328125, 0.259033203125, 0, 
172, 2025797677, 0.12498891, -0.5938087, -0.14014086, -0.78238726, 9.6262788772583, 0.6657077074050903, 2.5614190101623535, -2.5999205112457275, 6.995643138885498, 3.651546001434326, -0.79052734375, -1.096923828125, 0.25341796875, 0, 
173, 2025814344, 0.12518305, -0.59306145, -0.13924566, -0.78308237, 9.549568176269531, 0.6582660675048828, 2.5270001888275146, -3.1854653358459473, 6.916385173797607, 4.094069004058838, -0.788330078125, -1.095947265625, 0.25390625, 0, 
174, 2025831011, 0.12542404, -0.59235585, -0.13839006, -0.7837293, 9.478638648986816, 0.5865058898925781, 2.562692165374756, -2.840923309326172, 6.509489059448242, 4.243404865264893, -0.789306640625, -1.09326171875, 0.247802734375, 0, 
175, 2025847678, 0.12578557, -0.59170675, -0.13769881, -0.7842833, 9.434636116027832, 0.5557474493980408, 2.5680620670318604, -1.3415166139602661, 5.812502384185791, 4.371889591217041, -0.789794921875, -1.091552734375, 0.243896484375, 0, 
176, 2025864345, 0.12632327, -0.59113574, -0.13726823, -0.78470296, 9.42775821685791, 0.5549613237380981, 2.594959259033203, 0.8783940076828003, 4.796151161193848, 4.451493740081787, -0.790771484375, -1.09033203125, 0.244384765625, 0, 
177, 2025881012, 0.12705128, -0.59067035, -0.13714953, -0.7849565, 9.413454055786133, 0.5301627516746521, 2.6474740505218506, 3.34234881401062, 3.4614737033843994, 4.432298183441162, -0.79150390625, -1.09033203125, 0.243408203125, 0, 
178, 2025897679, 0.12784936, -0.5903279, -0.13729884, -0.78505844, 9.401395797729492, 0.5527122616767883, 2.6930344104766846, 5.180264949798584, 2.0242934226989746, 3.981846570968628, -0.793701171875, -1.08935546875, 0.24169921875, 0, 
179, 2025914346, 0.12871307, -0.5901328, -0.13767734, -0.78499764, 9.347851753234863, 0.5796316266059875, 2.7270421981811523, 6.738683700561523, 0.433398962020874, 3.690195083618164, -0.790283203125, -1.087158203125, 0.24267578125, 0, 
180, 2025931013, 0.1295451, -0.5901036, -0.13823308, -0.78478503, 9.403684616088867, 0.6185716390609741, 2.7427358627319336, 7.612987041473389, -1.261963963508606, 3.1004247665405273, -0.793701171875, -1.0859375, 0.2490234375, 0, 
181, 2025947680, 0.13036491, -0.5901714, -0.13891965, -0.78447694, 9.456604957580566, 0.6505836844444275, 2.7214059829711914, 8.143987655639648, -2.3109190464019775, 2.6442489624023438, -0.794189453125, -1.08642578125, 0.247314453125, 0, 
182, 2025964347, 0.13111623, -0.5903136, -0.1396603, -0.78411305, 9.510595321655273, 0.6927081942558289, 2.7313270568847656, 8.285077095031738, -3.0388195514678955, 2.2147116661071777, -0.794921875, -1.08349609375, 0.24951171875, 0, 
183, 2025981014, 0.1317883, -0.59049207, -0.14037739, -0.783738, 9.568429946899414, 0.7422465682029724, 2.740360736846924, 7.792646408081055, -3.33453106880188, 1.9231492280960083, -0.79248046875, -1.08251953125, 0.25048828125, 0, 
184, 2025997681, 0.13234839, -0.59068656, -0.141009, -0.78338355, 9.655938148498535, 0.7666267156600952, 2.7489213943481445, 6.888057231903076, -3.363729238510132, 1.6791881322860718, -0.7919921875, -1.081298828125, 0.25390625, 0, 
185, 2026014348, 0.13283786, -0.59086096, -0.14156662, -0.78306866, 9.688070297241211, 0.7756393551826477, 2.776362895965576, 6.158798694610596, -3.0958969593048096, 1.5441707372665405, -0.7919921875, -1.081298828125, 0.251708984375, 0, 
186, 2026031015, 0.13322443, -0.5910174, -0.14200144, -0.78280616, 9.702467918395996, 0.7938271760940552, 2.775261163711548, 5.141641139984131, -2.765890121459961, 1.4532967805862427, -0.793212890625, -1.080078125, 0.2568359375, 0, 
187, 2026047682, 0.13356777, -0.5911072, -0.14234507, -0.7826175, 9.726095199584961, 0.801790714263916, 2.761659860610962, 4.393263339996338, -2.071068525314331, 1.4449341297149658, -0.792236328125, -1.080078125, 0.25732421875, 0, 
188, 2026064349, 0.13384666, -0.5911393, -0.1425654, -0.7825055, 9.672243118286133, 0.8003530502319336, 2.7780816555023193, 3.4787495136260986, -1.3957899808883667, 1.4877842664718628, -0.792236328125, -1.081298828125, 0.258544921875, 0, 
189, 2026081016, 0.13408613, -0.59111214, -0.14275208, -0.7824508, 9.630581855773926, 0.7479345202445984, 2.7428038120269775, 3.157898426055908, -0.8503671884536743, 1.312913417816162, -0.7939453125, -1.080810546875, 0.258544921875, 0, 
190, 2026097683, 0.13430631, -0.59103054, -0.14293045, -0.78244215, 9.619189262390137, 0.7309024930000305, 2.7576215267181396, 3.0275683403015137, -0.3840111792087555, 1.1473015546798706, -0.79443359375, -1.076171875, 0.260009765625, 0, 
191, 2026114350, 0.13451853, -0.59089583, -0.1431478, -0.78246766, 9.522367477416992, 0.6901670098304749, 2.7465200424194336, 3.156092882156372, -0.008733930997550488, 0.8479660153388977, -0.792724609375, -1.081298828125, 0.26025390625, 0, 
192, 2026131017, 0.13473143, -0.5907477, -0.14339393, -0.7824979, 9.409247398376465, 0.6697820425033569, 2.7735464572906494, 3.4141156673431396, 0.06246297433972359, 0.7412763833999634, -0.791748046875, -1.078369140625, 0.260009765625, 0, 
193, 2026147684, 0.13493945, -0.590621, -0.14369209, -0.78250307, 9.322441101074219, 0.6427897214889526, 2.7731521129608154, 3.679616689682007, -0.21168898046016693, 0.5473241806030273, -0.79443359375, -1.08056640625, 0.262451171875, 0, 
194, 2026164351, 0.1352185, -0.59052294, -0.144172, -0.7824405, 9.265288352966309, 0.553268551826477, 2.7932958602905273, 4.9449992179870605, -0.7483391165733337, 0.270028293132782, -0.793212890625, -1.0791015625, 0.2607421875, 0, 
195, 2026181018, 0.13551553, -0.59047014, -0.14485297, -0.78230315, 9.288606643676758, 0.47360897064208984, 2.8044605255126953, 6.2039666175842285, -1.4652771949768066, -0.3228225111961365, -0.794921875, -1.078857421875, 0.262451171875, 0, 
196, 2026197685, 0.13582554, -0.59049153, -0.14573134, -0.7820702, 9.339960098266602, 0.4782989025115967, 2.8174171447753906, 7.3276472091674805, -2.4330403804779053, -0.907189130783081, -0.794921875, -1.077392578125, 0.262451171875, 0, 
197, 2026214352, 0.13611795, -0.5905756, -0.14670813, -0.78177303, 9.413888931274414, 0.4838741421699524, 2.810120105743408, 7.843165874481201, -3.1421279907226562, -1.2770109176635742, -0.791259765625, -1.07666015625, 0.26806640625, 0, 
198, 2026231019, 0.13635103, -0.59069866, -0.14766487, -0.7814592, 9.468975067138672, 0.5185226202011108, 2.774484872817993, 7.4029107093811035, -3.473031997680664, -1.490851640701294, -0.79248046875, -1.078369140625, 0.270751953125, 0, 
199, 2026247686, 0.13653232, -0.5908572, -0.14854318, -0.7811413, 9.525259971618652, 0.48512354493141174, 2.74277400970459, 6.762631893157959, -3.6616439819335938, -1.417074203491211, -0.790771484375, -1.0771484375, 0.2724609375, 0, 
200, 2026264353, 0.13664688, -0.59101576, -0.14930445, -0.7808562, 9.588301658630371, 0.47760698199272156, 2.703796863555908, 5.863626003265381, -3.484596014022827, -1.33456289768219, -0.790771484375, -1.0810546875, 0.27294921875, 0, 
201, 2026281020, 0.13670488, -0.5911362, -0.14990847, -0.78063905, 9.65203857421875, 0.4957357943058014, 2.684614896774292, 4.832649230957031, -2.9076693058013916, -1.0979524850845337, -0.790283203125, -1.0771484375, 0.27587890625, 0, 
202, 2026297687, 0.13677087, -0.5911934, -0.15036294, -0.7804969, 9.695252418518066, 0.521134614944458, 2.646181583404541, 3.9625864028930664, -2.1199123859405518, -0.6182906627655029, -0.78857421875, -1.07958984375, 0.2763671875, 0, 
203, 2026314354, 0.1368362, -0.59117377, -0.15061218, -0.7804521, 9.68388843536377, 0.5219628214836121, 2.63008189201355, 2.9020793437957764, -1.1098368167877197, 0.04703132063150406, -0.789794921875, -1.07666015625, 0.275390625, 0, 
204, 2026331021, 0.13695882, -0.59109753, -0.15068994, -0.7804733, 9.67227840423584, 0.5327759981155396, 2.6154205799102783, 2.1772267818450928, -0.3143830895423889, 0.911280632019043, -0.790771484375, -1.079345703125, 0.27685546875, 0, 
205, 2026347688, 0.13714266, -0.5909359, -0.15061338, -0.7805783, 9.618064880371094, 0.5336208939552307, 2.60158634185791, 1.5963435173034668, 0.6974146366119385, 1.689509630203247, -0.786865234375, -1.0771484375, 0.27587890625, 0, 
206, 2026364355, 0.13740511, -0.5906937, -0.15039794, -0.780757, 9.601984977722168, 0.5406606793403625, 2.5841448307037354, 1.1964651346206665, 1.6489007472991943, 2.517273426055908, -0.7890625, -1.076171875, 0.2763671875, 0, 
207, 2026381022, 0.13775998, -0.59040624, -0.1501373, -0.78096193, 9.57925033569336, 0.4939673840999603, 2.6136679649353027, 1.311556100845337, 2.1386542320251465, 3.1065967082977295, -0.790771484375, -1.0771484375, 0.274169921875, 0, 
208, 2026397689, 0.13813852, -0.59007776, -0.14984511, -0.7811994, 9.594085693359375, 0.4733927547931671, 2.651641607284546, 1.3063182830810547, 2.5540921688079834, 3.292865037918091, -0.79345703125, -1.07763671875, 0.2724609375, 0, 
209, 2026414356, 0.13854404, -0.58974475, -0.14954469, -0.7814366, 9.583765983581543, 0.5004061460494995, 2.655503749847412, 1.390725016593933, 2.6165871620178223, 3.457580089569092, -0.791259765625, -1.073974609375, 0.271240234375, 0, 
210, 2026431023, 0.13891482, -0.5894385, -0.1491572, -0.78167593, 9.556746482849121, 0.5612431764602661, 2.7034199237823486, 0.7589747905731201, 2.5311429500579834, 3.6404032707214355, -0.792236328125, -1.073974609375, 0.26904296875, 0, 
211, 2026447690, 0.13927077, -0.589159, -0.14870618, -0.7819093, 9.538697242736816, 0.5571342706680298, 2.680901288986206, 0.3854391276836395, 2.4140548706054688, 3.856588125228882, -0.792236328125, -1.073974609375, 0.267333984375, 0, 
212, 2026464357, 0.1396629, -0.58890986, -0.14827892, -0.7821081, 9.514280319213867, 0.5537720322608948, 2.669907569885254, 0.7102466225624084, 2.1295361518859863, 4.024171829223633, -0.79296875, -1.075439453125, 0.270751953125, 0, 
213, 2026481024, 0.1400985, -0.5887091, -0.1479014, -0.78225267, 9.515766143798828, 0.5964451432228088, 2.6799068450927734, 1.0847171545028687, 1.640692114830017, 4.131463527679443, -0.79443359375, -1.07275390625, 0.265625, 0, 
214, 2026497691, 0.14053865, -0.58857924, -0.14754558, -0.7823387, 9.526235580444336, 0.616015613079071, 2.7104108333587646, 1.2921544313430786, 1.0158318281173706, 4.21438455581665, -0.792236328125, -1.072265625, 0.266357421875, 0, 
215, 2026514358, 0.14100687, -0.5885313, -0.14721769, -0.78235227, 9.504579544067383, 0.6300380825996399, 2.7409794330596924, 1.566389560699463, 0.2850757837295532, 4.409194469451904, -0.7939453125, -1.0693359375, 0.265625, 0, 
216, 2026531025, 0.14152503, -0.5885428, -0.14699946, -0.782291, 9.48825740814209, 0.6352578997612, 2.767620801925659, 2.354684591293335, -0.39654862880706787, 4.359633922576904, -0.79345703125, -1.068359375, 0.267333984375, 0, 
217, 2026547692, 0.14209373, -0.5886251, -0.14691293, -0.7821423, 9.462174415588379, 0.650859534740448, 2.7758665084838867, 3.2796359062194824, -1.2096238136291504, 4.2538018226623535, -0.795654296875, -1.067626953125, 0.26513671875, 0, 
218, 2026564359, 0.14270133, -0.5887721, -0.14695624, -0.7819128, 9.44669246673584, 0.6687650680541992, 2.8105568885803223, 4.172161102294922, -1.9737658500671387, 4.088587284088135, -0.798828125, -1.067626953125, 0.263916015625, 0, 
219, 2026581026, 0.14328843, -0.58896685, -0.14708517, -0.78163445, 9.455554008483887, 0.6745803356170654, 2.805448055267334, 4.607706069946289, -2.532776355743408, 3.7456462383270264, -0.79833984375, -1.0654296875, 0.26806640625, 0, 
220, 2026597693, 0.14379992, -0.5891837, -0.14724836, -0.78134644, 9.46949291229248, 0.7070170044898987, 2.8128199577331543, 4.438648700714111, -2.8085219860076904, 3.2258617877960205, -0.800048828125, -1.06640625, 0.26953125, 0, 
221, 2026614360, 0.14419663, -0.58940977, -0.14737211, -0.7810795, 9.474136352539062, 0.7335977554321289, 2.813181161880493, 3.7443912029266357, -2.853344678878784, 2.766446828842163, -0.79833984375, -1.067138671875, 0.270751953125, 0, 
222, 2026631027, 0.14443678, -0.5896234, -0.14737563, -0.78087306, 9.47336483001709, 0.7674162983894348, 2.804809331893921, 2.4293837547302246, -2.584308385848999, 2.351149559020996, -0.799560546875, -1.0654296875, 0.270751953125, 0, 
223, 2026647694, 0.14455275, -0.5898143, -0.14724697, -0.7807317, 9.481758117675781, 0.7767899036407471, 2.7509636878967285, 1.1661653518676758, -2.1986706256866455, 2.137744665145874, -0.80078125, -1.0654296875, 0.27197265625, 0, 
224, 2026664361, 0.14456584, -0.58998007, -0.14702797, -0.7806454, 9.501062393188477, 0.7440263032913208, 2.7773377895355225, 0.24080419540405273, -1.8557679653167725, 1.8818482160568237, -0.799560546875, -1.063720703125, 0.27197265625, 0, 
225, 2026681028, 0.14452736, -0.59008515, -0.14677975, -0.7806198, 9.508749961853027, 0.7322964072227478, 2.779261827468872, -0.1484256088733673, -1.3115622997283936, 1.6039247512817383, -0.7978515625, -1.064208984375, 0.2724609375, 0, 
226, 2026697695, 0.14444359, -0.5901419, -0.1464727, -0.7806501, 9.51364517211914, 0.7165727019309998, 2.817065954208374, -0.6363090872764587, -0.8144325017929077, 1.5055975914001465, -0.80126953125, -1.064208984375, 0.26953125, 0, 
227, 2026714362, 0.14430064, -0.590185, -0.14612411, -0.7807093, 9.516806602478027, 0.6914342641830444, 2.801975727081299, -1.1147159337997437, -0.646605372428894, 1.3206995725631714, -0.8017578125, -1.064697265625, 0.2685546875, 0, 
228, 2026731029, 0.14409247, -0.59020674, -0.1457409, -0.7808027, 9.529390335083008, 0.6712703108787537, 2.8085577487945557, -1.5457649230957031, -0.4260160028934479, 1.0686450004577637, -0.800537109375, -1.06201171875, 0.26953125, 0, 
229, 2026747696, 0.14383116, -0.59020305, -0.14534973, -0.7809267, 9.531725883483887, 0.6593856811523438, 2.807281255722046, -1.8855557441711426, -0.221229687333107, 0.7425953149795532, -0.80126953125, -1.064697265625, 0.270751953125, 0, 
230, 2026764363, 0.14352337, -0.59020025, -0.14496066, -0.7810577, 9.50463581085205, 0.6386498212814331, 2.818552017211914, -2.075935125350952, -0.24932682514190674, 0.48024454712867737, -0.802734375, -1.064208984375, 0.26953125, 0, 
231, 2026781030, 0.14313385, -0.5901959, -0.14455485, -0.7812077, 9.489105224609375, 0.6284489035606384, 2.7993531227111816, -2.519418716430664, -0.2340872585773468, 0.09017589688301086, -0.8017578125, -1.063232421875, 0.267333984375, 0, 
232, 2026797697, 0.14271109, -0.59018785, -0.14414644, -0.7813665, 9.506081581115723, 0.6047478318214417, 2.7978739738464355, -2.6416938304901123, -0.20994728803634644, -0.08089771121740341, -0.803466796875, -1.06591796875, 0.267333984375, 0, 
233, 2026814364, 0.14229237, -0.5901728, -0.14378427, -0.7815211, 9.530989646911621, 0.5671495199203491, 2.8017611503601074, -2.413625478744507, -0.23682785034179688, -0.2618642747402191, -0.802734375, -1.064208984375, 0.265625, 0, 
234, 2026831031, 0.14188333, -0.590157, -0.14349796, -0.78165996, 9.548088073730469, 0.5202254056930542, 2.8088674545288086, -1.9520589113235474, -0.3648656904697418, -0.5039682388305664, -0.80322265625, -1.063720703125, 0.2646484375, 0, 
235, 2026847698, 0.14148664, -0.5901281, -0.14330275, -0.78178954, 9.543878555297852, 0.5138277411460876, 2.7947616577148438, -1.4001309871673584, -0.41181379556655884, -0.8183513879776001, -0.802734375, -1.06494140625, 0.263916015625, 0, 
236, 2026864365, 0.14107661, -0.5901198, -0.14313005, -0.78190136, 9.530596733093262, 0.5042183995246887, 2.807645082473755, -1.3350235223770142, -0.6311737895011902, -0.9469912052154541, -0.800048828125, -1.0654296875, 0.263916015625, 0, 
237, 2026881032, 0.14059077, -0.59011996, -0.14294016, -0.7820237, 9.559622764587402, 0.509804904460907, 2.7818894386291504, -1.7600150108337402, -0.6950134038925171, -1.2929545640945435, -0.800048828125, -1.066650390625, 0.26513671875, 0, 
238, 2026897699, 0.14003882, -0.59012955, -0.1426731, -0.7821642, 9.574494361877441, 0.5248396396636963, 2.7818117141723633, -2.4955990314483643, -0.6653411388397217, -1.3551549911499023, -0.801513671875, -1.06591796875, 0.262451171875, 0, 
239, 2026914366, 0.13951315, -0.5901367, -0.14240538, -0.7823015, 9.552997589111328, 0.5007528066635132, 2.762352228164673, -2.384491205215454, -0.6386014819145203, -1.213209629058838, -0.801513671875, -1.067138671875, 0.26171875, 0, 
240, 2026931033, 0.13898425, -0.59012336, -0.14216475, -0.78244954, 9.516197204589844, 0.4988093376159668, 2.7544336318969727, -2.2551214694976807, -0.5148024559020996, -1.379064679145813, -0.798828125, -1.067626953125, 0.262939453125, 0, 
241, 2026947700, 0.1385041, -0.5900981, -0.141976, -0.782588, 9.491049766540527, 0.5021564960479736, 2.7448370456695557, -1.780005931854248, -0.49303165078163147, -1.3410555124282837, -0.801513671875, -1.068359375, 0.25732421875, 0, 
242, 2026964367, 0.13802947, -0.5900607, -0.141774, -0.7827366, 9.47464370727539, 0.5104778409004211, 2.7183303833007812, -1.7450828552246094, -0.3620995581150055, -1.2610028982162476, -0.801513671875, -1.067626953125, 0.26123046875, 0, 
243, 2026981034, 0.13759123, -0.590023, -0.14156243, -0.7828804, 9.462494850158691, 0.5101402401924133, 2.7120442390441895, -1.7772140502929688, -0.3428516089916229, -1.0633368492126465, -0.802001953125, -1.06884765625, 0.25732421875, 0, 
244, 2026997701, 0.13720962, -0.5899884, -0.14143267, -0.78299695, 9.486531257629395, 0.45488572120666504, 2.706193685531616, -1.026352047920227, -0.48789626359939575, -1.0498645305633545, -0.7998046875, -1.067138671875, 0.25830078125, 0, 
245, 2027014368, 0.13685453, -0.58998233, -0.14135745, -0.7830773, 9.518295288085938, 0.467885285615921, 2.6965065002441406, -0.67132169008255, -0.8157516717910767, -1.0883091688156128, -0.798095703125, -1.0693359375, 0.2578125, 0, 
246, 2027031035, 0.13650298, -0.58999974, -0.14129093, -0.7831375, 9.580220222473145, 0.5051999092102051, 2.6762824058532715, -0.5620835423469543, -1.0208326578140259, -1.055166482925415, -0.798828125, -1.068359375, 0.256103515625, 0, 
247, 2027047702, 0.13611928, -0.59006983, -0.14114684, -0.7831773, 9.616539001464844, 0.5148962140083313, 2.699028730392456, -1.1750465631484985, -1.343808650970459, -0.8576667904853821, -0.798095703125, -1.070068359375, 0.255615234375, 0, 
248, 2027064369, 0.13573991, -0.5901766, -0.14094028, -0.7831999, 9.655712127685547, 0.4971647560596466, 2.6851491928100586, -1.4722309112548828, -1.5436005592346191, -0.5237797498703003, -0.802001953125, -1.067626953125, 0.2578125, 0, 
249, 2027081036, 0.1354553, -0.5903194, -0.14080943, -0.78316504, 9.753284454345703, 0.45387643575668335, 2.6775028705596924, -0.8152523040771484, -1.9548381567001343, -0.28006207942962646, -0.800537109375, -1.070068359375, 0.25732421875, 0, 
250, 2027097703, 0.13522491, -0.5905149, -0.14076722, -0.78306514, 9.882891654968262, 0.4675103724002838, 2.716578722000122, -0.03902094438672066, -2.52262020111084, -0.22598083317279816, -0.800537109375, -1.072265625, 0.2568359375, 0, 
251, 2027114370, 0.1350309, -0.59076625, -0.1407409, -0.7829138, 9.97048282623291, 0.48219165205955505, 2.7690420150756836, 0.2241431176662445, -3.0025765895843506, 0.00876594614237547, -0.801513671875, -1.0732421875, 0.259521484375, 0, 
252, 2027131037, 0.13484325, -0.59105444, -0.14069451, -0.782737, 9.897753715515137, 0.5324769020080566, 2.760849952697754, 0.06953207403421402, -3.2816526889801025, 0.15918932855129242, -0.798828125, -1.072265625, 0.25732421875, 0, 
253, 2027147704, 0.1346258, -0.5913839, -0.14058723, -0.78254503, 9.654280662536621, 0.5265955924987793, 2.74796986579895, -0.3023323118686676, -3.5253958702087402, 0.32281604409217834, -0.79931640625, -1.071044921875, 0.25830078125, 0, 
254, 2027164371, 0.13445204, -0.5917345, -0.14053184, -0.7823195, 9.405465126037598, 0.4863484501838684, 2.686462640762329, 0.09720660746097565, -3.7876319885253906, 0.3759624660015106, -0.79931640625, -1.074462890625, 0.2578125, 0, 
255, 2027181038, 0.13435681, -0.59207404, -0.14064741, -0.7820582, 9.215234756469727, 0.45152217149734497, 2.6823248863220215, 1.4478793144226074, -3.9493627548217773, 0.13758501410484314, -0.801025390625, -1.0732421875, 0.262451171875, 0, 
256, 2027197705, 0.13438946, -0.5923948, -0.14097911, -0.78174996, 9.143804550170898, 0.47954094409942627, 2.701058864593506, 3.0366480350494385, -4.1294846534729, -0.07577517628669739, -0.798828125, -1.07275390625, 0.26171875, 0, 
257, 2027214372, 0.1344824, -0.59270555, -0.14139898, -0.7814225, 9.168859481811523, 0.5298362374305725, 2.736379384994507, 3.8611721992492676, -4.174383640289307, -0.0878259465098381, -0.79931640625, -1.074951171875, 0.26123046875, 0, 
258, 2027231039, 0.13457857, -0.59303516, -0.14179556, -0.78108394, 9.271894454956055, 0.5711657404899597, 2.7294886112213135, 3.8866825103759766, -4.291049957275391, 0.08974049985408783, -0.801025390625, -1.074951171875, 0.262939453125, 0, 
259, 2027247706, 0.13465379, -0.593385, -0.14215437, -0.78073996, 9.36309814453125, 0.5674866437911987, 2.7093732357025146, 3.501890182495117, -4.418178081512451, 0.13349980115890503, -0.800048828125, -1.075439453125, 0.2646484375, 0, 
260, 2027264373, 0.13468708, -0.59373724, -0.14244899, -0.7804128, 9.41858959197998, 0.5775324702262878, 2.706329584121704, 2.994413137435913, -4.345080375671387, 0.16178905963897705, -0.80224609375, -1.074951171875, 0.26806640625, 0, 
261, 2027281040, 0.13476558, -0.59407693, -0.14276582, -0.78008264, 9.456738471984863, 0.5616673231124878, 2.721245288848877, 3.21500301361084, -4.276297569274902, 0.27818599343299866, -0.8017578125, -1.07421875, 0.26806640625, 0, 
262, 2027297707, 0.13486464, -0.59438884, -0.14312622, -0.7797619, 9.504715919494629, 0.5492913126945496, 2.7113332748413086, 3.592392683029175, -4.108571529388428, 0.18390558660030365, -0.800048828125, -1.075927734375, 0.270263671875, 0, 
263, 2027314374, 0.13496204, -0.59469545, -0.1434886, -0.7794445, 9.557106971740723, 0.6043811440467834, 2.7396156787872314, 3.6090028285980225, -4.072035312652588, 0.15802396833896637, -0.7978515625, -1.075439453125, 0.270263671875, 0, 
264, 2027331041, 0.13503663, -0.59499156, -0.14378974, -0.7791501, 9.586922645568848, 0.6345837116241455, 2.7882936000823975, 3.2558422088623047, -3.8840768337249756, 0.27594485878944397, -0.799560546875, -1.07421875, 0.270263671875, 0, 
265, 2027347708, 0.13505165, -0.5952775, -0.14396195, -0.7788973, 9.584131240844727, 0.6531521677970886, 2.808420419692993, 2.233344078063965, -3.607996702194214, 0.420605331659317, -0.80078125, -1.079833984375, 0.273681640625, 0, 
266, 2027364375, 0.13503039, -0.5955502, -0.14403887, -0.7786781, 9.55545425415039, 0.6114842295646667, 2.7740187644958496, 1.5727159976959229, -3.352933168411255, 0.5782003402709961, -0.80126953125, -1.0771484375, 0.2724609375, 0, 
267, 2027381042, 0.13497, -0.5958201, -0.144104, -0.77847004, 9.549683570861816, 0.5683487057685852, 2.8036139011383057, 1.3689155578613281, -3.3235297203063965, 0.41025784611701965, -0.802978515625, -1.078125, 0.275146484375, 0, 
268, 2027397709, 0.13484102, -0.5960441, -0.14415939, -0.7783106, 9.574892044067383, 0.607001543045044, 2.7985076904296875, 0.9678975939750671, -2.948713541030884, -0.026086537167429924, -0.799072265625, -1.07763671875, 0.274658203125, 0, 
269, 2027414376, 0.13467115, -0.5961981, -0.14411364, -0.77823055, 9.586241722106934, 0.6689653396606445, 2.787907361984253, 0.31109824776649475, -2.1975183486938477, 0.04272839054465294, -0.802001953125, -1.078125, 0.274169921875, 0, 
270, 2027431043, 0.13441958, -0.5963115, -0.1438858, -0.77822936, 9.569719314575195, 0.720361053943634, 2.794700860977173, -1.0483406782150269, -1.5775885581970215, 0.23762823641300201, -0.80029296875, -1.078857421875, 0.275146484375, 0, 
271, 2027447710, 0.1341296, -0.596336, -0.14348333, -0.7783349, 9.603408813476562, 0.7165008783340454, 2.7489917278289795, -2.2023849487304688, -0.5487905740737915, 0.5547518730163574, -0.802001953125, -1.0771484375, 0.27294921875, 0, 
272, 2027464377, 0.13385434, -0.5962588, -0.1429914, -0.7785319, 9.639720916748047, 0.6796366572380066, 2.7251813411712646, -2.629950523376465, 0.4616497755050659, 0.8165009021759033, -0.8017578125, -1.07763671875, 0.2724609375, 0, 
273, 2027481044, 0.1336167, -0.59607047, -0.14241403, -0.7788228, 9.664375305175781, 0.6973369121551514, 2.728282928466797, -2.935112714767456, 1.5519055128097534, 1.170263409614563, -0.802490234375, -1.0771484375, 0.270263671875, 0, 
274, 2027497711, 0.13345568, -0.5957777, -0.1418035, -0.7791858, 9.671958923339844, 0.7030095458030701, 2.7242698669433594, -2.7655956745147705, 2.5113577842712402, 1.553327202796936, -0.802978515625, -1.079345703125, 0.2685546875, 0, 
275, 2027514378, 0.13333605, -0.5954064, -0.14117694, -0.77960366, 9.641192436218262, 0.7353352308273315, 2.7367656230926514, -2.6563572883605957, 3.209866762161255, 1.7193870544433594, -0.800537109375, -1.078857421875, 0.266357421875, 0, 
276, 2027531045, 0.13327678, -0.59497756, -0.14056057, -0.7800524, 9.600626945495605, 0.7004467844963074, 2.7356455326080322, -2.2916455268859863, 3.6941137313842773, 1.931665301322937, -0.8017578125, -1.079345703125, 0.265625, 0, 
277, 2027547712, 0.13324946, -0.5945188, -0.14001425, -0.780505, 9.574808120727539, 0.6805157661437988, 2.720489501953125, -1.8132641315460205, 3.8319616317749023, 1.7757606506347656, -0.8017578125, -1.078857421875, 0.263916015625, 0, 
278, 2027564379, 0.13323429, -0.5940473, -0.13950633, -0.78095734, 9.542699813842773, 0.6729875206947327, 2.6990535259246826, -1.5572394132614136, 3.87310791015625, 1.671350359916687, -0.801025390625, -1.075439453125, 0.26171875, 0, 
279, 2027581046, 0.13320589, -0.59358466, -0.1390453, -0.78139615, 9.498064994812012, 0.6992546916007996, 2.699979782104492, -1.375722050666809, 3.713078737258911, 1.4286185503005981, -0.804931640625, -1.0771484375, 0.259521484375, 0, 
280, 2027597713, 0.13315016, -0.5931586, -0.13865975, -0.78179765, 9.465479850769043, 0.6744656562805176, 2.718212842941284, -1.0700091123580933, 3.2693653106689453, 1.049960732460022, -0.80322265625, -1.07763671875, 0.259033203125, 0, 
281, 2027614380, 0.13309368, -0.5927707, -0.13838841, -0.78214955, 9.439109802246094, 0.6672258973121643, 2.7234482765197754, -0.46294957399368286, 2.7561378479003906, 0.6605451703071594, -0.801025390625, -1.076171875, 0.260009765625, 0, 
282, 2027631047, 0.1330398, -0.59245354, -0.13823462, -0.78242594, 9.4451322555542, 0.6583866477012634, 2.723172426223755, 0.11760710924863815, 1.9561634063720703, 0.3180648982524872, -0.800537109375, -1.077880859375, 0.256103515625, 0, 
283, 2027647714, 0.13295619, -0.59221315, -0.13815933, -0.78263545, 9.468877792358398, 0.6785889863967896, 2.753798723220825, 0.5219676494598389, 1.179573655128479, 0.0048472038470208645, -0.80224609375, -1.077880859375, 0.25732421875, 0, 
284, 2027664381, 0.13286503, -0.5920426, -0.13817161, -0.7827777, 9.492348670959473, 0.6804319024085999, 2.727632999420166, 0.9019192457199097, 0.437624990940094, -0.2765146791934967, -0.805419921875, -1.07666015625, 0.2568359375, 0, 
285, 2027681048, 0.13279136, -0.5919192, -0.1382893, -0.78286284, 9.506268501281738, 0.6827622056007385, 2.7310664653778076, 1.5057512521743774, -0.13200783729553223, -0.523267388343811, -0.802734375, -1.07958984375, 0.25439453125, 0, 
286, 2027697715, 0.13274321, -0.5918473, -0.13853824, -0.78288144, 9.510026931762695, 0.668486475944519, 2.724180221557617, 2.4463138580322266, -0.7651538252830505, -0.7762568593025208, -0.801513671875, -1.077880859375, 0.25732421875, 0, 
287, 2027714382, 0.13275245, -0.5917939, -0.1389259, -0.7828515, 9.522216796875, 0.6823797225952148, 2.740817070007324, 3.3713936805725098, -1.138689398765564, -0.9894442558288574, -0.7998046875, -1.078857421875, 0.255126953125, 0, 
288, 2027731049, 0.13279706, -0.5917598, -0.13937572, -0.7827897, 9.50306510925293, 0.7271521091461182, 2.7151052951812744, 3.9874556064605713, -1.3845711946487427, -0.967775821685791, -0.798828125, -1.077880859375, 0.25732421875, 0, 
289, 2027747716, 0.13285227, -0.5917655, -0.13983108, -0.7826948, 9.504908561706543, 0.7348037362098694, 2.7419302463531494, 3.995434045791626, -1.732724905014038, -0.8759415745735168, -0.800537109375, -1.078369140625, 0.259521484375, 0, 
290, 2027764383, 0.13287792, -0.59177303, -0.14025378, -0.78260916, 9.495485305786133, 0.7457923293113708, 2.742582082748413, 3.6315667629241943, -1.706663727760315, -0.92030268907547, -0.7978515625, -1.07958984375, 0.259521484375, 0, 
291, 2027781050, 0.13288379, -0.59179157, -0.14064817, -0.78252333, 9.51760482788086, 0.7076932787895203, 2.7147469520568848, 3.4840002059936523, -1.75252366065979, -0.8699226975440979, -0.798828125, -1.0810546875, 0.262939453125, 0, 
292, 2027797717, 0.13294151, -0.59177566, -0.14113455, -0.78243804, 9.490942001342773, 0.6898674368858337, 2.733471393585205, 4.1127400398254395, -1.604648470878601, -1.0252506732940674, -0.801025390625, -1.080078125, 0.26171875, 0, 
293, 2027814384, 0.13296477, -0.59172946, -0.14158018, -0.78238845, 9.508466720581055, 0.7384639382362366, 2.706533193588257, 3.776841878890991, -1.290956735610962, -1.0960441827774048, -0.799072265625, -1.080078125, 0.26416015625, 0, 
294, 2027831051, 0.13292947, -0.5916755, -0.14193608, -0.7823707, 9.487676620483398, 0.7627698183059692, 2.723865032196045, 3.005605459213257, -1.0943665504455566, -1.0872719287872314, -0.796142578125, -1.0810546875, 0.2646484375, 0, 
295, 2027847718, 0.1328174, -0.59161943, -0.142103, -0.7824019, 9.484883308410645, 0.7708349227905273, 2.6932170391082764, 1.6698262691497803, -0.7829545736312866, -0.7626821398735046, -0.799560546875, -1.083251953125, 0.262451171875, 0, 
296, 2027864385, 0.13262728, -0.5915803, -0.142142, -0.78245664, 9.501486778259277, 0.738920271396637, 2.7111377716064453, 0.7120010852813721, -0.7282587289810181, -0.6406376957893372, -0.799560546875, -1.0810546875, 0.266357421875, 0, 
297, 2027881052, 0.1324704, -0.59152335, -0.14221655, -0.7825128, 9.539508819580078, 0.6707808375358582, 2.7141642570495605, 0.863141655921936, -0.6427506804466248, -0.673345148563385, -0.800048828125, -1.083251953125, 0.2646484375, 0, 
298, 2027897719, 0.1323041, -0.59144235, -0.14229825, -0.78258735, 9.525565147399902, 0.720570981502533, 2.707268476486206, 0.9346522688865662, -0.4469928443431854, -0.7752708196640015, -0.799560546875, -1.08154296875, 0.2646484375, 0, 
299, 2027914386, 0.13213263, -0.59137857, -0.14234754, -0.7826554, 9.519330024719238, 0.7326647639274597, 2.706608533859253, 0.7037666440010071, -0.5415292978286743, -0.6535720825195312, -0.799072265625, -1.082275390625, 0.26513671875, 0, 
300, 2027931053, 0.13187928, -0.5913564, -0.14228053, -0.7827272, 9.505855560302734, 0.7341272830963135, 2.7241406440734863, -0.3303910195827484, -0.7270420789718628, -0.5914740562438965, -0.7978515625, -1.082275390625, 0.266845703125, 0, 
301, 2027947720, 0.13162525, -0.59133565, -0.14218576, -0.7828028, 9.474994659423828, 0.7146020531654358, 2.7065532207489014, -0.5524018406867981, -0.6989833116531372, -0.5003312826156616, -0.796142578125, -1.08447265625, 0.266845703125, 0, 
302, 2027964387, 0.13138816, -0.5913158, -0.14214437, -0.78286517, 9.446771621704102, 0.697523295879364, 2.7186954021453857, -0.1439305692911148, -0.7850804924964905, -0.6017703413963318, -0.799560546875, -1.082275390625, 0.266845703125, 0, 
303, 2027981054, 0.13116033, -0.5912946, -0.14214778, -0.78291875, 9.425525665283203, 0.7135563492774963, 2.724560022354126, 0.03641485422849655, -0.8541194200515747, -0.7552031874656677, -0.80126953125, -1.083984375, 0.263427734375, 0, 
304, 2027997721, 0.13091598, -0.5912754, -0.14214042, -0.78297555, 9.407454490661621, 0.711132287979126, 2.760807514190674, 0.029230492189526558, -0.8470631837844849, -0.7681503891944885, -0.796875, -1.086181640625, 0.2646484375, 0, 
305, 2028014388, 0.13066076, -0.59125966, -0.14210112, -0.78303725, 9.357344627380371, 0.7224308848381042, 2.7698349952697754, -0.17029884457588196, -0.8273414373397827, -0.6908642053604126, -0.796142578125, -1.086181640625, 0.26513671875, 0, 
306, 2028031055, 0.13038124, -0.5912607, -0.14205118, -0.783092, 9.338940620422363, 0.7189834713935852, 2.77154278755188, -0.3846258819103241, -0.9657908082008362, -0.7674972414970398, -0.7978515625, -1.0849609375, 0.26513671875, 0, 
307, 2028047722, 0.13010077, -0.5912612, -0.14202113, -0.7831438, 9.310403823852539, 0.6867467761039734, 2.7849154472351074, -0.35348087549209595, -1.0026986598968506, -0.8715618252754211, -0.80126953125, -1.086669921875, 0.26513671875, 0, 
308, 2028064389, 0.12985072, -0.5912336, -0.14204496, -0.7832019, 9.305852890014648, 0.6751576662063599, 2.803506374359131, 0.050015199929475784, -0.8496628403663635, -0.966917872428894, -0.799072265625, -1.08544921875, 0.267333984375, 0, 
309, 2028081056, 0.12962122, -0.5912057, -0.14213179, -0.7832451, 9.314209938049316, 0.6631821393966675, 2.8216419219970703, 0.35476788878440857, -0.9592724442481995, -1.1375367641448975, -0.800048828125, -1.0888671875, 0.265625, 0, 
310, 2028097723, 0.12937, -0.591174, -0.14221953, -0.7832946, 9.359270095825195, 0.6449733972549438, 2.8491451740264893, 0.4284684658050537, -0.9255790114402771, -1.2243382930755615, -0.799560546875, -1.08837890625, 0.263427734375, 0, 
311, 2028114390, 0.12912646, -0.59112644, -0.14231081, -0.78335404, 9.39932632446289, 0.6393174529075623, 2.834298610687256, 0.5309064388275146, -0.7944419384002686, -1.2108659744262695, -0.799560546875, -1.090087890625, 0.266357421875, 0, 
312, 2028131057, 0.12886533, -0.5910878, -0.14241545, -0.7834072, 9.385224342346191, 0.623325526714325, 2.8599414825439453, 0.4314267337322235, -0.9095838665962219, -1.374941110610962, -0.7978515625, -1.090576171875, 0.266357421875, 0, 
313, 2028147724, 0.12855732, -0.5910375, -0.14246462, -0.78348684, 9.42741584777832, 0.6293511986732483, 2.8519046306610107, -0.06335301697254181, -0.7388495802879333, -1.4364627599716187, -0.799072265625, -1.089599609375, 0.2646484375, 0, 
314, 2028164391, 0.12827, -0.5909734, -0.14250219, -0.78357553, 9.46908187866211, 0.6000267863273621, 2.862694501876831, -0.014548014849424362, -0.5968911647796631, -1.2969247102737427, -0.80029296875, -1.091064453125, 0.267333984375, 0, 
315, 2028181058, 0.12798369, -0.59089136, -0.14253092, -0.7836789, 9.561962127685547, 0.5782907009124756, 2.852044105529785, -0.2100241631269455, -0.4507195055484772, -1.3319629430770874, -0.8017578125, -1.091064453125, 0.26513671875, 0, 
316, 2028197725, 0.12768039, -0.59079456, -0.14257461, -0.78379345, 9.680344581604004, 0.5702519416809082, 2.8635716438293457, -0.1458515077829361, -0.35298141837120056, -1.5008400678634644, -0.800048828125, -1.090087890625, 0.263427734375, 0, 
317, 2028214392, 0.12736802, -0.59069335, -0.14256398, -0.78392255, 9.775096893310547, 0.5975472331047058, 2.880178689956665, -0.40652477741241455, -0.22516123950481415, -1.3290302753448486, -0.798583984375, -1.090087890625, 0.266357421875, 0, 
318, 2028231059, 0.12708995, -0.5905938, -0.14247403, -0.784059, 9.843002319335938, 0.6047698259353638, 2.8394205570220947, -0.8253949284553528, -0.11370757967233658, -0.866657018661499, -0.799072265625, -1.091796875, 0.265869140625, 0, 
319, 2028247726, 0.12691441, -0.5904697, -0.14244278, -0.78418636, 9.881675720214844, 0.5459187626838684, 2.803220748901367, -0.04744752496480942, 0.03294433280825615, -0.5688452124595642, -0.7978515625, -1.090087890625, 0.26513671875, 0, 
320, 2028264393, 0.12684324, -0.59032017, -0.14249961, -0.78430015, 9.88863468170166, 0.5179622769355774, 2.7323179244995117, 0.9299394488334656, 0.1460115909576416, -0.37132012844085693, -0.80224609375, -1.090087890625, 0.262939453125, 0, 
321, 2028281060, 0.12685047, -0.5900994, -0.14255115, -0.7844558, 9.866132736206055, 0.5850202441215515, 2.6791646480560303, 1.188141107559204, 0.7833067178726196, -0.056949831545352936, -0.80078125, -1.090087890625, 0.262939453125, 0, 
322, 2028297727, 0.12695538, -0.5898189, -0.14249283, -0.7846604, 9.74852466583252, 0.6083592772483826, 2.639727830886841, 1.0471431016921997, 1.5056359767913818, 0.8234930634498596, -0.799072265625, -1.09130859375, 0.262939453125, 0, 
323, 2028314394, 0.12713847, -0.58952105, -0.14234802, -0.7848808, 9.591485977172852, 0.562552273273468, 2.6157681941986084, 0.9227294325828552, 1.8252313137054443, 1.5688738822937012, -0.800048828125, -1.09130859375, 0.26025390625, 0, 
324, 2028331061, 0.12737195, -0.5892268, -0.1421054, -0.785108, 9.453756332397461, 0.6114295721054077, 2.5885086059570312, 0.6828410029411316, 1.9813793897628784, 2.2551534175872803, -0.799560546875, -1.09130859375, 0.262451171875, 0, 
325, 2028347728, 0.12765902, -0.58895636, -0.14183082, -0.7853137, 9.339278221130371, 0.5833407044410706, 2.583305597305298, 0.6181817650794983, 1.8427379131317139, 2.6816816329956055, -0.79833984375, -1.090087890625, 0.26171875, 0, 
326, 2028364395, 0.12793465, -0.58874595, -0.14149348, -0.7854876, 9.301017761230469, 0.5320473313331604, 2.5679080486297607, 0.22524449229240417, 1.439440131187439, 2.961231231689453, -0.799560546875, -1.09130859375, 0.258544921875, 0, 
327, 2028381062, 0.1282257, -0.58858997, -0.14119838, -0.78561014, 9.296089172363281, 0.4655194878578186, 2.5884504318237305, 0.5796217918395996, 0.9279929399490356, 2.984462261199951, -0.80126953125, -1.08837890625, 0.2607421875, 0, 
328, 2028397729, 0.12849109, -0.5885122, -0.14094664, -0.7856703, 9.329696655273438, 0.5330228805541992, 2.6142916679382324, 0.6192318201065063, 0.18564724922180176, 2.7708396911621094, -0.799560546875, -1.089599609375, 0.26025390625, 0, 
329, 2028414396, 0.12863682, -0.5885588, -0.1406632, -0.78566223, 9.392715454101562, 0.5630261301994324, 2.651435136795044, -0.0043029338121414185, -0.8387390971183777, 2.45060396194458, -0.803466796875, -1.0888671875, 0.259521484375, 0, 
330, 2028431063, 0.12865832, -0.58874613, -0.14032061, -0.78557974, 9.451274871826172, 0.5608290433883667, 2.68111515045166, -0.9274870753288269, -1.9689379930496216, 2.2047479152679443, -0.802734375, -1.090087890625, 0.26123046875, 0, 
331, 2028447730, 0.12857346, -0.5890492, -0.13994354, -0.7854336, 9.507651329040527, 0.5528042316436768, 2.703831672668457, -1.6455647945404053, -2.925175666809082, 1.9161312580108643, -0.802734375, -1.087158203125, 0.258544921875, 0, 
332, 2028464397, 0.12837188, -0.5894531, -0.13951552, -0.7852396, 9.56494140625, 0.5865950584411621, 2.6848955154418945, -2.3563430309295654, -3.7214620113372803, 1.652077078819275, -0.804443359375, -1.08837890625, 0.26171875, 0, 
333, 2028481064, 0.12815507, -0.58989376, -0.13910265, -0.7850173, 9.593900680541992, 0.5863637328147888, 2.674666404724121, -2.4558608531951904, -4.068757057189941, 1.5309927463531494, -0.80322265625, -1.085693359375, 0.258544921875, 0, 
334, 2028497731, 0.12794547, -0.5903463, -0.1387352, -0.78477645, 9.608719825744629, 0.5711607336997986, 2.6758618354797363, -2.1074514389038086, -4.231435775756836, 1.4319356679916382, -0.803955078125, -1.087158203125, 0.258544921875, 0, 
335, 2028514398, 0.12782207, -0.59079134, -0.13850357, -0.78450227, 9.605352401733398, 0.5858123302459717, 2.6825027465820312, -0.9765995740890503, -4.358743667602539, 1.3680192232131958, -0.807861328125, -1.086669921875, 0.2578125, 0, 
336, 2028531065, 0.12779868, -0.5912153, -0.1384198, -0.78420156, 9.580144882202148, 0.6162319779396057, 2.730442523956299, 0.23835821449756622, -4.387058734893799, 1.298480749130249, -0.807373046875, -1.086669921875, 0.2646484375, 0, 
337, 2028547732, 0.12786768, -0.5916308, -0.1384312, -0.7838749, 9.550117492675781, 0.6248491406440735, 2.7613446712493896, 0.9389681220054626, -4.460669994354248, 1.3633705377578735, -0.806884765625, -1.08837890625, 0.262939453125, 0, 
338, 2028564399, 0.1279932, -0.5920288, -0.13854584, -0.7835336, 9.522991180419922, 0.6043701767921448, 2.7771334648132324, 1.901121735572815, -4.4501166343688965, 1.283983826637268, -0.803466796875, -1.08837890625, 0.263427734375, 0, 
339, 2028581066, 0.12814268, -0.5924267, -0.13876139, -0.78317016, 9.519824981689453, 0.5799252390861511, 2.7639267444610596, 2.64180326461792, -4.599094390869141, 1.0437496900558472, -0.807373046875, -1.087646484375, 0.26171875, 0, 
340, 2028597733, 0.12828162, -0.5928105, -0.13908902, -0.7827987, 9.497333526611328, 0.5782373547554016, 2.763590097427368, 3.2856805324554443, -4.660538673400879, 0.5410619378089905, -0.80859375, -1.087646484375, 0.265625, 0, 
341, 2028614400, 0.12840723, -0.59317416, -0.13947499, -0.7824339, 9.494013786315918, 0.6049134135246277, 2.7840607166290283, 3.4474117755889893, -4.599977016448975, 0.1738654226064682, -0.807861328125, -1.0888671875, 0.26806640625, 0, 
342, 2028631067, 0.12849393, -0.59355587, -0.13988371, -0.7820572, 9.493298530578613, 0.6165391802787781, 2.789698839187622, 3.4299697875976562, -4.802701950073242, -0.09297411888837814, -0.80859375, -1.088134765625, 0.266845703125, 0, 
343, 2028647734, 0.12851831, -0.5939358, -0.14028236, -0.78169334, 9.516168594360352, 0.5983716249465942, 2.778428792953491, 3.1827428340911865, -4.788819313049316, -0.38182133436203003, -0.806884765625, -1.091552734375, 0.271240234375, 0, 
344, 2028664401, 0.12852319, -0.59428704, -0.14067303, -0.7813552, 9.546918869018555, 0.6145421862602234, 2.7885327339172363, 3.0268898010253906, -4.546894550323486, -0.513393759727478, -0.80810546875, -1.088134765625, 0.274169921875, 0, 
345, 2028681068, 0.12857184, -0.5946007, -0.14108427, -0.78103447, 9.559782028198242, 0.604831874370575, 2.7753055095672607, 3.1852660179138184, -4.265321254730225, -0.4538954794406891, -0.8076171875, -1.09033203125, 0.275146484375, 0, 
346, 2028697735, 0.12858073, -0.5948894, -0.14147086, -0.780743, 9.579732894897461, 0.605660080909729, 2.789155960083008, 2.9703879356384277, -4.022577285766602, -0.5946628451347351, -0.810302734375, -1.09033203125, 0.27294921875, 0, 
347, 2028714402, 0.12853307, -0.5951199, -0.14180364, -0.7805147, 9.615123748779297, 0.616591215133667, 2.7736594676971436, 2.5464210510253906, -3.4531428813934326, -0.7649874091148376, -0.810791015625, -1.08642578125, 0.27587890625, 0, 
348, 2028731069, 0.1284504, -0.5952768, -0.14202824, -0.7803678, 9.619807243347168, 0.6388198733329773, 2.7470266819000244, 1.6757428646087646, -2.678614616394043, -0.6881107687950134, -0.80810546875, -1.0908203125, 0.277587890625, 0, 
349, 2028747736, 0.12831303, -0.59538776, -0.14213876, -0.7802857, 9.64881420135498, 0.6443359851837158, 2.74410080909729, 0.8755509853363037, -2.1159164905548096, -0.6027052998542786, -0.80810546875, -1.08984375, 0.278564453125, 0, 
350, 2028764403, 0.12819807, -0.59541243, -0.14220211, -0.78027433, 9.646339416503906, 0.6115826368331909, 2.7159841060638428, 0.6720452308654785, -1.3063757419586182, -0.44987431168556213, -0.80859375, -1.09326171875, 0.27587890625, 0, 
351, 2028781070, 0.12808181, -0.5953614, -0.14219633, -0.78033334, 9.620412826538086, 0.6419790983200073, 2.7141263484954834, 0.41822344064712524, -0.5428099632263184, -0.27843567728996277, -0.80859375, -1.091552734375, 0.2763671875, 0, 
352, 2028797737, 0.12798451, -0.59522164, -0.14207576, -0.780478, 9.589689254760742, 0.6535661816596985, 2.674917221069336, -0.18214471638202667, 0.39751550555229187, 0.11425184458494186, -0.805908203125, -1.0927734375, 0.273681640625, 0, 
353, 2028814404, 0.12786454, -0.59502655, -0.14182739, -0.7806915, 9.565011024475098, 0.6502167582511902, 2.6587061882019043, -0.8614063858985901, 1.0750482082366943, 0.43197742104530334, -0.8076171875, -1.09423828125, 0.27197265625, 0, 
354, 2028831071, 0.12774673, -0.5947937, -0.14148282, -0.7809506, 9.563385009765625, 0.6312635540962219, 2.646094799041748, -1.3756325244903564, 1.5523666143417358, 0.760716438293457, -0.80859375, -1.092041015625, 0.27294921875, 0, 
355, 2028847738, 0.12767108, -0.5945236, -0.1411783, -0.78122383, 9.585083961486816, 0.5714731812477112, 2.6517221927642822, -1.0774366855621338, 1.8068032264709473, 0.7458739280700684, -0.806396484375, -1.09033203125, 0.27294921875, 0, 
356, 2028864405, 0.1276143, -0.594247, -0.14086626, -0.7814999, 9.566417694091797, 0.6392092704772949, 2.6674540042877197, -1.056908130645752, 1.8785570859909058, 0.8621939420700073, -0.80859375, -1.09375, 0.27197265625, 0, 
357, 2028881072, 0.12754844, -0.5939939, -0.1405269, -0.781764, 9.542101860046387, 0.647282600402832, 2.673718214035034, -1.243983268737793, 1.7188491821289062, 0.9580751061439514, -0.80859375, -1.09375, 0.270751953125, 0, 
358, 2028897739, 0.12750834, -0.59379107, -0.14022529, -0.78197867, 9.527791976928711, 0.609474778175354, 2.667710065841675, -0.9334164261817932, 1.2388542890548706, 1.0347594022750854, -0.806884765625, -1.094482421875, 0.267333984375, 0, 
359, 2028914406, 0.12749499, -0.59363776, -0.14002587, -0.78213304, 9.487049102783203, 0.6036288738250732, 2.6578357219696045, -0.18060794472694397, 0.6697272062301636, 0.8809040188789368, -0.807373046875, -1.08984375, 0.2685546875, 0, 
360, 2028931073, 0.12756059, -0.5935202, -0.13998996, -0.7822179, 9.49960708618164, 0.6338077783584595, 2.669750928878784, 0.981689989566803, 0.12096238136291504, 0.7127054333686829, -0.810302734375, -1.091552734375, 0.267333984375, 0, 
361, 2028947740, 0.12768425, -0.59343606, -0.14007668, -0.7822461, 9.485097885131836, 0.6410872340202332, 2.6703879833221436, 1.8985860347747803, -0.34164777398109436, 0.6060284972190857, -0.810791015625, -1.09326171875, 0.266845703125, 0, 
362, 2028964407, 0.12783745, -0.5933933, -0.1402622, -0.78222036, 9.484140396118164, 0.6671423316001892, 2.6911780834198, 2.6141281127929688, -0.8381500244140625, 0.46102219820022583, -0.806884765625, -1.092041015625, 0.269775390625, 0, 
363, 2028981074, 0.12799929, -0.5933766, -0.14050151, -0.78216356, 9.498385429382324, 0.693475067615509, 2.6540422439575195, 2.9068942070007324, -1.1466549634933472, 0.3314732015132904, -0.807861328125, -1.090576171875, 0.267333984375, 0, 
364, 2028997741, 0.128125, -0.59342587, -0.14075443, -0.78206015, 9.485586166381836, 0.6934263706207275, 2.681488037109375, 2.862724781036377, -1.7347480058670044, 0.19972142577171326, -0.80810546875, -1.091552734375, 0.269775390625, 0, 
365, 2029014408, 0.1282503, -0.5934859, -0.1410495, -0.78194076, 9.490562438964844, 0.6994598507881165, 2.6836674213409424, 3.0682032108306885, -1.8961467742919922, 0.043663255870342255, -0.806396484375, -1.09326171875, 0.271240234375, 0, 
366, 2029031075, 0.12835969, -0.59355026, -0.1413639, -0.78181726, 9.50971508026123, 0.7120373845100403, 2.688004970550537, 3.1238596439361572, -1.968374490737915, -0.10546029359102249, -0.807373046875, -1.09375, 0.269775390625, 0, 
367, 2029047742, 0.12843047, -0.59361273, -0.14167278, -0.7817023, 9.507521629333496, 0.6940272450447083, 2.6881721019744873, 3.0049524307250977, -1.9498950242996216, -0.279191255569458, -0.806396484375, -1.09326171875, 0.27197265625, 0, 
368, 2029064409, 0.12847854, -0.59370697, -0.14201571, -0.78156066, 9.49972152709961, 0.6791401505470276, 2.686535358428955, 3.032409429550171, -2.286240816116333, -0.5006130933761597, -0.80859375, -1.08984375, 0.271240234375, 0, 
369, 2029081076, 0.12849043, -0.5938142, -0.14241184, -0.78140515, 9.494194030761719, 0.6674575209617615, 2.7269766330718994, 3.154402256011963, -2.496495246887207, -0.8913475275039673, -0.80810546875, -1.094970703125, 0.271240234375, 0, 
370, 2029097743, 0.12837441, -0.59400874, -0.14286564, -0.7811935, 9.421643257141113, 0.6619663834571838, 2.7578675746917725, 3.0087051391601562, -3.3651123046875, -1.6556180715560913, -0.805908203125, -1.094970703125, 0.27294921875, 0, 
371, 2029114410, 0.12807855, -0.59437466, -0.14335422, -0.7808742, 9.366582870483398, 0.6662453413009644, 2.7858662605285645, 2.4358510971069336, -4.933018684387207, -2.4950997829437256, -0.806396484375, -1.09326171875, 0.275390625, 0, 
372, 2029131077, 0.1275279, -0.59498876, -0.14397629, -0.7803819, 9.26683521270752, 0.5763194561004639, 2.85086989402771, 1.967497706413269, -7.353112697601318, -4.036370277404785, -0.8076171875, -1.09375, 0.274658203125, 0, 
373, 2029147744, 0.1266127, -0.59597915, -0.14497222, -0.7795905, 9.260765075683594, 0.4843730926513672, 2.89583420753479, 2.547985553741455, -11.282902717590332, -6.86372184753418, -0.8037109375, -1.095458984375, 0.27978515625, 0, 
374, 2029164411, 0.12528117, -0.5973799, -0.14646122, -0.7784545, 9.28371810913086, 0.5817995071411133, 2.802420139312744, 3.3719608783721924, -15.755351066589355, -10.437430381774902, -0.800537109375, -1.10107421875, 0.283203125, 0, 
375, 2029181078, 0.12339766, -0.59912926, -0.14818455, -0.7770834, 9.420550346374512, 0.8339601159095764, 2.7148468494415283, 2.32940936088562, -19.345643997192383, -13.796501159667969, -0.799560546875, -1.103271484375, 0.28759765625, 0, 
376, 2029197745, 0.12071665, -0.60116976, -0.14932613, -0.7757089, 9.530508995056152, 1.2498561143875122, 2.4383928775787354, -4.373968124389648, -21.245161056518555, -15.376110076904297, -0.796875, -1.10498046875, 0.292724609375, 0, 
377, 2029214412, 0.11716379, -0.60364777, -0.14983217, -0.77423024, 9.525032043457031, 1.2306954860687256, 2.2030446529388428, -11.656407356262207, -24.37949562072754, -16.86203956604004, -0.7919921875, -1.111083984375, 0.29443359375, 0, 
378, 2029231079, 0.11295302, -0.60623294, -0.14982805, -0.7728357, 9.778656959533691, 1.23065185546875, 1.905234694480896, -17.243955612182617, -24.857454299926758, -18.1893367767334, -0.786865234375, -1.114501953125, 0.296142578125, 0, 
379, 2029247746, 0.10858154, -0.6086402, -0.14939569, -0.771653, 9.843911170959473, 1.437437653541565, 1.5952341556549072, -20.26272964477539, -22.84895896911621, -17.599945068359375, -0.7841796875, -1.1162109375, 0.29443359375, 0, 
380, 2029264413, 0.10451432, -0.6108038, -0.1486911, -0.7706405, 10.1658296585083, 1.5705833435058594, 1.4312876462936401, -20.424346923828125, -20.309410095214844, -15.214371681213379, -0.77978515625, -1.12255859375, 0.29833984375, 0, 
381, 2029281080, 0.10120101, -0.6125546, -0.14817587, -0.76979166, 10.189428329467773, 1.3643712997436523, 1.329298734664917, -16.134042739868164, -16.780597686767578, -12.544719696044922, -0.77880859375, -1.12744140625, 0.299072265625, 0, 
382, 2029297747, 0.09873691, -0.6139012, -0.14789326, -0.769093, 9.908875465393066, 1.4287523031234741, 1.270627737045288, -11.198118209838867, -13.281790733337402, -9.54129409790039, -0.776611328125, -1.13037109375, 0.296630859375, 0, 
383, 2029314414, 0.097135246, -0.61492, -0.14779356, -0.76850194, 9.777897834777832, 1.5791230201721191, 1.2875635623931885, -6.482001781463623, -10.320847511291504, -6.151290416717529, -0.77392578125, -1.133056640625, 0.3017578125, 0, 
384, 2029331081, 0.09590304, -0.6156806, -0.1472621, -0.7681498, 9.776673316955566, 1.547346830368042, 1.3315728902816772, -7.27508544921875, -7.2627272605896, -2.7854206562042236, -0.77392578125, -1.13427734375, 0.300048828125, 0, 
385, 2029347748, 0.09472573, -0.6162319, -0.14608328, -0.76807886, 9.674778938293457, 1.2657428979873657, 1.4209200143814087, -10.612754821777344, -4.467164516448975, -0.14289332926273346, -0.772705078125, -1.135986328125, 0.300048828125, 0, 
386, 2029364415, 0.09362461, -0.6166517, -0.14463896, -0.7681503, 9.57015323638916, 0.8552983403205872, 1.5492274761199951, -11.750882148742676, -2.9056215286254883, 1.1637071371078491, -0.777099609375, -1.13818359375, 0.2978515625, 0, 
387, 2029381082, 0.09261684, -0.61711764, -0.14326745, -0.7681552, 9.430318832397461, 0.7347833514213562, 1.8344749212265015, -10.935206413269043, -3.3738598823547363, 1.43064284324646, -0.775390625, -1.136474609375, 0.29736328125, 0, 
388, 2029397749, 0.09172959, -0.6178576, -0.14242908, -0.76782274, 9.282182693481445, 0.5962167978286743, 2.1459007263183594, -7.449545860290527, -6.4701666831970215, 0.28218159079551697, -0.780517578125, -1.139892578125, 0.296142578125, 0, 
389, 2029414416, 0.09058509, -0.6189841, -0.14186153, -0.7671561, 9.330451011657715, 0.64640873670578, 2.3622570037841797, -7.026655673980713, -10.356757164001465, -1.6453096866607666, -0.781005859375, -1.1396484375, 0.300537109375, 0, 
390, 2029431083, 0.08931411, -0.62031126, -0.14138797, -0.76632017, 9.45777702331543, 0.6169833540916443, 2.42917799949646, -7.02660608291626, -12.326620101928711, -2.420478582382202, -0.78125, -1.144775390625, 0.3017578125, 0, 
391, 2029447750, 0.08809107, -0.6218935, -0.14121851, -0.7652097, 9.4489164352417, 0.44487419724464417, 2.5197386741638184, -5.10612678527832, -14.99181842803955, -3.056865692138672, -0.78125, -1.145263671875, 0.3017578125, 0, 
392, 2029464417, 0.0871679, -0.6237409, -0.14202505, -0.76366097, 9.460277557373047, 0.3346785008907318, 2.606247663497925, 1.5786854028701782, -18.573211669921875, -5.142434597015381, -0.782958984375, -1.145751953125, 0.307373046875, 0, 
393, 2029481084, 0.086632796, -0.6256343, -0.14393732, -0.76181287, 9.557082176208496, 0.4806739389896393, 2.5697669982910156, 9.317861557006836, -20.396713256835938, -7.637337684631348, -0.781982421875, -1.15087890625, 0.315185546875, 0, 
394, 2029497751, 0.08639137, -0.6274793, -0.14650899, -0.75982994, 9.752121925354004, 0.8787919878959656, 2.440506935119629, 14.201911926269531, -20.840784072875977, -8.914111137390137, -0.776611328125, -1.152587890625, 0.322509765625, 0, 
395, 2029514418, 0.08606685, -0.6293084, -0.14894374, -0.75787836, 10.085079193115234, 1.1335607767105103, 2.2778587341308594, 13.108258247375488, -20.638647079467773, -8.795767784118652, -0.775634765625, -1.1552734375, 0.3310546875, 0, 
396, 2029531085, 0.08587336, -0.63101846, -0.15144865, -0.75597936, 10.022331237792969, 1.0861583948135376, 2.153752565383911, 14.059159278869629, -19.70659828186035, -8.568915367126465, -0.775146484375, -1.157958984375, 0.337158203125, 0, 
397, 2029547752, 0.085812554, -0.6324845, -0.15409543, -0.75422436, 9.978687286376953, 1.2402509450912476, 1.9096527099609375, 15.36754322052002, -17.767223358154297, -8.835772514343262, -0.772705078125, -1.16064453125, 0.348388671875, 0, 
398, 2029564419, 0.08590994, -0.6335362, -0.15629494, -0.75287694, 9.815113067626953, 1.4831104278564453, 1.6463940143585205, 13.549629211425781, -13.419563293457031, -6.7477264404296875, -0.771728515625, -1.159423828125, 0.35107421875, 0, 
399, 2029581086, 0.08618109, -0.6341119, -0.15795913, -0.75201327, 9.67877197265625, 1.5800107717514038, 1.6815320253372192, 11.29566478729248, -8.343689918518066, -4.307572841644287, -0.76904296875, -1.163330078125, 0.359130859375, 0, 
400, 2029597753, 0.086438484, -0.63429934, -0.15902343, -0.7516013, 9.636951446533203, 1.5937864780426025, 1.7903764247894287, 7.873480319976807, -4.029877662658691, -2.4448225498199463, -0.769775390625, -1.16455078125, 0.36474609375, 0, 
401, 2029614420, 0.08663097, -0.6341564, -0.15929228, -0.7516428, 9.679943084716797, 1.6274784803390503, 1.8820444345474243, 3.179349184036255, 0.05292224511504173, 0.06593349575996399, -0.770751953125, -1.16455078125, 0.36181640625, 0, 
402, 2029631087, 0.08671894, -0.6337458, -0.15892886, -0.7520557, 9.783023834228516, 1.5090968608856201, 1.967899203300476, -0.7911891937255859, 3.3111908435821533, 1.775363564491272, -0.770751953125, -1.163330078125, 0.36083984375, 0, 
403, 2029647754, 0.0868826, -0.63301444, -0.15826005, -0.7527934, 9.803452491760254, 1.3067095279693604, 1.9878393411636353, -2.2049081325531006, 6.641789436340332, 2.9587857723236084, -0.7724609375, -1.163818359375, 0.361328125, 0, 
404, 2029664421, 0.08736479, -0.63208795, -0.15789367, -0.75359267, 9.658137321472168, 1.0555130243301392, 2.1295340061187744, 0.797855019569397, 8.078624725341797, 3.0430521965026855, -0.77392578125, -1.163330078125, 0.3544921875, 0, 
405, 2029681088, 0.08797481, -0.63119256, -0.15813595, -0.75422126, 9.799028396606445, 0.9004250168800354, 2.2036876678466797, 4.674952507019043, 6.938680171966553, 1.1924570798873901, -0.77392578125, -1.16064453125, 0.35400390625, 0, 
406, 2029697755, 0.0886592, -0.630368, -0.15902266, -0.7546439, 9.952054023742676, 0.8688375949859619, 2.1854441165924072, 8.52180290222168, 5.359529495239258, -1.023855209350586, -0.77392578125, -1.16162109375, 0.35791015625, 0, 
407, 2029714422, 0.08897643, -0.6296136, -0.15996514, -0.7550373, 9.85619068145752, 1.1860283613204956, 2.1575520038604736, 7.213146686553955, 4.4227705001831055, -3.0832834243774414, -0.771728515625, -1.16162109375, 0.355712890625, 0, 
408, 2029731089, 0.08910864, -0.6289466, -0.1607195, -0.7554173, 9.682001113891602, 1.2278786897659302, 2.098719596862793, 5.397921562194824, 3.8137505054473877, -3.1257100105285645, -0.7734375, -1.163818359375, 0.35791015625, 0, 
409, 2029747756, 0.08930635, -0.6283765, -0.161637, -0.7556726, 9.61279296875, 1.0613672733306885, 1.9614300727844238, 6.608160972595215, 2.737069606781006, -3.308379888534546, -0.7724609375, -1.1650390625, 0.3583984375, 0, 
410, 2029764423, 0.0894727, -0.62784624, -0.16278483, -0.75584733, 9.672795295715332, 1.0672783851623535, 1.7578836679458618, 7.735966205596924, 2.000384569168091, -4.375034809112549, -0.770751953125, -1.1650390625, 0.357421875, 0, 
411, 2029781090, 0.0894604, -0.6272578, -0.16365315, -0.7561498, 9.688385009765625, 1.3954402208328247, 1.5170756578445435, 5.406836032867432, 2.826483726501465, -4.245625972747803, -0.76904296875, -1.162841796875, 0.359130859375, 0, 
412, 2029797757, 0.08919986, -0.6266686, -0.16378233, -0.756641, 9.578640937805176, 1.536380648612976, 1.4114696979522705, 0.28102898597717285, 3.823547601699829, -2.4620213508605957, -0.76513671875, -1.165771484375, 0.355224609375, 0, 
413, 2029814424, 0.08876124, -0.6260472, -0.16325653, -0.75732017, 9.5631685256958, 1.3461815118789673, 1.3264604806900024, -4.0876851081848145, 5.009812831878662, -0.7144919633865356, -0.767333984375, -1.162841796875, 0.35400390625, 0, 
414, 2029831091, 0.08847599, -0.62532496, -0.16267745, -0.75807434, 9.537530899047852, 1.067023754119873, 1.2890613079071045, -3.728070020675659, 6.070716381072998, 0.15534745156764984, -0.764404296875, -1.16455078125, 0.351806640625, 0, 
415, 2029847758, 0.08851132, -0.624547, -0.16232836, -0.75878626, 9.549094200134277, 1.0701676607131958, 1.3881573677062988, -1.0709952116012573, 6.406665325164795, 0.795844316482544, -0.76611328125, -1.16455078125, 0.3505859375, 0, 
416, 2029864425, 0.088799424, -0.62381446, -0.16211204, -0.75940096, 9.648810386657715, 1.1153846979141235, 1.476557731628418, 0.7880452871322632, 5.963143348693848, 1.64946448802948, -0.76611328125, -1.16455078125, 0.348876953125, 0, 
417, 2029881092, 0.08912962, -0.62318337, -0.1618301, -0.7599405, 9.667067527770996, 1.1557101011276245, 1.5270406007766724, 0.6470344662666321, 5.204417705535889, 2.3059945106506348, -0.764892578125, -1.1630859375, 0.34619140625, 0, 
418, 2029897759, 0.08935593, -0.6227843, -0.16151091, -0.7603089, 9.674692153930664, 1.0518357753753662, 1.6345900297164917, 0.05600857734680176, 3.171832323074341, 2.2832634449005127, -0.765869140625, -1.16015625, 0.343994140625, 0, 
419, 2029914426, 0.089394614, -0.6224984, -0.16108379, -0.76062894, 9.722920417785645, 1.0660912990570068, 1.6278451681137085, -1.3274677991867065, 2.2352137565612793, 1.9152215719223022, -0.764892578125, -1.16015625, 0.34228515625, 0, 
420, 2029931093, 0.08944114, -0.62236947, -0.16066399, -0.76081777, 9.67171859741211, 0.9746711850166321, 1.6700414419174194, -1.206998348236084, 0.8627445101737976, 2.1744093894958496, -0.766357421875, -1.161865234375, 0.341064453125, 0, 
421, 2029947760, 0.08960472, -0.62237984, -0.16043523, -0.7608383, 9.670463562011719, 0.9521570801734924, 1.6868085861206055, 0.39311015605926514, -0.5711888074874878, 2.220717191696167, -0.766845703125, -1.160400390625, 0.33837890625, 0, 
422, 2029964427, 0.089830756, -0.6225294, -0.16041303, -0.760694, 9.673908233642578, 0.9796846508979797, 1.6439329385757446, 1.8388444185256958, -2.0593504905700684, 1.9123529195785522, -0.76708984375, -1.160888671875, 0.341552734375, 0, 
423, 2029981094, 0.09009641, -0.62271434, -0.16044144, -0.7605052, 9.698304176330566, 1.1370595693588257, 1.5907799005508423, 2.2994251251220703, -2.417505979537964, 1.9640010595321655, -0.766357421875, -1.160888671875, 0.340087890625, 0, 
424, 2029997761, 0.09034915, -0.6229574, -0.16025278, -0.7603161, 9.644745826721191, 1.2459275722503662, 1.609731912612915, 1.073729395866394, -2.5984342098236084, 2.8878517150878906, -0.768798828125, -1.161376953125, 0.345703125, 0, 
425, 2030014428, 0.090609804, -0.6232546, -0.15988217, -0.7601193, 9.60041618347168, 1.2431483268737793, 1.648200511932373, 0.13086169958114624, -2.7875070571899414, 3.7732696533203125, -0.770263671875, -1.16015625, 0.341552734375, 0, 
426, 2030031095, 0.090908065, -0.6236072, -0.15957746, -0.75985855, 9.654278755187988, 1.0855294466018677, 1.7292910814285278, 0.6702267527580261, -3.3480923175811768, 3.788022518157959, -0.7685546875, -1.15966796875, 0.340576171875, 0, 
427, 2030047762, 0.091158286, -0.6239703, -0.15939842, -0.75956804, 9.738125801086426, 1.1284576654434204, 1.8439197540283203, 1.1476601362228394, -3.659196615219116, 3.0256729125976562, -0.773681640625, -1.158447265625, 0.340087890625, 0, 
428, 2030064429, 0.09122146, -0.62434715, -0.15906434, -0.7593208, 9.77314567565918, 1.3017549514770508, 1.9312598705291748, -0.5198865532875061, -3.653843879699707, 2.699354410171509, -0.77099609375, -1.155029296875, 0.3427734375, 0, 
429, 2030081096, 0.09117421, -0.6246542, -0.15843678, -0.759205, 9.771428108215332, 1.4102810621261597, 1.978164553642273, -2.6277859210968018, -2.662196636199951, 3.2257208824157715, -0.773193359375, -1.15673828125, 0.341064453125, 0, 
430, 2030097763, 0.09104217, -0.6248977, -0.15756804, -0.7592012, 9.787140846252441, 1.3952878713607788, 1.9376965761184692, -4.332888126373291, -1.7936190366744995, 3.681986093521118, -0.774169921875, -1.15576171875, 0.341064453125, 0, 
431, 2030114430, 0.091038115, -0.62505054, -0.1568489, -0.7592249, 9.74914836883545, 1.2388828992843628, 1.9499038457870483, -2.9759016036987305, -1.1599993705749512, 3.595710039138794, -0.773681640625, -1.155029296875, 0.341064453125, 0, 
432, 2030131097, 0.09118466, -0.62504524, -0.15642942, -0.7592983, 9.843010902404785, 1.2233463525772095, 1.9353184700012207, -0.7186667323112488, -0.14755477011203766, 2.892563819885254, -0.7724609375, -1.157470703125, 0.337158203125, 0, 
433, 2030147764, 0.09150325, -0.62486756, -0.15615906, -0.75946194, 9.776768684387207, 1.380874514579773, 1.9735299348831177, 0.8095853924751282, 1.2289931774139404, 2.908571481704712, -0.77294921875, -1.1552734375, 0.337646484375, 0, 
434, 2030164431, 0.091875784, -0.6246439, -0.15596144, -0.75964135, 9.706480026245117, 1.3960086107254028, 2.0550029277801514, 1.4324350357055664, 1.5477560758590698, 2.821719169616699, -0.7763671875, -1.154541015625, 0.33935546875, 0, 
435, 2030181098, 0.09217928, -0.6245017, -0.15597585, -0.7597186, 9.68654727935791, 1.252102017402649, 2.072857618331909, 2.300513505935669, 0.4712929427623749, 1.7067344188690186, -0.774658203125, -1.153564453125, 0.336669921875, 0, 
436, 2030197765, 0.09240818, -0.6242816, -0.15612347, -0.7598413, 9.777204513549805, 1.2789808511734009, 1.9783985614776611, 2.67781400680542, 0.9054923057556152, 0.6338951587677002, -0.77734375, -1.15185546875, 0.3359375, 0, 
437, 2030214432, 0.09256431, -0.6240298, -0.15622576, -0.760008, 9.717823028564453, 1.3794389963150024, 1.9388165473937988, 2.10036301612854, 1.2070305347442627, 0.38984450697898865, -0.775146484375, -1.153564453125, 0.337158203125, 0, 
438, 2030231099, 0.09260921, -0.62374735, -0.15617077, -0.76024574, 9.728870391845703, 1.4038233757019043, 1.8488922119140625, 0.7451309561729431, 1.6521406173706055, 0.4072098433971405, -0.774658203125, -1.150634765625, 0.337158203125, 0, 
439, 2030247766, 0.09260081, -0.6233797, -0.15604146, -0.7605747, 9.681187629699707, 1.33323073387146, 1.7373623847961426, 0.08219756186008453, 2.480557918548584, 0.30282536149024963, -0.77734375, -1.15283203125, 0.33544921875, 0, 
440, 2030264433, 0.09269101, -0.6229375, -0.15600654, -0.7609332, 9.63613224029541, 1.2500524520874023, 1.692614197731018, 1.0149095058441162, 3.0436017513275146, 0.318000853061676, -0.775146484375, -1.15234375, 0.336669921875, 0, 
441, 2030281100, 0.09285839, -0.622426, -0.15601836, -0.7613289, 9.661087036132812, 1.2339575290679932, 1.7192999124526978, 1.5922712087631226, 3.6220011711120605, 0.4248827397823334, -0.775634765625, -1.153564453125, 0.333251953125, 0, 
442, 2030297767, 0.09302365, -0.6218612, -0.15590203, -0.7617939, 9.683623313903809, 1.2715801000595093, 1.7366679906845093, 0.8730409145355225, 4.280183792114258, 0.8616176843643188, -0.77294921875, -1.15185546875, 0.332763671875, 0, 
443, 2030314434, 0.09318922, -0.62127125, -0.15562443, -0.7623116, 9.666352272033691, 1.2026423215866089, 1.7630399465560913, -0.011845873668789864, 4.743747234344482, 1.4942384958267212, -0.776123046875, -1.15283203125, 0.33154296875, 0, 
444, 2030331101, 0.093342125, -0.6207053, -0.15531681, -0.7628165, 9.67980670928955, 1.1346932649612427, 1.81122887134552, -0.22508442401885986, 4.57188606262207, 1.5902093648910522, -0.776123046875, -1.15185546875, 0.32861328125, 0, 
445, 2030347768, 0.09349275, -0.62025404, -0.15517183, -0.76319456, 9.584294319152832, 0.9890270829200745, 1.8809237480163574, 0.679882824420929, 3.3243813514709473, 1.0873552560806274, -0.77392578125, -1.15185546875, 0.328125, 0, 
446, 2030364435, 0.093502015, -0.62006104, -0.15524623, -0.7633352, 9.579025268554688, 0.9654011130332947, 1.9345362186431885, 1.317241907119751, 0.6661030650138855, -0.16410057246685028, -0.776611328125, -1.150146484375, 0.328125, 0, 
447, 2030381102, 0.09325582, -0.6199858, -0.15530458, -0.76341444, 9.689364433288574, 1.0285581350326538, 1.894760251045227, 0.13880161941051483, -0.4768829047679901, -1.2734891176223755, -0.775634765625, -1.153076171875, 0.3271484375, 0, 
448, 2030397769, 0.092921555, -0.6199905, -0.15523486, -0.76346546, 9.605113983154297, 1.1311585903167725, 1.8830674886703491, -0.9235939979553223, -1.026095986366272, -1.088539719581604, -0.7744140625, -1.15234375, 0.328857421875, 0, 
449, 2030414436, 0.09252923, -0.62014323, -0.15522547, -0.76339114, 9.571358680725098, 1.0900853872299194, 1.8057665824890137, -0.8256510496139526, -2.4381372928619385, -1.4147815704345703, -0.775146484375, -1.153076171875, 0.329345703125, 0, 
450, 2030431103, 0.09216104, -0.62035656, -0.15536132, -0.76323473, 9.607548713684082, 1.0919636487960815, 1.7693573236465454, 0.08541195094585419, -3.172132968902588, -1.7915059328079224, -0.775146484375, -1.154052734375, 0.32763671875, 0, 
451, 2030447770, 0.091901064, -0.62052816, -0.15558398, -0.76308113, 9.663820266723633, 1.1726776361465454, 1.7517366409301758, 1.0197376012802124, -2.877445936203003, -1.643323540687561, -0.771240234375, -1.152587890625, 0.32763671875, 0, 
452, 2030464437, 0.091710694, -0.62069136, -0.15571605, -0.7629442, 9.685516357421875, 1.2528233528137207, 1.7716021537780762, 0.8379514217376709, -2.6270430088043213, -0.9094427824020386, -0.77392578125, -1.157470703125, 0.329833984375, 0, 
453, 2030481104, 0.09160196, -0.62079734, -0.15577872, -0.76285833, 9.694294929504395, 1.2220162153244019, 1.7784574031829834, 0.7998397946357727, -1.9740092754364014, -0.2776544690132141, -0.776123046875, -1.15625, 0.329345703125, 0, 
454, 2030497771, 0.09162594, -0.62088406, -0.15592314, -0.76275533, 9.726118087768555, 1.1501860618591309, 1.8187134265899658, 1.8298544883728027, -1.8537193536758423, 0.06006817892193794, -0.7763671875, -1.15673828125, 0.33203125, 0, 
455, 2030514438, 0.09167853, -0.62092865, -0.15608495, -0.7626795, 9.760916709899902, 1.235140085220337, 1.8084259033203125, 2.0407750606536865, -1.4946801662445068, 0.07370693981647491, -0.776123046875, -1.157470703125, 0.3310546875, 0, 
456, 2030531105, 0.091710486, -0.62095714, -0.15607266, -0.7626551, 9.7374906539917, 1.302330732345581, 1.8551901578903198, 0.9957514405250549, -1.1009106636047363, 0.6595462560653687, -0.7734375, -1.1552734375, 0.3310546875, 0, 
457, 2030547772, 0.09172241, -0.62098265, -0.15593904, -0.76266015, 9.695066452026367, 1.235925316810608, 1.8939203023910522, 0.24385210871696472, -0.9039105772972107, 1.0518174171447754, -0.7734375, -1.1552734375, 0.330322265625, 0, 
458, 2030564439, 0.09173522, -0.62102306, -0.15585369, -0.76264316, 9.663786888122559, 1.145000696182251, 1.9136922359466553, 0.5114279985427856, -1.1054441928863525, 0.8814931511878967, -0.77685546875, -1.15673828125, 0.333251953125, 0, 
459, 2030581106, 0.09176503, -0.6210505, -0.1558827, -0.7626113, 9.658260345458984, 1.2032448053359985, 1.9338476657867432, 1.2113335132598877, -1.153865098953247, 0.4766843914985657, -0.77685546875, -1.15673828125, 0.332763671875, 0, 
460, 2030597773, 0.09176332, -0.6211244, -0.15591335, -0.76254517, 9.625519752502441, 1.2459993362426758, 1.9676628112792969, 1.0889430046081543, -1.5798935890197754, 0.3764362037181854, -0.7734375, -1.154541015625, 0.3349609375, 0, 
461, 2030614440, 0.09165803, -0.6212134, -0.15584834, -0.76249874, 9.663649559020996, 1.2609583139419556, 1.9400588274002075, 0.11936158686876297, -1.6264705657958984, 0.24625971913337708, -0.775634765625, -1.157470703125, 0.333251953125, 0, 
462, 2030631107, 0.091580585, -0.6212614, -0.15575278, -0.7624885, 9.654001235961914, 1.2510133981704712, 1.8735322952270508, 0.06110549345612526, -1.2087016105651855, 0.45767971873283386, -0.77294921875, -1.1552734375, 0.33154296875, 0, 
463, 2030647774, 0.09155836, -0.62131125, -0.15573762, -0.76245344, 9.623174667358398, 1.1928669214248657, 1.9003344774246216, 0.7515597939491272, -1.31315016746521, 0.42279523611068726, -0.77685546875, -1.156982421875, 0.329345703125, 0, 
464, 2030664441, 0.09153606, -0.6213826, -0.15582931, -0.76237935, 9.658321380615234, 1.1996333599090576, 1.9090019464492798, 1.3202259540557861, -1.6629174947738647, 0.009764842689037323, -0.775146484375, -1.157470703125, 0.33447265625, 0, 
465, 2030681108, 0.09149658, -0.6214339, -0.15591557, -0.76232463, 9.682883262634277, 1.2112292051315308, 1.898740530014038, 1.1961705684661865, -1.4941551685333252, -0.09184712916612625, -0.77734375, -1.15673828125, 0.3349609375, 0, 
466, 2030697775, 0.09140025, -0.62150365, -0.15591523, -0.76227933, 9.657515525817871, 1.2494559288024902, 1.8761595487594604, 0.49826306104660034, -1.5518735647201538, -0.0018825334263965487, -0.774169921875, -1.15966796875, 0.3349609375, 0, 
467, 2030714442, 0.09126967, -0.6215741, -0.15586579, -0.76224774, 9.632780075073242, 1.2081660032272339, 1.8711353540420532, 0.05636715143918991, -1.5062187910079956, 0.016232047230005264, -0.775146484375, -1.15625, 0.333740234375, 0, 
468, 2030731109, 0.091125816, -0.62167746, -0.15594907, -0.76216346, 9.615407943725586, 1.1150083541870117, 1.8899340629577637, 0.7441065907478333, -1.9982004165649414, -0.5491874814033508, -0.775634765625, -1.16015625, 0.333740234375, 0, 
469, 2030747776, 0.09089922, -0.62182206, -0.15603957, -0.7620541, 9.66650104522705, 1.1579705476760864, 1.8620643615722656, 0.43501245975494385, -2.4151110649108887, -0.9538042545318604, -0.77685546875, -1.16015625, 0.3359375, 0, 
470, 2030764443, 0.09061907, -0.62197846, -0.15606467, -0.76195455, 9.698826789855957, 1.1915616989135742, 1.8359827995300293, -0.15577644109725952, -2.451033115386963, -0.9489120841026306, -0.775634765625, -1.157958984375, 0.333740234375, 0, 
471, 2030781110, 0.090341814, -0.6221539, -0.15601955, -0.76185346, 9.685083389282227, 1.17610502243042, 1.8128101825714111, -0.513534665107727, -2.507969856262207, -0.6115800738334656, -0.77587890625, -1.161865234375, 0.337158203125, 0, 
472, 2030797777, 0.0901095, -0.6223239, -0.15601514, -0.76174325, 9.66413688659668, 1.1480573415756226, 1.7579278945922852, -0.09947973489761353, -2.4962520599365234, -0.5513390302658081, -0.774658203125, -1.1591796875, 0.333740234375, 0, 
473, 2030814444, 0.0899399, -0.6224559, -0.15603934, -0.7616503, 9.654733657836914, 1.1440160274505615, 1.7491538524627686, 0.324737012386322, -2.1704587936401367, -0.3984951972961426, -0.7763671875, -1.16015625, 0.337158203125, 0, 
474, 2030831111, 0.08983356, -0.6225768, -0.15597136, -0.761578, 9.639335632324219, 1.1927025318145752, 1.767552137374878, 0.08543755859136581, -1.8999115228652954, 0.301045298576355, -0.774658203125, -1.1591796875, 0.336669921875, 0, 
475, 2030847778, 0.08970004, -0.62269455, -0.15575074, -0.7615427, 9.691515922546387, 1.1718522310256958, 1.7837294340133667, -0.8500726819038391, -1.6567062139511108, 0.7878016829490662, -0.77685546875, -1.15966796875, 0.3359375, 0, 
476, 2030864445, 0.0896061, -0.62280613, -0.1554935, -0.7615151, 9.697218894958496, 1.082226276397705, 1.8084768056869507, -0.8729959726333618, -1.523443341255188, 1.1401044130325317, -0.777099609375, -1.161865234375, 0.33935546875, 0, 
477, 2030881112, 0.08954907, -0.622962, -0.15528622, -0.76143664, 9.688447952270508, 1.0645625591278076, 1.8377728462219238, -0.425529420375824, -1.9631364345550537, 1.1965292692184448, -0.7763671875, -1.161376953125, 0.3359375, 0, 
478, 2030897779, 0.08956079, -0.6231014, -0.15511961, -0.76135504, 9.670303344726562, 1.0547102689743042, 1.831519365310669, 0.0977700799703598, -1.841745376586914, 1.3647149801254272, -0.77685546875, -1.16015625, 0.33447265625, 0, 
479, 2030914446, 0.08962232, -0.62326545, -0.15500653, -0.7612366, 9.653260231018066, 1.0996136665344238, 1.8732596635818481, 0.6085256934165955, -2.109653949737549, 1.4421806335449219, -0.778076171875, -1.161376953125, 0.33544921875, 0, 
480, 2030931113, 0.08971297, -0.62351376, -0.1549934, -0.7610252, 9.585458755493164, 1.0563591718673706, 1.9282746315002441, 1.3027067184448242, -2.978961706161499, 1.3116838932037354, -0.778076171875, -1.1611328125, 0.337158203125, 0, 
481, 2030947780, 0.089729324, -0.623806, -0.15505466, -0.76077133, 9.664538383483887, 1.0764005184173584, 1.9161789417266846, 1.3864476680755615, -3.51939058303833, 0.674286425113678, -0.778564453125, -1.16015625, 0.33984375, 0, 
482, 2030964447, 0.08972384, -0.6241086, -0.1551037, -0.7605137, 9.68695068359375, 1.132598876953125, 1.9017881155014038, 1.231862187385559, -3.6037840843200684, 0.6256095170974731, -0.777099609375, -1.1640625, 0.340087890625, 0, 
483, 2030981114, 0.08968872, -0.6244199, -0.15505919, -0.7602712, 9.696555137634277, 1.235115885734558, 1.8860605955123901, 0.597140908241272, -3.5607802867889404, 0.870530903339386, -0.781005859375, -1.162353515625, 0.34228515625, 0, 
484, 2030997781, 0.089676194, -0.62471896, -0.15501437, -0.7600362, 9.719411849975586, 1.144771695137024, 1.825258731842041, 0.6793192625045776, -3.4423727989196777, 0.9725462794303894, -0.779052734375, -1.16064453125, 0.33837890625, 0, 
485, 2031014448, 0.08975939, -0.6249904, -0.1551613, -0.75977325, 9.712624549865723, 1.1050915718078613, 1.858853816986084, 2.1355674266815186, -3.434048652648926, 0.634509801864624, -0.777587890625, -1.162353515625, 0.340576171875, 0, 
486, 2031031115, 0.08986979, -0.6251835, -0.15533344, -0.75956607, 9.722408294677734, 1.1783418655395508, 1.8219834566116333, 2.38897967338562, -2.769975423812866, 0.5519856810569763, -0.781982421875, -1.1611328125, 0.341552734375, 0, 
487, 2031047782, 0.08993984, -0.625343, -0.15534692, -0.7594238, 9.701687812805176, 1.2938928604125977, 1.868300437927246, 1.3229279518127441, -2.2632789611816406, 0.9445644021034241, -0.77978515625, -1.16064453125, 0.343994140625, 0, 
488, 2031064449, 0.089944, -0.6254663, -0.15518753, -0.75935423, 9.673691749572754, 1.2563092708587646, 1.845700979232788, 0.09882020205259323, -1.7230560779571533, 1.2650048732757568, -0.779296875, -1.162841796875, 0.33935546875, 0, 
489, 2031081116, 0.08995662, -0.62557685, -0.15506122, -0.7592874, 9.692216873168945, 1.1418466567993164, 1.8569937944412231, 0.3383885622024536, -1.6546955108642578, 1.1573290824890137, -0.77880859375, -1.16064453125, 0.34228515625, 0, 
490, 2031097783, 0.08997895, -0.6256478, -0.15501797, -0.75923514, 9.704917907714844, 1.1582553386688232, 1.8233898878097534, 0.8022729754447937, -1.4293421506881714, 0.7949861288070679, -0.77978515625, -1.16064453125, 0.33984375, 0, 
491, 2031114450, 0.08996888, -0.62564725, -0.15494148, -0.7592525, 9.708827018737793, 1.2240486145019531, 1.848412036895752, 0.45735955238342285, -0.7706348896026611, 0.6493395566940308, -0.7802734375, -1.16015625, 0.34228515625, 0, 
492, 2031131117, 0.08994911, -0.6256292, -0.15475966, -0.7593067, 9.706416130065918, 1.258292317390442, 1.846943736076355, -0.16648253798484802, -0.46831539273262024, 1.0108243227005005, -0.778564453125, -1.16015625, 0.340576171875, 0, 
493, 2031147784, 0.08991958, -0.6256067, -0.15456367, -0.75936884, 9.7152099609375, 1.183906078338623, 1.8390544652938843, -0.3004625737667084, -0.4140292704105377, 1.0102224349975586, -0.778564453125, -1.162353515625, 0.33935546875, 0, 
494, 2031164451, 0.08990885, -0.6255494, -0.15443225, -0.75944406, 9.722180366516113, 1.1436424255371094, 1.8413856029510498, 0.150404155254364, -0.19273555278778076, 0.7889031171798706, -0.778076171875, -1.16064453125, 0.34326171875, 0, 
495, 2031181118, 0.08989223, -0.62551117, -0.15438916, -0.75948614, 9.702570915222168, 1.1901037693023682, 1.864493489265442, 0.5753445625305176, -0.5011509656906128, 0.41454797983169556, -0.7802734375, -1.16064453125, 0.33935546875, 0, 
496, 2031197785, 0.08979454, -0.62544936, -0.15421268, -0.7595844, 9.686958312988281, 1.222633719444275, 1.8386461734771729, -0.5075540542602539, -0.1398453414440155, 0.5049479007720947, -0.77978515625, -1.16015625, 0.34228515625, 0, 
497, 2031214452, 0.089672685, -0.6254058, -0.15400587, -0.7596767, 9.671921730041504, 1.1919652223587036, 1.8218662738800049, -0.7835052609443665, -0.2684594988822937, 0.5328913927078247, -0.78076171875, -1.16015625, 0.33837890625, 0, 
498, 2031231119, 0.08956535, -0.6253834, -0.15387928, -0.7597335, 9.675783157348633, 1.1422585248947144, 1.8060920238494873, -0.24171984195709229, -0.5622499585151672, 0.3135698139667511, -0.77978515625, -1.1611328125, 0.341064453125, 0, 
499, 2031247786, 0.08946323, -0.6253843, -0.15389161, -0.75974226, 9.684103965759277, 1.1326358318328857, 1.813015341758728, 0.4983270764350891, -0.9755877256393433, -0.21006254851818085, -0.77978515625, -1.162353515625, 0.341064453125, 0, 
500, 2031264453, 0.08933771, -0.6253922, -0.15391612, -0.75974554, 9.712599754333496, 1.2041068077087402, 1.8028005361557007, 0.49228253960609436, -1.0645149946212769, -0.3687588572502136, -0.781494140625, -1.159912109375, 0.34228515625, 0, 
501, 2031281120, 0.08919325, -0.62538296, -0.15384279, -0.759785, 9.72043514251709, 1.2344781160354614, 1.7577667236328125, -0.1764458864927292, -0.7856311202049255, -0.09579149633646011, -0.77978515625, -1.16064453125, 0.33837890625, 0, 
502, 2031297787, 0.089064814, -0.6253792, -0.15374954, -0.7598219, 9.700952529907227, 1.2126096487045288, 1.7268754243850708, -0.1272823065519333, -0.7828264832496643, 0.09652785956859589, -0.779296875, -1.158447265625, 0.33984375, 0, 
503, 2031314454, 0.0890113, -0.62534124, -0.15370181, -0.7598693, 9.704522132873535, 1.1895071268081665, 1.7244864702224731, 0.4280458390712738, -0.509820818901062, 0.24764278531074524, -0.778564453125, -1.158447265625, 0.33984375, 0, 
504, 2031331121, 0.08905952, -0.6252853, -0.15376028, -0.7598976, 9.688526153564453, 1.1696912050247192, 1.7657071352005005, 1.42856764793396, -0.4565463960170746, 0.3114824593067169, -0.7802734375, -1.162353515625, 0.33935546875, 0, 
