sep=,
DeviceTag:,Xsens_4,,,,,,,,,,,,,,,,,
FirmwareVersion:,2.2.1,,,,,,,,,,,,,,,,,
AppVersion:,2023.0.0,,,,,,,,,,,,,,,,,
StartTime:,2023-07-03 13:36:14.000 +0200,,,,,,,,,,,,,,,,,
© Movella Technologies B. V. 2005-2023,,,,,,,,,,,,,,,,,,,

PacketCounter,SampleTimeFine,Quat_W,Quat_X,Quat_Y,Quat_Z,Acc_X,Acc_Y,Acc_Z,Gyr_X,Gyr_Y,Gyr_Z,Mag_X,Mag_Y,Mag_Z,Status,
0, 2022752080, 0.19233441, -0.64822865, -0.12153111, -0.7266618, 0.0, 0.0, 0.0, 0.0, 0.0, 0.0, -0.509033203125, -0.884033203125, 0.4384765625, 0, 
1, 2022768747, 0.19203274, -0.64832646, -0.12153649, -0.7266535, 9.924077033996582, -0.7597360014915466, 1.3083844184875488, -3.3171396255493164, -0.8487024307250977, -3.7196173667907715, -0.508544921875, -0.88623046875, 0.43896484375, 0, 
2, 2022785414, 0.19170217, -0.64839184, -0.121509664, -0.72668684, 9.949073791503906, -0.7690000534057617, 1.3009133338928223, -2.908834218978882, -0.5974289774894714, -3.9275662899017334, -0.50732421875, -0.890625, 0.43896484375, 0, 
3, 2022802081, 0.19134155, -0.64847845, -0.121444575, -0.72671545, 9.97409725189209, -0.7851267457008362, 1.2995305061340332, -1.9541722536087036, -0.47893190383911133, -3.7796919345855713, -0.505126953125, -0.89013671875, 0.4365234375, 0, 
4, 2022818748, 0.19096509, -0.648572, -0.12129711, -0.7267557, 9.955796241760254, -0.7690944671630859, 1.3026885986328125, -1.7981271743774414, -0.2716355323791504, -3.586636543273926, -0.505615234375, -0.888427734375, 0.43994140625, 0, 
5, 2022835415, 0.1907884, -0.64857906, -0.121332265, -0.72678995, 9.93638801574707, -0.7458544373512268, 1.306731939315796, -1.9419550895690918, 0.11799132078886032, -3.3279225826263428, -0.50439453125, -0.89404296875, 0.4365234375, 0, 
6, 2022852082, 0.19025147, -0.6485751, -0.12112227, -0.72696924, 9.903826713562012, -0.7190362215042114, 1.291815161705017, -2.760165214538574, 0.545121431350708, -3.407705545425415, -0.50439453125, -0.891845703125, 0.43994140625, 0, 
7, 2022868749, 0.18984044, -0.64851826, -0.12102915, -0.72714305, 9.91706371307373, -0.7153842449188232, 1.2822083234786987, -3.394335985183716, 0.9153403639793396, -3.045952320098877, -0.5048828125, -0.892822265625, 0.434814453125, 0, 
8, 2022885416, 0.18930432, -0.64846915, -0.12081484, -0.7273622, 9.9271821975708, -0.6892212629318237, 1.3139748573303223, -3.353637218475342, 1.16825270652771, -2.7268946170806885, -0.50048828125, -0.893310546875, 0.4365234375, 0, 
9, 2022902083, 0.18874232, -0.6483912, -0.120529175, -0.7276248, 9.926981925964355, -0.6659169793128967, 1.3209234476089478, -4.478188991546631, 1.4988616704940796, -2.378024101257324, -0.50390625, -0.8935546875, 0.438720703125, 0, 
10, 2022918750, 0.18820387, -0.6482856, -0.12025469, -0.72790384, 9.924397468566895, -0.6894171237945557, 1.3050018548965454, -5.162867069244385, 1.6921604871749878, -2.1866202354431152, -0.502197265625, -0.89501953125, 0.434814453125, 0, 
11, 2022935417, 0.18766782, -0.64819944, -0.11990715, -0.7281763, 9.932653427124023, -0.7066978216171265, 1.314103364944458, -4.844552993774414, 1.647581934928894, -1.6845091581344604, -0.50048828125, -0.896240234375, 0.43359375, 0, 
12, 2022952084, 0.18719485, -0.64811885, -0.11952866, -0.72843176, 9.956029891967773, -0.6968508362770081, 1.3289295434951782, -4.627383232116699, 1.636863112449646, -1.2370550632476807, -0.502685546875, -0.89404296875, 0.430419921875, 0, 
13, 2022968751, 0.18684345, -0.64802176, -0.11920909, -0.7286607, 9.95132064819336, -0.715263843536377, 1.3105281591415405, -3.6700050830841064, 1.6042704582214355, -0.8574234843254089, -0.502197265625, -0.8974609375, 0.43359375, 0, 
14, 2022985418, 0.18658634, -0.6479567, -0.11892712, -0.72883064, 9.930713653564453, -0.714495837688446, 1.3469212055206299, -3.4426543712615967, 1.2836638689041138, -0.5525043606758118, -0.503173828125, -0.89794921875, 0.4326171875, 0, 
15, 2023002085, 0.18631199, -0.6478691, -0.11861447, -0.72902954, 9.947151184082031, -0.7403569221496582, 1.3387683629989624, -3.5695013999938965, 1.4944947957992554, -0.5778738260269165, -0.50146484375, -0.899169921875, 0.431396484375, 0, 
16, 2023018752, 0.18610872, -0.6477602, -0.1183267, -0.72922504, 9.956497192382812, -0.7865027189254761, 1.3270080089569092, -2.946664333343506, 1.5971120595932007, -0.39348793029785156, -0.50146484375, -0.8984375, 0.427490234375, 0, 
17, 2023035419, 0.18602936, -0.64763993, -0.11805566, -0.7293959, 9.913261413574219, -0.8032355904579163, 1.2892751693725586, -1.9155611991882324, 1.6274884939193726, 0.0974627286195755, -0.499755859375, -0.899169921875, 0.428466796875, 0, 
18, 2023052086, 0.18607797, -0.64749724, -0.117812864, -0.72954947, 9.839554786682129, -0.7657400965690613, 1.3040637969970703, -1.2453535795211792, 1.8143458366394043, 0.4904767572879791, -0.502685546875, -0.900146484375, 0.42919921875, 0, 
19, 2023068753, 0.18611988, -0.6473638, -0.11756626, -0.729697, 9.831619262695312, -0.7186407446861267, 1.3308463096618652, -1.3769770860671997, 1.7745312452316284, 0.4480365514755249, -0.50048828125, -0.895751953125, 0.42919921875, 0, 
20, 2023085420, 0.1860811, -0.6472127, -0.11730826, -0.72988266, 9.875182151794434, -0.7546439170837402, 1.3607425689697266, -2.154694080352783, 1.9980788230895996, 0.029025593772530556, -0.50439453125, -0.89697265625, 0.427490234375, 0, 
21, 2023102087, 0.18605548, -0.64703155, -0.11704185, -0.7300924, 9.863161087036133, -0.8456331491470337, 1.284661054611206, -1.9540441036224365, 2.235534191131592, 0.10495445132255554, -0.499267578125, -0.899658203125, 0.427001953125, 0, 
22, 2023118754, 0.18619147, -0.6468191, -0.11692579, -0.7302645, 9.864083290100098, -0.8996922969818115, 1.2508203983306885, -0.16726376116275787, 2.2080132961273193, 0.2135266810655594, -0.499755859375, -0.8974609375, 0.42578125, 0, 
23, 2023135421, 0.18656474, -0.6465624, -0.117029384, -0.7303799, 9.882944107055664, -0.8601505756378174, 1.2425047159194946, 2.131726026535034, 2.1704394817352295, 0.35609978437423706, -0.502685546875, -0.895263671875, 0.42529296875, 0, 
24, 2023152088, 0.18707347, -0.64625156, -0.117220186, -0.7304943, 9.881073951721191, -0.8166493773460388, 1.3000311851501465, 3.237746000289917, 2.5143282413482666, 0.5568264722824097, -0.50146484375, -0.89794921875, 0.427001953125, 0, 
25, 2023168755, 0.18754189, -0.6459385, -0.11736698, -0.7306276, 9.871891975402832, -0.8054009079933167, 1.2688544988632202, 2.9778802394866943, 2.6429941654205322, 0.5481310486793518, -0.503173828125, -0.89697265625, 0.42626953125, 0, 
26, 2023185422, 0.18797892, -0.6456246, -0.11745462, -0.73077863, 9.858603477478027, -0.8206942081451416, 1.2159487009048462, 2.5623652935028076, 2.8171732425689697, 0.6497238874435425, -0.503173828125, -0.895263671875, 0.42529296875, 0, 
27, 2023202089, 0.18845141, -0.645299, -0.11751422, -0.7309348, 9.840314865112305, -0.8141710758209229, 1.1834152936935425, 2.720254421234131, 3.0268256664276123, 0.9597141742706299, -0.503173828125, -0.89453125, 0.421875, 0, 
28, 2023218756, 0.18892168, -0.64494973, -0.117511615, -0.731122, 9.834715843200684, -0.7846235632896423, 1.2093639373779297, 2.663983106613159, 3.425039052963257, 1.2145732641220093, -0.503173828125, -0.890625, 0.4248046875, 0, 
29, 2023235423, 0.18935923, -0.64459693, -0.11741849, -0.73133504, 9.855929374694824, -0.7300909161567688, 1.2487934827804565, 1.7094621658325195, 3.7266032695770264, 1.4004703760147095, -0.50439453125, -0.894775390625, 0.42236328125, 0, 
30, 2023252090, 0.18957588, -0.6442691, -0.117128626, -0.7316142, 9.88990592956543, -0.7406027317047119, 1.2704274654388428, 0.25815680623054504, 3.956054210662842, 1.2461410760879517, -0.506103515625, -0.8896484375, 0.42138671875, 0, 
31, 2023268757, 0.18978514, -0.64393944, -0.11679908, -0.7319028, 9.937223434448242, -0.7960256338119507, 1.2845230102539062, -0.4098416268825531, 4.10289192199707, 1.361808180809021, -0.5048828125, -0.892333984375, 0.4189453125, 0, 
32, 2023285424, 0.19006199, -0.64361167, -0.11645758, -0.7321736, 9.963252067565918, -0.8479912281036377, 1.23740553855896, 0.19251146912574768, 4.073565483093262, 1.8552111387252808, -0.5048828125, -0.890625, 0.42138671875, 0, 
33, 2023302091, 0.19050314, -0.64325494, -0.11619488, -0.73241425, 9.980026245117188, -0.8383556008338928, 1.2657792568206787, 1.0139106512069702, 4.180114269256592, 2.2976319789886475, -0.506103515625, -0.89013671875, 0.41748046875, 0, 
34, 2023318758, 0.19102587, -0.6428987, -0.11589882, -0.73263764, 9.93975830078125, -0.7891279458999634, 1.276794672012329, 1.5837680101394653, 4.208992958068848, 2.9427523612976074, -0.507080078125, -0.88916015625, 0.419189453125, 0, 
35, 2023335425, 0.19152775, -0.64256, -0.11553172, -0.73286164, 9.929908752441406, -0.7525360584259033, 1.282401204109192, 1.1625285148620605, 4.211618423461914, 3.2053849697113037, -0.5078125, -0.887939453125, 0.416259765625, 0, 
36, 2023352092, 0.19196253, -0.6422468, -0.11505711, -0.73309714, 9.87231159210205, -0.7433832883834839, 1.259149432182312, 0.04035921394824982, 4.255838394165039, 3.357255220413208, -0.51220703125, -0.8857421875, 0.41796875, 0, 
37, 2023368759, 0.19230473, -0.6419611, -0.1144969, -0.7333454, 9.839424133300781, -0.7519741654396057, 1.245832920074463, -0.8812946081161499, 4.235617637634277, 3.3132784366607666, -0.510009765625, -0.8857421875, 0.41357421875, 0, 
38, 2023385426, 0.19258474, -0.6417094, -0.11384821, -0.7335932, 9.845890045166016, -0.7724250555038452, 1.2795029878616333, -1.4959609508514404, 4.140606880187988, 3.4821300506591797, -0.51513671875, -0.8857421875, 0.409423828125, 0, 
39, 2023402093, 0.19277479, -0.6414812, -0.11311193, -0.73385674, 9.88170337677002, -0.7969112396240234, 1.3071941137313843, -1.8726342916488647, 4.105722427368164, 3.5242629051208496, -0.5126953125, -0.884765625, 0.41015625, 0, 
40, 2023418760, 0.19294958, -0.64127904, -0.11236907, -0.7341015, 9.909561157226562, -0.8261224031448364, 1.3205976486206055, -2.1410937309265137, 3.905174732208252, 3.524301290512085, -0.515625, -0.882568359375, 0.41064453125, 0, 
41, 2023435427, 0.19311176, -0.6411134, -0.11162302, -0.73431724, 9.915651321411133, -0.8453390598297119, 1.3254945278167725, -2.5626275539398193, 3.6193885803222656, 3.510828971862793, -0.513916015625, -0.884765625, 0.40673828125, 0, 
42, 2023452094, 0.19317248, -0.6410207, -0.11088371, -0.7344941, 9.915349960327148, -0.869025468826294, 1.3029192686080933, -2.5991387367248535, 2.9568774700164795, 3.1626627445220947, -0.517333984375, -0.88037109375, 0.40625, 0, 
43, 2023468761, 0.19326375, -0.6409502, -0.11024864, -0.73462737, 9.88054084777832, -0.909766435623169, 1.3123582601547241, -2.3319342136383057, 2.581818103790283, 2.8792073726654053, -0.51611328125, -0.883056640625, 0.40673828125, 0, 
44, 2023485428, 0.19328132, -0.64096063, -0.1096836, -0.7346983, 9.88142204284668, -0.9165819883346558, 1.3299959897994995, -2.128056764602661, 1.734985113143921, 2.381321668624878, -0.51611328125, -0.87744140625, 0.404052734375, 0, 
45, 2023502095, 0.19327703, -0.6410251, -0.10922983, -0.73471063, 9.866315841674805, -0.9163880348205566, 1.3728022575378418, -1.7931833267211914, 1.049666166305542, 1.8841917514801025, -0.51904296875, -0.879150390625, 0.40283203125, 0, 
46, 2023518762, 0.19322208, -0.6411399, -0.10885861, -0.7346799, 9.8392333984375, -0.9027979969978333, 1.3702958822250366, -1.6743406057357788, 0.45166078209877014, 1.356045126914978, -0.516845703125, -0.879150390625, 0.404052734375, 0, 
47, 2023535429, 0.1931294, -0.6413033, -0.1085313, -0.7346102, 9.835997581481934, -0.9154163002967834, 1.4031723737716675, -1.642632007598877, -0.0626230537891388, 1.0683633089065552, -0.5166015625, -0.880859375, 0.39990234375, 0, 
48, 2023552096, 0.19297737, -0.641509, -0.10823024, -0.734515, 9.834635734558105, -0.9353194832801819, 1.4124866724014282, -1.7790579795837402, -0.4884853661060333, 0.7307302951812744, -0.51904296875, -0.88134765625, 0.401611328125, 0, 
49, 2023568763, 0.1927629, -0.64175355, -0.10795129, -0.73439866, 9.842691421508789, -0.9399811625480652, 1.389027714729309, -1.6733287572860718, -0.8983525037765503, 0.4211943745613098, -0.51953125, -0.878173828125, 0.400634765625, 0, 
50, 2023585430, 0.19257297, -0.64200246, -0.10775464, -0.7342599, 9.836756706237793, -0.9272071719169617, 1.412864089012146, -1.418277621269226, -1.0982725620269775, 0.1709519624710083, -0.521240234375, -0.88037109375, 0.401611328125, 0, 
51, 2023602097, 0.19233093, -0.64228755, -0.1075459, -0.73410445, 9.865489959716797, -0.9027649760246277, 1.4164987802505493, -1.5438693761825562, -1.4123353958129883, 0.045148786157369614, -0.51904296875, -0.878173828125, 0.400634765625, 0, 
52, 2023618764, 0.19208601, -0.64258605, -0.107359536, -0.7339346, 9.897367477416992, -0.9079551696777344, 1.4077619314193726, -1.7047430276870728, -1.5698535442352295, -0.07035808265209198, -0.51904296875, -0.879150390625, 0.400634765625, 0, 
53, 2023635431, 0.19181205, -0.64291686, -0.10716683, -0.7337448, 9.912219047546387, -0.9025878310203552, 1.3882181644439697, -1.8117526769638062, -1.8561009168624878, -0.11863801628351212, -0.51904296875, -0.88037109375, 0.39990234375, 0, 
54, 2023652098, 0.1914888, -0.64329666, -0.10699047, -0.73352206, 9.921856880187988, -0.8784289360046387, 1.363640546798706, -1.8650912046432495, -2.328911542892456, -0.33245283365249634, -0.517822265625, -0.88134765625, 0.401611328125, 0, 
55, 2023668765, 0.19116053, -0.6437105, -0.10686107, -0.7332635, 9.924094200134277, -0.8485177755355835, 1.3508710861206055, -1.8720959424972534, -2.7119364738464355, -0.5134834051132202, -0.520751953125, -0.88134765625, 0.39892578125, 0, 
56, 2023685432, 0.19075677, -0.6441674, -0.10668786, -0.73299253, 9.938404083251953, -0.8520881533622742, 1.368964433670044, -2.173083782196045, -3.0164718627929688, -0.5891305208206177, -0.51904296875, -0.879150390625, 0.401611328125, 0, 
57, 2023702099, 0.19032149, -0.64464736, -0.106579654, -0.73269945, 9.921292304992676, -0.8819868564605713, 1.3680672645568848, -2.529932737350464, -3.2970588207244873, -1.058598518371582, -0.517333984375, -0.882568359375, 0.401123046875, 0, 
58, 2023718766, 0.18984142, -0.64513326, -0.10650364, -0.7324072, 9.939231872558594, -0.9105721712112427, 1.3250139951705933, -2.3328559398651123, -3.4338693618774414, -1.3786290884017944, -0.52197265625, -0.88134765625, 0.401123046875, 0, 
59, 2023735433, 0.18943925, -0.6456316, -0.106568284, -0.73206276, 9.901873588562012, -0.9104079604148865, 1.3030048608779907, -1.4481804370880127, -3.840803623199463, -1.5587248802185059, -0.517822265625, -0.8837890625, 0.398681640625, 0, 
60, 2023752100, 0.18905994, -0.64610773, -0.10669536, -0.7317221, 9.880879402160645, -0.9015092849731445, 1.2912930250167847, -0.5289534330368042, -3.827113389968872, -1.6692564487457275, -0.517822265625, -0.879638671875, 0.405517578125, 0, 
61, 2023768767, 0.1888136, -0.6465062, -0.10693309, -0.731399, 9.86385440826416, -0.8476825952529907, 1.2573862075805664, -0.40702423453330994, -3.3031930923461914, -1.7345305681228638, -0.517822265625, -0.882080078125, 0.40283203125, 0, 
62, 2023785434, 0.18842933, -0.64689094, -0.107085265, -0.73113567, 9.920233726501465, -0.829878032207489, 1.2569009065628052, -0.961539089679718, -3.0095818042755127, -2.0505268573760986, -0.517822265625, -0.88427734375, 0.40380859375, 0, 
63, 2023802101, 0.18805122, -0.6472385, -0.10719211, -0.7309098, 9.940340995788574, -0.8571475148200989, 1.2333978414535522, -1.1567590236663818, -2.592299699783325, -1.8857606649398804, -0.51611328125, -0.8818359375, 0.40625, 0, 
64, 2023818768, 0.18770662, -0.64753914, -0.10728173, -0.7307188, 9.937039375305176, -0.8560355305671692, 1.2278841733932495, -1.583479642868042, -2.1046340465545654, -1.7899051904678345, -0.5185546875, -0.883544921875, 0.40283203125, 0, 
65, 2023835435, 0.18725951, -0.6478109, -0.10727356, -0.73059386, 9.924317359924316, -0.8045676350593567, 1.2256091833114624, -2.0478248596191406, -1.6617004871368408, -1.9005259275436401, -0.51513671875, -0.88427734375, 0.402099609375, 0, 
66, 2023852102, 0.18675575, -0.64803845, -0.10716475, -0.730537, 9.924415588378906, -0.827616810798645, 1.2168819904327393, -2.6968250274658203, -1.0594820976257324, -1.8313592672348022, -0.513427734375, -0.884033203125, 0.40673828125, 0, 
67, 2023868769, 0.18631108, -0.6482106, -0.10706226, -0.73051286, 9.923083305358887, -0.8174301385879517, 1.226820707321167, -3.106654167175293, -0.5302597880363464, -1.7446476221084595, -0.514404296875, -0.88427734375, 0.405029296875, 0, 
68, 2023885436, 0.18582223, -0.6483552, -0.10693701, -0.73052746, 9.940898895263672, -0.7949970364570618, 1.230347990989685, -3.1937248706817627, -0.24275720119476318, -1.8974145650863647, -0.51611328125, -0.886474609375, 0.402099609375, 0, 
69, 2023902103, 0.18529174, -0.6484713, -0.10673992, -0.7305877, 9.948867797851562, -0.8191107511520386, 1.224062442779541, -3.3674304485321045, 0.1275576651096344, -1.805093765258789, -0.513916015625, -0.887451171875, 0.40283203125, 0, 
70, 2023918770, 0.18480656, -0.64855236, -0.1065759, -0.7306629, 9.970137596130371, -0.8437919020652771, 1.2416965961456299, -3.1878209114074707, 0.3803038001060486, -1.793747067451477, -0.5166015625, -0.886962890625, 0.400390625, 0, 
71, 2023935437, 0.18435362, -0.6486088, -0.10643051, -0.73074836, 9.950911521911621, -0.8405486345291138, 1.2584364414215088, -2.853459358215332, 0.5408825874328613, -1.7358877658843994, -0.515625, -0.885986328125, 0.401123046875, 0, 
72, 2023952104, 0.18399517, -0.6486296, -0.10637919, -0.7308276, 9.971437454223633, -0.8787041902542114, 1.2629354000091553, -2.3594162464141846, 0.6771805882453918, -1.7573899030685425, -0.51318359375, -0.887451171875, 0.39990234375, 0, 
73, 2023968771, 0.18365099, -0.6486243, -0.10635217, -0.7309227, 9.947848320007324, -0.8762024641036987, 1.2632174491882324, -1.848878264427185, 0.8270532488822937, -1.7956422567367554, -0.5126953125, -0.890380859375, 0.398193359375, 0, 
74, 2023985438, 0.18333746, -0.64859045, -0.10634678, -0.7310323, 9.930595397949219, -0.8827601075172424, 1.2684917449951172, -1.238425374031067, 0.9952775835990906, -1.7342743873596191, -0.51318359375, -0.888671875, 0.39990234375, 0, 
75, 2024002105, 0.18316454, -0.64849395, -0.106436744, -0.7311482, 9.924529075622559, -0.8871167302131653, 1.2545876502990723, -0.5164545178413391, 1.357325792312622, -1.5723637342453003, -0.51220703125, -0.888671875, 0.398193359375, 0, 
76, 2024018772, 0.18304218, -0.648354, -0.10652745, -0.7312897, 9.92636775970459, -0.879830002784729, 1.2470462322235107, -0.024498548358678818, 1.7021880149841309, -1.3617759943008423, -0.514892578125, -0.88916015625, 0.3994140625, 0, 
77, 2024035439, 0.18303452, -0.64814323, -0.1066484, -0.73146087, 9.930752754211426, -0.8539186716079712, 1.2295689582824707, 0.5302532911300659, 2.2510297298431396, -1.0368916988372803, -0.51318359375, -0.888671875, 0.396484375, 0, 
78, 2024052106, 0.18308756, -0.6478937, -0.10672335, -0.7316576, 9.897565841674805, -0.827608048915863, 1.2021381855010986, 0.8725413084030151, 2.6388185024261475, -0.5536441206932068, -0.510498046875, -0.8857421875, 0.398681640625, 0, 
79, 2024068773, 0.18310755, -0.6476256, -0.10676186, -0.7318845, 9.876036643981934, -0.8039919137954712, 1.1845457553863525, 0.22133854031562805, 2.9214420318603516, -0.6531238555908203, -0.511474609375, -0.888671875, 0.3935546875, 0, 
80, 2024085440, 0.18298548, -0.647366, -0.106679894, -0.73215663, 9.899399757385254, -0.8353282809257507, 1.1861412525177002, -0.3224254846572876, 3.0697014331817627, -0.7804830074310303, -0.51318359375, -0.88818359375, 0.394287109375, 0, 
81, 2024102107, 0.18290988, -0.64709544, -0.10657109, -0.73243034, 9.93161392211914, -0.833564043045044, 1.2281811237335205, -0.4706973731517792, 3.225708246231079, -0.47014668583869934, -0.511474609375, -0.88916015625, 0.395263671875, 0, 
82, 2024118774, 0.18289196, -0.64679474, -0.10648646, -0.7327127, 9.933526039123535, -0.857117235660553, 1.2351703643798828, -0.17396144568920135, 3.4427499771118164, -0.3375113606452942, -0.5126953125, -0.88818359375, 0.39208984375, 0, 
83, 2024135441, 0.18286052, -0.64648795, -0.106380895, -0.7330065, 9.931770324707031, -0.8464915752410889, 1.2279255390167236, -0.07316268235445023, 3.5220344066619873, -0.29720979928970337, -0.511962890625, -0.889892578125, 0.392578125, 0, 
84, 2024152108, 0.18287191, -0.64616454, -0.10628651, -0.7333025, 9.925786972045898, -0.8596935868263245, 1.214424729347229, 0.13604824244976044, 3.6442837715148926, -0.15640392899513245, -0.514404296875, -0.889892578125, 0.39013671875, 0, 
85, 2024168775, 0.18289869, -0.64582443, -0.10620497, -0.7336072, 9.90722370147705, -0.878248393535614, 1.1912134885787964, 0.5114664435386658, 3.750589609146118, -0.13094495236873627, -0.5166015625, -0.886962890625, 0.3896484375, 0, 
86, 2024185442, 0.18299766, -0.6454916, -0.106183976, -0.7338785, 9.911773681640625, -0.8506555557250977, 1.2143720388412476, 0.9151098132133484, 3.5719666481018066, -0.026496339589357376, -0.511474609375, -0.88818359375, 0.39208984375, 0, 
87, 2024202109, 0.18311271, -0.6451657, -0.106193006, -0.734135, 9.897270202636719, -0.838901698589325, 1.2382186651229858, 0.9990811347961426, 3.466749668121338, -0.07809312641620636, -0.511474609375, -0.887451171875, 0.38916015625, 0, 
88, 2024218776, 0.18314588, -0.6448596, -0.10611384, -0.73440695, 9.886966705322266, -0.8402056694030762, 1.244699239730835, 0.49704647064208984, 3.46476411819458, -0.057308416813611984, -0.51318359375, -0.88916015625, 0.392578125, 0, 
89, 2024235443, 0.18316522, -0.6445707, -0.10602415, -0.7346687, 9.898017883300781, -0.8161762952804565, 1.2354034185409546, -0.04771646112203598, 3.3779120445251465, -0.11676830053329468, -0.51708984375, -0.888671875, 0.3896484375, 0, 
90, 2024252110, 0.18313001, -0.6443004, -0.10587812, -0.73493564, 9.91187572479248, -0.838466465473175, 1.2392008304595947, -0.43536463379859924, 3.334113836288452, -0.11190187931060791, -0.513671875, -0.890869140625, 0.38916015625, 0, 
91, 2024268777, 0.18302348, -0.64408195, -0.105646096, -0.73518693, 9.910659790039062, -0.8257202506065369, 1.2475669384002686, -1.0423215627670288, 3.0529630184173584, -0.005826888605952263, -0.51953125, -0.889892578125, 0.387451171875, 0, 
92, 2024285444, 0.18288909, -0.64386123, -0.10541248, -0.7354472, 9.94106674194336, -0.84649658203125, 1.277890920639038, -1.1394962072372437, 3.09195876121521, -0.14768283069133759, -0.511962890625, -0.88818359375, 0.384521484375, 0, 
93, 2024302111, 0.18275431, -0.64363784, -0.105062425, -0.7357263, 9.897682189941406, -0.8238356113433838, 1.3083058595657349, -1.5582255125045776, 3.327327013015747, 0.3662296235561371, -0.514892578125, -0.886474609375, 0.383544921875, 0, 
94, 2024318778, 0.18253234, -0.6434228, -0.10467398, -0.73602486, 9.93366527557373, -0.8138017654418945, 1.2686700820922852, -2.3042848110198975, 3.3744664192199707, 0.056072600185871124, -0.511962890625, -0.890869140625, 0.384033203125, 0, 
95, 2024335445, 0.18227895, -0.6431928, -0.1041437, -0.73636377, 9.922321319580078, -0.8405330777168274, 1.2816160917282104, -3.05412220954895, 3.783411741256714, 0.4827929437160492, -0.51611328125, -0.886474609375, 0.384033203125, 0, 
96, 2024352112, 0.18204358, -0.6429844, -0.10357392, -0.73668426, 9.898063659667969, -0.8546023964881897, 1.2637888193130493, -3.6965787410736084, 3.7062923908233643, 0.710016131401062, -0.514892578125, -0.8876953125, 0.380126953125, 0, 
97, 2024368779, 0.18172373, -0.64279157, -0.1028981, -0.73702615, 9.879057884216309, -0.8529344797134399, 1.2977899312973022, -4.220896244049072, 3.771003007888794, 0.7983542680740356, -0.515380859375, -0.888671875, 0.3779296875, 0, 
98, 2024385446, 0.18134883, -0.6426201, -0.10220476, -0.73736453, 9.859265327453613, -0.8520936965942383, 1.3032526969909668, -4.609556198120117, 3.639481782913208, 0.6103443503379822, -0.519287109375, -0.89111328125, 0.377685546875, 0, 
99, 2024402113, 0.1809026, -0.6424957, -0.10155302, -0.7376725, 9.848670959472656, -0.8578430414199829, 1.3132387399673462, -4.7998199462890625, 3.1773645877838135, 0.12789063155651093, -0.518310546875, -0.89111328125, 0.373779296875, 0, 
100, 2024418780, 0.18038964, -0.64241886, -0.10095793, -0.73794657, 9.848937034606934, -0.9023714065551758, 1.3413646221160889, -4.630532741546631, 2.6605770587921143, -0.35227707028388977, -0.514892578125, -0.890380859375, 0.375, 0, 
101, 2024435447, 0.17990533, -0.64235365, -0.10054949, -0.73817724, 9.854159355163574, -0.8857833743095398, 1.3538554906845093, -3.835207939147949, 2.2282602787017822, -1.0205765962600708, -0.519775390625, -0.889892578125, 0.369873046875, 0, 
102, 2024452114, 0.17942992, -0.64231056, -0.10024969, -0.7383713, 9.87090015411377, -0.8920354247093201, 1.3646215200424194, -2.9253289699554443, 1.8054840564727783, -1.3459986448287964, -0.515869140625, -0.893310546875, 0.369873046875, 0, 
103, 2024468781, 0.17891128, -0.6422981, -0.10001542, -0.7385398, 9.89540958404541, -0.888378381729126, 1.3686213493347168, -2.6805739402770996, 1.4208965301513672, -1.784475326538086, -0.518798828125, -0.890625, 0.370361328125, 0, 
104, 2024485448, 0.17844753, -0.6422757, -0.09990204, -0.7386868, 9.919437408447266, -0.89415442943573, 1.325621247291565, -2.255134344100952, 1.310902714729309, -2.0995242595672607, -0.51806640625, -0.89501953125, 0.3720703125, 0, 
105, 2024502115, 0.1779986, -0.6422604, -0.09980508, -0.73882157, 9.900218963623047, -0.8807312250137329, 1.3274497985839844, -2.1704587936401367, 1.2242422103881836, -2.0899834632873535, -0.51708984375, -0.888916015625, 0.368896484375, 0, 
106, 2024518782, 0.17754585, -0.6422433, -0.09973791, -0.7389543, 9.917080879211426, -0.8591189980506897, 1.3199186325073242, -2.133063793182373, 1.2024073600769043, -2.260282039642334, -0.5205078125, -0.8955078125, 0.370849609375, 0, 
107, 2024535449, 0.17709681, -0.6422077, -0.099611096, -0.7391102, 9.9002046585083, -0.873191773891449, 1.358230471611023, -2.4776828289031982, 1.489103078842163, -2.031893730163574, -0.515869140625, -0.893798828125, 0.366943359375, 0, 
108, 2024552116, 0.17647514, -0.64222556, -0.09933913, -0.73927975, 9.901785850524902, -0.8657788038253784, 1.3450982570648193, -3.7228450775146484, 1.3163713216781616, -2.196404457092285, -0.515869140625, -0.8955078125, 0.365234375, 0, 
109, 2024568783, 0.17574558, -0.6422503, -0.098945424, -0.7394849, 9.871813774108887, -0.8463975191116333, 1.3585963249206543, -4.750247001647949, 1.5122058391571045, -2.2313528060913086, -0.516357421875, -0.8955078125, 0.365234375, 0, 
110, 2024585450, 0.174974, -0.6423014, -0.09855624, -0.73967564, 9.889312744140625, -0.871770977973938, 1.3486769199371338, -5.183101654052734, 1.3073042631149292, -2.4727911949157715, -0.5146484375, -0.896240234375, 0.365234375, 0, 
111, 2024602117, 0.17425369, -0.64234656, -0.09821465, -0.73985183, 9.890508651733398, -0.907391369342804, 1.339697241783142, -4.897340297698975, 1.2735595703125, -2.446794033050537, -0.51171875, -0.897705078125, 0.3642578125, 0, 
112, 2024618784, 0.17355897, -0.64242065, -0.09796944, -0.7399832, 9.879867553710938, -0.8899134993553162, 1.355493187904358, -4.209242820739746, 0.8305751085281372, -2.661710500717163, -0.51416015625, -0.900634765625, 0.36181640625, 0, 
113, 2024635451, 0.17294607, -0.64247304, -0.09785603, -0.7400962, 9.873505592346191, -0.8615919351577759, 1.356886625289917, -2.9344470500946045, 0.7503560185432434, -2.791579246520996, -0.513427734375, -0.900634765625, 0.363525390625, 0, 
114, 2024652118, 0.17238669, -0.64254606, -0.097913645, -0.7401557, 9.875470161437988, -0.8679884672164917, 1.33217453956604, -2.1847379207611084, 0.2758552134037018, -3.2646591663360596, -0.51123046875, -0.90185546875, 0.3623046875, 0, 
115, 2024668785, 0.17187834, -0.6426257, -0.09809372, -0.74018097, 9.884361267089844, -0.8874049186706543, 1.3069136142730713, -1.1969711780548096, -0.022129375487565994, -3.4844799041748047, -0.513427734375, -0.90185546875, 0.363037109375, 0, 
116, 2024685452, 0.17143734, -0.64271826, -0.0984006, -0.74016213, 9.877677917480469, -0.8950056433677673, 1.3203670978546143, -0.41500261425971985, -0.36408454179763794, -3.6800200939178467, -0.51171875, -0.9033203125, 0.363525390625, 0, 
117, 2024702119, 0.17097394, -0.6428414, -0.09871623, -0.7401205, 9.907060623168945, -0.9013457894325256, 1.2905889749526978, -0.464742511510849, -0.639344334602356, -3.790193796157837, -0.509521484375, -0.904052734375, 0.364013671875, 0, 
118, 2024718786, 0.17058215, -0.64292383, -0.09906717, -0.7400922, 9.935393333435059, -0.8869141340255737, 1.3144216537475586, -0.013369830325245857, -0.349984735250473, -3.649169445037842, -0.51123046875, -0.904052734375, 0.3623046875, 0, 
119, 2024735453, 0.17019758, -0.6430073, -0.09938126, -0.7400663, 9.933417320251465, -0.8636417388916016, 1.3316477537155151, -0.0058140829205513, -0.2988617718219757, -3.4317941665649414, -0.510009765625, -0.90625, 0.3583984375, 0, 
120, 2024752120, 0.16967803, -0.64307976, -0.09958586, -0.740095, 9.9599027633667, -0.8297210335731506, 1.30335533618927, -0.6146407723426819, 0.0038739207666367292, -3.616257429122925, -0.506103515625, -0.9072265625, 0.3623046875, 0, 
121, 2024768787, 0.16920495, -0.6431412, -0.09979735, -0.7401214, 10.013187408447266, -0.8690836429595947, 1.3036636114120483, -0.7754244208335876, 0.10988488048315048, -3.4929189682006836, -0.50830078125, -0.907958984375, 0.361328125, 0, 
122, 2024785454, 0.16878451, -0.64317065, -0.10000396, -0.7401639, 10.055407524108887, -0.8876415491104126, 1.275011658668518, -0.47137612104415894, 0.39168858528137207, -3.241440773010254, -0.509033203125, -0.91015625, 0.36181640625, 0, 
123, 2024802121, 0.1683941, -0.64319813, -0.10019716, -0.7402029, 10.091228485107422, -0.8788241744041443, 1.249204158782959, -0.39949408173561096, 0.4341545104980469, -3.037602424621582, -0.51123046875, -0.91015625, 0.36181640625, 0, 
124, 2024818788, 0.1681302, -0.6432084, -0.100424394, -0.7402231, 10.104717254638672, -0.8869502544403076, 1.2373098134994507, 0.29567939043045044, 0.5038466453552246, -2.5579276084899902, -0.5078125, -0.911376953125, 0.360595703125, 0, 
125, 2024835455, 0.1678649, -0.6432093, -0.100579366, -0.7402615, 10.070405960083008, -0.8538867831230164, 1.2015259265899658, 0.1420288234949112, 0.717162013053894, -2.2458112239837646, -0.5048828125, -0.911865234375, 0.360107421875, 0, 
126, 2024852122, 0.16740492, -0.643283, -0.10060811, -0.7402978, 10.037694931030273, -0.8103291988372803, 1.183475375175476, -1.3749537467956543, 0.3623492419719696, -2.6225228309631348, -0.503662109375, -0.91357421875, 0.360107421875, 0, 
127, 2024868789, 0.1668241, -0.6434263, -0.10058794, -0.7403071, 9.986743927001953, -0.8035098910331726, 1.189293384552002, -2.199657440185547, -0.12224942445755005, -2.9456143379211426, -0.505615234375, -0.90966796875, 0.359619140625, 0, 
128, 2024885456, 0.1662714, -0.6435986, -0.1006417, -0.7402745, 9.931909561157227, -0.8021283745765686, 1.1464492082595825, -1.9778000116348267, -0.49098271131515503, -3.1174628734588623, -0.501953125, -0.9150390625, 0.359375, 0, 
129, 2024902123, 0.16572683, -0.6438171, -0.10076696, -0.7401895, 9.882559776306152, -0.7462093234062195, 1.1711574792861938, -1.3591508865356445, -1.0263779163360596, -3.266695022583008, -0.5009765625, -0.915771484375, 0.360107421875, 0, 
130, 2024918790, 0.16524355, -0.64401025, -0.10100223, -0.7400973, 9.907873153686523, -0.730972170829773, 1.2137213945388794, -0.5586385726928711, -0.9942337274551392, -3.4674344062805176, -0.502685546875, -0.91455078125, 0.359375, 0, 
131, 2024935457, 0.16473271, -0.64425015, -0.10127135, -0.7399656, 9.874963760375977, -0.7414692640304565, 1.2284058332443237, -0.5781556367874146, -1.4510364532470703, -3.691277265548706, -0.500244140625, -0.915771484375, 0.356689453125, 0, 
132, 2024952124, 0.16416451, -0.64456755, -0.101530276, -0.73978, 9.888097763061523, -0.712009608745575, 1.255863070487976, -0.5988761782646179, -2.113316774368286, -3.770650863647461, -0.5009765625, -0.9189453125, 0.35888671875, 0, 
133, 2024968791, 0.16355902, -0.6449478, -0.101808324, -0.7395444, 9.879402160644531, -0.7268441319465637, 1.315641164779663, -0.7413596510887146, -2.694763660430908, -3.9585325717926025, -0.49755859375, -0.91796875, 0.360595703125, 0, 
134, 2024985458, 0.16297032, -0.6453455, -0.10213208, -0.7392828, 9.862180709838867, -0.6985953450202942, 1.3739750385284424, -0.7377995252609253, -2.922639846801758, -4.090348243713379, -0.49853515625, -0.920654296875, 0.358154296875, 0, 
135, 2025002125, 0.16228004, -0.6457545, -0.10242382, -0.7390371, 9.877575874328613, -0.7275548577308655, 1.3245832920074463, -0.9732571244239807, -2.960303544998169, -4.411583423614502, -0.498046875, -0.92138671875, 0.359375, 0, 
136, 2025018792, 0.16170146, -0.646137, -0.10275193, -0.7387841, 9.810992240905762, -0.7447285056114197, 1.336532711982727, -0.4954265058040619, -2.8078434467315674, -4.062276840209961, -0.496337890625, -0.921875, 0.361572265625, 0, 
137, 2025035459, 0.16118687, -0.64650446, -0.1031123, -0.7385247, 9.842248916625977, -0.7336500883102417, 1.35164213180542, -0.16897982358932495, -2.7500617504119873, -3.9193718433380127, -0.495849609375, -0.923583984375, 0.362060546875, 0, 
138, 2025052126, 0.1607282, -0.64681584, -0.103421114, -0.7383087, 9.854144096374512, -0.6804807186126709, 1.346709132194519, -0.11771596223115921, -2.179128408432007, -3.49664568901062, -0.494140625, -0.92626953125, 0.361083984375, 0, 
139, 2025068793, 0.16033094, -0.6470776, -0.10367746, -0.73812973, 9.840583801269531, -0.6085251569747925, 1.3980342149734497, 0.14807341992855072, -1.6660678386688232, -2.9969167709350586, -0.4912109375, -0.92724609375, 0.361572265625, 0, 
140, 2025085460, 0.15986851, -0.64733046, -0.103794806, -0.73799187, 9.825577735900879, -0.49794432520866394, 1.3454867601394653, -0.8569880723953247, -1.336483359336853, -2.7612922191619873, -0.494140625, -0.921142578125, 0.360595703125, 0, 
141, 2025102127, 0.15933427, -0.64752644, -0.103788316, -0.7379365, 9.820247650146484, -0.4866446852684021, 1.3075603246688843, -2.08842134475708, -0.595853865146637, -2.744656801223755, -0.49169921875, -0.925048828125, 0.36279296875, 0, 
142, 2025118794, 0.15872492, -0.64768124, -0.10373751, -0.7379391, 9.789995193481445, -0.49809086322784424, 1.2469319105148315, -2.718404531478882, -0.13624678552150726, -3.0288944244384766, -0.489501953125, -0.928466796875, 0.361083984375, 0, 
143, 2025135461, 0.15806393, -0.6477859, -0.103739195, -0.7379889, 9.780454635620117, -0.4421534538269043, 1.2137150764465332, -2.3983731269836426, 0.233939990401268, -3.5654029846191406, -0.49072265625, -0.928466796875, 0.359375, 0, 
144, 2025152128, 0.15748122, -0.64785725, -0.10384073, -0.73803645, 9.883979797363281, -0.3591759502887726, 1.234915852546692, -1.5072691440582275, 0.3485312759876251, -3.6293201446533203, -0.4912109375, -0.9267578125, 0.361083984375, 0, 
145, 2025168795, 0.1569038, -0.64788485, -0.10392925, -0.7381227, 10.055859565734863, -0.24633701145648956, 1.319342851638794, -1.8415402173995972, 0.7598327398300171, -3.6507441997528076, -0.490478515625, -0.928955078125, 0.3564453125, 0, 
146, 2025185462, 0.15619612, -0.6478574, -0.10379042, -0.7383165, 10.192315101623535, -0.2242402583360672, 1.3993141651153564, -3.1940572261810303, 1.6779838800430298, -3.3758432865142822, -0.49072265625, -0.927978515625, 0.35693359375, 0, 
147, 2025202129, 0.1553505, -0.6478069, -0.103379786, -0.73859674, 10.198880195617676, -0.2779761850833893, 1.368903636932373, -5.397889137268066, 2.3619327545166016, -2.9800503253936768, -0.487060546875, -0.93359375, 0.355224609375, 0, 
148, 2025218796, 0.15447359, -0.64771646, -0.102836974, -0.7389357, 10.120380401611328, -0.31980279088020325, 1.3589718341827393, -6.006204128265381, 2.9480154514312744, -2.5951428413391113, -0.487060546875, -0.92724609375, 0.3525390625, 0, 
149, 2025235463, 0.15369661, -0.6475628, -0.10232488, -0.73930335, 9.980280876159668, -0.3405453562736511, 1.3669371604919434, -5.650738716125488, 3.4301366806030273, -2.3273112773895264, -0.48486328125, -0.932861328125, 0.351318359375, 0, 
150, 2025252130, 0.15293804, -0.6473638, -0.101844415, -0.7397013, 9.82888412475586, -0.2969823479652405, 1.4518107175827026, -5.198790073394775, 3.773667097091675, -2.4008195400238037, -0.48486328125, -0.93359375, 0.34912109375, 0, 
151, 2025268797, 0.1521499, -0.64711684, -0.10148553, -0.74012905, 9.671914100646973, -0.31663817167282104, 1.481798529624939, -4.69667911529541, 3.993513822555542, -3.1445744037628174, -0.487060546875, -0.935791015625, 0.35009765625, 0, 
152, 2025285464, 0.15139829, -0.6468343, -0.10135196, -0.74054825, 9.56446647644043, -0.3760746419429779, 1.5205738544464111, -3.6221227645874023, 3.9064173698425293, -4.007760524749756, -0.487548828125, -0.935791015625, 0.347900390625, 0, 
153, 2025302131, 0.15075131, -0.64650327, -0.10150862, -0.74094784, 9.57934856414795, -0.39506545662879944, 1.5733715295791626, -1.5931358337402344, 3.8227791786193848, -4.771045207977295, -0.4853515625, -0.935791015625, 0.345703125, 0, 
154, 2025318798, 0.15019135, -0.6461534, -0.101900116, -0.7413131, 9.656371116638184, -0.41809338331222534, 1.679750919342041, 0.14182396233081818, 3.56868839263916, -5.32910680770874, -0.4814453125, -0.940185546875, 0.344482421875, 0, 
155, 2025335465, 0.14970253, -0.6457871, -0.10247806, -0.7416513, 9.732587814331055, -0.4268014132976532, 1.7151401042938232, 1.7037248611450195, 3.3782706260681152, -5.7377190589904785, -0.48583984375, -0.939208984375, 0.34228515625, 0, 
156, 2025352132, 0.14941874, -0.64540994, -0.10324057, -0.7419311, 9.819068908691406, -0.37973102927207947, 1.7410558462142944, 3.7104408740997314, 3.109618663787842, -5.444478511810303, -0.480224609375, -0.940673828125, 0.344970703125, 0, 
157, 2025368799, 0.14939393, -0.6450173, -0.1042026, -0.7421429, 9.853935241699219, -0.3126932978630066, 1.7278982400894165, 5.829418659210205, 2.837522506713867, -4.965521812438965, -0.480712890625, -0.943603515625, 0.344482421875, 0, 
158, 2025385466, 0.14954329, -0.64461696, -0.10524653, -0.7423133, 9.888835906982422, -0.23881667852401733, 1.7029187679290771, 7.252525329589844, 2.7294371128082275, -4.368605613708496, -0.47802734375, -0.93896484375, 0.344970703125, 0, 
159, 2025402133, 0.14977024, -0.6441964, -0.10631393, -0.7424806, 9.993813514709473, -0.2300948202610016, 1.6764419078826904, 7.676159381866455, 2.828289031982422, -4.087287902832031, -0.480712890625, -0.940185546875, 0.343994140625, 0, 
160, 2025418800, 0.1500257, -0.64376986, -0.107350536, -0.74264973, 10.067930221557617, -0.2992251515388489, 1.580163598060608, 7.923885345458984, 2.9230306148529053, -3.763761281967163, -0.477294921875, -0.939697265625, 0.344970703125, 0, 
161, 2025435467, 0.15055375, -0.64333093, -0.108436994, -0.7427654, 10.079988479614258, -0.3252173364162445, 1.5120484828948975, 9.389381408691406, 2.9004404544830322, -2.549668312072754, -0.4755859375, -0.936767578125, 0.34619140625, 0, 
162, 2025452134, 0.1512778, -0.64290684, -0.10958146, -0.74281746, 9.981281280517578, -0.2699872553348541, 1.4051923751831055, 10.669890403747559, 2.6252963542938232, -1.7141306400299072, -0.476318359375, -0.941162109375, 0.349609375, 0, 
163, 2025468801, 0.15210856, -0.6424503, -0.11072962, -0.7428727, 9.908897399902344, -0.17745202779769897, 1.357738971710205, 11.251541137695312, 2.8971755504608154, -1.2011208534240723, -0.477294921875, -0.939697265625, 0.35009765625, 0, 
164, 2025485468, 0.15291554, -0.6419789, -0.11173561, -0.74296385, 9.868705749511719, -0.15109965205192566, 1.3350822925567627, 10.531567573547363, 3.2801108360290527, -0.7165283560752869, -0.478515625, -0.936767578125, 0.350830078125, 0, 
165, 2025502135, 0.15357825, -0.64148873, -0.112506196, -0.7431342, 9.873395919799805, -0.1420912891626358, 1.2507466077804565, 8.60036849975586, 3.876976251602173, -0.5107301473617554, -0.4755859375, -0.93798828125, 0.351318359375, 0, 
166, 2025518802, 0.15414125, -0.6409675, -0.113087885, -0.74337906, 9.901073455810547, -0.2293710708618164, 1.1818320751190186, 7.241678237915039, 4.523555278778076, -0.26650017499923706, -0.472900390625, -0.935546875, 0.355224609375, 0, 
167, 2025535469, 0.1547172, -0.64043003, -0.11351077, -0.7436581, 9.924073219299316, -0.2972271144390106, 1.1385489702224731, 6.227773666381836, 4.920616626739502, 0.4187484681606293, -0.476806640625, -0.937255859375, 0.352294921875, 0, 
168, 2025552136, 0.15523152, -0.6398949, -0.11373736, -0.74397695, 9.965107917785645, -0.30201655626296997, 1.1808496713638306, 5.4291887283325195, 5.305927753448486, 1.0063230991363525, -0.479736328125, -0.936767578125, 0.352294921875, 0, 
169, 2025568803, 0.15568021, -0.63936615, -0.11374515, -0.74433655, 10.035655975341797, -0.32427316904067993, 1.2050334215164185, 3.955325126647949, 5.654740810394287, 1.5926299095153809, -0.477294921875, -0.9306640625, 0.349609375, 0, 
170, 2025585470, 0.15599075, -0.63883567, -0.11351931, -0.7447614, 10.026731491088867, -0.34526097774505615, 1.2442513704299927, 2.261915683746338, 6.112132549285889, 1.8697338104248047, -0.479248046875, -0.932373046875, 0.3525390625, 0, 
171, 2025602137, 0.15615052, -0.63838387, -0.11306679, -0.7451839, 10.005881309509277, -0.4179726839065552, 1.2609692811965942, -0.05666809901595116, 5.811566352844238, 2.0896825790405273, -0.477294921875, -0.93115234375, 0.349609375, 0, 
172, 2025618804, 0.1561593, -0.6380273, -0.112411834, -0.7455865, 9.951194763183594, -0.46167948842048645, 1.28488290309906, -1.6139073371887207, 5.363407611846924, 2.334604024887085, -0.47802734375, -0.928955078125, 0.34912109375, 0, 
173, 2025635471, 0.15619011, -0.63772225, -0.11182227, -0.74592954, 9.86853313446045, -0.49812600016593933, 1.3202159404754639, -1.5098174810409546, 4.774111270904541, 2.2063357830047607, -0.48193359375, -0.929443359375, 0.347412109375, 0, 
174, 2025652138, 0.15619648, -0.6375066, -0.111327544, -0.7461865, 9.815455436706543, -0.5095158815383911, 1.4106712341308594, -1.1807327270507812, 3.8247125148773193, 1.8147302865982056, -0.476806640625, -0.929931640625, 0.347900390625, 0, 
175, 2025668805, 0.15617907, -0.6373887, -0.11096675, -0.7463446, 9.812088012695312, -0.5501625537872314, 1.4383137226104736, -0.5939586162567139, 2.7227389812469482, 1.282472848892212, -0.4814453125, -0.927978515625, 0.346923828125, 0, 
176, 2025685472, 0.15626024, -0.6373449, -0.110898905, -0.746375, 9.840320587158203, -0.5813766717910767, 1.4723687171936035, 1.2347561120986938, 1.5298913717269897, 0.6657572388648987, -0.47900390625, -0.9267578125, 0.3447265625, 0, 
177, 2025702139, 0.1565309, -0.6373352, -0.11111577, -0.7462943, 9.863876342773438, -0.6426909565925598, 1.5134166479110718, 3.625817060470581, 0.7254989743232727, 0.5336982607841492, -0.479736328125, -0.93115234375, 0.345703125, 0, 
178, 2025718806, 0.15699528, -0.63736117, -0.11158459, -0.7461048, 9.861109733581543, -0.6170228719711304, 1.5024864673614502, 6.071303844451904, -0.04795977473258972, 0.5968590974807739, -0.482421875, -0.92626953125, 0.347412109375, 0, 
179, 2025735473, 0.15770198, -0.6373559, -0.11230779, -0.74585164, 9.876726150512695, -0.5934074521064758, 1.52187979221344, 8.147176742553711, -0.28556886315345764, 0.686170756816864, -0.479736328125, -0.925537109375, 0.34912109375, 0, 
180, 2025752140, 0.15853286, -0.637345, -0.11315451, -0.7455567, 9.889765739440918, -0.519133985042572, 1.494979977607727, 9.522491455078125, -0.47542306780815125, 0.8357490301132202, -0.47802734375, -0.92333984375, 0.350341796875, 0, 
181, 2025768807, 0.15935609, -0.63737, -0.11399236, -0.74523216, 9.946793556213379, -0.42230239510536194, 1.4507379531860352, 9.430937767028809, -0.780073344707489, 0.8871152400970459, -0.480224609375, -0.92333984375, 0.3525390625, 0, 
182, 2025785474, 0.16011699, -0.6373928, -0.11470596, -0.7449401, 9.986083984375, -0.3837241232395172, 1.3566131591796875, 8.471485137939453, -0.5393779277801514, 1.0653926134109497, -0.483642578125, -0.92333984375, 0.354248046875, 0, 
183, 2025802141, 0.16077277, -0.63739866, -0.11528152, -0.744705, 10.012659072875977, -0.3497737944126129, 1.35396146774292, 7.179003715515137, -0.12765370309352875, 1.0371160507202148, -0.4814453125, -0.92333984375, 0.353271484375, 0, 
184, 2025818808, 0.16119196, -0.6374726, -0.11565351, -0.74449337, 10.06555461883545, -0.3517434597015381, 1.3749327659606934, 5.095641136169434, -0.3052009642124176, 0.7655700445175171, -0.4814453125, -0.922119140625, 0.35546875, 0, 
185, 2025835475, 0.16156279, -0.6375255, -0.115957916, -0.7443203, 10.080516815185547, -0.3931058645248413, 1.368293046951294, 4.377741813659668, -0.007197169121354818, 0.7246153354644775, -0.483642578125, -0.922119140625, 0.3564453125, 0, 
186, 2025852142, 0.16180791, -0.63762635, -0.11621158, -0.74414086, 10.075651168823242, -0.40067940950393677, 1.3658394813537598, 3.434771776199341, -0.32848283648490906, 0.32994917035102844, -0.47802734375, -0.92041015625, 0.3583984375, 0, 
187, 2025868809, 0.1620379, -0.63773364, -0.116462275, -0.7439598, 10.052112579345703, -0.41383489966392517, 1.3338618278503418, 3.3941760063171387, -0.3863932192325592, 0.27438247203826904, -0.48388671875, -0.918212890625, 0.357177734375, 0, 
188, 2025885476, 0.16228501, -0.63781446, -0.11678158, -0.7437865, 10.021552085876465, -0.41436368227005005, 1.312841534614563, 3.793336868286133, -0.27689889073371887, 0.017781615257263184, -0.482666015625, -0.92041015625, 0.361572265625, 0, 
189, 2025902143, 0.16245759, -0.63790107, -0.11710746, -0.7436234, 9.978097915649414, -0.42677730321884155, 1.3843008279800415, 3.4195454120635986, -0.3390609323978424, -0.4175766706466675, -0.482177734375, -0.92041015625, 0.3583984375, 0, 
190, 2025918810, 0.16253513, -0.6380117, -0.11740382, -0.74346477, 9.957585334777832, -0.4486100673675537, 1.3999135494232178, 2.871023416519165, -0.4615536034107208, -0.7503880262374878, -0.482666015625, -0.917236328125, 0.364013671875, 0, 
191, 2025935477, 0.1625732, -0.63813156, -0.11774008, -0.74330044, 9.851895332336426, -0.5155723690986633, 1.4016517400741577, 2.7264914512634277, -0.6427891850471497, -1.157015323638916, -0.48046875, -0.918212890625, 0.36279296875, 0, 
192, 2025952144, 0.1625887, -0.63827276, -0.11815728, -0.7431095, 9.765870094299316, -0.5373051762580872, 1.4393490552902222, 3.1257164478302, -0.9618081450462341, -1.5721075534820557, -0.4814453125, -0.914794921875, 0.36181640625, 0, 
193, 2025968811, 0.16260524, -0.6383908, -0.11871398, -0.74291575, 9.704205513000488, -0.568771243095398, 1.4577127695083618, 3.8968257904052734, -1.011496901512146, -2.200669050216675, -0.482177734375, -0.9169921875, 0.364990234375, 0, 
194, 2025985478, 0.16264693, -0.6384674, -0.1193468, -0.7427393, 9.716418266296387, -0.6230419874191284, 1.4552563428878784, 4.353973388671875, -0.7967343330383301, -2.4868907928466797, -0.479248046875, -0.91943359375, 0.36328125, 0, 
195, 2026002145, 0.16278373, -0.6384825, -0.12009733, -0.7425754, 9.795793533325195, -0.6490523219108582, 1.4680169820785522, 5.581538677215576, -0.46576693654060364, -2.5692739486694336, -0.47705078125, -0.9169921875, 0.36669921875, 0, 
196, 2026018812, 0.16315514, -0.63841134, -0.12098655, -0.7424107, 9.840383529663086, -0.6652739644050598, 1.413176417350769, 7.294747829437256, -0.005609182175248861, -2.0924298763275146, -0.47705078125, -0.915283203125, 0.366943359375, 0, 
197, 2026035479, 0.16361667, -0.63831383, -0.12185251, -0.74225134, 9.872060775756836, -0.6091721057891846, 1.3517431020736694, 7.664531707763672, 0.25913017988204956, -1.564744234085083, -0.47412109375, -0.92041015625, 0.367919921875, 0, 
198, 2026052146, 0.16410606, -0.6381552, -0.12262329, -0.74215275, 9.904891967773438, -0.5557528138160706, 1.3255640268325806, 7.292686939239502, 0.9850327372550964, -1.142736554145813, -0.474853515625, -0.918701171875, 0.369140625, 0, 
199, 2026068813, 0.16457853, -0.63797224, -0.12325888, -0.74210024, 9.953557014465332, -0.5265907049179077, 1.3025850057601929, 6.596749782562256, 1.4523361921310425, -0.7083064913749695, -0.47705078125, -0.914794921875, 0.36962890625, 0, 
200, 2026085480, 0.16494714, -0.63779056, -0.12368513, -0.7421036, 9.976627349853516, -0.529161810874939, 1.2648309469223022, 5.051446437835693, 1.8413037061691284, -0.3910035192966461, -0.475341796875, -0.9169921875, 0.36962890625, 0, 
201, 2026102147, 0.16520281, -0.63764, -0.123888716, -0.7421421, 9.99114990234375, -0.5192845463752747, 1.2023104429244995, 3.433133363723755, 2.011730909347534, -0.001267828862182796, -0.47705078125, -0.914306640625, 0.371337890625, 0, 
202, 2026118814, 0.16541196, -0.6375196, -0.12396547, -0.7421861, 9.9730224609375, -0.5371845364570618, 1.1724424362182617, 2.3939998149871826, 1.9841580390930176, 0.29958534240722656, -0.475830078125, -0.915283203125, 0.371337890625, 0, 
203, 2026135481, 0.16561711, -0.6374151, -0.123995915, -0.742225, 10.007282257080078, -0.5167672038078308, 1.1707947254180908, 2.2011618614196777, 1.9474681615829468, 0.5036929249763489, -0.4765625, -0.914794921875, 0.371826171875, 0, 
204, 2026152148, 0.16589783, -0.6373086, -0.12400193, -0.74225277, 9.956666946411133, -0.48210740089416504, 1.1965916156768799, 2.348024845123291, 2.0120630264282227, 0.9848402142524719, -0.47705078125, -0.914794921875, 0.369140625, 0, 
205, 2026168815, 0.16611898, -0.6372416, -0.12398866, -0.7422631, 9.909656524658203, -0.49457332491874695, 1.1893322467803955, 2.0375351905822754, 1.7269684076309204, 0.8256317973136902, -0.479248046875, -0.912109375, 0.371337890625, 0, 
206, 2026185482, 0.16630684, -0.6371835, -0.123961926, -0.74227536, 9.933286666870117, -0.534694254398346, 1.1872674226760864, 1.7213592529296875, 1.6762934923171997, 0.695404052734375, -0.4775390625, -0.915283203125, 0.367919921875, 0, 
207, 2026202149, 0.16651508, -0.637106, -0.12391152, -0.7423037, 9.942353248596191, -0.5780612826347351, 1.2102540731430054, 1.8157225847244263, 1.9188522100448608, 0.8804493546485901, -0.4775390625, -0.911376953125, 0.37255859375, 0, 
208, 2026218816, 0.16681276, -0.6370334, -0.12386347, -0.74230707, 9.95945930480957, -0.585704505443573, 1.252886414527893, 2.114847183227539, 1.8504730463027954, 1.3242599964141846, -0.4775390625, -0.91259765625, 0.370849609375, 0, 
209, 2026235483, 0.16714956, -0.63697404, -0.12377524, -0.742297, 9.963706016540527, -0.5578305721282959, 1.2848142385482788, 2.138333797454834, 1.8205571174621582, 1.7263022661209106, -0.48046875, -0.914794921875, 0.367919921875, 0, 
210, 2026252150, 0.16751663, -0.63690555, -0.123635806, -0.74229634, 9.944375038146973, -0.5370370149612427, 1.3168607950210571, 2.1007347106933594, 2.0094892978668213, 2.0926151275634766, -0.47705078125, -0.911376953125, 0.370361328125, 0, 
211, 2026268817, 0.16783872, -0.6368768, -0.12341834, -0.7422843, 9.933594703674316, -0.4908374547958374, 1.3458969593048096, 1.4073472023010254, 1.8052277565002441, 2.232165575027466, -0.47998046875, -0.910400390625, 0.370361328125, 0, 
212, 2026285484, 0.16814582, -0.63686806, -0.12317171, -0.7422633, 9.92269515991211, -0.44437354803085327, 1.4131298065185547, 1.1762953996658325, 1.6877425909042358, 2.304867744445801, -0.47998046875, -0.90966796875, 0.369140625, 0, 
213, 2026302151, 0.16834426, -0.6369257, -0.12284254, -0.7422234, 9.915733337402344, -0.47583889961242676, 1.4464564323425293, 0.21187464892864227, 1.2732521295547485, 2.1863574981689453, -0.4833984375, -0.907470703125, 0.36962890625, 0, 
214, 2026318818, 0.16848294, -0.63707614, -0.122510254, -0.74211776, 9.9181547164917, -0.48574867844581604, 1.5104914903640747, -0.1333141028881073, 0.4596519470214844, 2.043144464492798, -0.481689453125, -0.90869140625, 0.36865234375, 0, 
215, 2026335485, 0.16869336, -0.63725996, -0.12230662, -0.74194574, 9.92119026184082, -0.5405598878860474, 1.5075972080230713, 0.901611864566803, -0.08919622749090195, 1.9561636447906494, -0.482666015625, -0.9091796875, 0.370361328125, 0, 
216, 2026352152, 0.16908014, -0.6374888, -0.122320846, -0.74165875, 9.92377758026123, -0.5520079731941223, 1.5001932382583618, 2.792853832244873, -0.9320974349975586, 2.058678388595581, -0.484375, -0.910400390625, 0.37255859375, 0, 
217, 2026368819, 0.16958426, -0.6377365, -0.12250191, -0.7413007, 9.904535293579102, -0.5282252430915833, 1.5123814344406128, 4.184007167816162, -1.4407782554626465, 2.0152904987335205, -0.486083984375, -0.907470703125, 0.36865234375, 0, 
218, 2026385486, 0.17017828, -0.63795286, -0.12280116, -0.74092877, 9.899271011352539, -0.5001808404922485, 1.4957072734832764, 5.2366251945495605, -1.4031789302825928, 1.9430882930755615, -0.482177734375, -0.907470703125, 0.37255859375, 0, 
219, 2026402153, 0.17078169, -0.6381645, -0.12310215, -0.7405576, 9.88769245147705, -0.48597827553749084, 1.47691810131073, 5.321531295776367, -1.3765288591384888, 1.9779728651046753, -0.48388671875, -0.908203125, 0.3720703125, 0, 
220, 2026418820, 0.17130129, -0.63836515, -0.12330531, -0.740231, 9.876786231994629, -0.4556836187839508, 1.4345424175262451, 4.49459981918335, -1.0808943510055542, 1.928898811340332, -0.48388671875, -0.90478515625, 0.3720703125, 0, 
221, 2026435487, 0.17175567, -0.63855225, -0.12344395, -0.73994124, 9.857954978942871, -0.4158483147621155, 1.3913172483444214, 3.859212636947632, -0.8336806297302246, 1.822068452835083, -0.4833984375, -0.90478515625, 0.374755859375, 0, 
222, 2026452154, 0.17212473, -0.63872546, -0.12346488, -0.7397023, 9.871405601501465, -0.3978513777256012, 1.3897374868392944, 2.818516969680786, -0.4758327007293701, 1.828176736831665, -0.485107421875, -0.9013671875, 0.376708984375, 0, 
223, 2026468821, 0.17229334, -0.6388953, -0.12329725, -0.73954433, 9.870487213134766, -0.3809460699558258, 1.3706157207489014, 0.8736300468444824, -0.05411963909864426, 1.5331571102142334, -0.4833984375, -0.906494140625, 0.374267578125, 0, 
224, 2026485488, 0.17229368, -0.6390619, -0.122982115, -0.7394528, 9.871317863464355, -0.38266921043395996, 1.3681695461273193, -0.5426050424575806, 0.29509028792381287, 1.271394968032837, -0.485107421875, -0.899658203125, 0.377685546875, 0, 
225, 2026502155, 0.17219089, -0.63921225, -0.12256837, -0.7394153, 9.88528060913086, -0.4041423499584198, 1.4018241167068481, -1.6803853511810303, 0.635021984577179, 1.0787492990493774, -0.488037109375, -0.903564453125, 0.37646484375, 0, 
226, 2026518822, 0.17202903, -0.6393295, -0.12211605, -0.7394265, 9.915489196777344, -0.4588106572628021, 1.3394157886505127, -2.101752519607544, 1.0165361166000366, 0.8739758133888245, -0.485595703125, -0.903076171875, 0.377685546875, 0, 
227, 2026535489, 0.17190437, -0.63940257, -0.12169415, -0.73946184, 9.933655738830566, -0.4973302185535431, 1.3910478353500366, -1.7760167121887207, 1.3426817655563354, 0.8614832162857056, -0.489013671875, -0.90185546875, 0.376708984375, 0, 
228, 2026552156, 0.17180867, -0.63944507, -0.121308446, -0.7395108, 9.923659324645996, -0.513119101524353, 1.3807947635650635, -1.4742287397384644, 1.5390864610671997, 0.8011332750320435, -0.490234375, -0.90087890625, 0.37548828125, 0, 
229, 2026568823, 0.17168745, -0.6394784, -0.12086608, -0.7395824, 9.922065734863281, -0.520664632320404, 1.3877224922180176, -1.8678187131881714, 1.7316040992736816, 0.8893688917160034, -0.489013671875, -0.9013671875, 0.373779296875, 0, 
230, 2026585490, 0.17147778, -0.6394839, -0.12035735, -0.7397094, 9.880820274353027, -0.5229417681694031, 1.4404245615005493, -2.58306622505188, 2.1239266395568848, 0.6458305716514587, -0.489013671875, -0.90478515625, 0.374267578125, 0, 
231, 2026602157, 0.17113015, -0.63949597, -0.11977258, -0.7398744, 9.89159107208252, -0.5525148510932922, 1.432610034942627, -3.615514039993286, 2.231217861175537, 0.24021509289741516, -0.489013671875, -0.904296875, 0.374755859375, 0, 
232, 2026618824, 0.17071714, -0.6394997, -0.11918993, -0.7400605, 9.907099723815918, -0.6275845766067505, 1.4343724250793457, -3.985259532928467, 2.3043808937072754, -0.15053868293762207, -0.488525390625, -0.904296875, 0.37158203125, 0, 
233, 2026635491, 0.17032945, -0.6394943, -0.11868297, -0.7402361, 9.939175605773926, -0.6691486835479736, 1.363898754119873, -3.3960516452789307, 2.23801851272583, -0.3406744599342346, -0.48779296875, -0.902099609375, 0.3681640625, 0, 
234, 2026652158, 0.17009275, -0.6394578, -0.11833551, -0.7403776, 9.935615539550781, -0.6731798648834229, 1.3604397773742676, -1.830437183380127, 2.1875996589660645, -0.2610190212726593, -0.490234375, -0.904296875, 0.366943359375, 0, 
235, 2026668825, 0.1699791, -0.63938135, -0.11809415, -0.7405082, 9.95130443572998, -0.6546649932861328, 1.3889074325561523, -0.6637659072875977, 2.322783946990967, -0.12262078374624252, -0.49072265625, -0.904296875, 0.366943359375, 0, 
236, 2026685492, 0.16987, -0.63926554, -0.11783851, -0.74067384, 9.95891284942627, -0.6410725116729736, 1.4403315782546997, -0.718109667301178, 2.6971068382263184, -0.11859320104122162, -0.491943359375, -0.90380859375, 0.366943359375, 0, 
237, 2026702159, 0.16966316, -0.6391478, -0.117443234, -0.74088573, 9.931840896606445, -0.6191368103027344, 1.4110618829727173, -1.9289308786392212, 2.9908907413482666, -0.06889816373586655, -0.490234375, -0.90478515625, 0.36865234375, 0, 
238, 2026718826, 0.1693076, -0.6390877, -0.11694987, -0.7410971, 9.940536499023438, -0.6253997683525085, 1.426789402961731, -3.1985394954681396, 2.684601306915283, -0.36052432656288147, -0.49072265625, -0.906494140625, 0.366455078125, 0, 
239, 2026735493, 0.16893737, -0.63898134, -0.116463654, -0.7413498, 9.91698169708252, -0.6699209809303284, 1.37948477268219, -3.15494704246521, 3.0863497257232666, -0.5468440055847168, -0.491943359375, -0.906005859375, 0.365234375, 0, 
240, 2026752160, 0.16854961, -0.6389293, -0.11600553, -0.7415546, 9.864962577819824, -0.6521657705307007, 1.4022228717803955, -3.1314213275909424, 2.552119731903076, -0.6683762073516846, -0.49072265625, -0.903076171875, 0.365234375, 0, 
241, 2026768827, 0.1681823, -0.6388697, -0.115623556, -0.74174905, 9.84993839263916, -0.6684330105781555, 1.4029179811477661, -2.7445545196533203, 2.467482805252075, -0.9176774621009827, -0.49072265625, -0.906982421875, 0.364013671875, 0, 
242, 2026785494, 0.16793558, -0.6388009, -0.11540225, -0.7418986, 9.815003395080566, -0.6658537983894348, 1.3438467979431152, -1.2714143991470337, 2.2334978580474854, -0.9546365737915039, -0.4912109375, -0.906005859375, 0.3583984375, 0, 
243, 2026802161, 0.16767606, -0.6387624, -0.11524846, -0.7420142, 9.833841323852539, -0.6546509861946106, 1.3861969709396362, -0.8866989016532898, 1.8551980257034302, -1.2386173009872437, -0.492919921875, -0.908203125, 0.363037109375, 0, 
244, 2026818828, 0.16744566, -0.6387432, -0.115116216, -0.74210334, 9.902979850769043, -0.6622282266616821, 1.4022376537322998, -0.7429988980293274, 1.62953782081604, -1.1623300313949585, -0.49169921875, -0.9072265625, 0.36181640625, 0, 
245, 2026835495, 0.16727072, -0.63871497, -0.11504117, -0.7421788, 9.9376859664917, -0.653110921382904, 1.3899822235107422, -0.18466757237911224, 1.5957990884780884, -1.1256780624389648, -0.49462890625, -0.908935546875, 0.359619140625, 0, 
246, 2026852162, 0.16705959, -0.6387368, -0.114894666, -0.74223036, 9.96779727935791, -0.6239553093910217, 1.3634382486343384, -0.662318766117096, 1.2974560260772705, -0.9190988540649414, -0.492919921875, -0.909912109375, 0.3583984375, 0, 
247, 2026868829, 0.16682273, -0.6387812, -0.1147266, -0.74227136, 9.982895851135254, -0.613339900970459, 1.342451572418213, -0.9265587329864502, 1.1468855142593384, -0.9306439161300659, -0.489501953125, -0.908203125, 0.356201171875, 0, 
248, 2026885496, 0.16658334, -0.6388596, -0.11457523, -0.74228096, 10.074958801269531, -0.6371040344238281, 1.3395758867263794, -0.7884037494659424, 0.8227440118789673, -0.9425538182258606, -0.49169921875, -0.909912109375, 0.360107421875, 0, 
249, 2026902163, 0.16635191, -0.638984, -0.11445753, -0.74224406, 10.19430923461914, -0.6435989141464233, 1.4033511877059937, -0.7130831480026245, 0.3449454605579376, -0.9878050088882446, -0.49072265625, -0.9111328125, 0.359619140625, 0, 
250, 2026918830, 0.16606058, -0.6391743, -0.11432457, -0.7421659, 10.33027458190918, -0.6726921200752258, 1.4525301456451416, -1.0700602531433105, -0.19730743765830994, -1.1257165670394897, -0.489501953125, -0.912841796875, 0.359375, 0, 
251, 2026935497, 0.16575126, -0.6394486, -0.11417221, -0.74202204, 10.320995330810547, -0.7086393237113953, 1.4508020877838135, -1.2818386554718018, -0.9032189846038818, -0.9927225708961487, -0.4912109375, -0.913818359375, 0.356689453125, 0, 
252, 2026952164, 0.16541414, -0.6398455, -0.11402296, -0.74177814, 10.146714210510254, -0.7359068989753723, 1.4378516674041748, -1.3204050064086914, -1.9829928874969482, -0.9197840094566345, -0.492431640625, -0.909423828125, 0.3583984375, 0, 
253, 2026968831, 0.16519584, -0.6402736, -0.11401979, -0.7414578, 9.922125816345215, -0.7190467119216919, 1.4225082397460938, -0.20912127196788788, -2.5664114952087402, -0.8887413740158081, -0.489013671875, -0.912109375, 0.356689453125, 0, 
254, 2026985498, 0.16505998, -0.6407349, -0.11416207, -0.7410677, 9.678707122802734, -0.6844242215156555, 1.4124600887298584, 1.020429253578186, -3.132587194442749, -0.9876898527145386, -0.4912109375, -0.912841796875, 0.359375, 0, 
255, 2027002165, 0.1650223, -0.6411533, -0.114483684, -0.74066436, 9.563467025756836, -0.6371618509292603, 1.3926053047180176, 2.3630082607269287, -3.1093814373016357, -1.3165568113327026, -0.489501953125, -0.909912109375, 0.3623046875, 0, 
256, 2027018832, 0.16506259, -0.6415161, -0.11491047, -0.74027526, 9.539200782775879, -0.596215546131134, 1.379380226135254, 3.1815457344055176, -2.8358123302459717, -1.4693621397018433, -0.48828125, -0.90869140625, 0.361328125, 0, 
257, 2027035499, 0.16518287, -0.6418342, -0.11542231, -0.7398929, 9.618002891540527, -0.5463535189628601, 1.3706634044647217, 4.091929912567139, -2.6070914268493652, -1.4687987565994263, -0.489013671875, -0.91259765625, 0.3623046875, 0, 
258, 2027052166, 0.16530031, -0.64212507, -0.11589532, -0.73954, 9.741631507873535, -0.5174480080604553, 1.436874508857727, 3.982103109359741, -2.292093515396118, -1.3515440225601196, -0.489501953125, -0.909912109375, 0.365234375, 0, 
259, 2027068833, 0.16540204, -0.6423756, -0.116291314, -0.7392376, 9.780412673950195, -0.5190174579620361, 1.391321063041687, 3.412489652633667, -1.804517388343811, -1.201850414276123, -0.488525390625, -0.91259765625, 0.364501953125, 0, 
260, 2027085500, 0.16538805, -0.64267516, -0.116594315, -0.7389326, 9.787497520446777, -0.538648784160614, 1.363701581954956, 2.4833881855010986, -2.044034242630005, -1.3169281482696533, -0.489013671875, -0.91259765625, 0.36572265625, 0, 
261, 2027102167, 0.16541062, -0.64295936, -0.11693502, -0.73862636, 9.871617317199707, -0.55985027551651, 1.3291181325912476, 2.8196444511413574, -1.9880706071853638, -1.3152122497558594, -0.48681640625, -0.913330078125, 0.366943359375, 0, 
262, 2027118834, 0.16549987, -0.64325154, -0.11728721, -0.7382962, 9.901548385620117, -0.5451646447181702, 1.3683831691741943, 3.2108147144317627, -2.0925450325012207, -0.9921080470085144, -0.489013671875, -0.91259765625, 0.366943359375, 0, 
263, 2027135501, 0.16557537, -0.6435548, -0.117591605, -0.73796636, 9.964357376098633, -0.49111488461494446, 1.4134365320205688, 2.939230442047119, -2.1051719188690186, -0.8353070020675659, -0.4873046875, -0.913330078125, 0.366943359375, 0, 
264, 2027152168, 0.16556802, -0.6438351, -0.11776276, -0.7376962, 9.994877815246582, -0.48513615131378174, 1.3914389610290527, 1.965844988822937, -1.6376248598098755, -0.7374023795127869, -0.486083984375, -0.913818359375, 0.37255859375, 0, 
265, 2027168835, 0.16557144, -0.6440751, -0.117847376, -0.7374724, 9.985145568847656, -0.529556930065155, 1.3705891370773315, 1.3533687591552734, -1.1449261903762817, -0.42122650146484375, -0.488525390625, -0.913818359375, 0.3701171875, 0, 
266, 2027185502, 0.16561405, -0.6442564, -0.117877044, -0.7372996, 9.996927261352539, -0.5285757184028625, 1.3517875671386719, 1.3508074283599854, -0.5197969079017639, -0.07216378301382065, -0.489013671875, -0.914306640625, 0.368408203125, 0, 
267, 2027202169, 0.16569033, -0.6443548, -0.11781073, -0.737207, 9.981456756591797, -0.5512587428092957, 1.369612693786621, 1.188320517539978, 0.40158790349960327, 0.3865661025047302, -0.485107421875, -0.91259765625, 0.36865234375, 0, 
268, 2027218836, 0.16576941, -0.6444116, -0.11758237, -0.7371761, 9.948265075683594, -0.5051316618919373, 1.3615127801895142, 0.3076533377170563, 1.0677229166030884, 1.0029996633529663, -0.489501953125, -0.913330078125, 0.366943359375, 0, 
269, 2027235503, 0.16582647, -0.6444213, -0.11722333, -0.73721206, 9.980883598327637, -0.4418652653694153, 1.2705425024032593, -0.3698729872703552, 1.7376103401184082, 1.3693382740020752, -0.4873046875, -0.910888671875, 0.370361328125, 0, 
270, 2027252170, 0.16593356, -0.64433724, -0.11682399, -0.7373249, 9.954170227050781, -0.4300444424152374, 1.3222929239273071, -0.47925207018852234, 2.618520975112915, 1.6165648698806763, -0.489501953125, -0.9111328125, 0.3662109375, 0, 
271, 2027268837, 0.16597348, -0.6442098, -0.116300486, -0.73750997, 9.983519554138184, -0.41251760721206665, 1.28441321849823, -1.2456353902816772, 3.2606699466705322, 1.7386608123779297, -0.491943359375, -0.912841796875, 0.36572265625, 0, 
272, 2027285504, 0.16592266, -0.64405125, -0.11567978, -0.7377576, 9.9845552444458, -0.39937838912010193, 1.3054372072219849, -2.170100212097168, 3.7341911792755127, 1.616597056388855, -0.490234375, -0.90771484375, 0.364013671875, 0, 
273, 2027302171, 0.16576628, -0.64390665, -0.1150149, -0.7380226, 9.989903450012207, -0.46017780900001526, 1.296323299407959, -2.9705352783203125, 3.6993637084960938, 1.261227011680603, -0.492919921875, -0.912109375, 0.364013671875, 0, 
274, 2027318838, 0.16563557, -0.64375025, -0.11442967, -0.7382795, 9.985960006713867, -0.48663339018821716, 1.319260597229004, -2.3674330711364746, 3.655745267868042, 1.0549806356430054, -0.49169921875, -0.910400390625, 0.3623046875, 0, 
275, 2027335505, 0.16560651, -0.6435709, -0.114011444, -0.7385069, 9.975153923034668, -0.5363290905952454, 1.3654016256332397, -1.0940593481063843, 3.5295135974884033, 0.8389760255813599, -0.492919921875, -0.9111328125, 0.363525390625, 0, 
276, 2027352172, 0.16567251, -0.64335984, -0.11372718, -0.73871976, 9.964632987976074, -0.537489116191864, 1.3830456733703613, 0.012966429814696312, 3.538388252258301, 0.7167010307312012, -0.4912109375, -0.909423828125, 0.35791015625, 0, 
277, 2027368839, 0.16571093, -0.6431432, -0.11346389, -0.73894024, 9.936256408691406, -0.5289274454116821, 1.3984302282333374, 0.1965966820716858, 3.573490619659424, 0.5011060833930969, -0.4951171875, -0.91162109375, 0.3583984375, 0, 
278, 2027385506, 0.16574511, -0.6429298, -0.11326057, -0.73914945, 9.907410621643066, -0.5304997563362122, 1.4379132986068726, 0.4931149184703827, 3.4305968284606934, 0.23314599692821503, -0.493408203125, -0.9111328125, 0.359619140625, 0, 
279, 2027402173, 0.16573504, -0.6427364, -0.11307501, -0.73934835, 9.872662544250488, -0.5389167666435242, 1.477226734161377, 0.26111507415771484, 3.217153549194336, -0.05819205194711685, -0.4951171875, -0.913818359375, 0.360107421875, 0, 
280, 2027418840, 0.16562486, -0.64258826, -0.1128937, -0.73952955, 9.852531433105469, -0.526208221912384, 1.5140149593353271, -0.13666296005249023, 2.821085214614868, -0.5191118121147156, -0.49169921875, -0.912109375, 0.356201171875, 0, 
281, 2027435507, 0.16546129, -0.64245486, -0.112729326, -0.73970705, 9.86749267578125, -0.5454578399658203, 1.4904003143310547, -0.11160092800855637, 2.676283836364746, -0.8191133141517639, -0.49462890625, -0.91162109375, 0.359619140625, 0, 
282, 2027452174, 0.1653587, -0.6423063, -0.11265392, -0.7398705, 9.903067588806152, -0.5554693937301636, 1.458080768585205, 0.347231388092041, 2.6108052730560303, -0.9398900866508484, -0.496337890625, -0.913818359375, 0.35888671875, 0, 
283, 2027468841, 0.16531806, -0.6421538, -0.11262917, -0.7400157, 9.905403137207031, -0.5633260011672974, 1.497967004776001, 0.9360610246658325, 2.5415289402008057, -0.8248186111450195, -0.49755859375, -0.91162109375, 0.356689453125, 0, 
284, 2027485508, 0.16530034, -0.64203584, -0.11271407, -0.7401091, 9.910726547241211, -0.5495233535766602, 1.5006623268127441, 1.6612204313278198, 2.028724431991577, -1.0951350927352905, -0.493408203125, -0.909912109375, 0.356201171875, 0, 
285, 2027502175, 0.16529508, -0.6419492, -0.112886295, -0.7401592, 9.907663345336914, -0.532346248626709, 1.5142526626586914, 2.2122395038604736, 1.5852404832839966, -1.3345625400543213, -0.492919921875, -0.912841796875, 0.35498046875, 0, 
286, 2027518842, 0.16523786, -0.64191294, -0.11311263, -0.74016875, 9.909754753112793, -0.4865660071372986, 1.5037500858306885, 2.3165087699890137, 1.0534311532974243, -1.7392433881759644, -0.49462890625, -0.9150390625, 0.357177734375, 0, 
287, 2027535509, 0.1651717, -0.6419114, -0.11340872, -0.7401395, 9.90886116027832, -0.4787939786911011, 1.453956127166748, 2.5948352813720703, 0.6102609634399414, -2.0226924419403076, -0.492919921875, -0.913818359375, 0.356689453125, 0, 
288, 2027552176, 0.16517605, -0.6419117, -0.113811925, -0.7400765, 9.920156478881836, -0.4535546898841858, 1.441163182258606, 3.508939743041992, 0.38520216941833496, -2.088613271713257, -0.489501953125, -0.910400390625, 0.35546875, 0, 
289, 2027568843, 0.16519907, -0.64190716, -0.114240736, -0.7400094, 9.905807495117188, -0.4380019009113312, 1.423889398574829, 3.738839626312256, 0.37717264890670776, -2.101918935775757, -0.49169921875, -0.912109375, 0.3583984375, 0, 
290, 2027585510, 0.1652157, -0.64190453, -0.114670165, -0.7399414, 9.885262489318848, -0.42905986309051514, 1.4088016748428345, 3.664217233657837, 0.3500871956348419, -2.1373414993286133, -0.4912109375, -0.9150390625, 0.35888671875, 0, 
291, 2027602177, 0.16520283, -0.64192647, -0.11510696, -0.73985744, 9.895488739013672, -0.43900352716445923, 1.413718342781067, 3.689535140991211, 0.12806349992752075, -2.259296417236328, -0.489501953125, -0.914306640625, 0.359375, 0, 
292, 2027618844, 0.16522934, -0.6418876, -0.11553733, -0.73981816, 9.905251502990723, -0.41547784209251404, 1.3591428995132446, 3.797044038772583, 0.6701050400733948, -2.1371490955352783, -0.489990234375, -0.914306640625, 0.359375, 0, 
293, 2027635511, 0.1652387, -0.6418891, -0.115904465, -0.73975736, 9.885941505432129, -0.39397263526916504, 1.3601828813552856, 3.382977247238159, 0.43254736065864563, -1.8833214044570923, -0.48779296875, -0.91552734375, 0.360595703125, 0, 
294, 2027652178, 0.16527115, -0.6418737, -0.11622332, -0.7397133, 9.889630317687988, -0.398378849029541, 1.3699297904968262, 3.3316357135772705, 0.667518138885498, -1.5677404403686523, -0.4873046875, -0.916015625, 0.361083984375, 0, 
295, 2027668845, 0.16521554, -0.6418455, -0.11640938, -0.73972094, 9.882437705993652, -0.3578391969203949, 1.3524314165115356, 2.229348659515381, 1.0420976877212524, -1.4979205131530762, -0.49072265625, -0.916015625, 0.364013671875, 0, 
296, 2027685512, 0.16502073, -0.6418289, -0.11646369, -0.73977023, 9.923104286193848, -0.3954790532588959, 1.393823504447937, 0.7506121397018433, 1.1915732622146606, -1.678272008895874, -0.49169921875, -0.91552734375, 0.363525390625, 0, 
297, 2027702179, 0.16477829, -0.64183366, -0.116460405, -0.7398208, 9.933304786682129, -0.4458095133304596, 1.366863489151001, 0.1636587381362915, 1.1129164695739746, -1.6557841300964355, -0.489501953125, -0.91552734375, 0.364013671875, 0, 
298, 2027718846, 0.16463442, -0.64183086, -0.116522454, -0.7398455, 9.939530372619629, -0.46596089005470276, 1.3396579027175903, 0.9205908179283142, 1.0401636362075806, -1.4237713813781738, -0.48779296875, -0.916748046875, 0.3623046875, 0, 
299, 2027735513, 0.16449204, -0.64184743, -0.11652478, -0.7398623, 9.917462348937988, -0.42470279335975647, 1.4192578792572021, 0.7605370283126831, 0.9874399304389954, -1.1041761636734009, -0.486083984375, -0.9189453125, 0.3623046875, 0, 
300, 2027752180, 0.16428623, -0.6418409, -0.11647093, -0.7399222, 9.885905265808105, -0.4129881262779236, 1.4542207717895508, 0.30146148800849915, 1.3126636743545532, -1.22568941116333, -0.4912109375, -0.917236328125, 0.364013671875, 0, 
301, 2027768847, 0.16401657, -0.64187217, -0.11635095, -0.73997384, 9.866779327392578, -0.4220025837421417, 1.441431999206543, -0.6020649075508118, 1.0863690376281738, -1.255226969718933, -0.486083984375, -0.91552734375, 0.36279296875, 0, 
302, 2027785514, 0.16372114, -0.6419098, -0.11623539, -0.74002475, 9.857925415039062, -0.43456974625587463, 1.4211523532867432, -0.7340855002403259, 1.023976445198059, -1.4022825956344604, -0.486083984375, -0.919921875, 0.36328125, 0, 
303, 2027802181, 0.16338111, -0.6419739, -0.116066895, -0.7400707, 9.830138206481934, -0.447509229183197, 1.445068597793579, -1.1144660711288452, 0.8940111398696899, -1.3505252599716187, -0.484375, -0.918212890625, 0.364990234375, 0, 
304, 2027818848, 0.16303496, -0.64201707, -0.115882665, -0.7401384, 9.80138111114502, -0.42589065432548523, 1.4522522687911987, -1.3994523286819458, 1.0928620100021362, -1.380204439163208, -0.4873046875, -0.92236328125, 0.36328125, 0, 
305, 2027835515, 0.16269532, -0.6420614, -0.115699016, -0.74020356, 9.786568641662598, -0.4239163398742676, 1.4535903930664062, -1.2067166566848755, 1.0879954099655151, -1.3200656175613403, -0.48828125, -0.920654296875, 0.364013671875, 0, 
306, 2027852182, 0.16235755, -0.64210474, -0.11548813, -0.740273, 9.754034996032715, -0.4598435163497925, 1.5055874586105347, -1.4777247905731201, 1.1296417713165283, -1.2142853736877441, -0.486083984375, -0.921630859375, 0.364501953125, 0, 
307, 2027868849, 0.16198885, -0.6421254, -0.115238436, -0.7403746, 9.724401473999023, -0.4878300726413727, 1.5107665061950684, -1.8548588752746582, 1.3979730606079102, -1.261156439781189, -0.486083984375, -0.920654296875, 0.3623046875, 0, 
308, 2027885516, 0.16162816, -0.6421386, -0.11504483, -0.7404722, 9.745652198791504, -0.4998469948768616, 1.5118619203567505, -1.4921319484710693, 1.360194444656372, -1.4651745557785034, -0.4912109375, -0.92724609375, 0.361572265625, 0, 
309, 2027902183, 0.16129929, -0.6421257, -0.11484887, -0.7405856, 9.750550270080566, -0.5193004012107849, 1.488214135169983, -1.1705259084701538, 1.5980980396270752, -1.3039041757583618, -0.48779296875, -0.925537109375, 0.362060546875, 0, 
310, 2027918850, 0.16101451, -0.6420841, -0.114686295, -0.74070877, 9.799347877502441, -0.5123938918113708, 1.4948692321777344, -0.940498411655426, 1.77108633518219, -1.2870638370513916, -0.489990234375, -0.9228515625, 0.36279296875, 0, 
311, 2027935517, 0.16079499, -0.64200807, -0.114586286, -0.7408379, 9.838787078857422, -0.5245394110679626, 1.489408016204834, -0.4775488078594208, 1.9363266229629517, -1.2923527956008911, -0.489013671875, -0.925048828125, 0.364990234375, 0, 
312, 2027952184, 0.16068418, -0.6418743, -0.114449315, -0.7409989, 9.819188117980957, -0.5249935388565063, 1.501386284828186, -0.24147650599479675, 2.48471999168396, -0.6717442274093628, -0.486572265625, -0.9267578125, 0.361572265625, 0, 
313, 2027968851, 0.16044454, -0.64172924, -0.11420103, -0.74121475, 9.86143684387207, -0.5347137451171875, 1.5001212358474731, -1.1535190343856812, 2.822845935821533, -0.869948148727417, -0.486572265625, -0.927978515625, 0.36328125, 0, 
314, 2027985518, 0.16022213, -0.64152956, -0.11391877, -0.74147916, 9.935173988342285, -0.5615570545196533, 1.4827014207839966, -1.3733083009719849, 3.3522286415100098, -0.7530710697174072, -0.49072265625, -0.927978515625, 0.36279296875, 0, 
315, 2028002185, 0.15997858, -0.6413153, -0.11355551, -0.74177265, 10.014455795288086, -0.5954384207725525, 1.506240725517273, -1.944439172744751, 3.6214115619659424, -0.5591124296188354, -0.49072265625, -0.928466796875, 0.3603515625, 0, 
316, 2028018852, 0.1598065, -0.6410901, -0.11320086, -0.7420587, 10.11780834197998, -0.6205453276634216, 1.4851765632629395, -1.4790183305740356, 3.694190740585327, -0.22281771898269653, -0.489990234375, -0.92724609375, 0.361572265625, 0, 
317, 2028035519, 0.15968522, -0.64085084, -0.112866335, -0.7423425, 10.184961318969727, -0.6193130016326904, 1.4818987846374512, -1.306849718093872, 3.7605788707733154, -0.0910915732383728, -0.4912109375, -0.927978515625, 0.35693359375, 0, 
318, 2028052186, 0.15961207, -0.6406085, -0.112570554, -0.74261206, 10.247356414794922, -0.6286235451698303, 1.487678050994873, -0.6489489674568176, 3.7255403995513916, 0.02875666134059429, -0.4912109375, -0.9267578125, 0.358154296875, 0, 
319, 2028068853, 0.15966454, -0.6403566, -0.11242622, -0.7428399, 10.24064826965332, -0.6728610396385193, 1.4484682083129883, 0.5617313385009766, 3.510636568069458, 0.012966428883373737, -0.49169921875, -0.927978515625, 0.3564453125, 0, 
320, 2028085520, 0.15985331, -0.64014405, -0.11241318, -0.74298435, 10.19666862487793, -0.6566675305366516, 1.3874232769012451, 1.959301233291626, 2.9129645824432373, 0.26399651169776917, -0.49072265625, -0.93017578125, 0.359375, 0, 
321, 2028102187, 0.16018857, -0.63998306, -0.11253468, -0.7430327, 10.09821891784668, -0.6064386963844299, 1.3200923204421997, 3.2422993183135986, 2.187939405441284, 0.5504553914070129, -0.49072265625, -0.9267578125, 0.3564453125, 0, 
322, 2028118854, 0.16049236, -0.6399231, -0.11271042, -0.7429919, 9.994624137878418, -0.5313199758529663, 1.3436108827590942, 3.4445621967315674, 1.209854245185852, 0.3402390480041504, -0.4912109375, -0.927490234375, 0.358642578125, 0, 
323, 2028135521, 0.16078667, -0.63989466, -0.11291876, -0.74292123, 9.857531547546387, -0.506445050239563, 1.3890595436096191, 3.4850878715515137, 0.8722853064537048, 0.19304929673671722, -0.49169921875, -0.925048828125, 0.361083984375, 0, 
324, 2028152188, 0.16097409, -0.6399376, -0.1130828, -0.7428188, 9.742504119873047, -0.5009925961494446, 1.3989745378494263, 2.571213960647583, 0.3240966796875, -0.09484381973743439, -0.4912109375, -0.928955078125, 0.35986328125, 0, 
325, 2028168855, 0.16102743, -0.64003146, -0.1131642, -0.7427138, 9.70567798614502, -0.5443747639656067, 1.3620685338974, 1.7548158168792725, 0.058217670768499374, -0.33304834365844727, -0.489990234375, -0.92626953125, 0.359375, 0, 
326, 2028185522, 0.16109493, -0.64015293, -0.113212146, -0.7425872, 9.680602073669434, -0.5833848118782043, 1.367253065109253, 1.6115254163742065, -0.12952980399131775, -0.07345081120729446, -0.489013671875, -0.924560546875, 0.361572265625, 0, 
327, 2028202189, 0.1612483, -0.64029026, -0.11327317, -0.7424263, 9.739217758178711, -0.6026524305343628, 1.3605999946594238, 1.9343091249465942, -0.3181225061416626, 0.3322223126888275, -0.49169921875, -0.928466796875, 0.36376953125, 0, 
328, 2028218856, 0.1614062, -0.64042825, -0.11327371, -0.74227285, 9.801678657531738, -0.6222169995307922, 1.419692873954773, 1.6206051111221313, -0.217214897274971, 0.6085577011108398, -0.489990234375, -0.927978515625, 0.362060546875, 0, 
329, 2028235523, 0.16149923, -0.6406035, -0.113111906, -0.742126, 9.881536483764648, -0.5754021406173706, 1.4909826517105103, 0.586594820022583, -0.24034318327903748, 1.0307574272155762, -0.492431640625, -0.92626953125, 0.361083984375, 0, 
330, 2028252190, 0.16144861, -0.6408083, -0.11272413, -0.74201924, 9.916458129882812, -0.552028238773346, 1.49771249294281, -1.2577563524246216, -0.07610172778367996, 1.2696982622146606, -0.49169921875, -0.9296875, 0.361572265625, 0, 
331, 2028268857, 0.16122553, -0.6410781, -0.1121172, -0.7419265, 9.95041275024414, -0.5897815227508545, 1.4861520528793335, -3.1651787757873535, -0.23584173619747162, 1.3983763456344604, -0.494140625, -0.928466796875, 0.362060546875, 0, 
332, 2028285524, 0.16097382, -0.64137965, -0.111453876, -0.74182045, 9.959637641906738, -0.6359751224517822, 1.435336947441101, -3.7418880462646484, -0.4249531924724579, 1.5162017345428467, -0.49462890625, -0.928955078125, 0.364990234375, 0, 
333, 2028302191, 0.1607562, -0.64173377, -0.11085618, -0.74165094, 9.96419620513916, -0.6332805156707764, 1.4274415969848633, -3.455064296722412, -1.0320767164230347, 1.4762842655181885, -0.493408203125, -0.927978515625, 0.36279296875, 0, 
334, 2028318858, 0.1605742, -0.64214647, -0.11041911, -0.74139833, 9.96890926361084, -0.6230162978172302, 1.4233134984970093, -2.4374451637268066, -1.8433459997177124, 1.090633511543274, -0.494140625, -0.93017578125, 0.359130859375, 0, 
335, 2028335525, 0.16040446, -0.64259624, -0.11013907, -0.7410871, 9.943371772766113, -0.6290274858474731, 1.4311318397521973, -1.3656436204910278, -2.4422223567962646, 0.5854551196098328, -0.49462890625, -0.928466796875, 0.35986328125, 0, 
336, 2028352192, 0.16026108, -0.64307886, -0.11001785, -0.74071723, 9.918519020080566, -0.6492528319358826, 1.4543946981430054, -0.5137075185775757, -3.028593063354492, 0.09265393763780594, -0.492919921875, -0.9296875, 0.36328125, 0, 
337, 2028368859, 0.16018023, -0.6435452, -0.110069185, -0.74032205, 9.913209915161133, -0.6550919413566589, 1.4253672361373901, 0.5485215783119202, -3.2094309329986572, -0.36115825176239014, -0.49462890625, -0.927978515625, 0.3603515625, 0, 
338, 2028385526, 0.16019227, -0.64399767, -0.11029368, -0.7398925, 9.906280517578125, -0.6598199605941772, 1.4478442668914795, 2.0084712505340576, -3.4057276248931885, -0.6088971495628357, -0.4970703125, -0.9267578125, 0.365966796875, 0, 
339, 2028402193, 0.16026013, -0.64441556, -0.110661164, -0.7394591, 9.89882755279541, -0.6699907779693604, 1.437609314918518, 2.75840425491333, -3.378532648086548, -1.0251866579055786, -0.4951171875, -0.93017578125, 0.36328125, 0, 
340, 2028418860, 0.16031925, -0.6448248, -0.11104732, -0.7390312, 9.878580093383789, -0.64983069896698, 1.4231945276260376, 3.1096320152282715, -3.3240294456481934, -1.122527837753296, -0.492919921875, -0.9267578125, 0.368408203125, 0, 
341, 2028435527, 0.16037978, -0.6452063, -0.11145348, -0.73862404, 9.893603324890137, -0.6097494959831238, 1.4461758136749268, 2.989995002746582, -3.126516819000244, -1.2884726524353027, -0.492919921875, -0.927978515625, 0.3701171875, 0, 
342, 2028452194, 0.16038999, -0.64554495, -0.111803874, -0.73827296, 9.899683952331543, -0.5841802954673767, 1.4319710731506348, 2.512753486633301, -2.638249158859253, -1.3881700038909912, -0.495361328125, -0.927490234375, 0.369384765625, 0, 
343, 2028468861, 0.16034144, -0.6458616, -0.11206643, -0.7379668, 9.933876037597656, -0.5554720759391785, 1.400080919265747, 1.8772507905960083, -2.2758679389953613, -1.3519536256790161, -0.492919921875, -0.93017578125, 0.36767578125, 0, 
344, 2028485528, 0.16026632, -0.64612484, -0.112283304, -0.73771936, 9.950016975402832, -0.5638855695724487, 1.373243808746338, 1.6914178133010864, -1.7072913646697998, -1.3678206205368042, -0.49365234375, -0.9296875, 0.36767578125, 0, 
345, 2028502195, 0.16024554, -0.6463263, -0.11252626, -0.7375103, 9.986793518066406, -0.5797097682952881, 1.3574343919754028, 2.110877275466919, -1.2111220359802246, -1.2982693910598755, -0.49462890625, -0.9296875, 0.369873046875, 0, 
346, 2028518862, 0.1603477, -0.6464486, -0.112755045, -0.73734605, 9.975810050964355, -0.5913435816764832, 1.3533631563186646, 2.5659892559051514, -0.5051465034484863, -0.7336245179176331, -0.494140625, -0.9296875, 0.372314453125, 0, 
347, 2028535529, 0.16042578, -0.6465361, -0.11290998, -0.73722863, 9.97488021850586, -0.5442401766777039, 1.3200279474258423, 2.0200161933898926, -0.06115031614899635, -0.6163055896759033, -0.496337890625, -0.92578125, 0.3740234375, 0, 
348, 2028552196, 0.16046344, -0.6465731, -0.112956606, -0.7371809, 9.994012832641602, -0.5348163843154907, 1.2986444234848022, 1.1985142230987549, 0.5875744819641113, -0.468353807926178, -0.49365234375, -0.9267578125, 0.369384765625, 0, 
349, 2028568863, 0.16041334, -0.64659446, -0.112900294, -0.7371816, 9.9956636428833, -0.5409233570098877, 1.344878911972046, 0.4725542664527893, 0.9379114508628845, -0.49316608905792236, -0.49072265625, -0.928955078125, 0.372314453125, 0, 
350, 2028585530, 0.16038783, -0.6465471, -0.11283661, -0.7372384, 9.976022720336914, -0.5490851998329163, 1.3080111742019653, 0.5231394171714783, 1.559416651725769, -0.4582816958427429, -0.492919921875, -0.928466796875, 0.37109375, 0, 
351, 2028602197, 0.16035089, -0.6465174, -0.11275688, -0.7372847, 9.942940711975098, -0.5172688961029053, 1.2540000677108765, 0.40039050579071045, 1.4326462745666504, -0.41727569699287415, -0.491943359375, -0.932861328125, 0.369384765625, 0, 
352, 2028618864, 0.16037707, -0.64643925, -0.11270947, -0.7373548, 9.917866706848145, -0.5062249302864075, 1.2934802770614624, 0.980114758014679, 1.8020645380020142, -0.2914852797985077, -0.490234375, -0.928955078125, 0.372314453125, 0, 
353, 2028635531, 0.16042514, -0.64632636, -0.11263716, -0.7374544, 9.913582801818848, -0.4912832975387573, 1.2778230905532837, 0.8213545083999634, 2.1487457752227783, -0.14569784700870514, -0.495361328125, -0.928955078125, 0.37109375, 0, 
354, 2028652198, 0.16036788, -0.64623, -0.1124905, -0.7375736, 9.929424285888672, -0.5265486240386963, 1.3400323390960693, -0.03476284071803093, 2.1537976264953613, -0.354819118976593, -0.49462890625, -0.928466796875, 0.36669921875, 0, 
355, 2028668865, 0.16031893, -0.64612865, -0.11233197, -0.7376971, 9.943021774291992, -0.5692346692085266, 1.3565845489501953, 0.06586946547031403, 2.220268964767456, -0.25260525941848755, -0.49365234375, -0.9306640625, 0.368408203125, 0, 
356, 2028685532, 0.16028483, -0.64605945, -0.112175114, -0.73778915, 9.932411193847656, -0.5583659410476685, 1.4055843353271484, 0.08682063966989517, 1.9240963459014893, -0.13059915602207184, -0.492431640625, -0.93017578125, 0.36767578125, 0, 
357, 2028702199, 0.1601902, -0.64601725, -0.11198882, -0.7378749, 9.927177429199219, -0.5247595310211182, 1.4294742345809937, -0.3233475387096405, 1.7433605194091797, -0.27484989166259766, -0.496337890625, -0.927490234375, 0.3701171875, 0, 
358, 2028718866, 0.16011244, -0.64597994, -0.111833274, -0.7379481, 9.905104637145996, -0.5523372888565063, 1.4309475421905518, -0.22457219660282135, 1.6350828409194946, -0.32462817430496216, -0.496337890625, -0.928955078125, 0.3701171875, 0, 
359, 2028735533, 0.1600944, -0.6459457, -0.11178647, -0.737989, 9.891740798950195, -0.5874465107917786, 1.453170657157898, 0.6157997250556946, 1.3997275829315186, -0.4662535786628723, -0.496337890625, -0.92919921875, 0.368408203125, 0, 
360, 2028752200, 0.1601633, -0.64591867, -0.11188853, -0.7379822, 9.907883644104004, -0.5903354287147522, 1.4343429803848267, 1.8287020921707153, 1.0515614748001099, -0.6250779628753662, -0.494140625, -0.9267578125, 0.36767578125, 0, 
361, 2028768867, 0.16032514, -0.6459071, -0.112105526, -0.73792446, 9.892105102539062, -0.5515442490577698, 1.4168049097061157, 2.8508853912353516, 0.6895834803581238, -0.5955272316932678, -0.49755859375, -0.92919921875, 0.368896484375, 0, 
362, 2028785534, 0.16048372, -0.6459217, -0.11235872, -0.7378385, 9.883344650268555, -0.5172107815742493, 1.4423515796661377, 3.0164847373962402, 0.3860858678817749, -0.7219260334968567, -0.49462890625, -0.932373046875, 0.366455078125, 0, 
363, 2028802201, 0.16060095, -0.6459433, -0.11259902, -0.7377575, 9.893426895141602, -0.4862821400165558, 1.4408107995986938, 2.9226911067962646, 0.35564514994621277, -0.8530694246292114, -0.492431640625, -0.9296875, 0.36767578125, 0, 
364, 2028818868, 0.16069657, -0.6459716, -0.11284711, -0.737674, 9.883776664733887, -0.4908836781978607, 1.434754729270935, 2.782109498977661, 0.28040143847465515, -0.9976658821105957, -0.495849609375, -0.932373046875, 0.369384765625, 0, 
365, 2028835535, 0.16077685, -0.6459932, -0.11310564, -0.73759806, 9.890335083007812, -0.47638607025146484, 1.3563860654830933, 2.757373571395874, 0.320671021938324, -1.1358143091201782, -0.491943359375, -0.932373046875, 0.36767578125, 0, 
366, 2028852202, 0.16086742, -0.6460281, -0.113356054, -0.73750925, 9.887903213500977, -0.5036890506744385, 1.3882759809494019, 2.8185625076293945, 0.21367396414279938, -1.0147815942764282, -0.494140625, -0.93017578125, 0.36767578125, 0, 
367, 2028868869, 0.16100983, -0.6460508, -0.11365305, -0.7374125, 9.915372848510742, -0.5080301761627197, 1.3721709251403809, 3.316953420639038, 0.22625617682933807, -0.9568647742271423, -0.490234375, -0.9306640625, 0.37060546875, 0, 
368, 2028885536, 0.1612665, -0.6460467, -0.113979235, -0.7373099, 9.937663078308105, -0.5145931839942932, 1.371580958366394, 3.9327986240386963, 0.3912276327610016, -0.5299524664878845, -0.495849609375, -0.927978515625, 0.37109375, 0, 
369, 2028902203, 0.16165878, -0.6459907, -0.11430103, -0.7372231, 9.968615531921387, -0.5183150768280029, 1.4253277778625488, 4.5268402099609375, 0.8320286870002747, 0.11559013277292252, -0.49365234375, -0.92724609375, 0.37353515625, 0, 
370, 2028918870, 0.16230778, -0.64579535, -0.114652276, -0.7371971, 9.959698677062988, -0.5555866360664368, 1.4504284858703613, 5.899054527282715, 1.9757895469665527, 1.105931043624878, -0.494140625, -0.9296875, 0.369384765625, 0, 
371, 2028935537, 0.16325481, -0.6454075, -0.11507411, -0.7372619, 9.970110893249512, -0.6547597646713257, 1.5637869834899902, 7.937614917755127, 3.510176181793213, 2.074840545654297, -0.494140625, -0.92626953125, 0.37353515625, 0, 
372, 2028952204, 0.16463201, -0.64476013, -0.11551361, -0.7374533, 10.071292877197266, -0.8296359181404114, 1.6456067562103271, 10.002814292907715, 5.698789596557617, 3.8125667572021484, -0.495849609375, -0.9228515625, 0.37353515625, 0, 
373, 2028968871, 0.16685039, -0.64371574, -0.11610232, -0.7377746, 10.117083549499512, -1.017706274986267, 1.642570972442627, 14.908926963806152, 8.778687477111816, 6.955265045166016, -0.494140625, -0.92333984375, 0.375244140625, 0, 
374, 2028985538, 0.17038359, -0.64230025, -0.11758285, -0.73796624, 10.013521194458008, -1.121739387512207, 1.602527141571045, 25.84860610961914, 10.10749340057373, 9.528593063354492, -0.499267578125, -0.920654296875, 0.3740234375, 0, 
375, 2029002205, 0.1744327, -0.64074695, -0.119102284, -0.7381269, 9.901802062988281, -0.9267458319664001, 1.6257635354995728, 28.751340866088867, 11.03455638885498, 11.917890548706055, -0.5009765625, -0.913818359375, 0.378173828125, 0, 
376, 2029018872, 0.17766961, -0.63921124, -0.11963986, -0.73859936, 9.946261405944824, -0.5228683948516846, 1.6351344585418701, 19.889347076416016, 12.82337474822998, 11.752415657043457, -0.50341796875, -0.908935546875, 0.37646484375, 0, 
377, 2029035539, 0.18037823, -0.6376831, -0.1195248, -0.73928213, 9.853033065795898, -0.1677667647600174, 1.6497673988342285, 14.254134178161621, 14.062448501586914, 11.718806266784668, -0.505126953125, -0.909423828125, 0.376953125, 0, 
378, 2029052206, 0.18160719, -0.63657075, -0.118344866, -0.74012905, 9.757159233093262, -0.05547307804226875, 1.3496369123458862, 1.7519999742507935, 12.765395164489746, 9.028101921081543, -0.508544921875, -0.901611328125, 0.373779296875, 0, 
379, 2029068873, 0.18140607, -0.6359426, -0.11613195, -0.74106836, 9.88016128540039, 0.0341666117310524, 1.1105860471725464, -10.634806632995605, 10.834157943725586, 6.541630744934082, -0.51025390625, -0.905029296875, 0.3720703125, 0, 
380, 2029085540, 0.1803707, -0.6356227, -0.11385294, -0.74194866, 10.121341705322266, -0.03870401903986931, 1.001184105873108, -15.145427703857422, 8.43364429473877, 2.8909854888916016, -0.510009765625, -0.901123046875, 0.3623046875, 0, 
381, 2029102207, 0.17960197, -0.63554204, -0.112567164, -0.74240035, 9.947432518005371, -0.19651417434215546, 0.8733242154121399, -8.819011688232422, 4.32934045791626, 0.6577598452568054, -0.512451171875, -0.8984375, 0.363037109375, 0, 
382, 2029118874, 0.17875126, -0.6360529, -0.112174526, -0.7422274, 9.805103302001953, -0.23711642622947693, 0.9276900887489319, -4.996108531951904, -2.5666675567626953, -2.4436755180358887, -0.51171875, -0.90234375, 0.361328125, 0, 
383, 2029135541, 0.17848998, -0.6366118, -0.112790115, -0.7417179, 9.76716423034668, -0.3099868893623352, 0.8316688537597656, 2.949533462524414, -5.052803993225098, -3.379077672958374, -0.509033203125, -0.905517578125, 0.3662109375, 0, 
384, 2029152208, 0.17819558, -0.63756603, -0.11390539, -0.74079794, 9.62805461883545, -0.1867869347333908, 1.082616925239563, 5.1581501960754395, -9.487397193908691, -4.921712875366211, -0.51123046875, -0.905029296875, 0.369140625, 0, 
385, 2029168875, 0.1765264, -0.6391116, -0.11424117, -0.7398133, 9.604424476623535, -0.2854560315608978, 1.4569090604782104, -5.530062198638916, -12.89413070678711, -7.956867218017578, -0.509033203125, -0.90673828125, 0.37255859375, 0, 
386, 2029185542, 0.17329174, -0.64109313, -0.11314119, -0.7390323, 9.659440040588379, -0.36434924602508545, 1.4536422491073608, -20.429231643676758, -13.701360702514648, -9.512918472290039, -0.50439453125, -0.912353515625, 0.373046875, 0, 
387, 2029202209, 0.16962421, -0.6431249, -0.11186909, -0.7383113, 9.771507263183594, -0.7521080374717712, 1.5035682916641235, -23.371122360229492, -13.820770263671875, -10.988457679748535, -0.50390625, -0.91845703125, 0.37060546875, 0, 
388, 2029218876, 0.16627903, -0.6449829, -0.1104625, -0.7376629, 9.796780586242676, -1.1420152187347412, 1.803555965423584, -22.50853729248047, -12.213537216186523, -8.980745315551758, -0.50048828125, -0.921142578125, 0.368896484375, 0, 
389, 2029235543, 0.1632587, -0.64673156, -0.108995974, -0.73702425, 9.741159439086914, -1.256554126739502, 1.8779436349868774, -21.33089828491211, -11.308396339416504, -7.185497283935547, -0.499755859375, -0.92236328125, 0.368408203125, 0, 
390, 2029252210, 0.16114455, -0.6483982, -0.10821421, -0.7361399, 9.854032516479492, -1.1205495595932007, 1.7669013738632202, -13.619829177856445, -12.083640098571777, -5.445984840393066, -0.499267578125, -0.928466796875, 0.368896484375, 0, 
391, 2029268877, 0.16006885, -0.64968735, -0.108069494, -0.73525876, 10.033263206481934, -1.1026158332824707, 1.703328251838684, -5.3869547843933105, -10.101703643798828, -3.330203056335449, -0.498779296875, -0.928466796875, 0.37109375, 0, 
392, 2029285544, 0.15990041, -0.65051675, -0.10834661, -0.7345209, 9.97903060913086, -1.232628583908081, 1.7892581224441528, 1.075355887413025, -6.9334869384765625, -1.15330171585083, -0.496337890625, -0.9306640625, 0.372314453125, 0, 
393, 2029302211, 0.16023599, -0.6511607, -0.1089289, -0.7337907, 9.895330429077148, -1.009987235069275, 1.6349111795425415, 5.1793622970581055, -5.937952995300293, -0.11832428723573685, -0.49755859375, -0.93017578125, 0.37841796875, 0, 
394, 2029318878, 0.16100726, -0.6515806, -0.10994909, -0.73309684, 10.1651611328125, -0.7522478699684143, 1.4534876346588135, 9.49420166015625, -4.808696269989014, -0.10471755266189575, -0.498291015625, -0.927978515625, 0.37744140625, 0, 
395, 2029335545, 0.16236496, -0.6517536, -0.11133504, -0.7324339, 10.341257095336914, -0.517047643661499, 1.3799842596054077, 14.279327392578125, -3.3948636054992676, 0.9958161115646362, -0.4931640625, -0.928466796875, 0.38232421875, 0, 
396, 2029352212, 0.16425014, -0.651734, -0.113045566, -0.7317688, 10.192822456359863, -0.519477903842926, 1.1675245761871338, 18.494630813598633, -2.396538257598877, 2.054563283920288, -0.5, -0.928466796875, 0.384033203125, 0, 
397, 2029368879, 0.16647121, -0.6517179, -0.11504324, -0.7309693, 9.948230743408203, -0.528014063835144, 0.9267628192901611, 21.6628475189209, -3.0828330516815186, 2.6256392002105713, -0.50048828125, -0.925048828125, 0.39208984375, 0, 
398, 2029385546, 0.16826384, -0.65174323, -0.116848975, -0.7302496, 9.761701583862305, -0.16213427484035492, 0.9460028409957886, 18.622783660888672, -3.0477676391601562, 1.2707115411758423, -0.498291015625, -0.923828125, 0.39599609375, 0, 
399, 2029402213, 0.16910982, -0.65189195, -0.11795764, -0.72974306, 9.709810256958008, 0.04257316142320633, 1.1044986248016357, 10.60518741607666, -2.6626269817352295, -0.49479278922080994, -0.49951171875, -0.920654296875, 0.39599609375, 0, 
400, 2029418880, 0.16887349, -0.6520984, -0.11817035, -0.7295788, 9.775328636169434, 8.786449325270951E-4, 1.155447244644165, 0.9599191546440125, -1.2552399635314941, -2.2424814701080322, -0.49560546875, -0.92333984375, 0.397705078125, 0, 
401, 2029435547, 0.16794483, -0.65227383, -0.117804006, -0.7296957, 9.88492488861084, -0.1835133582353592, 1.1248600482940674, -5.247197151184082, 0.2710592448711395, -3.4589059352874756, -0.49609375, -0.92041015625, 0.397216796875, 0, 
402, 2029452214, 0.16677904, -0.6523427, -0.117279135, -0.72998595, 9.915328025817871, -0.4468887746334076, 1.0965970754623413, -7.192239761352539, 1.576737403869629, -4.221537113189697, -0.494873046875, -0.923828125, 0.397705078125, 0, 
403, 2029468881, 0.16581522, -0.65224826, -0.1169231, -0.7303469, 9.9395170211792, -0.6046742796897888, 1.196422815322876, -5.329849720001221, 2.6836798191070557, -4.1766252517700195, -0.49609375, -0.925537109375, 0.39501953125, 0, 
404, 2029485548, 0.16532163, -0.6518133, -0.11698461, -0.7308371, 10.077103614807129, -0.7681828737258911, 1.3815724849700928, -0.8405704498291016, 4.875064849853516, -4.109866142272949, -0.493896484375, -0.928955078125, 0.39599609375, 0, 
405, 2029502215, 0.16546594, -0.6509894, -0.11740793, -0.7314707, 10.279757499694824, -0.873786211013794, 1.621957778930664, 4.1608476638793945, 7.569373607635498, -3.0070276260375977, -0.495361328125, -0.932373046875, 0.395263671875, 0, 
406, 2029518882, 0.1663973, -0.64994985, -0.11822758, -0.7320516, 10.302205085754395, -0.9990603923797607, 1.689880609512329, 10.010191917419434, 8.593502044677734, -0.9386740922927856, -0.49658203125, -0.929443359375, 0.39599609375, 0, 
407, 2029535549, 0.16813315, -0.64874, -0.11935997, -0.7325442, 10.030255317687988, -1.0156008005142212, 1.4886620044708252, 15.439456939697266, 9.342999458312988, 1.664955496788025, -0.497314453125, -0.92724609375, 0.396484375, 0, 
408, 2029552216, 0.17029937, -0.64728516, -0.120799616, -0.7330946, 10.019330978393555, -0.7037228941917419, 1.3517792224884033, 19.1771183013916, 10.825277328491211, 2.1872129440307617, -0.49609375, -0.92724609375, 0.397705078125, 0, 
409, 2029568883, 0.17216626, -0.64565444, -0.1217497, -0.7339389, 9.929418563842773, -0.46223410964012146, 1.5567891597747803, 15.385072708129883, 13.341803550720215, 2.3697545528411865, -0.501708984375, -0.92724609375, 0.39599609375, 0, 
410, 2029585550, 0.17338279, -0.6441652, -0.12206086, -0.73490876, 9.832764625549316, -0.4066039025783539, 1.5922460556030273, 9.0770845413208, 13.389727592468262, 1.9055862426757812, -0.5, -0.921142578125, 0.39501953125, 0, 
411, 2029602217, 0.17401627, -0.64288914, -0.12185573, -0.73590976, 9.76622486114502, -0.37847089767456055, 1.1885662078857422, 3.653653860092163, 12.569438934326172, 1.3998374938964844, -0.498291015625, -0.92236328125, 0.393798828125, 0, 
412, 2029618884, 0.17445825, -0.6417429, -0.12146226, -0.73686993, 9.68014907836914, -0.4622558355331421, 1.0402159690856934, 1.7555978298187256, 11.800699234008789, 1.4284721612930298, -0.50244140625, -0.91943359375, 0.393798828125, 0, 
413, 2029635551, 0.17469876, -0.6408225, -0.12101213, -0.7376874, 9.63327693939209, -0.4848034679889679, 1.1981781721115112, 0.3164578080177307, 9.934234619140625, 1.0055934190750122, -0.502197265625, -0.925048828125, 0.39208984375, 0, 
414, 2029652218, 0.1746574, -0.64007825, -0.120479025, -0.7384305, 9.63248348236084, -0.5187621712684631, 1.3449211120605469, -1.434362769126892, 8.58226203918457, 0.18804208934307098, -0.505615234375, -0.925048828125, 0.39208984375, 0, 
415, 2029668885, 0.17430422, -0.6395961, -0.119908996, -0.7390242, 9.738967895507812, -0.5636273622512817, 1.3578763008117676, -3.2181270122528076, 6.381096839904785, -0.8383229374885559, -0.502197265625, -0.92236328125, 0.384765625, 0, 
416, 2029685552, 0.17388079, -0.63925266, -0.11933633, -0.73951375, 9.83448314666748, -0.6825839877128601, 1.4425628185272217, -3.5825319290161133, 5.166018486022949, -0.939006507396698, -0.502197265625, -0.92236328125, 0.382568359375, 0, 
417, 2029702219, 0.17365754, -0.63896483, -0.119004615, -0.7398682, 9.948454856872559, -0.841387152671814, 1.4745668172836304, -1.4165233373641968, 4.165226936340332, -0.7730041742324829, -0.5029296875, -0.924560546875, 0.38427734375, 0, 
418, 2029718886, 0.17381391, -0.6386934, -0.11878832, -0.7401007, 9.911735534667969, -0.9152248501777649, 1.5961450338363647, 0.8892858624458313, 3.7198991775512695, 0.8016648292541504, -0.50390625, -0.92626953125, 0.382568359375, 0, 
419, 2029735553, 0.17381376, -0.63860124, -0.11827598, -0.74026227, 9.893439292907715, -0.7408543825149536, 1.5110769271850586, -1.349462628364563, 2.717993974685669, 1.5465972423553467, -0.50634765625, -0.924072265625, 0.382568359375, 0, 
420, 2029752220, 0.17383493, -0.6385565, -0.117780216, -0.740375, 9.942144393920898, -0.6796860098838806, 1.495846152305603, -1.3093148469924927, 2.2628819942474365, 1.6585633754730225, -0.5, -0.921875, 0.379638671875, 0, 
421, 2029768887, 0.17384519, -0.6385397, -0.11722195, -0.7404757, 9.951262474060059, -0.7307600975036621, 1.5145128965377808, -1.664614200592041, 2.132833480834961, 1.917853593826294, -0.5107421875, -0.921875, 0.380126953125, 0, 
422, 2029785554, 0.17410481, -0.63851976, -0.11676046, -0.74050486, 9.887557983398438, -0.7970220446586609, 1.4891531467437744, -0.05030975118279457, 1.920965313911438, 2.8377208709716797, -0.505126953125, -0.92578125, 0.379638671875, 0, 
423, 2029802221, 0.17450544, -0.6385995, -0.11636577, -0.7404037, 9.81789779663086, -0.71041339635849, 1.3843446969985962, 0.9590420126914978, 0.873802900314331, 3.505841016769409, -0.505126953125, -0.9228515625, 0.38134765625, 0, 
424, 2029818888, 0.1749454, -0.63876253, -0.11603236, -0.7402116, 9.820660591125488, -0.5575209259986877, 1.405672311782837, 1.3621474504470825, 0.012383741326630116, 3.6011204719543457, -0.508544921875, -0.91796875, 0.379150390625, 0, 
425, 2029835555, 0.1751636, -0.6390048, -0.11560558, -0.7400176, 9.844952583312988, -0.5295695066452026, 1.5794494152069092, -0.19194158911705017, -0.463013619184494, 2.9483354091644287, -0.508544921875, -0.91796875, 0.3779296875, 0, 
426, 2029852222, 0.17523368, -0.63930213, -0.11504261, -0.7398319, 9.914018630981445, -0.6999199986457825, 1.6465789079666138, -1.5970542430877686, -0.6621907353401184, 2.8309781551361084, -0.5078125, -0.920166015625, 0.379638671875, 0, 
427, 2029868889, 0.17525421, -0.63962173, -0.11431491, -0.73966366, 9.98405933380127, -0.7561711072921753, 1.5330275297164917, -2.6908063888549805, -0.5422977805137634, 3.2988903522491455, -0.511474609375, -0.92138671875, 0.38134765625, 0, 
428, 2029885556, 0.17528354, -0.6399042, -0.11331583, -0.73956615, 9.979866981506348, -0.660048246383667, 1.4116870164871216, -4.095881462097168, 0.2935151755809784, 4.414163589477539, -0.514892578125, -0.9208984375, 0.380126953125, 0, 
429, 2029902223, 0.17525955, -0.6400834, -0.11220624, -0.7395858, 9.995911598205566, -0.5065672397613525, 1.446174144744873, -4.857564449310303, 1.4279402494430542, 4.407055854797363, -0.513671875, -0.91845703125, 0.37744140625, 0, 
430, 2029918890, 0.17518166, -0.6401429, -0.11104719, -0.73972774, 10.009390830993652, -0.44326645135879517, 1.6070501804351807, -5.2942094802856445, 2.5937788486480713, 4.114776611328125, -0.512939453125, -0.91796875, 0.375244140625, 0, 
431, 2029935557, 0.17502722, -0.6401197, -0.10999106, -0.73994213, 9.964438438415527, -0.6719797253608704, 1.6860917806625366, -5.052387237548828, 3.148549795150757, 3.1298270225524902, -0.51416015625, -0.919677734375, 0.37451171875, 0, 
432, 2029952224, 0.17481595, -0.6401363, -0.10911742, -0.740107, 9.909954071044922, -0.8049411177635193, 1.6475486755371094, -4.394390106201172, 2.4622511863708496, 2.1271092891693115, -0.51416015625, -0.9208984375, 0.37109375, 0, 
433, 2029968891, 0.17504203, -0.64009887, -0.10891397, -0.74011606, 9.942105293273926, -0.8637370467185974, 1.5438226461410522, 1.1732152700424194, 1.5700840950012207, 1.5579437017440796, -0.515869140625, -0.91748046875, 0.36962890625, 0, 
434, 2029985558, 0.1758988, -0.6398644, -0.10943242, -0.74003905, 9.985273361206055, -0.8731698393821716, 1.668788194656372, 7.918937683105469, 1.7960273027420044, 1.5424612760543823, -0.517578125, -0.91650390625, 0.373046875, 0, 
435, 2030002225, 0.1769435, -0.63948965, -0.110084675, -0.7400173, 9.92273235321045, -0.7851778268814087, 1.8933138847351074, 9.517182350158691, 2.7328758239746094, 1.728652834892273, -0.515869140625, -0.915771484375, 0.375244140625, 0, 
436, 2030018892, 0.17740062, -0.63926387, -0.11036878, -0.74006057, 9.950616836547852, -0.5631045699119568, 1.7172343730926514, 4.83955192565918, 2.2548460960388184, 0.39321258664131165, -0.515380859375, -0.915283203125, 0.375244140625, 0, 
437, 2030035559, 0.17765248, -0.6389789, -0.11049442, -0.7402274, 9.935723304748535, -0.6061859726905823, 1.5394959449768066, 3.1140434741973877, 3.1337265968322754, -0.14533287286758423, -0.518798828125, -0.911376953125, 0.375244140625, 0, 
438, 2030052226, 0.17760853, -0.63873005, -0.11040387, -0.7404661, 9.858675003051758, -0.6363493204116821, 1.5103040933609009, 0.5857624411582947, 3.3070478439331055, -0.764353334903717, -0.51806640625, -0.9140625, 0.373046875, 0, 
439, 2030068893, 0.17744178, -0.638515, -0.11033075, -0.74070257, 9.860757827758789, -0.6326523423194885, 1.4960964918136597, 0.17270642518997192, 3.0060346126556396, -1.4209221601486206, -0.515380859375, -0.91357421875, 0.375732421875, 0, 
440, 2030085560, 0.17735988, -0.6383067, -0.11045419, -0.74088323, 9.825934410095215, -0.6209810972213745, 1.4720866680145264, 1.5015062093734741, 2.558452606201172, -1.7916145324707031, -0.515380859375, -0.914794921875, 0.372314453125, 0, 
441, 2030102227, 0.17719987, -0.6381474, -0.11059281, -0.74103796, 9.841394424438477, -0.6319048404693604, 1.420291781425476, 1.2818641662597656, 2.1128554344177246, -2.167929172515869, -0.517578125, -0.91650390625, 0.374755859375, 0, 
442, 2030118894, 0.17703621, -0.6380201, -0.110730104, -0.74116635, 9.849056243896484, -0.6364774107933044, 1.4531724452972412, 1.1938848495483398, 1.8397475481033325, -2.131892442703247, -0.51708984375, -0.915771484375, 0.371826171875, 0, 
443, 2030135561, 0.17672656, -0.63792837, -0.11082324, -0.7413052, 9.879870414733887, -0.6714308261871338, 1.547153353691101, 0.34980541467666626, 1.6424143314361572, -2.6519196033477783, -0.512451171875, -0.919189453125, 0.37353515625, 0, 
444, 2030152228, 0.17630287, -0.63786596, -0.11081882, -0.7414604, 9.86479377746582, -0.7049251198768616, 1.6506575345993042, -0.7104386687278748, 1.5983221530914307, -2.804136037826538, -0.515380859375, -0.91796875, 0.37451171875, 0, 
445, 2030168895, 0.17586882, -0.6377406, -0.1106836, -0.7416915, 9.984543800354004, -0.8521474003791809, 1.6813870668411255, -1.481816291809082, 2.407299041748047, -2.438027858734131, -0.515869140625, -0.9169921875, 0.371826171875, 0, 
446, 2030185562, 0.1757931, -0.63747406, -0.11051744, -0.74196345, 9.859838485717773, -1.036033272743225, 1.7189857959747314, 0.09335828572511673, 3.61246657371521, -0.6298739314079285, -0.512939453125, -0.91796875, 0.3740234375, 0, 
447, 2030202229, 0.17580007, -0.63731605, -0.11038149, -0.74211764, 9.858272552490234, -0.8984942436218262, 1.5825108289718628, 0.5119722485542297, 2.5716047286987305, -0.1323472112417221, -0.51806640625, -0.918212890625, 0.371337890625, 0, 
448, 2030218896, 0.17604445, -0.6371062, -0.11034548, -0.74224526, 9.877922058105469, -0.7520954608917236, 1.5997356176376343, 2.2179317474365234, 2.77315092086792, 0.6456832885742188, -0.51806640625, -0.91748046875, 0.3701171875, 0, 
449, 2030235563, 0.17613472, -0.6369072, -0.110124096, -0.7424275, 9.830853462219238, -0.6290332078933716, 1.7083823680877686, 0.5674493312835693, 3.0625743865966797, 0.6174197196960449, -0.515869140625, -0.91748046875, 0.37060546875, 0, 
450, 2030252230, 0.17602424, -0.63677186, -0.10978135, -0.74262065, 9.790102005004883, -0.6614913940429688, 1.6532295942306519, -1.0307382345199585, 2.779963970184326, 0.15909327566623688, -0.515869140625, -0.91748046875, 0.3701171875, 0, 
451, 2030268897, 0.17583951, -0.6367709, -0.10951494, -0.74270445, 9.82959270477295, -0.7311833500862122, 1.4608248472213745, -1.057925820350647, 1.465955376625061, -0.3225598931312561, -0.517578125, -0.919189453125, 0.371826171875, 0, 
452, 2030285564, 0.17586097, -0.6367675, -0.10945656, -0.74271095, 9.864699363708496, -0.7259736061096191, 1.4351547956466675, 0.9171779751777649, 1.049877405166626, -0.0981798768043518, -0.51416015625, -0.916259765625, 0.37060546875, 0, 
453, 2030302231, 0.17596777, -0.63680524, -0.10953757, -0.7426413, 9.896252632141113, -0.6169811487197876, 1.548193097114563, 2.0094313621520996, 0.40558990836143494, -0.15054504573345184, -0.517578125, -0.918701171875, 0.36962890625, 0, 
454, 2030318898, 0.1759975, -0.6368432, -0.10958734, -0.7425943, 9.92973518371582, -0.5857820510864258, 1.6198848485946655, 1.5728247165679932, 0.477254182100296, -0.4159054458141327, -0.515380859375, -0.914794921875, 0.3701171875, 0, 
455, 2030335565, 0.17583495, -0.6369668, -0.1095066, -0.7425387, 9.932829856872559, -0.6128904223442078, 1.5274481773376465, -0.10309751331806183, 0.020912768319249153, -0.7641228437423706, -0.51416015625, -0.91796875, 0.371337890625, 0, 
456, 2030352232, 0.17567508, -0.6370976, -0.10939961, -0.74248016, 9.939606666564941, -0.6449334025382996, 1.5438019037246704, -0.22853568196296692, 0.006723332684487104, -0.6233682632446289, -0.5146484375, -0.92041015625, 0.3701171875, 0, 
457, 2030368899, 0.17553228, -0.63721806, -0.10928438, -0.7424275, 9.92319393157959, -0.7036330103874207, 1.6102052927017212, -0.09847443550825119, 0.1023099347949028, -0.4950871169567108, -0.5205078125, -0.92041015625, 0.37060546875, 0, 
458, 2030385566, 0.17541847, -0.63734025, -0.109167784, -0.74236655, 9.8828706741333, -0.6862348318099976, 1.6978473663330078, -0.036235563457012177, 0.0852774828672409, -0.34243538975715637, -0.516357421875, -0.9169921875, 0.368408203125, 0, 
459, 2030402233, 0.17528468, -0.637456, -0.109087825, -0.7423106, 9.900211334228516, -0.6659219861030579, 1.6595747470855713, 0.08978531509637833, 0.07688932120800018, -0.609889566898346, -0.51708984375, -0.919189453125, 0.37109375, 0, 
460, 2030418900, 0.17527391, -0.6375094, -0.109027326, -0.7422763, 9.887757301330566, -0.7461158633232117, 1.6620396375656128, 0.7200114130973816, 0.5632616281509399, -0.15292701125144958, -0.51708984375, -0.918701171875, 0.371337890625, 0, 
461, 2030435567, 0.17520662, -0.6375961, -0.10890918, -0.742235, 9.82084846496582, -0.6819648742675781, 1.6421085596084595, 0.13559363782405853, 0.39010703563690186, -0.1575501263141632, -0.5146484375, -0.919189453125, 0.372802734375, 0, 
462, 2030452234, 0.17508495, -0.63771725, -0.1088617, -0.7421665, 9.852890968322754, -0.6319587230682373, 1.5892665386199951, 0.1906224936246872, -0.028807884082198143, -0.6947251558303833, -0.516357421875, -0.922119140625, 0.372802734375, 0, 
463, 2030468901, 0.1750946, -0.63776875, -0.108943775, -0.742108, 9.863287925720215, -0.7013621926307678, 1.6881709098815918, 1.5453037023544312, 0.30922213196754456, -0.6471368670463562, -0.51708984375, -0.919189453125, 0.371826171875, 0, 
464, 2030485568, 0.17499106, -0.637851, -0.1089495, -0.7420608, 9.853999137878418, -0.725986659526825, 1.6729023456573486, 0.6128478646278381, 0.20825684070587158, -0.8809167146682739, -0.515380859375, -0.92138671875, 0.372802734375, 0, 
465, 2030502235, 0.17486073, -0.63796604, -0.10891337, -0.74199796, 9.857794761657715, -0.7256804704666138, 1.5995519161224365, 0.26505306363105774, 7.939937640912831E-4, -0.7880451679229736, -0.515380859375, -0.92138671875, 0.37353515625, 0, 
466, 2030518902, 0.17480645, -0.6380733, -0.10896444, -0.74191105, 9.854357719421387, -0.736611545085907, 1.5823184251785278, 1.0141732692718506, -0.11067888885736465, -0.7696296572685242, -0.51708984375, -0.92138671875, 0.372802734375, 0, 
467, 2030535569, 0.17471406, -0.63814265, -0.10896881, -0.7418725, 9.873422622680664, -0.6591812968254089, 1.6588099002838135, 0.6509084105491638, 0.3205941915512085, -0.8401670455932617, -0.515869140625, -0.921875, 0.376708984375, 0, 
468, 2030552236, 0.17464048, -0.63814795, -0.1089429, -0.74188906, 9.870504379272461, -0.7395536303520203, 1.6665083169937134, 0.4562262296676636, 0.9512043595314026, -0.7561572790145874, -0.513671875, -0.9208984375, 0.3740234375, 0, 
469, 2030568903, 0.17443712, -0.63819385, -0.10877246, -0.74192244, 9.862467765808105, -0.7587341070175171, 1.6515817642211914, -0.7789910435676575, 0.8835740089416504, -0.7486271858215332, -0.515380859375, -0.92138671875, 0.37353515625, 0, 
470, 2030585570, 0.17425478, -0.6382712, -0.10862753, -0.7419201, 9.891302108764648, -0.7732247114181519, 1.544524908065796, -0.5853590369224548, 0.550365686416626, -0.6896154880523682, -0.51806640625, -0.923095703125, 0.375, 0, 
471, 2030602237, 0.1742501, -0.6383366, -0.10865453, -0.7418608, 9.86364459991455, -0.757686197757721, 1.5365774631500244, 1.0829178094863892, 0.2926122844219208, -0.4896828532218933, -0.517578125, -0.92041015625, 0.37451171875, 0, 
472, 2030618904, 0.17414917, -0.6384864, -0.10861866, -0.74176097, 9.84323501586914, -0.6836385130882263, 1.5355125665664673, 0.23677659034729004, -0.30784547328948975, -0.6003168821334839, -0.519287109375, -0.92431640625, 0.372802734375, 0, 
473, 2030635571, 0.17400514, -0.6386619, -0.10857321, -0.74165034, 9.832437515258789, -0.6336853504180908, 1.5228984355926514, 0.09971024096012115, -0.518048882484436, -0.719249427318573, -0.51416015625, -0.927001953125, 0.3779296875, 0, 
474, 2030652238, 0.17377968, -0.638857, -0.108505726, -0.741545, 9.841655731201172, -0.6413553357124329, 1.5286641120910645, -0.5579022169113159, -0.6163248419761658, -1.059130072593689, -0.516357421875, -0.92431640625, 0.372802734375, 0, 
475, 2030668905, 0.17327504, -0.6391564, -0.1081727, -0.7414537, 9.852103233337402, -0.7202857136726379, 1.6023952960968018, -3.1111297607421875, -0.9898219704627991, -1.2230511903762817, -0.51806640625, -0.927001953125, 0.3740234375, 0, 
476, 2030685572, 0.17280716, -0.63948166, -0.10788573, -0.7413243, 9.924295425415039, -0.7958415746688843, 1.5543919801712036, -2.7785873413085938, -1.311799168586731, -1.1845041513442993, -0.515869140625, -0.92529296875, 0.372314453125, 0, 
477, 2030702239, 0.17253523, -0.63979036, -0.10769467, -0.741149, 9.856301307678223, -0.8473768830299377, 1.6281803846359253, -1.3494114875793457, -1.3994457721710205, -0.5629222393035889, -0.515380859375, -0.926513671875, 0.376220703125, 0, 
478, 2030718906, 0.17230567, -0.6401549, -0.1075779, -0.74090457, 9.869256019592285, -0.7946207523345947, 1.5648072957992554, -0.981613039970398, -2.0309524536132812, -0.5868061184883118, -0.513671875, -0.92822265625, 0.376708984375, 0, 
479, 2030735573, 0.1722953, -0.64042723, -0.10762385, -0.7406648, 9.878061294555664, -0.8096107840538025, 1.5837385654449463, 0.9287036061286926, -1.5726772546768188, -0.25969353318214417, -0.516357421875, -0.927734375, 0.376220703125, 0, 
480, 2030752240, 0.17242281, -0.6406374, -0.1076799, -0.74044526, 9.86767292022705, -0.8205808401107788, 1.7162572145462036, 1.6803083419799805, -1.080849528312683, 0.33286261558532715, -0.5146484375, -0.926513671875, 0.3779296875, 0, 
481, 2030768907, 0.172285, -0.64090604, -0.10745871, -0.740277, 9.844919204711914, -0.7551535367965698, 1.6837718486785889, -1.129001498222351, -1.0150760412216187, 0.1631016731262207, -0.518798828125, -0.9248046875, 0.37841796875, 0, 
482, 2030785574, 0.17219895, -0.64115804, -0.10727388, -0.7401055, 9.893173217773438, -0.7860812544822693, 1.5689321756362915, -0.764878511428833, -0.9434630274772644, 0.24311575293540955, -0.51806640625, -0.92822265625, 0.37548828125, 0, 
483, 2030802241, 0.17223534, -0.64137733, -0.1071868, -0.7399197, 9.896770477294922, -0.7754140496253967, 1.512857437133789, 0.5296065807342529, -0.8855526447296143, 0.467559814453125, -0.511962890625, -0.92529296875, 0.375, 0, 
484, 2030818908, 0.1723783, -0.6415747, -0.10724065, -0.73970765, 9.922318458557129, -0.737240731716156, 1.5508850812911987, 1.780441164970398, -0.9792695045471191, 0.40580761432647705, -0.515869140625, -0.927490234375, 0.376708984375, 0, 
485, 2030835575, 0.17257836, -0.64173526, -0.10736274, -0.7395037, 9.894939422607422, -0.7592067122459412, 1.553321361541748, 2.415008544921875, -0.7951526641845703, 0.35787340998649597, -0.515380859375, -0.92578125, 0.37841796875, 0, 
486, 2030852242, 0.17269154, -0.64194894, -0.10742269, -0.7392833, 9.887506484985352, -0.6959316730499268, 1.5065054893493652, 1.5740283727645874, -1.1206003427505493, 0.23257610201835632, -0.515869140625, -0.9248046875, 0.380126953125, 0, 
487, 2030868909, 0.17276715, -0.64212316, -0.10743138, -0.73911303, 9.88660717010498, -0.6550706624984741, 1.5219670534133911, 1.0559988021850586, -0.6584962010383606, 0.1616673618555069, -0.515869140625, -0.9248046875, 0.383056640625, 0, 
488, 2030885576, 0.17269653, -0.64229816, -0.107331686, -0.73899186, 9.888614654541016, -0.641060471534729, 1.5574990510940552, -0.18532708287239075, -0.42022114992141724, -0.16401731967926025, -0.515380859375, -0.927001953125, 0.380615234375, 0, 
489, 2030902243, 0.17257626, -0.6424262, -0.1071949, -0.7389285, 9.925187110900879, -0.7078673243522644, 1.547739863395691, -0.5393073558807373, 0.07121610641479492, -0.3422688841819763, -0.5166015625, -0.92822265625, 0.3818359375, 0, 
490, 2030918910, 0.17262161, -0.6425029, -0.10714389, -0.7388586, 9.88448715209961, -0.7862542271614075, 1.4893831014633179, 0.7004305124282837, 0.32401344180107117, 0.09060492366552353, -0.515869140625, -0.92529296875, 0.37841796875, 0, 
491, 2030935577, 0.17256324, -0.6426152, -0.107042074, -0.7387893, 9.902009963989258, -0.7086040377616882, 1.4666132926940918, 0.036062680184841156, 0.12112245708703995, -0.16960087418556213, -0.51416015625, -0.927001953125, 0.380615234375, 0, 
492, 2030952244, 0.17255916, -0.64267623, -0.107022576, -0.7387399, 9.942463874816895, -0.6781739592552185, 1.5300074815750122, 0.6950390338897705, 0.4165905714035034, -0.3254542052745819, -0.515380859375, -0.927490234375, 0.379638671875, 0, 
493, 2030968911, 0.17246412, -0.6427155, -0.10693976, -0.7387401, 9.930037498474121, -0.6953145265579224, 1.5998952388763428, 0.02766171470284462, 0.7481981515884399, -0.5699146389961243, -0.515869140625, -0.926513671875, 0.37890625, 0, 
494, 2030985578, 0.17228688, -0.6427522, -0.10681199, -0.738768, 9.94360637664795, -0.7163630723953247, 1.5519753694534302, -0.586101770401001, 0.8748658895492554, -0.8236083984375, -0.517578125, -0.922607421875, 0.380859375, 0, 
495, 2031002245, 0.1722495, -0.6427342, -0.10673572, -0.73880345, 9.911602020263672, -0.8017998337745667, 1.5029881000518799, 0.17163071036338806, 1.242997169494629, -0.4214506149291992, -0.519287109375, -0.926513671875, 0.380615234375, 0, 
496, 2031018912, 0.172265, -0.6427188, -0.106707826, -0.7388172, 9.883963584899902, -0.7703439593315125, 1.5169055461883545, 0.7520656585693359, 1.1086968183517456, -0.32372531294822693, -0.514892578125, -0.926513671875, 0.38134765625, 0, 
497, 2031035579, 0.17230088, -0.6426788, -0.10670414, -0.7388442, 9.888810157775879, -0.6858298182487488, 1.5645463466644287, 0.9635498523712158, 1.278201937675476, -0.3642061948776245, -0.51708984375, -0.926025390625, 0.379150390625, 0, 
498, 2031052246, 0.17229523, -0.6426229, -0.10670129, -0.73889446, 9.902196884155273, -0.7569317817687988, 1.6023179292678833, 0.8535945415496826, 1.422491192817688, -0.6049272418022156, -0.516357421875, -0.927490234375, 0.380126953125, 0, 
499, 2031068913, 0.17227384, -0.64256847, -0.1066599, -0.7389527, 9.893141746520996, -0.7918900847434998, 1.5533241033554077, 0.5361378192901611, 1.484883427619934, -0.5299587845802307, -0.515380859375, -0.9248046875, 0.379638671875, 0, 
500, 2031085580, 0.17224823, -0.64254284, -0.1066162, -0.73898745, 9.893654823303223, -0.7336119413375854, 1.4945379495620728, 0.5081047415733337, 1.2342504262924194, -0.49080970883369446, -0.51708984375, -0.926513671875, 0.3779296875, 0, 
501, 2031102247, 0.17223874, -0.6425431, -0.10662837, -0.73898757, 9.912115097045898, -0.6736685037612915, 1.4829438924789429, 0.9233762621879578, 0.8877490162849426, -0.5831947922706604, -0.516357421875, -0.92529296875, 0.376220703125, 0, 
