sep=									
DeviceTag:	Xsens_1								
FirmwareVersion:	2.2.1								
AppVersion:	2023.0.0								
SyncStatus:	Un-synced								
OutputRate:	60Hz								
FilterProfile:	General								
Measurement Mode:	Sensor fusion Mode - Extended (Quaternion)								
StartTime:	2023-07-11 15:21:33.859 +0200								
© Movella Technologies B. V. 2005-2023									
PacketCounter	SampleTimeFine	Quat_W	Quat_X	Quat_Y	Quat_Z	FreeAcc_X	FreeAcc_Y	FreeAcc_Z	Status
1	230231699	0	-5.95E-18	-0.707106781	-0.707106781	0.008274031	0.12240219	0.008835226	0
2	230248366	0.000127481	0.000157863	-0.706982133	-0.707231378	0.004327852	0.141849435	0.013461595	0
3	230265033	0.000256264	0.000326716	-0.706877417	-0.707335949	-0.007604692	0.142245807	0.008939199	0
4	230281700	0.000324685	0.000465479	-0.70681411	-0.707399104	-0.013435442	0.134201814	0.002810524	0
5	230298367	0.00037843	0.000540354	-0.706763685	-0.707449404	-0.017170009	0.133426931	-0.000644517	0
6	230315034	0.000401867	0.000606343	-0.706703218	-0.70750974	-0.020332566	0.126346714	0.002360356	0
7	230331701	0.000414677	0.000652484	-0.706644276	-0.707568562	-0.010126486	0.135078106	0.007454025	0
8	230348368	0.000437173	0.000703671	-0.706577812	-0.70763487	-0.019235822	0.136407374	-0.008290486	0
9	230365035	0.000455162	0.000719118	-0.706503553	-0.707708983	-0.021555558	0.135520722	-0.007030225	0
10	230381702	0.000456001	0.000742453	-0.706435773	-0.707776616	-0.027930429	0.145327213	0.002187819	0
11	230398369	0.00047669	0.000759163	-0.706366095	-0.707846125	-0.031601803	0.154169738	-0.002081496	0
12	230415036	0.000497234	0.000777148	-0.706296143	-0.70791589	-0.034723377	0.141820206	-0.004700857	0
13	230431703	0.000505544	0.00079557	-0.706230629	-0.707981222	-0.031265476	0.140423535	0.01002245	0
14	230448370	0.000540418	0.000825204	-0.706163809	-0.70804781	-0.024473968	0.152179439	0.001614217	0
15	230465037	0.00056	0.000846014	-0.706099833	-0.708111571	-0.042972226	0.131967257	0.015262497	0
16	230481704	0.000595806	0.000872665	-0.706030121	-0.708181016	-0.031400304	0.148555766	0.014827393	0
17	230498371	0.00061261	0.000907495	-0.705963402	-0.708247468	-0.036561449	0.1542908	0.017661603	0
18	230515038	0.000634812	0.000932347	-0.705885194	-0.708325363	-0.05134303	0.13616698	0.017766628	0
19	230531705	0.000667018	0.000958417	-0.705811156	-0.708399074	-0.046977762	0.148519772	-0.000813606	0
20	230548372	0.00070836	0.00099139	-0.705741386	-0.708468497	-0.054133501	0.129079416	0.009676288	0
21	230565039	0.000736194	0.000997463	-0.705672868	-0.708536707	-0.045089413	0.144574169	0.005344832	0
22	230581706	0.000776169	0.001021896	-0.705595576	-0.708613601	-0.046599521	0.133314852	9.15E-05	0
23	230598373	0.000814092	0.001046283	-0.705527523	-0.70868128	-0.051987364	0.121045569	0.020471298	0
24	230615040	0.000845708	0.001059424	-0.705450303	-0.708758091	-0.055415661	0.147649534	0.00205813	0
25	230631707	0.000874504	0.001088869	-0.705375068	-0.708832888	-0.061392094	0.137240407	0.015046348	0
26	230648374	0.000908755	0.001113892	-0.705302337	-0.708905175	-0.054977673	0.126659992	0.008949812	0
27	230665041	0.000941644	0.001143955	-0.705228194	-0.708978842	-0.068506867	0.130647583	0.022010577	0
28	230681708	0.000980085	0.001163505	-0.70515216	-0.709054382	-0.067454387	0.153242002	-0.007364288	0
29	230698375	0.001008206	0.001191504	-0.70507615	-0.70912988	-0.067638219	0.135210395	0.021697601	0
30	230715042	0.001031782	0.001214665	-0.704997148	-0.709208348	-0.071674548	0.159718448	0.002917554	0
31	230731709	0.001062333	0.001238424	-0.704919198	-0.709285741	-0.07991307	0.134036845	0.015548399	0
32	230748376	0.001094312	0.00126238	-0.70484405	-0.709360327	-0.071609344	0.135409653	0.007320033	0
33	230765043	0.00112775	0.001279014	-0.704769751	-0.709434063	-0.086786954	0.152491329	0.009260061	0
34	230781710	0.001158904	0.001305106	-0.704696125	-0.7095071	-0.076143525	0.146062403	0.008578957	0
35	230798377	0.00118841	0.001328543	-0.704617504	-0.709585087	-0.079969046	0.131736332	0.007994935	0
36	230815044	0.001223476	0.001355942	-0.704540063	-0.709661867	-0.086833564	0.150177429	0.00725334	0
37	230831711	0.001249487	0.001388556	-0.704469941	-0.709731367	-0.084013976	0.147752682	0.018291541	0
38	230848378	0.001273299	0.001409588	-0.704396265	-0.709804405	-0.102945683	0.15682084	0.014874904	0
39	230865045	0.001302379	0.001441296	-0.704317953	-0.709881995	-0.081491248	0.142331281	0.025496314	0
40	230881712	0.001331253	0.001467379	-0.704248796	-0.709950496	-0.081641602	0.130382183	0.021794446	0
41	230898379	0.001369272	0.001488875	-0.704167268	-0.710031244	-0.098211495	0.124549645	0.021431596	0
42	230915046	0.001396294	0.001512595	-0.704097665	-0.710100162	-0.093665253	0.142026888	0.015019642	0
43	230931713	0.001434481	0.001549828	-0.704022205	-0.71017482	-0.105669305	0.143486179	0.032600278	0
44	230948380	0.001475287	0.001576129	-0.703949091	-0.710247152	-0.103758733	0.135594946	0.024999942	0
45	230965047	0.00150906	0.001603073	-0.703886514	-0.710309037	-0.113981559	0.148186855	0.011492067	0
46	230981714	0.001541223	0.001634296	-0.703817701	-0.710377081	-0.105714852	0.146301323	0.022969776	0
47	230998381	0.00157126	0.00166997	-0.703747544	-0.710446435	-0.090248869	0.155174679	0.035821675	0
48	231015048	0.00159661	0.001699074	-0.703677125	-0.710516057	-0.111391963	0.12166038	0.022598689	0
49	231031715	0.001633928	0.001727413	-0.703606204	-0.710586136	-0.09394318	0.134717821	0.023425778	0
50	231048382	0.001672483	0.001751037	-0.703532381	-0.710659079	-0.114748627	0.137575054	0.025005795	0
51	231065049	0.001702505	0.001781359	-0.703461012	-0.710729577	-0.125166016	0.143985365	0.039022063	0
52	231081716	0.001727447	0.001802637	-0.703395825	-0.710793978	-0.107459308	0.143171773	0.014582404	0
53	231098383	0.00176477	0.001838904	-0.70332254	-0.710866309	-0.120285022	0.137533692	0.020156403	0
54	231115050	0.001791917	0.001869507	-0.703245786	-0.710942093	-0.1155771	0.126337439	0.040104004	0
55	231131717	0.001816224	0.001889054	-0.703180741	-0.711006314	-0.113476807	0.139094574	0.02081131	0
56	231148384	0.001843411	0.001914428	-0.703104907	-0.711081167	-0.13263728	0.144882613	0.020009257	0
57	231165051	0.001875	0.001935114	-0.703028587	-0.711156485	-0.131421828	0.136826312	0.015894755	0
58	231181718	0.001906907	0.001961835	-0.702949429	-0.711234571	-0.127636549	0.130081828	0.020883541	0
59	231198385	0.001936191	0.001967801	-0.702870669	-0.71131231	-0.134113154	0.15804103	0.018453235	0
60	231215052	0.001963603	0.00198613	-0.702798565	-0.711383425	-0.118957523	0.154673502	0.010022038	0
61	231231719	0.001992787	0.002019319	-0.702729365	-0.711451608	-0.128837647	0.152963493	0.025083052	0
62	231248386	0.002007346	0.002040884	-0.702661147	-0.711518881	-0.134708212	0.147447962	0.01838279	0
63	231265053	0.002031629	0.002067573	-0.70259618	-0.711582888	-0.143954722	0.138885354	0.02803837	0
64	231281720	0.002049709	0.002098815	-0.70253052	-0.711647569	-0.142011069	0.156353591	0.016232205	0
65	231298387	0.002076106	0.002128526	-0.702457986	-0.711719001	-0.152295844	0.133669138	0.026968889	0
66	231315054	0.002103868	0.002157716	-0.702386114	-0.711789762	-0.139298059	0.151999357	0.038106015	0
67	231331721	0.002121415	0.002196933	-0.70231818	-0.71185662	-0.164988476	0.150878417	0.02173595	0
68	231348388	0.002150895	0.002223124	-0.702255539	-0.711918246	-0.145062637	0.148401013	0.025635883	0
69	231365055	0.002178341	0.002254731	-0.702195728	-0.711977058	-0.149675955	0.145523397	0.016445413	0
70	231381722	0.00219258	0.00228729	-0.702127967	-0.712043734	-0.157455673	0.14559531	0.013453133	0
71	231398389	0.002218772	0.002329628	-0.7020601	-0.712110431	-0.151853608	0.140801031	0.030594646	0
72	231415056	0.002233283	0.002356166	-0.701994456	-0.71217501	-0.155078146	0.139070878	0.019165917	0
73	231431723	0.00226136	0.002392512	-0.701925928	-0.712242342	-0.172618253	0.146080422	0.011891609	0
74	231448390	0.002276053	0.002424851	-0.701857872	-0.712309249	-0.152336962	0.144489966	0.046303385	0
75	231465057	0.002295449	0.002457486	-0.701795769	-0.712370262	-0.153049806	0.154675056	0.031558957	0
76	231481724	0.00230947	0.002493689	-0.701725486	-0.712439324	-0.170488082	0.132772996	0.024035873	0
77	231498391	0.002331736	0.002539439	-0.701662015	-0.712501601	-0.160862817	0.150038074	0.020978889	0
78	231515058	0.002347488	0.002570186	-0.701597631	-0.712564838	-0.171989673	0.153311694	0.019635436	0
79	231531725	0.002359776	0.00260868	-0.701537043	-0.712624308	-0.162391234	0.128443227	0.031450374	0
80	231548392	0.002371629	0.002648654	-0.701477313	-0.712682916	-0.18507362	0.139552309	0.01539121	0
81	231565059	0.002383221	0.002671853	-0.701426125	-0.712733171	-0.173066476	0.145193145	0.02315137	0
82	231581726	0.002395232	0.002708195	-0.701362474	-0.712795629	-0.183595284	0.144496715	0.021403004	0
83	231598393	0.00241324	0.00275133	-0.701299964	-0.712856905	-0.177198126	0.123666306	0.035739401	0
84	231615060	0.00242494	0.00278318	-0.701240787	-0.712914954	-0.190621557	0.14662979	0.034724478	0
85	231631727	0.002435221	0.002811482	-0.701176609	-0.71297793	-0.17373644	0.124860088	0.043552553	0
86	231648394	0.002430694	0.002847043	-0.701123583	-0.713029949	-0.182005483	0.131899633	0.030041221	0
87	231665061	0.002430389	0.002894655	-0.701068263	-0.71308415	-0.177760333	0.147778846	0.024739495	0
88	231681728	0.002427522	0.002928177	-0.701006328	-0.713144909	-0.184588991	0.137949294	0.037325252	0
89	231698395	0.002432702	0.002974712	-0.700950362	-0.713199708	-0.180475221	0.112739822	0.032882602	0
90	231715062	0.002434386	0.003004082	-0.700895319	-0.713253672	-0.198348272	0.160160507	0.033012342	0
91	231731729	0.002435507	0.003038734	-0.70083639	-0.713311425	-0.193282371	0.150787667	0.029605081	0
92	231748396	0.002435829	0.00307634	-0.700777269	-0.713369345	-0.185072487	0.13322344	0.026860941	0
93	231765063	0.002442263	0.003124054	-0.700727539	-0.713417964	-0.187760375	0.155964924	0.023602328	0
94	231781730	0.002450691	0.00317019	-0.700689161	-0.713455425	-0.186649184	0.142655839	0.041783505	0
95	231798397	0.002463619	0.003226156	-0.700643314	-0.713500153	-0.203383025	0.148456531	0.031128575	0
96	231815064	0.002459378	0.00326954	-0.700598706	-0.713543773	-0.189987105	0.147134364	0.040643651	0
97	231831731	0.002464718	0.003315268	-0.700552717	-0.713588694	-0.212140982	0.160483672	0.032477569	0
98	231848398	0.00246607	0.00336187	-0.700503958	-0.713636337	-0.191073911	0.135718232	0.033801908	0
99	231865065	0.002459205	0.003405876	-0.700455411	-0.713683802	-0.20737341	0.149744676	0.032810985	0
100	231881732	0.002457399	0.003451422	-0.700404755	-0.713733303	-0.211608032	0.142192393	0.031580388	0
101	231898399	0.002453309	0.003497429	-0.70035873	-0.713778256	-0.216788809	0.137166386	0.040037415	0
102	231915066	0.002444831	0.003545579	-0.700315959	-0.713820011	-0.212684779	0.141601775	0.03478606	0
103	231931733	0.002436582	0.003586609	-0.700273751	-0.713861242	-0.208365582	0.147912525	0.038795306	0
104	231948400	0.002426048	0.003632461	-0.700226995	-0.713906909	-0.200569665	0.158321153	0.049438795	0
105	231965067	0.002423548	0.003671938	-0.700185119	-0.713947786	-0.2061575	0.145778982	0.048823865	0
106	231981734	0.002423916	0.003720039	-0.700143075	-0.713988768	-0.21156894	0.134507836	0.034816277	0
107	231998401	0.002407458	0.003765997	-0.700109756	-0.714021254	-0.213493827	0.147506068	0.048518485	0
108	232015068	0.002384363	0.003807768	-0.700072517	-0.714057621	-0.212139664	0.161495845	0.022128163	0
109	232031735	0.00237586	0.003865808	-0.70003783	-0.714091344	-0.212377278	0.142858962	0.032910288	0
110	232048402	0.002369915	0.003917111	-0.699995998	-0.71413209	-0.212562699	0.1432265	0.043606202	0
111	232065069	0.002352955	0.003970897	-0.699960797	-0.714166352	-0.212246305	0.167465263	0.040231117	0
112	232081736	0.002344856	0.004022491	-0.699921613	-0.714204493	-0.217556698	0.150537634	0.034121408	0
113	232098403	0.002327774	0.004076072	-0.699891793	-0.714233467	-0.221011866	0.112931738	0.038238437	0
114	232115070	0.002313723	0.004128523	-0.699860831	-0.71426355	-0.22419936	0.140743052	0.040313228	0
115	232131737	0.002296159	0.004180038	-0.699823035	-0.714300339	-0.234381253	0.146488759	0.036715043	0
116	232148404	0.002265302	0.00423024	-0.699791264	-0.714331268	-0.210917809	0.140616165	0.042676913	0
117	232165071	0.002234608	0.004284907	-0.699764924	-0.714356842	-0.230317989	0.148211752	0.046518688	0
118	232181738	0.002212052	0.004336584	-0.699733483	-0.714387397	-0.224717551	0.144866464	0.036269147	0
119	232198405	0.002338353	-0.002961905	0.7077248	0.706478143	9.75E-05	0.142118491	0.0015806	0
120	232215072	0.002333284	-0.002954228	0.707726209	0.70647678	-0.003410898	0.139224807	0.00217444	0
121	232231739	0.002312106	-0.002946354	0.707719144	0.706483961	0.014374397	0.120102232	-0.001631879	0
122	232248406	0.002303219	-0.002932659	0.707719007	0.706484184	0.000962819	0.160161395	-0.014284306	0
123	232265073	0.002295285	-0.002913232	0.707710599	0.706492713	-0.012263164	0.136450276	-0.002787329	0
124	232281740	0.002288627	-0.002903362	0.707709439	0.706493936	0.007924236	0.144000742	0.008172534	0
125	232298407	0.002284506	-0.002905679	0.70771012	0.706493258	0.004153798	0.124752022	0.008941762	0
126	232315074	0.002275919	-0.002897962	0.707713768	0.706489663	-0.002175403	0.146151468	-0.009909866	0
127	232331741	0.002275212	-0.002893311	0.7077113	0.706492157	-0.008295971	0.140576895	-0.002359365	0
128	232348408	0.002257777	-0.00289578	0.707715564	0.706487931	-0.019203112	0.147301547	-0.001339477	0
129	232365075	0.002244194	-0.002890031	0.707711777	0.706491791	-0.00331252	0.130932781	-0.004872099	0
130	232381742	0.002249712	-0.002882354	0.70770661	0.706496982	-0.003130616	0.136992339	-0.012234286	0
131	232398409	0.002237425	-0.002872503	0.707714772	0.706488884	-0.004180761	0.155041107	-0.009093924	0
132	232415076	0.002220052	-0.00286503	0.707709047	0.706494705	-0.006757908	0.149560482	-0.015135687	0
133	232431743	0.002211203	-0.002859517	0.707709761	0.70649404	0.003690933	0.154358761	-0.000625766	0
134	232448410	0.002193548	-0.002840132	0.707702883	0.706501062	0.002203433	0.157978581	0.001662307	0
135	232465077	0.002191335	-0.002833809	0.707699715	0.706504268	-0.006781696	0.105029757	-0.007938481	0
136	232481744	0.002182026	-0.002822018	0.707688488	0.70651559	-0.000730384	0.123618706	0.00491985	0
137	232498411	0.002177776	-0.002818001	0.707690078	0.706514026	-0.007129319	0.125528162	0.005837561	0
138	232515078	0.002172034	-0.002808091	0.707696108	0.706508044	0.016342689	0.146021339	-0.004946623	0
139	232531745	0.002163853	-0.002799951	0.707691679	0.706512537	-0.003787342	0.14670562	-0.006910325	0
140	232548412	0.002169193	-0.002789063	0.707690043	0.706514203	0.003992406	0.131914474	0.000607024	0
141	232565079	0.002158265	-0.002773221	0.707691022	0.706513318	-0.007913148	0.147401878	-0.000812469	0
142	232581746	0.002158494	-0.002779357	0.707687127	0.706517195	0.004020064	0.11395552	-0.001458612	0
143	232598413	0.002152157	-0.002779502	0.707682019	0.70652233	-0.008466018	0.119109319	-0.003642023	0
144	232615080	0.002149492	-0.002779564	0.707678384	0.706525979	0.001666999	0.139772834	0.000152866	0
145	232631747	0.002154626	-0.002764406	0.707679925	0.706524479	-0.004662977	0.122659533	-0.000183497	0
146	232648414	0.002146134	-0.002767429	0.707681455	0.706522961	0.003003717	0.137431175	0.000854961	0
147	232665081	0.002131734	-0.002764599	0.707692231	0.706512222	-0.005846852	0.130674774	0.002162511	0
148	232681748	0.002120383	-0.002763628	0.707688309	0.706516188	-0.020885183	0.162485501	-0.010133567	0
149	232698415	0.002122936	-0.002767337	0.70769379	0.706510675	0.000132696	0.127876052	0.00031546	0
150	232715082	0.002110847	-0.002766092	0.707698506	0.706505992	0.004965181	0.151272089	-0.004346391	0
151	232731749	0.002111017	-0.002759184	0.707698243	0.706506283	-0.018239458	0.140974652	-0.00418766	0
152	232748416	0.00210521	-0.00275964	0.707698374	0.706506167	-0.000448972	0.139819515	0.003764685	0
153	232765083	0.002102788	-0.002753535	0.707698572	0.706505999	0.00855172	0.108394087	0.007356602	0
154	232781750	0.002125967	-0.002719821	0.707697529	0.706507106	-0.005414979	0.211018714	-0.010830632	0
155	232798417	0.002080123	-0.002755153	0.707700423	0.706504206	-0.007252054	0.104768449	-0.00321138	0
156	232815084	0.002091475	-0.002739089	0.707698367	0.706506295	0.011561921	0.124492337	0.004488849	0
157	232831751	0.002096048	-0.002714741	0.707698156	0.706506587	0.007439158	0.172513562	0.001290628	0
158	232848418	0.002078437	-0.002720871	0.70769415	0.706510627	0.002682879	0.137113959	0.006746804	0
159	232865085	0.002092909	-0.002710483	0.707683426	0.706521367	-0.000155432	0.13373063	0.008009544	0
160	232881752	0.002078058	-0.002720667	0.707688636	0.706516153	-0.005997883	0.165379224	0.000937457	0
161	232898419	0.0020637	-0.002718999	0.707687983	0.706516855	-0.002522656	0.132813075	-0.006446491	0
162	232915086	0.002072171	-0.002711803	0.707689308	0.706515531	-0.0019771	0.14361556	0.005778365	0
163	232931753	0.002069304	-0.002715701	0.707692177	0.706512651	-0.00347985	0.162835522	-0.002267844	0
164	232948420	0.002053989	-0.002727226	0.707695262	0.70650956	5.76E-05	0.110134395	0.002461789	0
165	232965087	0.002056449	-0.002712754	0.707696806	0.706508062	0.007203772	0.141584959	0.009798692	0
166	232981754	0.00205653	-0.002704348	0.707697612	0.706507288	-0.010387113	0.17729387	-0.000855905	0
167	232998421	0.002061708	-0.002696062	0.707709527	0.706495369	0.00169741	0.120929232	0.008215788	0
168	233015088	0.002058273	-0.002677259	0.70771453	0.706490439	-0.011898208	0.1698633	0.010407694	0
169	233031755	0.002051019	-0.002683463	0.707721698	0.706483256	-0.002157012	0.139947149	-0.007920438	0
170	233048422	0.002038699	-0.002682041	0.707723677	0.706481314	-0.011749474	0.142724587	-0.005487362	0
171	233065089	0.002035357	-0.002682269	0.70772276	0.706482242	0.001959535	0.157986676	0.000772638	0
172	233081756	0.002033367	-0.002679251	0.707723175	0.706481843	-0.011853901	0.136851725	0.010982517	0
173	233098423	0.002018707	-0.002665966	0.707716921	0.706488201	-0.004589483	0.139357726	8.32E-05	0
174	233115090	0.002020289	-0.002665069	0.70771862	0.706486497	-0.001270691	0.156885062	0.00062241	0
175	233131757	0.002015207	-0.002664924	0.707720903	0.706484226	-0.000278899	0.132104914	-0.015219051	0
176	233148424	0.002006628	-0.002666944	0.707719591	0.706485557	0.000663961	0.119070289	-0.005214393	0
177	233165091	0.002009962	-0.002663654	0.707720265	0.706484884	-0.007461933	0.152715522	-0.01177937	0
178	233181758	0.002008697	-0.002662096	0.707721789	0.706483367	0.001976896	0.146271232	-0.003172056	0
179	233198425	0.00200349	-0.002648976	0.707720869	0.706484353	0.000192093	0.122996449	-0.006163333	0
180	233215092	0.001989802	-0.002655447	0.707720136	0.706485102	-0.00469238	0.132648263	-0.015623722	0
181	233231759	0.001983068	-0.002652592	0.70772258	0.706482682	0.003240407	0.152219945	-0.000761151	0
182	233248426	0.001978104	-0.002634992	0.707715044	0.706490312	-0.010049657	0.142692117	-0.018379481	0
183	233265093	0.001972428	-0.002633825	0.707716355	0.706489018	-0.006368652	0.127165067	-0.009655668	0
184	233281760	0.001975898	-0.002627043	0.707714919	0.706490473	-0.013685505	0.132398644	-0.003286382	0
185	233298427	0.001970728	-0.002625389	0.707714865	0.706490547	-0.013025286	0.139179821	0.010219484	0
186	233315094	0.001970891	-0.002622952	0.707711254	0.706494173	0.004059968	0.165565949	0.000302013	0
187	233331761	0.001963829	-0.002626062	0.707712151	0.706493283	-0.003064981	0.122040457	-0.014475126	0
188	233348428	0.001957075	-0.002620797	0.707713181	0.706492289	-0.02123026	0.13638256	0.000148922	0
189	233365095	0.001947216	-0.002602761	0.707713839	0.706491724	0.009066191	0.151577296	-0.003866773	0
190	233381762	0.001951399	-0.002598379	0.707706603	0.706498977	-0.018303527	0.156300738	0.00170213	0
191	233398429	0.001946647	-0.002588405	0.707711284	0.706494338	-0.001337189	0.162812162	-0.023237131	0
192	233415096	0.001946579	-0.002578378	0.707712381	0.706493276	-3.20E-05	0.158383356	-0.007140384	0
193	233431763	0.001949602	-0.002568507	0.707718015	0.70648766	-0.01061436	0.151582164	-0.002009769	0
194	233448430	0.001936861	-0.002558122	0.707718773	0.706486973	-0.011611379	0.152534213	0.001580551	0
195	233465097	0.001933626	-0.00255229	0.707718651	0.706487125	-0.009910414	0.141825448	0.002480059	0
196	233481764	0.001937226	-0.002543034	0.707717991	0.70648781	0.001461325	0.156071103	-0.003310709	0
197	233498431	0.001936456	-0.00253536	0.707722619	0.706483203	-0.003421383	0.127762192	-0.004402077	0
198	233515098	0.001931801	-0.002536877	0.707723001	0.706482828	0.009798092	0.134947884	0.00323598	0
199	233531765	0.001922528	-0.002529131	0.707720471	0.706485415	-0.002462262	0.153632271	-0.005510153	0
200	233548432	0.001921684	-0.002526808	0.707725298	0.706480591	-0.001678067	0.134935997	0.001535473	0
201	233565099	0.001920874	-0.00252129	0.707720237	0.706485682	-0.000721226	0.144045007	0.002419296	0
202	233581766	0.001907158	-0.002531728	0.707718996	0.706486926	-0.004717293	0.129610352	-0.008366474	0
203	233598433	0.0019055	-0.002522391	0.707718026	0.706487935	-0.007539301	0.134784156	0.013880368	0
204	233615100	0.001898581	-0.002524048	0.707723955	0.706482009	-0.002354519	0.129263952	-0.003583615	0
205	233631767	0.001897167	-0.002515022	0.707723289	0.706482711	-0.010283769	0.135646936	-0.002076703	0
206	233648434	0.001892128	-0.00251003	0.707723384	0.706482647	0.002190305	0.121702096	-0.01329641	0
207	233665101	0.001886578	-0.002509509	0.707720749	0.706485304	-0.003849029	0.154363078	-0.012573921	0
208	233681768	0.001888354	-0.002510431	0.707727011	0.706479023	-0.00077455	0.143368342	-0.020565759	0
209	233698435	0.001888455	-0.002501783	0.707728517	0.706477545	-0.010096248	0.150786999	-0.011956816	0
210	233715102	0.001881839	-0.002498799	0.707731776	0.706474308	-0.012111711	0.159006665	0.002346941	0
211	233731769	0.001882429	-0.002486893	0.707732905	0.706473218	-0.007282448	0.137774001	-0.002589518	0
212	233748436	0.001883648	-0.002481472	0.707731621	0.706474519	-0.001157996	0.132458283	-0.001816711	0
213	233765103	0.001878748	-0.0024773	0.707729491	0.706476681	0.004452073	0.128148719	-0.016247377	0
214	233781770	0.001870305	-0.002468424	0.70772947	0.706476755	0.000330343	0.124093384	-0.005388019	0
215	233798437	0.001876657	-0.002460797	0.707737343	0.706468878	0.008727286	0.156681923	-0.002254045	0
216	233815104	0.001873959	-0.002453726	0.707738475	0.706467776	-0.008835289	0.14896539	-0.01572071	0
217	233831771	0.001868655	-0.002453351	0.707736837	0.706469432	-0.002815803	0.155826162	-0.017292046	0
218	233848438	0.001856532	-0.00245543	0.707746819	0.706459457	0.004734416	0.149658605	-0.006956131	0
219	233865105	0.001839618	-0.002461616	0.707743116	0.706463189	0.0053318	0.127207186	0.005508595	0
220	233881772	0.001829844	-0.002456928	0.707739704	0.706466649	-0.001821114	0.121355483	-0.000218942	0
221	233898439	0.001825876	-0.002453264	0.707734309	0.706472077	-0.002285546	0.147871873	-0.0068274	0
222	233915106	0.001823988	-0.002455231	0.707732273	0.706474114	0.01172705	0.145783871	-0.024534244	0
223	233931773	0.00181878	-0.002446956	0.707732091	0.706474339	0.003173798	0.133544448	-0.005922109	0
224	233948440	0.001822735	-0.002445379	0.707733794	0.706472628	0.003100713	0.137594754	-0.005113396	0
225	233965107	0.001823425	-0.002452492	0.707738067	0.706468321	0.005086864	0.130627509	-0.006226089	0
226	233981774	0.001819967	-0.002435246	0.707733675	0.70647279	0.000285981	0.139843012	-0.009570943	0
227	233998441	0.001807146	-0.002423579	0.707732666	0.706473874	-0.00263173	0.16241773	-0.011174186	0
228	234015108	0.001804597	-0.002418406	0.707735839	0.706470719	-0.001287324	0.146151269	-0.013710757	0
229	234031775	0.001800182	-0.002424058	0.707732345	0.706474212	-0.007383841	0.138587554	0.009439746	0
230	234048442	0.001796778	-0.002419314	0.707734777	0.7064718	0.002168643	0.125775204	0.011168996	0
231	234065109	0.00179274	-0.002417464	0.707729952	0.70647665	0.009217606	0.152327077	-0.003840907	0
232	234081776	0.001792374	-0.002413451	0.707728917	0.706477702	0.000743105	0.158317202	-0.012736645	0
233	234098443	0.001791608	-0.002413027	0.7077308	0.706475818	-0.001913518	0.135797062	-0.011352826	0
234	234115110	0.001787972	-0.002416833	0.70772583	0.706480794	0.002010686	0.145510746	-0.003542903	0
235	234131777	0.001786069	-0.002414397	0.707725543	0.706481094	-0.012119574	0.143266591	-0.015815881	0
236	234148444	0.00178206	-0.002418307	0.707724231	0.706482405	0.012304739	0.146271819	-0.020377104	0
237	234165111	0.001784305	-0.002419397	0.707721269	0.706485363	-0.001234926	0.142564344	-0.004676998	0
238	234181778	0.001787933	-0.002409878	0.70772168	0.706484975	0.008082605	0.151827287	-0.001475366	0
239	234198445	0.001853237	-0.002398354	0.707708944	0.706497603	0.013799438	0.132293618	-0.007566095	0
240	234215112	0.001856161	-0.002389348	0.707711473	0.706495094	0.016593534	0.154172256	-0.018905295	0
241	234231779	0.001863404	-0.002382171	0.707710666	0.706495907	0.00717683	0.148489096	0.001464757	0
242	234248446	0.001871685	-0.002374043	0.707704301	0.706502288	0.00666698	0.149766532	-0.006132789	0
243	234265113	0.001878692	-0.002375218	0.70771031	0.706496246	-0.010625571	0.151949077	-0.002147571	0
244	234281780	0.001886955	-0.002370449	0.707717918	0.706488619	-0.001844294	0.132041037	0.001376282	0
245	234298447	0.001892409	-0.002371841	0.70770807	0.706498465	0.000442556	0.147115737	0.005391021	0
246	234315114	0.001893436	-0.002365763	0.707706395	0.706500161	0.00441882	0.123734013	-0.010747062	0
247	234331781	0.001889568	-0.002363171	0.707699093	0.706507494	0.009771769	0.147877344	-0.01127423	0
248	234348448	0.001878122	-0.00236012	0.707702928	0.706503692	-0.004898453	0.125153533	0.001659491	0
249	234365115	0.001874593	-0.002361237	0.707697419	0.706509216	-0.000928898	0.116744058	-0.001046822	0
250	234381782	0.001872229	-0.002356125	0.70769239	0.706514278	0.012861942	0.133803267	0.00403927	0
251	234398449	0.001864382	-0.002346095	0.707695121	0.706511596	0.003905144	0.137446855	0.008610917	0
252	234415116	0.001866293	-0.002344158	0.707691759	0.706514966	0.006829349	0.145137151	0.003169184	0
253	234431783	0.001874047	-0.002340554	0.707696	0.706510709	-0.010150321	0.146151989	-0.01437918	0
254	234448450	0.001876061	-0.002335508	0.707696704	0.706510015	-0.012329657	0.137439702	-0.00747345	0
255	234465117	0.001871215	-0.002326608	0.707694248	0.706512517	0.004538791	0.139575459	-0.002704888	0
256	234481784	0.001864619	-0.002317884	0.707697946	0.706508859	0.002269748	0.128692599	0.010773374	0
257	234498451	0.00185793	-0.002308913	0.707689738	0.706517127	-0.004403852	0.141726809	-0.006850085	0
258	234515118	0.001860113	-0.002300427	0.707696572	0.706510304	0.002131999	0.134293829	-0.005051787	0
259	234531785	0.001857744	-0.002281307	0.707695143	0.706511804	-0.004539314	0.128196772	-0.015677251	0
260	234548452	0.001861503	-0.002272579	0.707690244	0.706516729	-0.013806408	0.158146903	-0.002974475	0
261	234565119	0.001859265	-0.00226637	0.707689441	0.706517559	-0.004151413	0.153532107	-0.005712209	0
262	234581786	0.001850029	-0.002273737	0.707685911	0.706521095	-0.007463901	0.125159608	0.00128406	0
263	234598453	0.001850161	-0.002270657	0.707689655	0.706517355	0.007401643	0.140705163	-0.006955389	0
264	234615120	0.001850576	-0.002266874	0.707696114	0.706510896	-0.007120604	0.137764171	-0.001088568	0
265	234631787	0.001846624	-0.002255746	0.707693985	0.706513075	0.00994497	0.150813657	0.006541679	0
266	234648454	0.001841637	-0.002257284	0.70769216	0.706514911	-0.003222563	0.124940848	0.000103232	0
267	234665121	0.001833609	-0.002247344	0.707689306	0.706517822	-0.000908556	0.139189309	0.0114018	0
268	234681788	0.001832524	-0.00224929	0.707690659	0.706516464	0.009642899	0.145148413	0.002640927	0
269	234698455	0.001842607	-0.00224774	0.707687376	0.706519731	0.005816685	0.127616433	-0.002261749	0
270	234715122	0.001845828	-0.002245242	0.707686883	0.706520224	0.009093391	0.155758223	-0.011559313	0
271	234731789	0.001850122	-0.002237069	0.707688646	0.706518474	0.015497791	0.1503879	-0.011671334	0
272	234748456	0.001837008	-0.002236086	0.707692115	0.706515035	-0.009759321	0.122208405	0.003779699	0
273	234765123	0.001845114	-0.002225621	0.707696159	0.706510996	-0.006624128	0.126409711	-0.0098127	0
274	234781790	0.001844552	-0.002215027	0.707686142	0.706521066	0.002868969	0.137705226	-0.008340679	0
275	234798457	0.001837268	-0.002212782	0.707687975	0.706519256	-0.006809087	0.151731802	0.009515963	0
276	234815124	0.001847388	-0.00220199	0.707687776	0.706519462	-0.01638923	0.149564183	0.004521986	0
277	234831791	0.00184319	-0.002201413	0.70768547	0.706521785	0.000635118	0.135588595	-0.0014983	0
278	234848458	0.001842858	-0.002197545	0.707680711	0.706526565	0.002154779	0.143224516	-0.001849863	0
279	234865125	0.001837797	-0.002192951	0.707678097	0.70652921	-0.01041579	0.144835621	0.008967267	0
280	234881792	0.001838145	-0.00218881	0.707679289	0.706528028	-0.003958387	0.13425167	0.006197705	0
281	234898459	0.001828321	-0.002188747	0.707679616	0.706527726	0.001856413	0.146606747	-0.003298189	0
282	234915126	0.001821697	-0.002176622	0.707676268	0.706531134	-0.001209951	0.146005474	-0.01607944	0
283	234931793	0.001818301	-0.002173381	0.707676145	0.706531276	0.004372105	0.131343744	-0.013012131	0
284	234948460	0.001815609	-0.002168868	0.707682872	0.706524558	0.005033539	0.129671089	0.00824842	0
285	234965127	0.001813856	-0.002160051	0.70768812	0.706519334	0.002213614	0.139585152	0.000897892	0
286	234981794	0.001808933	-0.002170774	0.707686803	0.706520633	0.009642958	0.146866788	-0.004747712	0
287	234998461	0.001802989	-0.002165988	0.707689133	0.706518329	-0.015055366	0.139978742	-0.000168757	0
288	235015128	0.001798449	-0.002156848	0.707692573	0.706514923	-0.012617654	0.158134998	-0.009371756	0
289	235031795	0.001792437	-0.002156194	0.707692296	0.706515218	0.000224496	0.163555911	0.003782763	0
290	235048462	0.001788647	-0.002161016	0.707697522	0.706509977	0.006972804	0.166217707	-0.010353566	0
291	235065129	0.001784482	-0.002156498	0.707691978	0.706515555	-0.001990772	0.139206153	-0.003162033	0
292	235081796	0.00177404	-0.002154326	0.707685603	0.706521973	0.002119747	0.129956743	0.004363564	0
293	235098463	0.001765998	-0.002145746	0.707689458	0.706518158	0.007016291	0.152128892	0.01374068	0
294	235115130	0.001763812	-0.002136335	0.707684263	0.706523396	0.00796676	0.158433039	0.008427116	0
295	235131797	0.001767342	-0.002141585	0.707672181	0.706535473	0.000766871	0.133077788	-0.006750802	0
296	235148464	0.001768253	-0.002141173	0.70767161	0.706536044	-0.015717434	0.139382781	-0.00111067	0
297	235165131	0.001764189	-0.002139001	0.707668952	0.706538722	0.013070003	0.14891716	0.011458714	0
298	235181798	0.00176443	-0.002143062	0.707671146	0.706536513	0.006264699	0.156947393	0.007236044	0
299	235198465	0.001762251	-0.002136155	0.70767132	0.706536365	0.006464754	0.138868045	0.00753561	0
300	235215132	0.001757652	-0.002131394	0.707668743	0.706538971	-0.002379409	0.127015812	-0.001000811	0
301	235231799	0.001761885	-0.00212371	0.707668534	0.706539193	0.004383024	0.137459578	-0.00306319	0
302	235248466	0.001763355	-0.00212655	0.707672688	0.706535021	0.010312863	0.125753089	0.006358507	0
303	235265133	0.001757705	-0.002126203	0.707674583	0.706533138	-0.001729282	0.135917495	-0.00662209	0
304	235281800	0.001761721	-0.00211856	0.707670375	0.706537365	-0.000944535	0.143511939	0.012246124	0
305	235298467	0.001767946	-0.002119111	0.707671049	0.706536673	-0.000915789	0.153691682	0.002961562	0
306	235315134	0.001775301	-0.002119987	0.707670602	0.7065371	-0.007823151	0.159552296	0.012137134	0
307	235331801	0.001769562	-0.002116415	0.707667544	0.706540188	0.003162939	0.123141148	0.013743884	0
308	235348468	0.001757187	-0.002112812	0.707667569	0.706540204	-0.007227216	0.146837462	-0.001082078	0
309	235365135	0.001755996	-0.002116228	0.707663766	0.706544006	0.004367485	0.160120783	0.002559746	0
310	235381802	0.001749235	-0.002115884	0.707659795	0.706548001	-0.000522582	0.149835995	-0.006424658	0
311	235398469	0.001741619	-0.002117535	0.707650476	0.706557349	-0.002957287	0.159357702	0.003368976	0
312	235415136	0.001752014	-0.002112036	0.707649735	0.706558081	0.007490247	0.128835465	0.00650813	0
313	235431803	0.001749108	-0.002115858	0.707652706	0.706555101	0.003366018	0.153588966	-0.015330873	0
314	235448470	0.001758007	-0.002118082	0.707647295	0.706560492	0.002745794	0.139832463	-0.002933922	0
315	235465137	0.001748927	-0.002127073	0.707650495	0.706557283	-0.004873579	0.127762889	-0.004082909	0
316	235481804	0.001743119	-0.002123877	0.707643744	0.706564068	0.004021021	0.163629233	-0.002555044	0
317	235498471	0.001751083	-0.002122966	0.707644007	0.706563787	0.00127016	0.151673309	-0.003155031	0
318	235515138	0.001748343	-0.002118105	0.707643833	0.706563983	0.012145673	0.143118399	-0.000341236	0
319	235531805	0.001746868	-0.002115235	0.707643071	0.706564759	-0.001234637	0.138356837	-0.009892346	0
320	235548472	0.001743154	-0.002114344	0.707648958	0.706558874	-0.009370854	0.144369011	0.001432077	0
321	235565139	0.001742478	-0.002117032	0.707643594	0.70656424	0.011628821	0.14557866	0.009109579	0
322	235581806	0.001748266	-0.002107993	0.707645077	0.706562768	-0.000609385	0.135979951	0.01634192	0
323	235598473	0.001746272	-0.002103968	0.707644437	0.706563425	-0.005986124	0.139567275	0.014271725	0
324	235615140	0.00174184	-0.002092981	0.707645251	0.706562655	-0.009646327	0.122706088	0.009792593	0
325	235631807	0.001726704	-0.002091371	0.707643499	0.706564451	-0.014000362	0.140537325	0.016127341	0
326	235648474	0.001714184	-0.002093568	0.707643784	0.706564189	-0.002413951	0.128911678	8.74E-05	0
327	235665141	0.001713382	-0.002092468	0.707639758	0.706568227	0.006753498	0.131739345	0.004316726	0
328	235681808	0.001719735	-0.002092751	0.707635226	0.706572749	-0.00121927	0.148255316	-0.001735532	0
329	235698475	0.001709874	-0.002092065	0.707634766	0.706573236	-0.00306847	0.152210544	-0.004778849	0
330	235715142	0.001701808	-0.002095763	0.707633378	0.706574634	0.008773066	0.125201136	0.006801031	0
331	235731809	0.001703694	-0.00208708	0.707631248	0.706576789	-0.006662965	0.153094339	0.004832961	0
332	235748476	0.001704425	-0.002074456	0.707625369	0.706582712	-0.000811032	0.14653671	-0.00585152	0
333	235765143	0.001695611	-0.002076439	0.70762333	0.706584769	0.020508596	0.129638021	-0.0008248	0
334	235781810	0.001697205	-0.002077896	0.707628137	0.706579947	0.002248729	0.141622616	0.006247243	0
335	235798477	0.001700789	-0.002070239	0.707628407	0.706579691	-0.001146865	0.153702076	-0.002008224	0
336	235815144	0.001690493	-0.002068808	0.70763115	0.706576973	-0.007739186	0.145286509	0.00437694	0
337	235831811	0.001690646	-0.00206272	0.707630713	0.706577428	-0.002945569	0.162817566	0.000417952	0
338	235848478	0.001677292	-0.002065976	0.707626766	0.706581403	-0.001602521	0.134163337	0.013622902	0
339	235865145	0.001682239	-0.002068873	0.707622606	0.706585548	0.003404483	0.129385711	0.021261766	0
340	235881812	0.001681747	-0.002069666	0.707625229	0.70658292	-0.009408285	0.166050776	0.008126661	0
341	235898479	0.001671727	-0.002062953	0.707626792	0.706581398	0.004611923	0.131310001	0.005031455	0
342	235915146	0.001668707	-0.002066638	0.707622266	0.706585928	-0.002450893	0.157486873	0.009894288	0
343	235931813	0.001674958	-0.002061912	0.707620663	0.706587532	-0.013452955	0.130432565	0.008308915	0
344	235948480	0.001664321	-0.002063004	0.707615741	0.706592484	0.004234512	0.144031288	-0.00318507	0
345	235965147	0.001669642	-0.002053761	0.707619209	0.706589024	0.012103038	0.142477481	-0.004427737	0
346	235981814	0.00166871	-0.002045679	0.707618589	0.706589671	0.002515033	0.142036084	0.009443521	0
347	235998481	0.001665886	-0.00205061	0.707621251	0.706586997	0.011073329	0.138268552	0.002101375	0
348	236015148	0.001662888	-0.002047988	0.707617118	0.706591151	-0.001286646	0.151498102	-0.000213178	0
349	236031815	0.001659724	-0.00205141	0.707613615	0.706594656	-0.00829657	0.140767771	-0.004583309	0
350	236048482	0.001663583	-0.002044104	0.707610135	0.706598153	-0.00494392	0.136684172	0.005527709	0
351	236065149	0.001652034	-0.002048108	0.707609727	0.706598578	-0.001927486	0.146258703	0.00509628	0
352	236081816	0.001636419	-0.002036474	0.707614894	0.706593473	0.000883372	0.145141971	-0.003981841	0
353	236098483	0.001638414	-0.002030244	0.707614652	0.706593729	0.004471095	0.137891676	0.001520219	0
354	236115150	0.001634833	-0.002023973	0.707614985	0.706593422	0.005265621	0.157842136	-0.00187045	0
355	236131817	0.001629738	-0.00202221	0.70762029	0.706588126	-0.019146273	0.15189536	0.008070104	0
356	236148484	0.001626006	-0.002010315	0.707622235	0.706586221	-0.006559507	0.11737314	-0.009662637	0
357	236165151	0.001621062	-0.002002363	0.707621716	0.706586775	0.002392883	0.15798929	-0.002564338	0
358	236181818	0.001604855	-0.002012327	0.707618515	0.706589989	-0.011066404	0.159843161	-0.002725219	0
359	236198485	0.001603382	-0.002082487	0.707685664	0.706522535	0.000990324	0.126584307	0.004664427	0
360	236215152	0.001594659	-0.002077921	0.707694537	0.706513681	-0.00560543	0.136889326	0.006041593	0
361	236231819	0.001593467	-0.0020836	0.707695571	0.706512632	0.007146018	0.14306904	0.002131737	0
362	236248486	0.001590311	-0.002076693	0.70768999	0.706518249	0.002820437	0.132599207	0.006767405	0
363	236265153	0.001593938	-0.002071042	0.707692901	0.706515342	-0.004930206	0.139092966	-0.008605361	0
364	236281820	0.001592703	-0.002067773	0.707694459	0.706513794	-0.013169483	0.124516163	-0.00968381	0
365	236298487	0.001585357	-0.002071664	0.707688695	0.706519572	-0.004512592	0.129553815	0.011096719	0
366	236315154	0.001587651	-0.002062633	0.707688149	0.70652014	0.005591199	0.157544086	-0.000162806	0
367	236331821	0.001583754	-0.002050405	0.707693061	0.706515265	0.003588331	0.145008948	-0.000382927	0
368	236348488	0.001582212	-0.002051561	0.707690903	0.706517426	-0.00892883	0.143462127	0.006197751	0
369	236365155	0.001580151	-0.00205105	0.707691064	0.706517272	0.016604717	0.152533492	-0.005378629	0
370	236381822	0.001571834	-0.002050368	0.707690857	0.706517499	0.003484829	0.142864482	0.011146039	0
371	236398489	0.001567644	-0.002043656	0.707687183	0.706521208	0.005665314	0.141802486	-0.007111751	0
372	236415156	0.001555856	-0.002041902	0.707691548	0.706516867	0.002066481	0.127543678	-0.001011793	0
373	236431823	0.001548866	-0.002039801	0.707688266	0.706520175	0.017445529	0.121519919	0.007174668	0
374	236448490	0.00155036	-0.002026826	0.707682785	0.706525699	-0.002832593	0.151670286	-0.00102939	0
375	236465157	0.001546751	-0.002031307	0.707679823	0.706528661	0.013822244	0.130897534	-0.000468681	0
376	236481824	0.001553575	-0.002024342	0.707683425	0.706525059	0.005893733	0.136593475	0.005070083	0
377	236498491	0.001556422	-0.002026237	0.707682666	0.706525808	0.007304193	0.148670694	8.01E-05	0
378	236515158	0.001553345	-0.002037241	0.707685046	0.706523399	-0.017730961	0.139479739	0.002470288	0
379	236531825	0.00155753	-0.002030502	0.707681169	0.706527292	-0.004087012	0.148290852	0.0034744	0
380	236548492	0.001551381	-0.002030815	0.707673745	0.70653474	0.007228981	0.134154191	0.011032468	0
381	236565159	0.00155367	-0.002029398	0.707677468	0.706531011	-0.000697899	0.142426677	0.003762791	0
382	236581826	0.001547696	-0.002014299	0.707685385	0.706523137	0.003714232	0.136579783	0.012969596	0
383	236598493	0.001555507	-0.002016932	0.707680401	0.706528104	0.008092845	0.139950092	0.005467301	0
384	236615160	0.001555011	-0.002017602	0.707682856	0.706525644	0.00335855	0.120934239	-0.00333646	0
385	236631827	0.001562401	-0.002011001	0.70767807	0.706530441	0.011347939	0.142653566	0.002892815	0
386	236648494	0.001562736	-0.002011061	0.707680684	0.706527822	0.00378234	0.144236851	-0.002734426	0
387	236665161	0.001562503	-0.002009067	0.707681699	0.706526811	0.014515503	0.139231443	0.002516531	0
388	236681828	0.001559278	-0.002002888	0.707674823	0.706533723	-0.003982191	0.143308749	0.010176554	0
389	236698495	0.001556515	-0.001995412	0.707675102	0.706533471	0.002653961	0.155120129	0.010429248	0
390	236715162	0.00154917	-0.001998212	0.707676617	0.706531961	0.005896956	0.143704868	-0.012033824	0
391	236731829	0.001548034	-0.001996756	0.707673052	0.706535539	0.005923257	0.141780749	0.021446236	0
392	236748496	0.001550672	-0.001995082	0.707673711	0.706534878	-0.008482692	0.147725433	0.003935272	0
393	236765163	0.001545245	-0.001991409	0.707673603	0.706535008	-0.013137234	0.133525209	0.001868327	0
394	236781830	0.001542418	-0.001982814	0.707679805	0.706528827	0.010150309	0.158836237	0.001691768	0
395	236798497	0.001538274	-0.001976752	0.707682039	0.706526615	0.001333371	0.149816593	0.007818943	0
396	236815164	0.001533652	-0.001971342	0.707681795	0.706526885	-0.003868672	0.136117304	0.004437711	0
397	236831831	0.001539469	-0.00195932	0.707682269	0.706526431	0.002682674	0.147388651	0.001979874	0
398	236848498	0.00154733	-0.00195928	0.707679757	0.70652893	0.003673913	0.146230349	0.000576653	0
399	236865165	0.001546466	-0.001960189	0.707681033	0.706527651	-0.009235481	0.164140395	0.002143144	0
400	236881832	0.001551135	-0.001956722	0.707681273	0.70652741	-0.000809782	0.147404663	0.004953802	0
401	236898499	0.001550856	-0.001960811	0.707675257	0.706533425	0.011372823	0.14176756	0.006314745	0
402	236915166	0.001546073	-0.001950579	0.707681221	0.70652749	0.004396483	0.138936509	0.01072072	0
403	236931833	0.00154607	-0.001957479	0.707682771	0.706525918	0.002592691	0.127891145	-0.006461764	0
404	236948500	0.00154007	-0.001950391	0.70767012	0.706538623	0.013135216	0.148765558	0.000698289	0
405	236965167	0.00153054	-0.001943755	0.707670745	0.706538036	-0.010227966	0.152228116	0.013052944	0
406	236981834	0.001532672	-0.001940895	0.70767038	0.706538405	0.01539512	0.164018938	-0.011215219	0
407	236998501	0.001535562	-0.001931312	0.707667913	0.706540895	-0.003823159	0.152231326	0.007174757	0
408	237015168	0.001522473	-0.001930445	0.707668573	0.706540265	0.000112468	0.121089678	0.006598616	0
409	237031835	0.001521612	-0.001920261	0.707669762	0.706539103	0.003095904	0.115002758	-0.007311849	0
410	237048502	0.001524027	-0.001911233	0.707659855	0.706549045	-0.001640256	0.116033635	0.018834082	0
411	237065169	0.001521702	-0.001903794	0.707663867	0.706545053	0.01121356	0.131316065	0.004775199	0
412	237081836	0.001513798	-0.001902742	0.707663902	0.706545037	-0.011770633	0.131630869	-0.000458939	0
413	237098503	0.001523845	-0.001896895	0.707665018	0.706543913	-0.00568416	0.154599287	0.004794426	0
414	237115170	0.001517234	-0.001895877	0.707662627	0.706546326	0.011609105	0.131406852	-0.001362387	0
415	237131837	0.001517361	-0.001887929	0.707665066	0.706543904	-0.0077597	0.149898734	0.006877343	0
416	237148504	0.001513341	-0.001884626	0.707667821	0.706541162	0.003619711	0.151784857	-0.00069749	0
417	237165171	0.001508438	-0.001878196	0.707670574	0.706538432	-0.006337026	0.1441242	0.002591141	0
418	237181838	0.001509063	-0.001875783	0.707664707	0.706544313	0.002129092	0.155980693	0.000635748	0
419	237198505	0.001503519	-0.001872806	0.707662304	0.706546739	-0.004869575	0.149586709	-0.008951234	0
420	237215172	0.00150994	-0.00186194	0.707663204	0.706545853	0.001823031	0.143451079	-0.009863425	0
421	237231839	0.001507554	-0.001873223	0.707667918	0.706541107	0.001306358	0.149397931	-0.007543085	0
422	237248506	0.001509217	-0.001868872	0.707665309	0.706543728	-0.000419379	0.147456664	-0.013725512	0
423	237265173	0.001505865	-0.001864982	0.707665452	0.706543602	-0.010196165	0.132311593	0.009143192	0
424	237281840	0.001506547	-0.001858972	0.707667836	0.706541229	0.002227362	0.134933963	0.00852298	0
425	237298507	0.001511764	-0.001853052	0.70766773	0.70654134	0.01552244	0.147444544	-0.005297854	0
426	237315174	0.001512431	-0.001853587	0.707674054	0.706535003	0.002320451	0.149933274	0.001022398	0
427	237331841	0.001500371	-0.001862287	0.707665339	0.706543735	-0.008001923	0.14835546	0.011000873	0
428	237348508	0.001502887	-0.001857192	0.707664562	0.70654452	0.007117039	0.150512179	-0.001559632	0
429	237365175	0.001501591	-0.001850746	0.707659729	0.706549381	0.009646214	0.156406358	-0.014723625	0
430	237381842	0.001499365	-0.001839322	0.70765526	0.706553892	0.005766375	0.13093407	-0.000391877	0
431	237398509	0.001501868	-0.00184196	0.70765234	0.706556804	0.001163688	0.126371781	0.006203741	0
432	237415176	0.001499708	-0.00184093	0.707645408	0.706563754	-0.000591097	0.128565437	-0.002847337	0
433	237431843	0.001508347	-0.001840636	0.707645574	0.706563571	0.008654098	0.134590181	0.008982098	0
434	237448510	0.001506192	-0.001838893	0.707649338	0.70655981	0.006448475	0.137712037	0.019655351	0
435	237465177	0.001514606	-0.001820864	0.707644901	0.706564282	0.014354549	0.134955583	0.000604243	0
436	237481844	0.001514756	-0.001828102	0.707645246	0.706563917	0.008050458	0.138613319	0.001057064	0
437	237498511	0.001518433	-0.00181497	0.707644896	0.706564294	0.012529228	0.162754737	-9.24E-05	0
438	237515178	0.001516639	-0.001814819	0.707653231	0.70655595	0.010461824	0.15080265	0.009695306	0
439	237531845	0.001507399	-0.001803034	0.707648387	0.706560852	-0.008752957	0.135335078	0.003287923	0
440	237548512	0.001509426	-0.001800009	0.707648195	0.706561048	-0.003559836	0.129971718	-0.002997372	0
441	237565179	0.001501211	-0.001793441	0.707646882	0.706562397	0.005167306	0.140896045	-0.009484538	0
442	237581846	0.001492958	-0.001800748	0.707651888	0.706557382	-0.002078678	0.154357392	-0.000837453	0
443	237598513	0.001489322	-0.00180825	0.707650273	0.706558988	0.006113064	0.144113105	0.004839773	0
444	237615180	0.001486218	-0.001807812	0.707644736	0.706564541	-0.00596335	0.164567293	0.015168504	0
445	237631847	0.00148114	-0.001814354	0.707652166	0.706557094	-0.008990107	0.13333988	0.00239872	0
446	237648514	0.001478017	-0.001814244	0.707652256	0.70655701	0.012075293	0.143440383	-0.017436593	0
447	237665181	0.001480186	-0.001807425	0.707649449	0.706559834	0.004863293	0.15647742	-0.004719104	0
448	237681848	0.001478392	-0.001800551	0.707658957	0.706550333	0.008817075	0.151848166	-0.00494143	0
449	237698515	0.001479294	-0.001797583	0.707658481	0.706550815	0.005687189	0.139577184	0.000699948	0
450	237715182	0.001481718	-0.001795165	0.707655872	0.70655343	-0.009688442	0.143887171	0.004148269	0
451	237731849	0.00148121	-0.001786552	0.707661207	0.706548109	0.006143055	0.145119904	0.006184863	0
452	237748516	0.001478054	-0.0017911	0.707653587	0.706555736	-0.008798158	0.13626172	0.000643467	0
453	237765183	0.001477097	-0.001785016	0.707650742	0.706558603	-0.013106414	0.133286695	-0.006091344	0
454	237781850	0.001479786	-0.001776811	0.707643657	0.706565714	0.009560244	0.155498435	0.004313261	0
455	237798517	0.001485232	-0.001766071	0.707648684	0.706560695	-0.005091546	0.160480369	0.007677535	0
456	237815184	0.001477583	-0.001765651	0.707644103	0.706565299	-0.00434418	0.141606365	0.00430344	0
457	237831851	0.001471686	-0.001762638	0.707645784	0.706563636	0.004646454	0.139921113	0.006375088	0
458	237848518	0.001466782	-0.00175878	0.707647785	0.706561652	0.001451619	0.149445149	0.000787874	0
459	237865185	0.001455032	-0.001751176	0.707647981	0.706561499	0.01175549	0.129342921	0.006620505	0
460	237881852	0.00144507	-0.001741538	0.707650791	0.706558728	0.015209429	0.154339224	0.023350553	0
461	237898519	0.001447736	-0.001735925	0.707644107	0.706565431	0.008726687	0.162442987	0.007350963	0
462	237915186	0.001454792	-0.001734149	0.707638659	0.706570877	-0.008086334	0.146209617	0.001599772	0
463	237931853	0.001446212	-0.001732302	0.70764544	0.706564108	0.008074484	0.11735026	0.006534063	0
464	237948520	0.001448198	-0.001729818	0.707646231	0.706563318	0.001905127	0.137778494	-0.005085806	0
465	237965187	0.001441177	-0.0017284	0.70764624	0.706563327	0.00303672	0.134488716	0.005393504	0
466	237981854	0.001437408	-0.001721699	0.707640685	0.706568914	-0.0033095	0.168927422	0.013081219	0
467	237998521	0.001444321	-0.001716116	0.707638864	0.706570738	0.006297071	0.142971459	-0.011163533	0
468	238015188	0.001451414	-0.001704887	0.70763776	0.706571856	-0.006423148	0.136122318	0.001533299	0
469	238031855	0.00145988	-0.00169219	0.707634039	0.706575596	-0.01388692	0.146886916	0.002782381	0
470	238048522	0.001457258	-0.001689835	0.707635014	0.70657463	0.003514686	0.14104531	0.000948376	0
471	238065189	0.001459798	-0.001675778	0.707635853	0.706573818	-0.009731526	0.11748011	0.008644757	0
472	238081856	0.001458754	-0.001671183	0.707634419	0.706575267	0.002616717	0.159388329	0.005814148	0
473	238098523	0.001451172	-0.001667032	0.707639001	0.706570704	0.008907846	0.147718254	0.002682177	0
474	238115190	0.001463975	-0.001659572	0.707632361	0.706577345	0.004246232	0.150593547	-0.0020414	0
475	238131857	0.001454054	-0.001655552	0.707632023	0.706577713	-0.007741706	0.112266923	-0.005516312	0
476	238148524	0.001444926	-0.001662062	0.707635687	0.706574047	-0.000238976	0.147707829	0.004128382	0
477	238165191	0.001449371	-0.001651512	0.707636596	0.706573153	0.007603562	0.157735915	0.009019835	0
478	238181858	0.001449472	-0.001650584	0.707632851	0.706576905	0.012844423	0.160882941	-0.004951623	0
479	238198525	0.001396944	-0.00185017	0.707674278	0.706535025	-0.003986365	0.142884817	0.00691779	0
480	238215192	0.001386573	-0.001852277	0.707674086	0.706535232	0.012984687	0.150645416	-0.001415682	0
481	238231859	0.001379615	-0.001856844	0.707670846	0.706538479	0.008263436	0.167238124	-0.006785512	0
482	238248526	0.001381992	-0.001859336	0.707666865	0.706542456	0.00539223	0.122694423	0.00355258	0
483	238265193	0.001376991	-0.001851339	0.707666227	0.706543125	0.001850209	0.145433981	0.003810183	0
484	238281860	0.00139046	-0.001852736	0.707669287	0.706540031	-0.010247687	0.148459662	0.007283435	0
485	238298527	0.001394307	-0.00184937	0.707668577	0.706540743	-0.007099281	0.157293594	0.013840234	0
486	238315194	0.001385791	-0.001855037	0.707670263	0.706539055	0.003411078	0.130806902	-0.00140246	0
487	238331861	0.001368289	-0.001852159	0.707668032	0.706541332	-0.002285075	0.12579806	-0.003215187	0
488	238348528	0.001372492	-0.001842132	0.707662001	0.70654739	-0.012508998	0.131714634	-0.002788001	0
489	238365195	0.001384016	-0.001838846	0.707656649	0.706552737	-0.00718366	0.126736449	0.017536231	0
490	238381862	0.001386245	-0.0018346	0.707660948	0.706548438	0.002751182	0.147084902	0.015113593	0
491	238398529	0.001391231	-0.001835178	0.707664479	0.70654489	-0.014168759	0.144176496	-0.005815802	0
492	238415196	0.001391124	-0.001825099	0.707661628	0.706547772	0.000772955	0.137059027	0.01046685	0
493	238431863	0.001406139	-0.001814113	0.70765871	0.706550693	0.008828188	0.202314238	-0.011010665	0
494	238448530	0.001370908	-0.001848611	0.707662951	0.706546425	-0.00172661	0.120489943	0.007906985	0
495	238465197	0.001360676	-0.001839444	0.707664061	0.706545358	0.005935415	0.104495369	-0.004235634	0
496	238481864	0.001378929	-0.001820252	0.707665657	0.706543773	0.002804747	0.177826325	0.010794314	0
497	238498531	0.001368318	-0.001827835	0.707662093	0.706547343	-0.018362759	0.151743179	-0.01007651	0
498	238515198	0.001366788	-0.001830162	0.707663275	0.706546157	0.00435913	0.125621369	0.007736261	0
499	238531865	0.001371594	-0.00183254	0.707661689	0.70654773	-0.00353946	0.12690648	0.002503004	0
500	238548532	0.001374223	-0.001831388	0.707664493	0.706544919	-0.000174897	0.136489271	-0.012024495	0
501	238565199	0.001374873	-0.001830453	0.707659857	0.706549563	0.002761809	0.147456575	-9.45E-05	0
502	238581866	0.001370273	-0.001821035	0.707658409	0.706551048	0.009578228	0.149418792	0.011704983	0
503	238598533	0.001358563	-0.001825849	0.70765273	0.706556745	-0.005540018	0.140899847	-0.005684261	0
504	238615200	0.001362847	-0.001816173	0.707652634	0.706556859	-0.001521866	0.160207974	-0.001306603	0
505	238631867	0.001358848	-0.001822332	0.707658511	0.706550963	-0.010923962	0.141983506	0.002646527	0
506	238648534	0.001348362	-0.001831015	0.707660645	0.706548824	-0.004313585	0.133421472	-0.000176421	0
507	238665201	0.001348602	-0.001826001	0.707661315	0.706548166	0.003182812	0.162421915	-0.000160395	0
508	238681868	0.001348704	-0.001825469	0.707657306	0.706552182	0.002146158	0.157481661	0.002929081	0
509	238698535	0.001357545	-0.001828763	0.707662431	0.706547024	-0.006046971	0.147424022	0.002746744	0
510	238715202	0.001353512	-0.00183047	0.707659847	0.706549615	-0.008354172	0.152469454	0.000790189	0
511	238731869	0.001355518	-0.001815894	0.707662292	0.7065472	-0.006428726	0.157749082	-2.98E-05	0
512	238748536	0.001363595	-0.001800942	0.707660714	0.706548803	0.000616556	0.149452884	-0.018737003	0
513	238765203	0.001365465	-0.001803557	0.707662109	0.706547396	-0.019527472	0.149699713	-0.00838618	0
514	238781870	0.001357461	-0.001807029	0.707664515	0.706544993	0.000316284	0.141053103	0.005335544	0
515	238798537	0.001339059	-0.001801273	0.707663782	0.706545776	0.008894571	0.124557196	0.007314906	0
516	238815204	0.001343853	-0.001801905	0.707666886	0.706542657	0.009723317	0.132246178	0.003035593	0
517	238831871	0.00133584	-0.001797195	0.707670797	0.706538767	-0.000885781	0.143144824	0.004640752	0
518	238848538	0.001324247	-0.001795678	0.707672573	0.706537014	0.009860429	0.145882209	-0.001303285	0
519	238865205	0.001328227	-0.001788737	0.707676134	0.706533457	0.00660673	0.15981559	-0.011505802	0
520	238881872	0.001321095	-0.001789558	0.707678871	0.706530727	-0.005458059	0.143167869	-0.005672036	0
521	238898539	0.001321937	-0.001779491	0.707684606	0.706525006	0.01455033	0.118990359	0.006345598	0
522	238915206	0.001333124	-0.001778765	0.707680469	0.706529131	0.013066753	0.138203043	0.004016212	0
523	238931873	0.001326411	-0.001779616	0.707685443	0.706524159	-0.005254245	0.150314391	0.009513292	0
524	238948540	0.00132967	-0.0017733	0.707683907	0.706525707	-8.69E-05	0.150436231	0.014254791	0
525	238965207	0.001330562	-0.001768976	0.707685559	0.706524062	0.001732656	0.165128104	-0.007876159	0
526	238981874	0.001322974	-0.001765344	0.707686439	0.706523204	-0.007672487	0.131881996	0.006033633	0
527	238998541	0.001323084	-0.00176768	0.707686707	0.706522929	-0.005827956	0.157590964	0.009793895	0
528	239015208	0.001328754	-0.001762915	0.707691064	0.706518567	0.004908206	0.148500455	-0.004957924	0
529	239031875	0.001330093	-0.001752343	0.707689697	0.70651996	-0.005746848	0.127736436	0.004442307	0
530	239048542	0.001311197	-0.00175932	0.707690189	0.706519485	0.012952525	0.14277278	0.005090067	0
531	239065209	0.001316543	-0.001753443	0.707689434	0.706520245	0.005267518	0.145113085	-0.012024958	0
532	239081876	0.001310074	-0.001750622	0.707683861	0.706525846	-0.004021462	0.149716011	-0.011552423	0
533	239098543	0.001318196	-0.001742241	0.707682199	0.706527517	0.002085278	0.148546654	0.024259577	0
534	239115210	0.001314096	-0.00173847	0.707689486	0.706520235	-0.003212373	0.166653097	0.002893284	0
535	239131877	0.001306412	-0.001745021	0.707687692	0.70652203	-0.006214116	0.141289655	-0.008186685	0
536	239148544	0.001301912	-0.001734278	0.707692203	0.706517546	-0.011746721	0.139191974	-0.007774222	0
537	239165211	0.00130712	-0.001730674	0.707693499	0.706516247	-0.007805981	0.132744605	0.00815421	0
538	239181878	0.001288665	-0.001736571	0.707690037	0.706519735	-0.002428505	0.136170661	0.003011527	0
539	239198545	0.001281199	-0.001736669	0.707684397	0.706525397	0.008912312	0.159681431	0.005939725	0
540	239215212	0.00128445	-0.001735714	0.707681715	0.70652808	-0.004897692	0.155405441	0.006998608	0
541	239231879	0.001272546	-0.001748037	0.707678154	0.706531638	0.004165259	0.144243808	0.002372385	0
542	239248546	0.001266905	-0.001744253	0.707687379	0.706522417	-0.004051315	0.148358498	-1.23E-05	0
543	239265213	0.001267308	-0.001737808	0.707685093	0.706524722	-0.002629698	0.158146016	-0.019269281	0
544	239281880	0.001269246	-0.00174166	0.707682398	0.706527408	-0.001701447	0.128690915	-0.0069861	0
545	239298547	0.001275907	-0.001737188	0.707682719	0.706527086	0.01006054	0.141023675	-0.007203534	0
546	239315214	0.001277782	-0.001739188	0.707679261	0.706530541	-0.002967179	0.158963876	0.001648316	0
547	239331881	0.001269091	-0.001741549	0.707677188	0.706532628	-0.00262448	0.158801586	-0.00178497	0
548	239348548	0.001268549	-0.001742241	0.707673878	0.706535943	0.000140398	0.146338177	0.007549714	0
549	239365215	0.001265784	-0.001742758	0.707678048	0.706531769	0.01108348	0.133034827	0.003834526	0
550	239381882	0.001261173	-0.001736345	0.707683451	0.706526381	-0.00110482	0.138652181	-0.004969901	0
551	239398549	0.001269373	-0.001721532	0.707677886	0.706531977	-0.002002932	0.11978562	0.004000089	0
552	239415216	0.001266284	-0.001722119	0.707674022	0.706535852	0.013705406	0.141578675	-0.014628072	0
553	239431883	0.001277797	-0.001706048	0.707673261	0.706536632	0.004320473	0.13384985	0.006673722	0
554	239448550	0.001263536	-0.001713371	0.707678019	0.706531874	0.015471211	0.150065469	0.005465856	0
555	239465217	0.001258927	-0.001708306	0.707675353	0.706534565	-0.007866451	0.140439834	-0.005805335	0
556	239481884	0.001249475	-0.001710908	0.707673727	0.706536204	-0.014199928	0.129754035	0.01020357	0
557	239498551	0.001242448	-0.001706504	0.707678239	0.706531707	0.013367309	0.124497452	0.005380678	0
558	239515218	0.001236128	-0.001699811	0.707677146	0.706532829	0.002203746	0.113192275	-0.010249818	0
559	239531885	0.001241392	-0.001692007	0.707677842	0.706532142	0.000467497	0.116113041	0.009941831	0
560	239548552	0.001241878	-0.001683132	0.707682708	0.706527289	-0.008270851	0.149466006	-0.006322355	0
561	239565219	0.001241962	-0.001677094	0.707680402	0.706529613	-0.015124244	0.165460149	-0.007572484	0
562	239581886	0.001251187	-0.001679338	0.707682994	0.706526994	0.003357732	0.148037757	0.005379251	0
563	239598553	0.001253824	-0.001673692	0.707684838	0.706525156	-0.019354869	0.148656025	-0.008866425	0
564	239615220	0.00125186	-0.001684378	0.707683881	0.706526093	0.003762515	0.1395174	-0.001659538	0
565	239631887	0.001256315	-0.001676061	0.707683059	0.706526928	-0.001803344	0.158182383	0.000488588	0
566	239648554	0.001257341	-0.001665483	0.70768743	0.706522574	0.010295267	0.147302642	0.005530032	0
567	239665221	0.001254596	-0.001673937	0.707693446	0.706516533	-0.002393722	0.161236788	-0.000414912	0
568	239681888	0.001247917	-0.001682957	0.707695035	0.706514931	-0.002775169	0.13608334	-0.002015164	0
569	239698555	0.001239969	-0.001687824	0.707702168	0.706507789	-0.001893875	0.14839478	0.007783144	0
570	239715222	0.001234973	-0.001687186	0.707708916	0.706501039	-0.004014455	0.116488903	0.003369503	0
571	239731889	0.001235152	-0.001684007	0.707705107	0.706504862	-0.003452551	0.139443114	-0.005002427	0
572	239748556	0.001230898	-0.00168013	0.70769738	0.706512618	0.002152826	0.139510232	0.00592806	0
573	239765223	0.001230635	-0.001677964	0.707703077	0.706506917	0.001867969	0.147739913	0.009937269	0
574	239781890	0.001227823	-0.001674005	0.707706075	0.706503929	-0.000743565	0.158933139	0.003980567	0
575	239798557	0.001226047	-0.001672587	0.707711105	0.706498897	0.016629331	0.148517654	-0.002283377	0
576	239815224	0.001226325	-0.001674598	0.707702225	0.706507786	0.004638816	0.134492893	-0.017656895	0
577	239831891	0.001223646	-0.001656696	0.707703249	0.706506808	0.006003738	0.136504756	-0.002647409	0
578	239848558	0.001216901	-0.001656097	0.707703739	0.70650633	0.020295265	0.16001874	-0.000405452	0
579	239865225	0.001216893	-0.001654467	0.707699234	0.706510847	0.003554364	0.144526454	-0.003515657	0
580	239881892	0.001210317	-0.001654271	0.707692248	0.706517856	-0.012538761	0.131932114	0.005644494	0
581	239898559	0.001207437	-0.001656295	0.707693906	0.706516195	0.01041312	0.148717582	-0.001054194	0
582	239915226	0.001203645	-0.001655961	0.707695908	0.706514197	0.004627974	0.147962872	-0.001928991	0
583	239931893	0.001208159	-0.001654091	0.707700166	0.706509929	0.004014878	0.125159509	-0.002093769	0
584	239948560	0.001207619	-0.001646713	0.707699574	0.706510539	0.016701531	0.146386985	-0.019788266	0
585	239965227	0.001197071	-0.001654212	0.707695366	0.706514756	0.009015885	0.154526298	0.004196911	0
586	239981894	0.001200784	-0.001655359	0.707695296	0.706514817	0.017069198	0.154556207	-0.008150051	0
587	239998561	0.001193652	-0.001650533	0.70769681	0.706513323	0.00687258	0.139263052	-0.004834266	0
588	240015228	0.001183621	-0.001644506	0.707697129	0.706513035	-0.000761055	0.15080972	-0.015804238	0
589	240031895	0.001190185	-0.001644516	0.707703856	0.706506285	0.015451005	0.159991611	-0.000750642	0
590	240048562	0.001180912	-0.001639552	0.707706344	0.70650382	0.016463035	0.135034411	-5.48E-05	0
591	240065229	0.001178194	-0.001637332	0.707705574	0.706504601	-0.008433581	0.124984748	0.002212801	0
592	240081896	0.001175318	-0.001637915	0.707703286	0.706506896	-0.000424523	0.136303241	0.000624619	0
593	240098563	0.001172601	-0.001625282	0.707702825	0.706507392	0.002276419	0.145323282	-0.002669376	0
594	240115230	0.001179225	-0.001626802	0.707699757	0.706510451	0.005483855	0.143954415	-0.001789961	0
595	240131897	0.001174679	-0.001626123	0.707700351	0.706509865	0.010816898	0.123903004	-0.000294936	0
596	240148564	0.001162095	-0.00163601	0.707696316	0.706513904	0.00455786	0.117276536	0.013631528	0
597	240165231	0.001168976	-0.001634244	0.707701493	0.706508712	0.005467231	0.15100359	-0.002296736	0
598	240181898	0.001173059	-0.001638245	0.70770686	0.70650332	0.017494264	0.134851299	0.013405442	0
599	240198565	0.001286572	-0.001713521	0.70766488	0.706544992	0.002212102	0.143031723	0.001706338	0
600	240215232	0.001288308	-0.001710693	0.707664076	0.706545801	-0.007154053	0.12415094	0.002740731	0
601	240231899	0.001292946	-0.001710748	0.707661334	0.706548539	-0.000554733	0.160377063	-0.006827272	0
602	240248566	0.001287559	-0.001709195	0.707665075	0.706544806	-0.00530519	0.131445372	0.000959004	0
603	240265233	0.001283	-0.001709918	0.707664445	0.706545444	0.006284321	0.141451458	0.009913034	0
604	240281900	0.001279325	-0.001716842	0.707667416	0.706542457	0.006822707	0.151526441	-0.004389469	0
605	240298567	0.001278556	-0.001722599	0.707670596	0.706539259	-0.002175139	0.148429922	-0.001406177	0
606	240315234	0.001288072	-0.001724394	0.70767046	0.706539374	-0.010604087	0.143551774	0.009430709	0
607	240331901	0.001279452	-0.001729362	0.707677018	0.70653281	-0.001594941	0.137324272	0.002053271	0
608	240348568	0.001278143	-0.00173112	0.707664682	0.706545163	0.001461759	0.128916605	-0.000653187	0
609	240365235	0.001278977	-0.001732949	0.707655509	0.706554344	-0.003166731	0.129703651	-0.003836702	0
610	240381902	0.001277208	-0.0017287	0.707657304	0.70655256	-0.002300839	0.139454656	-0.011111443	0
611	240398569	0.001273755	-0.001726195	0.707651442	0.706558444	0.000513717	0.161879336	0.004773352	0
612	240415236	0.001275458	-0.001719596	0.707650414	0.706559487	-0.00318358	0.152326537	0.004122417	0
613	240431903	0.00126903	-0.00172366	0.707656001	0.706553893	0.009992889	0.137888539	0.003080449	0
614	240448570	0.001272656	-0.001720249	0.707659099	0.706550792	-0.006795249	0.151843298	0.012430989	0
615	240465237	0.001280393	-0.001719302	0.707668063	0.706541802	0.01303276	0.143298322	-0.014140059	0
616	240481904	0.001262031	-0.001730827	0.707668811	0.706541057	0.002258091	0.159464745	-0.011670281	0
617	240498571	0.001258458	-0.001740092	0.707665903	0.706543954	0.003443455	0.124755637	0.00078158	0
618	240515238	0.00126261	-0.001739097	0.707662226	0.706547632	-0.007642916	0.145696065	0.014013797	0
619	240531905	0.001272283	-0.00174211	0.707660574	0.706549261	-0.004714181	0.14241612	0.008876852	0
620	240548572	0.001268499	-0.001743	0.707652696	0.706557156	0.009219326	0.131038517	0.010006403	0
621	240565239	0.001264626	-0.001755963	0.7076529	0.706556926	-0.001199312	0.164419742	-0.013623336	0
622	240581906	0.001267275	-0.001752508	0.707650703	0.706559131	-0.010469295	0.133032576	0.009727938	0
623	240598573	0.001280888	-0.00174422	0.707647741	0.706562093	0.001970068	0.145430387	0.000561997	0
624	240615240	0.00127866	-0.001742105	0.707651522	0.706558316	-0.008550939	0.118106705	-0.003159449	0
625	240631907	0.001293684	-0.001735803	0.707649235	0.706560595	-0.002822081	0.145454521	0.003834595	0
626	240648574	0.001286786	-0.00173195	0.707649943	0.706559907	-0.000757381	0.155619119	0.003661432	0
627	240665241	0.001287196	-0.00172962	0.70765069	0.706559164	0.00991929	0.140132797	0.00072785	0
628	240681908	0.001285059	-0.001727368	0.707647077	0.706562792	-0.007094236	0.145380866	-0.002785724	0
629	240698575	0.0012917	-0.001705775	0.707645546	0.706564366	-0.002457068	0.149520318	0.000341647	0
630	240715242	0.001287736	-0.001701983	0.707641315	0.706568619	0.005834004	0.17436075	-0.005736836	0
631	240731909	0.00129109	-0.001696726	0.707638202	0.706571744	-0.000526223	0.153984948	-0.007077722	0
632	240748576	0.00129147	-0.001700204	0.707637308	0.70657263	0.001422286	0.144450004	0.004590525	0
633	240765243	0.001293017	-0.001694907	0.707634472	0.70657548	-0.003289741	0.144617902	0.000732849	0
634	240781910	0.001290707	-0.001693808	0.707625435	0.706584538	-0.000881357	0.151787707	0.01150666	0
635	240798577	0.001293344	-0.0016905	0.707629216	0.706580754	-0.000188187	0.152845635	0.008006414	0
636	240815244	0.001284328	-0.001681078	0.707626037	0.706583976	-0.012370887	0.138580506	0.002208604	0
637	240831911	0.001279269	-0.001683981	0.707622231	0.706587791	0.012303043	0.139080035	0.002791334	0
638	240848578	0.001291057	-0.001673313	0.707625907	0.706584114	0.001102333	0.147264375	-0.006836374	0
639	240865245	0.001282182	-0.001678266	0.707625586	0.706584439	-0.009730492	0.153535207	-0.000482875	0
640	240881912	0.001277846	-0.001686016	0.707621078	0.706588943	0.01817182	0.114051918	0.007224215	0
641	240898579	0.001285195	-0.001690497	0.707621245	0.706588751	-0.000304456	0.142108556	0.022971476	0
642	240915246	0.001285569	-0.001685235	0.707620116	0.706589894	0.005445754	0.154987685	-0.011982547	0
643	240931913	0.00129307	-0.001676845	0.707615077	0.706594946	-0.010572085	0.151675182	-0.001398609	0
644	240948580	0.001295158	-0.00166927	0.707621989	0.706588039	0.000138549	0.119911655	-0.011832294	0
645	240965247	0.001296224	-0.001671632	0.707614095	0.706595937	-0.001706102	0.146278694	0.005707661	0
646	240981914	0.001287387	-0.001666163	0.707620714	0.706589337	-0.003379782	0.13943005	-0.002342179	0
647	240998581	0.001289366	-0.001667162	0.707619595	0.706590452	0.022394178	0.151119958	-0.006547928	0
648	241015248	0.001285306	-0.001659412	0.707616308	0.706593769	0.001060623	0.145329265	-0.011011424	0
649	241031915	0.001291588	-0.00164923	0.707618877	0.706591209	-0.00024955	0.158782992	-0.004247305	0
650	241048582	0.001291745	-0.001639346	0.707623711	0.706586391	-0.006373689	0.150329206	0.008947477	0
651	241065249	0.001295411	-0.001631973	0.707618984	0.706591135	-0.011284883	0.149260724	-0.000873921	0
652	241081916	0.001302367	-0.001626516	0.707611027	0.706599103	-0.020689253	0.168662403	-0.008330545	0
653	241098583	0.001301836	-0.001628048	0.707606747	0.706603387	0.000581555	0.147702308	0.019086652	0
654	241115250	0.001299211	-0.001632195	0.707601078	0.706609059	-0.011074731	0.149562572	0.000832634	0
655	241131917	0.001293294	-0.001631667	0.707596703	0.706613452	-0.006388048	0.158472538	0.001870515	0
656	241148584	0.001296765	-0.001626051	0.707598721	0.706611438	-0.001541771	0.141686695	0.006254878	0
657	241165251	0.001295721	-0.001614052	0.707605333	0.706604846	0.000899373	0.130564062	0.003160027	0
658	241181918	0.00130042	-0.00160934	0.707610387	0.706599788	0.009683319	0.156342332	0.002776839	0
659	241198585	0.001299694	-0.001600768	0.707604084	0.70660612	-0.005782587	0.144107126	0.007558882	0
660	241215252	0.001293471	-0.00160243	0.707599982	0.706610235	0.005782656	0.134682277	0.014851765	0
661	241231919	0.001293904	-0.001605146	0.707594256	0.706615962	-0.002747654	0.138538593	0.00848184	0
662	241248586	0.001286221	-0.001607571	0.707588671	0.706621564	-0.005449046	0.132489088	-0.000711356	0
663	241265253	0.001282665	-0.001613013	0.707585056	0.706625178	0.005273542	0.14532437	-0.009224924	0
664	241281920	0.001281951	-0.001615562	0.707586455	0.706623772	-0.01269317	0.158367023	-0.009882834	0
665	241298587	0.001279719	-0.00160848	0.70758095	0.706629305	0.004400372	0.143752481	0.003796351	0
666	241315254	0.001281877	-0.001607513	0.707578723	0.706631533	0.001250242	0.153498046	0.009271096	0
667	241331921	0.00128366	-0.001606916	0.707583758	0.70662649	0.005393719	0.127146635	0.010657381	0
668	241348588	0.00127747	-0.001595072	0.707585576	0.706624707	0.004121913	0.137101606	0.000153332	0
669	241365255	0.0012773	-0.001588274	0.707588955	0.706621339	-0.006536344	0.148192524	-0.004689979	0
670	241381922	0.001280863	-0.001584963	0.707583141	0.706627161	0.011956428	0.133109604	0.008065021	0
671	241398589	0.001279363	-0.001583037	0.707576151	0.706634169	-0.010952438	0.157887184	-0.008145807	0
672	241415256	0.001287704	-0.001580379	0.707568686	0.706641634	-0.003448204	0.144504666	0.009069853	0
673	241431923	0.001290208	-0.001587839	0.707568525	0.706641774	-0.001585381	0.165351914	-0.000184275	0
674	241448590	0.001286421	-0.001588868	0.707565874	0.706644433	-0.001145656	0.141010317	0.006944276	0
675	241465257	0.001289905	-0.001589918	0.707560667	0.706649638	-0.002224499	0.145155942	-0.002548241	0
676	241481924	0.00128446	-0.001597695	0.707564793	0.706645499	-0.007049639	0.15538362	-0.007390842	0
677	241498591	0.001278939	-0.001592068	0.707567248	0.706643064	-0.006138792	0.12984419	-0.001281454	0
678	241515258	0.001274261	-0.001580977	0.707566816	0.70664353	0.000765088	0.158492561	0.003000644	0
679	241531925	0.001267726	-0.001576456	0.707567496	0.706642871	0.002754998	0.142937027	-0.005666744	0
680	241548592	0.001261957	-0.001581343	0.707561501	0.706648873	-0.013149597	0.154278177	-0.001980389	0
681	241565259	0.001266957	-0.001575285	0.707555115	0.706655271	0.001895584	0.157892877	0.011085208	0
682	241581926	0.001265985	-0.001581507	0.7075527	0.706657677	0.013549928	0.146741736	-0.003934921	0
683	241598593	0.001262267	-0.001582463	0.707553667	0.706656714	-0.000334797	0.153716466	0.001883939	0
684	241615260	0.001253982	-0.001584179	0.707546475	0.706663926	0.006703684	0.150564574	0.022899708	0
685	241631927	0.001240821	-0.001583738	0.707539261	0.706671173	-0.004511348	0.158116159	-0.01226608	0
686	241648594	0.001235881	-0.001579629	0.707539987	0.706670464	0.000493486	0.144835883	-0.001612237	0
687	241665261	0.001241334	-0.001581494	0.707547847	0.70666258	0.009747224	0.14952991	-0.000684056	0
688	241681928	0.001242739	-0.001578091	0.707545731	0.706664704	0.001137038	0.157281928	0.007285091	0
689	241698595	0.001239889	-0.001588611	0.70754262	0.706667801	-0.013306861	0.148049712	-0.009216375	0
690	241715262	0.001240164	-0.001581514	0.707540746	0.706669692	0.002633164	0.150892834	0.011457306	0
691	241731929	0.001232666	-0.001579672	0.707539317	0.70667114	0.009323659	0.144730597	0.003626082	0
692	241748596	0.001223061	-0.001578253	0.707530703	0.706679785	-0.006062304	0.138429075	-0.006096961	0
693	241765263	0.001211719	-0.00157676	0.707526782	0.706683732	-0.01668875	0.146434773	-0.007134062	0
694	241781930	0.001220294	-0.001584169	0.70752591	0.706684575	-0.011355641	0.14482013	0.002290596	0
695	241798597	0.001220413	-0.001581208	0.707530441	0.706680045	-0.007419354	0.143519441	0.007518165	0
696	241815264	0.001210075	-0.001577571	0.707526848	0.706683667	0.006199671	0.149390061	0.005693001	0
697	241831931	0.001197706	-0.001582518	0.707521098	0.706689434	-0.007316085	0.151254399	0.010600424	0
698	241848598	0.001199712	-0.001576127	0.707520411	0.706690134	-0.000910762	0.133829819	0.008900788	0
699	241865265	0.001199069	-0.00157945	0.70752793	0.706682599	-0.000338415	0.154700044	0.001574226	0
700	241881932	0.001202773	-0.001584958	0.707526555	0.706683957	-0.011189071	0.133771064	0.013806466	0
701	241898599	0.001197276	-0.001587798	0.707523453	0.706687066	-0.007127506	0.149689661	0.006936802	0
702	241915266	0.001203012	-0.001590889	0.707518603	0.706691905	0.004359562	0.134973999	0.011172268	0
703	241931933	0.001197615	-0.001588723	0.707522049	0.706688469	-0.000358439	0.155571379	0.003310991	0
704	241948600	0.001199767	-0.001588288	0.707525746	0.706684765	-0.005755923	0.148122515	0.001430839	0
705	241965267	0.001202692	-0.001583513	0.707525327	0.70668519	-0.003622862	0.140662564	0.003322538	0
706	241981934	0.001201115	-0.001582098	0.707528126	0.706682393	-0.008615444	0.126882858	-0.007467778	0
707	241998601	0.001190976	-0.001584293	0.707532406	0.706678121	0.001015649	0.14327139	0.009679274	0
708	242015268	0.001183335	-0.001589571	0.707531237	0.706679292	0.001249471	0.163034088	0.000622847	0
709	242031935	0.001188022	-0.001592383	0.707531282	0.706679233	-0.014465097	0.138810597	-0.00558281	0
710	242048602	0.001183346	-0.001589793	0.707526652	0.706683882	-0.000554264	0.155024262	-0.009436172	0
711	242065269	0.001196944	-0.00158369	0.707520343	0.706690189	0.000337112	0.131163847	0.00533862	0
712	242081936	0.001191529	-0.001586606	0.707510641	0.706699905	0.012839615	0.135692145	0.003984487	0
713	242098603	0.001183557	-0.00159097	0.707513282	0.706697265	-0.004207239	0.146321029	0.010091343	0
714	242115270	0.001189034	-0.00158964	0.707501509	0.706709045	0.010857897	0.148347059	-0.002668846	0
715	242131937	0.001187747	-0.001592278	0.707504695	0.706705851	-0.001922005	0.131504925	0.004231923	0
716	242148604	0.001180616	-0.001598315	0.707499381	0.70671117	-0.008534423	0.160804651	-0.020402947	0
717	242165271	0.001178739	-0.001606808	0.707497891	0.706712645	-0.007676035	0.151531356	-0.00318877	0
718	242181938	0.001176187	-0.001605911	0.707495076	0.70671547	-0.008238792	0.139891878	-0.008848728	0
719	242198605	0.001188819	-0.001637541	0.707594547	0.706615781	-0.000217213	0.144540571	-0.010940544	0
720	242215272	0.001186132	-0.001647973	0.707592596	0.706617715	-8.49E-05	0.151115995	0.015267776	0
721	242231939	0.001189384	-0.001649011	0.707590443	0.706619863	0.008550019	0.137716326	0.004922968	0
722	242248606	0.00119357	-0.001645355	0.707597653	0.706612645	0.003716029	0.143945353	-0.012941485	0
723	242265273	0.00119023	-0.001651544	0.707603441	0.70660684	0.013601655	0.119275053	0.008626449	0
724	242281940	0.001194897	-0.001650028	0.707603344	0.706606933	-0.003615254	0.146767497	0.006858535	0
725	242298607	0.001183505	-0.001642035	0.707603458	0.706606857	-0.001401874	0.165017153	0.006830161	0
726	242315274	0.001185931	-0.001634198	0.707602486	0.706607843	0.006703089	0.149909138	0.011968039	0
727	242331941	0.00118165	-0.001634474	0.707600402	0.706609937	-0.020400461	0.142257368	0.001524298	0
728	242348608	0.001179189	-0.001633651	0.70759885	0.706611497	0.002673424	0.153755104	-0.015060434	0
729	242365275	0.001181002	-0.001621924	0.707600502	0.706609867	0.005045032	0.124764203	0.000498735	0
730	242381942	0.001186631	-0.001605235	0.707598567	0.706611834	0.001612886	0.166605056	0.01076822	0
731	242398609	0.001181125	-0.001597579	0.707586948	0.706623495	0.001631395	0.115472771	0.002486402	0
732	242415276	0.001184552	-0.001592431	0.707588003	0.706622445	-0.014409055	0.142461069	0.008929535	0
733	242431943	0.001177486	-0.00160024	0.707592657	0.706617779	0.003997905	0.155647834	0.004119309	0
734	242448610	0.001172798	-0.001600876	0.70759413	0.70661631	0.007160259	0.140032361	0.011387702	0
735	242465277	0.001180975	-0.001593054	0.707594399	0.706616044	-0.003770038	0.158008799	-0.00272556	0
