sep=									
DeviceTag:	Xsens_5								
FirmwareVersion:	2.2.1								
AppVersion:	2023.0.0								
SyncStatus:	Un-synced								
OutputRate:	60Hz								
FilterProfile:	General								
Measurement Mode:	Sensor fusion Mode - Extended (Quaternion)								
StartTime:	2023-07-11 15:21:33.862 +0200								
© Movella Technologies B. V. 2005-2023									
PacketCounter	SampleTimeFine	Quat_W	Quat_X	Quat_Y	Quat_Z	FreeAcc_X	FreeAcc_Y	FreeAcc_Z	Status
1	212939923	7.32E-18	1.34E-17	-0.707106781	-0.707106781	0.00059664	0.0892334	-0.005247758	0
2	212956590	0.000148449	1.19E-05	0.707180296	0.707033243	-0.009330275	0.085059169	-0.005583263	0
3	212973257	0.000158258	0.000277168	0.707279548	0.7069339	-0.008853416	0.096912129	0.009732228	0
4	212989924	0.000201855	0.000452216	0.707425645	0.7067876	0.015888359	0.080205862	-0.008156253	0
5	213006591	0.000174087	0.000606522	0.707510507	0.706702543	0.022047999	0.088679569	0.005563505	0
6	213023258	0.000112287	0.000734474	0.707591345	0.706621495	0.017384127	0.078798923	-0.006712852	0
7	213039925	5.49E-05	0.000877012	0.707665849	0.706546724	0.008444593	0.099162488	-0.011535909	0
8	213056592	4.40E-05	0.000996141	0.707737574	0.706474721	0.018165215	0.0749086	-0.005258786	0
9	213073259	1.68E-05	0.001138283	0.707804528	0.706407428	0.03000616	0.081876779	-0.008157596	0
10	213089926	1.45E-08	-0.001257478	-0.707876546	-0.706335058	0.039044011	0.083349154	-0.003363917	0
11	213106593	3.36E-05	-0.001360963	-0.707942698	-0.706268563	0.03351441	0.086374969	-0.012401264	0
12	213123260	6.90E-05	-0.001470718	-0.708007226	-0.706203653	0.025593964	0.090481357	-0.00776838	0
13	213139927	0.000106417	-0.001602368	-0.708067313	-0.706143117	0.026667993	0.084056672	-0.014932159	0
14	213156594	0.000129293	-0.001721469	-0.708136018	-0.706073933	0.027745425	0.074216369	-0.0087002	0
15	213173261	0.000144274	-0.00183948	-0.708203787	-0.70600566	0.043535549	0.084171084	-0.026556602	0
16	213189928	0.000162403	-0.001973594	-0.708273691	-0.705935165	0.039836495	0.083629991	-0.011975689	0
17	213206595	0.0001739	-0.002096302	-0.708344079	-0.70586418	0.050622507	0.080653868	-0.009806393	0
18	213223262	0.000189422	-0.002215002	-0.708411255	-0.705796395	0.043492715	0.070301352	-0.016262371	0
19	213239929	0.000197636	-0.002337163	-0.708486804	-0.705720162	0.046147501	0.084363841	-0.023150414	0
20	213256596	0.000210631	-0.002456586	-0.708560622	-0.705645637	0.041915386	0.082284621	-0.033549661	0
21	213273263	0.000230325	-0.002591764	-0.708630619	-0.705574854	0.046198993	0.082838912	-0.025347423	0
22	213289930	0.00024945	-0.002716962	-0.708696692	-0.705508012	0.051629862	0.097800434	-0.024508416	0
23	213306597	0.00025923	-0.002845967	-0.708768711	-0.705435147	0.066256415	0.075583866	-0.029798218	0
24	213323264	0.000277894	-0.00297739	-0.708834083	-0.705368911	0.057301648	0.087871022	-0.020908166	0
25	213339931	0.000282875	-0.003109944	-0.708899351	-0.705302743	0.064934425	0.087427459	-0.021557582	0
26	213356598	0.000311546	-0.003251434	-0.708969901	-0.705231175	0.079589789	0.074856666	-0.030243927	0
27	213373265	0.000327616	-0.003369534	-0.709035536	-0.705164624	0.064108293	0.082103229	-0.031188041	0
28	213389932	0.000366434	-0.003511288	-0.709098036	-0.705101065	0.071436631	0.101772315	-0.027739066	0
29	213406599	0.000381475	-0.003632363	-0.709169904	-0.705028161	0.066240817	0.08241604	-0.016203768	0
30	213423266	0.000417178	-0.003763538	-0.709248345	-0.704948542	0.071717086	0.080051356	-0.037090027	0
31	213439933	0.000447224	-0.003891347	-0.709322915	-0.704872797	0.07981165	0.064011613	-0.044307546	0
32	213456600	0.00046765	-0.0040098	-0.709392265	-0.704802325	0.07327795	0.082111533	-0.038603033	0
33	213473267	0.000494647	-0.004155432	-0.709454302	-0.704739016	0.071172769	0.090350652	-0.028120061	0
34	213489934	0.000502584	-0.004289079	-0.709527425	-0.70466459	0.070137276	0.081394	-0.03351887	0
35	213506601	0.000536835	-0.004437753	-0.70959758	-0.704592998	0.094392865	0.077244659	-0.044856571	0
36	213523268	0.00056911	-0.004573113	-0.709671076	-0.704518081	0.090628318	0.082575232	-0.028800383	0
37	213539935	0.000600008	-0.004721204	-0.70974041	-0.70444723	0.094951898	0.081972572	-0.041910506	0
38	213556602	0.000618014	-0.004855114	-0.709808665	-0.70437753	0.077040024	0.064217182	-0.028837378	0
39	213573269	0.000644909	-0.004997629	-0.709879262	-0.704305361	0.094130438	0.079940739	-0.039172482	0
40	213589936	0.000661787	-0.005123568	-0.709946278	-0.704236887	0.0903826	0.100725493	-0.037481421	0
41	213606603	0.000687579	-0.005266903	-0.710026584	-0.704154839	0.097729959	0.08828387	-0.03682921	0
42	213623270	0.000707581	-0.005406185	-0.71009516	-0.704084608	0.106305804	0.08315108	-0.040507671	0
43	213639937	0.000727441	-0.00553671	-0.710167519	-0.70401059	0.12087802	0.088613224	-0.056301811	0
44	213656604	0.000749376	-0.00567901	-0.710238922	-0.703937399	0.106383916	0.082709248	-0.043024963	0
45	213673271	0.000776568	-0.005809608	-0.71030851	-0.703866085	0.108446717	0.09338974	-0.045447814	0
46	213689938	0.000811184	-0.005953162	-0.710380156	-0.703792538	0.111795951	0.097110761	-0.045679703	0
47	213706605	0.000839681	-0.006087903	-0.710448577	-0.703722284	0.114352455	0.079048727	-0.060833623	0
48	213723272	0.000873167	-0.006220661	-0.710516098	-0.703652908	0.113583299	0.072530378	-0.035556079	0
49	213739939	0.000899214	-0.006342373	-0.710588836	-0.703578334	0.11958379	0.08193395	-0.042727387	0
50	213756606	0.000911714	-0.006466451	-0.710658306	-0.703507019	0.125229477	0.087749023	-0.04540562	0
51	213773273	0.000942769	-0.006597917	-0.710733178	-0.703430116	0.11628052	0.063181969	-0.057123822	0
52	213789940	0.00096651	-0.006731285	-0.710811024	-0.703350157	0.137005756	0.091912969	-0.054178121	0
53	213806607	0.000996384	-0.006872352	-0.710888464	-0.703270482	0.127183325	0.06884083	-0.054796608	0
54	213823274	0.001020373	-0.00700371	-0.710960862	-0.703195961	0.13045578	0.089860108	-0.046864543	0
55	213839941	0.001035424	-0.007132402	-0.711036185	-0.703118482	0.133166426	0.079466864	-0.057607313	0
56	213856608	0.001068275	-0.007259773	-0.71110787	-0.70304463	0.13946543	0.096980472	-0.053993744	0
57	213873275	0.001101063	-0.007381332	-0.711175705	-0.702974694	0.139748425	0.087763987	-0.055610159	0
58	213889942	0.001125783	-0.00751325	-0.711242248	-0.702905932	0.145508819	0.067977244	-0.057196763	0
59	213906609	0.001151876	-0.007628078	-0.711305908	-0.702840232	0.135699235	0.073953973	-0.058660926	0
60	213923276	0.001187158	-0.00775849	-0.711370419	-0.702773451	0.15308206	0.087204583	-0.050645981	0
61	213939943	0.001216719	-0.007879877	-0.711435448	-0.702706219	0.155232019	0.087778977	-0.048536873	0
62	213956610	0.001244317	-0.008003102	-0.711499605	-0.702639818	0.171505352	0.079430955	-0.058837033	0
63	213973277	0.001277145	-0.00813952	-0.711569141	-0.702567772	0.156026168	0.085656618	-0.067924412	0
64	213989944	0.0013106	-0.008269785	-0.711626521	-0.70250807	0.160833167	0.064092641	-0.042593581	0
65	214006611	0.00134511	-0.008402957	-0.711690589	-0.702441518	0.151031213	0.082626694	-0.070865338	0
66	214023278	0.00136834	-0.008533188	-0.711758816	-0.702370771	0.160339115	0.095398582	-0.060409618	0
67	214039945	0.001408072	-0.008658469	-0.711825298	-0.702301782	0.157841656	0.087706788	-0.067110627	0
68	214056612	0.001439962	-0.00878859	-0.711891141	-0.702233359	0.166509817	0.082768534	-0.074761128	0
69	214073279	0.001481856	-0.008911238	-0.711962033	-0.702159852	0.160055954	0.081599606	-0.069268533	0
70	214089946	0.001526933	-0.009035984	-0.712024833	-0.702094478	0.164015349	0.07406585	-0.071729501	0
71	214106613	0.001552333	-0.009160861	-0.712088892	-0.702027833	0.171104721	0.078801739	-0.070412003	0
72	214123280	0.001587813	-0.009287322	-0.712149189	-0.701964926	0.172912258	0.068084781	-0.074233291	0
73	214139947	0.001625969	-0.009418737	-0.712209477	-0.70190192	0.184499235	0.087127255	-0.069649548	0
74	214156614	0.001670759	-0.009542174	-0.712277104	-0.70183152	0.17336578	0.090400221	-0.075829778	0
75	214173281	0.001716898	-0.009671661	-0.71233371	-0.701772183	0.17720339	0.078953442	-0.073178277	0
76	214189948	0.001758552	-0.009796123	-0.712390257	-0.701712951	0.179629729	0.082527545	-0.070023742	0
77	214206615	0.001795052	-0.009933304	-0.712445107	-0.70165524	0.185116683	0.103216009	-0.075012073	0
78	214223282	0.00183953	-0.010064855	-0.712504642	-0.701592795	0.203533722	0.071506355	-0.063533641	0
79	214239949	0.001878531	-0.010184535	-0.712560015	-0.701534726	0.176598532	0.096791745	-0.077156726	0
80	214256616	0.001923772	-0.01029497	-0.712617279	-0.701474822	0.192571255	0.090566309	-0.097717648	0
81	214273283	0.00196299	-0.010430954	-0.712674834	-0.70141423	0.198707146	0.08337208	-0.080590005	0
82	214289950	0.002007229	-0.010557548	-0.712738886	-0.701347125	0.207826102	0.083460345	-0.078426519	0
83	214306617	0.002052197	-0.010692832	-0.712792286	-0.701290674	0.195945764	0.085472807	-0.075624527	0
84	214323284	0.002099878	-0.010810052	-0.712847508	-0.701232603	0.198466576	0.095379849	-0.083911037	0
85	214339951	0.002145213	-0.01093594	-0.7129018	-0.701175319	0.188104108	0.071226579	-0.079160005	0
86	214356618	0.002191988	-0.011053138	-0.712957174	-0.701117031	0.204757038	0.080044398	-0.063921947	0
87	214373285	0.002233025	-0.011176981	-0.713008184	-0.701063063	0.196659539	0.094031886	-0.086298758	0
88	214389952	0.00227579	-0.011303148	-0.713065322	-0.701002786	0.214340033	0.081448445	-0.085059442	0
89	214406619	0.002321245	-0.01142442	-0.713116812	-0.700948291	0.208686119	0.090696875	-0.088598518	0
90	214423286	0.002369246	-0.011544568	-0.713166593	-0.700895513	0.197980404	0.065447743	-0.084301758	0
91	214439953	0.002422588	-0.011662063	-0.713214203	-0.700844938	0.195796861	0.079034386	-0.086517546	0
92	214456620	0.002471954	-0.011784924	-0.713257486	-0.700798661	0.213202043	0.074473335	-0.091798312	0
93	214473287	0.002521146	-0.01190515	-0.713308394	-0.700744637	0.213434745	0.078770562	-0.098781967	0
94	214489954	0.002569452	-0.012046359	-0.713355858	-0.70069373	0.218538376	0.069869072	-0.097085787	0
95	214506621	0.002622467	-0.012172003	-0.713406702	-0.700639596	0.211992978	0.078148936	-0.081035042	0
96	214523288	0.002673918	-0.012288113	-0.713449072	-0.70059423	0.210013726	0.065956561	-0.100926203	0
97	214539955	0.002731777	-0.012413594	-0.713494647	-0.700545379	0.212365838	0.084286035	-0.105810003	0
98	214556622	0.002788549	-0.012526877	-0.713542291	-0.700494611	0.221790989	0.063825477	-0.096902876	0
99	214573289	0.0028417	-0.012649953	-0.713591014	-0.700442552	0.234235663	0.05925496	-0.089593865	0
100	214589956	0.00288695	-0.012775948	-0.713635288	-0.700394972	0.210756349	0.087702069	-0.095251965	0
101	214606623	0.002946932	-0.012886571	-0.713676155	-0.700351053	0.225508744	0.068885419	-0.096413536	0
102	214623290	0.003012496	-0.013000656	-0.713710759	-0.700313402	0.231619942	0.074561267	-0.097422956	0
103	214639957	0.003054976	-0.013119154	-0.713750151	-0.70027086	0.236642331	0.072352157	-0.10952276	0
104	214656624	0.003106302	-0.013232238	-0.713788493	-0.700229423	0.225645198	0.089298949	-0.102463353	0
105	214673291	0.003154917	-0.013365613	-0.7138307	-0.700183647	0.228587507	0.078518906	-0.101866656	0
106	214689958	0.003215124	-0.013477187	-0.713869931	-0.700141236	0.226347498	0.085947722	-0.111766967	0
107	214706625	0.003268847	-0.013588964	-0.713904609	-0.700103466	0.239797364	0.079222739	-0.095994231	0
108	214723292	0.003325854	-0.013718656	-0.713941482	-0.700063067	0.235330092	0.093974127	-0.111722288	0
109	214739959	0.00337602	-0.013831152	-0.713978705	-0.70002265	0.236253158	0.073321063	-0.107984579	0
110	214756626	0.00343176	-0.013944096	-0.714010188	-0.699988026	0.223812099	0.097210756	-0.105384597	0
111	214773293	0.003494848	-0.014064902	-0.714042564	-0.699952271	0.23490853	0.0897553	-0.096718167	0
112	214789960	0.003556766	-0.014175654	-0.71408137	-0.699910135	0.24135465	0.075373807	-0.104165844	0
113	214806627	0.003620013	-0.014285829	-0.71411462	-0.699873646	0.243905671	0.083961024	-0.098309489	0
114	214823294	0.003680891	-0.014390685	-0.71414627	-0.699838884	0.226225182	0.078182871	-0.103500892	0
115	214839961	0.003736348	-0.014497724	-0.714176086	-0.699805955	0.247399767	0.089803042	-0.101135377	0
116	214856628	0.003802363	-0.014613178	-0.714203045	-0.699775683	0.24138324	0.080220812	-0.114487045	0
117	214873295	0.003865835	-0.014721251	-0.714234227	-0.699741245	0.244489105	0.087654616	-0.112427286	0
118	214889962	0.003922223	-0.014832478	-0.714263763	-0.699708432	0.244151786	0.074160146	-0.112852092	0
119	214906629	0.005077887	-0.00500252	-0.706643384	-0.707533969	0.013079938	0.078845932	-0.014793083	0
120	214923296	0.005073666	-0.004981487	-0.706639863	-0.707537665	-0.009117301	0.089558621	0.001421299	0
121	214939963	0.005067143	-0.004964731	-0.706641158	-0.707536536	-0.011048953	0.087935593	-0.009518867	0
122	214956630	0.005060452	-0.004935046	-0.706638925	-0.707539021	0.007921588	0.107573939	0.000779682	0
123	214973297	0.005045723	-0.004911111	-0.706641854	-0.707536368	-0.007976903	0.081586364	0.001543784	0
124	214989964	0.005031546	-0.004897877	-0.706639995	-0.707538417	-0.005661493	0.086134141	-0.012886383	0
125	215006631	0.005015194	-0.004882132	-0.706640591	-0.707538047	-0.001023386	0.10866842	-0.004651295	0
126	215023298	0.00500419	-0.004863809	-0.706639686	-0.707539155	-0.003875397	0.098094266	-0.007475693	0
127	215039965	0.004991684	-0.004847602	-0.706642369	-0.707536675	-0.008141174	0.09332921	-0.003278021	0
128	215056632	0.004971317	-0.004823295	-0.706642166	-0.707537187	-0.006716455	0.063997507	-0.015508307	0
129	215073299	0.004954267	-0.004806656	-0.706637264	-0.707542316	0.006083703	0.089187868	-0.014068376	0
130	215089966	0.004945008	-0.00478442	-0.706636548	-0.707543246	0.0015925	0.084480798	-0.006760053	0
131	215106633	0.004938914	-0.004765315	-0.706635158	-0.707544806	-0.007770064	0.098811326	0.00886566	0
132	215123300	0.004914978	-0.004742988	-0.706643772	-0.707536519	-0.006035333	0.091113144	-0.009401341	0
133	215139967	0.004894417	-0.004718133	-0.706646563	-0.707534041	-0.008128137	0.074856917	-0.007704256	0
134	215156634	0.004881031	-0.00470198	-0.706654224	-0.707526589	-0.006000518	0.100301583	-0.00485599	0
135	215173301	0.004864014	-0.004682778	-0.706651367	-0.707529688	0.001426682	0.080137839	-0.002436757	0
136	215189968	0.004851853	-0.004671145	-0.706659346	-0.707521879	-0.008704533	0.100406798	-0.005724736	0
137	215206635	0.004835626	-0.004659041	-0.706659282	-0.707522133	0.006777315	0.106354765	-0.008000058	0
138	215223302	0.004816278	-0.004643775	-0.706660892	-0.707520758	-0.001345583	0.081939192	-0.007626194	0
139	215239969	0.00480556	-0.004617553	-0.706657687	-0.707524204	0.005533922	0.099754579	0.004135724	0
140	215256636	0.00478882	-0.004610386	-0.70665855	-0.707523501	-0.007057102	0.110205563	-0.021508867	0
141	215273303	0.004778909	-0.004595144	-0.706658718	-0.7075235	-0.010114787	0.086902379	-0.00649806	0
142	215289970	0.004763046	-0.004578482	-0.70666153	-0.707520906	-0.001277773	0.098676577	-0.015787898	0
143	215306637	0.004754463	-0.004543586	-0.706661755	-0.707520964	0.002539419	0.099780168	0.002167019	0
144	215323304	0.004731502	-0.004517786	-0.706667236	-0.707515809	-0.010749428	0.079347382	-0.000803393	0
145	215339971	0.004716214	-0.004495253	-0.706668747	-0.707514546	-0.000513488	0.090349951	-0.007068289	0
146	215356638	0.004705223	-0.004475523	-0.706669451	-0.707514041	0.005229247	0.088090259	-0.003605384	0
147	215373305	0.004699895	-0.004467381	-0.706670976	-0.707512604	-0.002739042	0.088233108	0.016018921	0
148	215389972	0.004692199	-0.004451724	-0.706674935	-0.707508799	-0.005609782	0.078454437	0.006188553	0
149	215406639	0.004688416	-0.004435354	-0.706677321	-0.707506544	-0.003502591	0.093136194	0.017378512	0
150	215423306	0.004677095	-0.004427722	-0.70667618	-0.707507807	-0.015163718	0.088051097	-0.007835801	0
151	215439973	0.004663567	-0.004413848	-0.706679034	-0.707505132	-0.013648967	0.106498139	-0.001837635	0
152	215456640	0.004653295	-0.004396966	-0.706685694	-0.707498653	-0.005481187	0.078976958	-0.003579402	0
153	215473307	0.004648909	-0.004384116	-0.706683473	-0.707500979	-0.004036941	0.070481051	0.011328331	0
154	215489974	0.004629377	-0.004380258	-0.706689521	-0.70749509	-0.028686768	0.105152637	-0.012392296	0
155	215506641	0.004636319	-0.004337014	-0.706697808	-0.707487034	0.00497803	0.080423199	0.008009022	0
156	215523308	0.004613567	-0.004328226	-0.70670127	-0.707483778	-0.003585548	0.093197607	-0.012206633	0
157	215539975	0.004590355	-0.004318758	-0.706707262	-0.707478001	-0.009799625	0.075288545	-0.014478274	0
158	215556642	0.004574913	-0.004299218	-0.706705198	-0.707480282	-0.001022009	0.074896107	0.007274788	0
159	215573309	0.00453803	-0.004293092	-0.706701786	-0.707483965	0.010906695	0.081304921	-0.003829465	0
160	215589976	0.004537283	-0.004267717	-0.706704391	-0.707481522	-0.009335522	0.092936392	0.00824982	0
161	215606643	0.004515834	-0.004259933	-0.706704339	-0.707481757	-0.001191564	0.071732563	-0.003837654	0
162	215623310	0.004496035	-0.004260702	-0.706709092	-0.707477131	0.006009321	0.104216753	-0.002679741	0
163	215639977	0.004482412	-0.004233877	-0.706712424	-0.707474051	-0.011665045	0.11068944	-0.010986403	0
164	215656644	0.004477018	-0.00421836	-0.706708601	-0.707477996	-0.010131144	0.075107811	0.003489372	0
165	215673311	0.004456223	-0.004203587	-0.706710313	-0.707476505	-0.004912016	0.103478207	0.003074376	0
166	215689978	0.004451009	-0.00418788	-0.706716561	-0.70747039	-0.0074855	0.094838476	0.00075568	0
167	215706645	0.004431447	-0.004167093	-0.706714885	-0.70747231	-0.017633158	0.082069695	-0.012483106	0
168	215723312	0.00442346	-0.004148882	-0.706713057	-0.707474292	0.008107703	0.094414007	-0.007915033	0
169	215739979	0.004421138	-0.004134783	-0.706710473	-0.707476971	0.005543035	0.09370951	-0.008043547	0
170	215756646	0.004411761	-0.004133698	-0.706710881	-0.707476629	0.003599696	0.085317094	-0.005220231	0
171	215773313	0.004405947	-0.004121281	-0.706707224	-0.70748039	-0.007875405	0.078464728	-0.000386326	0
172	215789980	0.004404192	-0.004110635	-0.706708247	-0.707479441	0.016818701	0.06102599	-0.007101891	0
173	215806647	0.0043817	-0.004107889	-0.706707262	-0.70748058	0.007237967	0.116445368	-0.012048588	0
174	215823314	0.004372852	-0.00410582	-0.70671538	-0.707472538	0.004959006	0.107860152	0.00038952	0
175	215839981	0.00437209	-0.004094794	-0.706716699	-0.707471289	0.000522975	0.10403398	0.004235203	0
176	215856648	0.004357599	-0.004089426	-0.706712861	-0.707475243	-0.003619317	0.103898658	-0.004395858	0
177	215873315	0.004348197	-0.004082349	-0.706705444	-0.707482751	-0.005446208	0.09739615	0.000602386	0
178	215889982	0.00433829	-0.004080879	-0.706706166	-0.707482099	0.001912966	0.082378739	0.003819866	0
179	215906649	0.004326833	-0.004074491	-0.706713627	-0.707474753	0.008372702	0.083919372	0.000260016	0
180	215923316	0.004326016	-0.004070379	-0.706718488	-0.707469927	0.01092647	0.080745286	0.000493785	0
181	215939983	0.004321269	-0.004058953	-0.706720109	-0.707468401	0.005802612	0.091990369	-0.005945302	0
182	215956650	0.004315203	-0.004041452	-0.706719933	-0.707468714	-0.000570257	0.092021509	0.001157051	0
183	215973317	0.00430093	-0.004020279	-0.706719424	-0.707469431	-0.008605575	0.094323031	-0.010162548	0
184	215989984	0.004292269	-0.004008264	-0.706722793	-0.707466186	0.006197991	0.084832669	-0.022516058	0
185	216006651	0.004284046	-0.004003947	-0.706727787	-0.707461272	-0.00904701	0.092070004	0.003635369	0
186	216023318	0.004286472	-0.003999683	-0.706723376	-0.707465687	-0.009954949	0.094943891	-0.008151833	0
187	216039985	0.004278353	-0.003985281	-0.706724396	-0.707464799	-0.003147457	0.101106915	-0.003235754	0
188	216056652	0.00427519	-0.003970752	-0.706726866	-0.707462432	-0.013072189	0.091417659	-0.000109716	0
189	216073319	0.004262184	-0.003959252	-0.706729692	-0.707459751	-0.006226062	0.102185054	0.002318972	0
190	216089986	0.00424592	-0.003945622	-0.706726195	-0.707463419	-0.002027863	0.084242457	-0.008624467	0
191	216106653	0.004232165	-0.003930652	-0.706727073	-0.707462708	-0.006701839	0.068668134	-0.001522856	0
192	216123320	0.004226984	-0.003917082	-0.706723112	-0.707466771	0.002008971	0.087977463	-0.006410072	0
193	216139987	0.004219659	-0.003902803	-0.706721808	-0.707468197	-0.007053581	0.111826525	-0.011539298	0
194	216156654	0.00421648	-0.00388511	-0.706720502	-0.707469617	-0.002452389	0.09673782	-0.006354617	0
195	216173321	0.004202177	-0.003884834	-0.706724556	-0.707465654	-0.005800225	0.076274874	-0.006940927	0
196	216189988	0.004192199	-0.003879976	-0.706725856	-0.707464441	-0.003960735	0.064193473	-0.007742935	0
197	216206655	0.004182598	-0.003873272	-0.70672609	-0.707464301	-0.007436619	0.094888216	-0.005292639	0
198	216223322	0.004175401	-0.003857355	-0.706727744	-0.707462779	0.007355545	0.066502813	-0.006210031	0
199	216239989	0.004159082	-0.003858159	-0.706723639	-0.707466971	-0.015275318	0.084329984	-0.01453964	0
200	216256656	0.004149168	-0.003851151	-0.706719849	-0.707470853	0.004492272	0.081729268	0.007761656	0
201	216273323	0.004142559	-0.003848677	-0.706726696	-0.707464066	-0.004167946	0.108372791	-0.000756679	0
202	216289990	0.004140652	-0.003851799	-0.706725172	-0.707465582	-0.002587992	0.085939769	-0.001283026	0
203	216306657	0.004142513	-0.003841862	-0.706723597	-0.707467199	-0.004326024	0.083033252	-0.012232002	0
204	216323324	0.004124529	-0.003830112	-0.706719981	-0.70747098	0.005402067	0.09552028	-0.013332186	0
205	216339991	0.004110103	-0.003822671	-0.706715836	-0.707475245	0.01111974	0.094939554	0.00301245	0
206	216356658	0.004102546	-0.003813474	-0.706718833	-0.707472344	0.007027945	0.099981313	-0.013368808	0
207	216373325	0.004104819	-0.003798911	-0.706720004	-0.707471239	0.005326049	0.085483546	0.003088011	0
208	216389992	0.004096486	-0.003788036	-0.706721908	-0.707469444	-0.004832767	0.094043761	-0.010932692	0
209	216406659	0.004099485	-0.003770822	-0.706719325	-0.707472099	-0.00218849	0.087684776	-0.006382384	0
210	216423326	0.004094161	-0.003761264	-0.706718096	-0.707473408	-0.0067476	0.093575994	0.008226115	0
211	216439993	0.004083805	-0.00375321	-0.70671475	-0.707476853	-0.015562622	0.104511421	-0.002315746	0
212	216456660	0.00407382	-0.003737607	-0.706716243	-0.707475503	0.003262146	0.094891659	-0.018109178	0
213	216473327	0.004059312	-0.003735211	-0.706713457	-0.707478381	0.001358148	0.090939855	0.005594853	0
214	216489994	0.004053141	-0.003732437	-0.706714868	-0.707477022	-0.003634858	0.092332047	-0.004245105	0
215	216506661	0.00404903	-0.003719937	-0.706710534	-0.707481441	-0.000140053	0.087434365	0.00123769	0
216	216523328	0.004057112	-0.003713988	-0.706713695	-0.707478268	-0.008548952	0.08392651	0.000388935	0
217	216539995	0.004039304	-0.003705834	-0.706710259	-0.707481845	-0.001921249	0.088902334	-0.011968097	0
218	216556662	0.004036884	-0.003696328	-0.706711863	-0.707480306	-0.001017245	0.098186482	-0.007377546	0
219	216573329	0.004025498	-0.003686601	-0.706708839	-0.707483442	0.004466643	0.086910633	0.001633106	0
220	216589996	0.004022085	-0.003685874	-0.706708223	-0.707484081	-0.014279528	0.095900525	-0.000818757	0
221	216606663	0.004016594	-0.003672607	-0.706705478	-0.707486923	-0.002628386	0.097006422	-0.005901948	0
222	216623330	0.004010244	-0.003678756	-0.706703134	-0.707489268	-0.012453488	0.079723442	0.001654005	0
223	216639997	0.003997887	-0.00365862	-0.70670865	-0.707483933	-0.003743484	0.102598468	-0.007004791	0
224	216656664	0.004001701	-0.003640934	-0.706714136	-0.707478523	-0.002735513	0.096098703	0.003373238	0
225	216673331	0.003994661	-0.003629854	-0.706715698	-0.707477059	0.001123185	0.09723942	-0.002869503	0
226	216689998	0.003980851	-0.003617342	-0.706718123	-0.707474778	0.004578873	0.09129479	0.002648647	0
227	216706665	0.003977867	-0.003621841	-0.706717513	-0.707475381	-0.006079559	0.096344001	-0.01074854	0
228	216723332	0.003975319	-0.003598804	-0.706720928	-0.707472102	0.003303468	0.080874457	0.003464187	0
229	216739999	0.003964345	-0.003591116	-0.706723536	-0.707469598	0.003044548	0.118183457	-0.020356776	0
230	216756666	0.003963324	-0.003583647	-0.706721958	-0.707471218	0.004344864	0.080270303	-0.009903663	0
231	216773333	0.003952175	-0.003571528	-0.706723971	-0.707469331	-0.015918923	0.117425501	-0.006649988	0
232	216790000	0.00394498	-0.00357545	-0.70672432	-0.707469002	-0.001129643	0.087033144	0.006849716	0
233	216806667	0.003938023	-0.003563968	-0.706726792	-0.70746663	-0.010266064	0.098662115	-0.003899551	0
234	216823334	0.003924569	-0.003555233	-0.706727778	-0.707465763	0.013886663	0.09798373	-0.02441871	0
235	216840001	0.003916808	-0.003556763	-0.706730882	-0.707462697	-0.010520679	0.087093284	-0.004062966	0
236	216856668	0.003920534	-0.003546093	-0.706729596	-0.707464015	-0.002459957	0.075182715	-0.00191415	0
237	216873335	0.003922018	-0.003535734	-0.7067265	-0.707467151	0.002246379	0.110715145	-0.003531789	0
238	216890002	0.003919019	-0.003522546	-0.70672597	-0.707467763	-0.013983732	0.095935497	-0.008820346	0
239	216906669	0.003804366	-0.003646242	-0.706710872	-0.707482844	-0.008436215	0.090341814	0.017343233	0
240	216923336	0.003797519	-0.003646219	-0.706711922	-0.707481832	0.000934019	0.088857074	0.006885746	0
241	216940003	0.003792677	-0.003631622	-0.706713818	-0.707480039	-0.010124244	0.083900347	-0.004566411	0
242	216956670	0.0037802	-0.003625824	-0.706712169	-0.707481784	-0.000941444	0.083339495	-0.007832667	0
243	216973337	0.003773983	-0.003616234	-0.706708658	-0.707485373	-0.001058936	0.076854516	-0.013866635	0
244	216990004	0.003772958	-0.003612589	-0.706707087	-0.707486966	-0.004983172	0.09439139	0.007223012	0
245	217006671	0.003774851	-0.003602303	-0.706711217	-0.707482883	-0.002970893	0.097337593	-0.002219508	0
246	217023338	0.003767216	-0.00359903	-0.706709672	-0.707484483	-0.013572967	0.073301571	-0.004800036	0
247	217040005	0.003755671	-0.003587524	-0.706703966	-0.707490303	-0.006360478	0.091636966	-0.005832223	0
248	217056672	0.003749886	-0.003583815	-0.706709112	-0.707485213	-0.015544693	0.067667674	-0.00207374	0
249	217073339	0.003749382	-0.00356977	-0.706716853	-0.707477553	-0.005350514	0.075866599	-0.005525634	0
250	217090006	0.003747104	-0.003566772	-0.706717523	-0.707476912	-0.008627317	0.095242013	-0.003271351	0
251	217106673	0.003737067	-0.003555319	-0.706720003	-0.707474545	-0.005923785	0.095062137	0.000552095	0
252	217123340	0.003732115	-0.003553589	-0.706722635	-0.707471951	-0.00280542	0.085928432	0.01063709	0
253	217140007	0.003723938	-0.003548975	-0.706723563	-0.707471089	-0.004566654	0.085718394	-0.012035816	0
254	217156674	0.003718618	-0.003527816	-0.706723175	-0.70747161	-0.004520539	0.103167426	0.004431133	0
255	217173341	0.00372202	-0.003512962	-0.706723098	-0.707471744	0.00285544	0.092844249	0.007805187	0
256	217190008	0.0037163	-0.003511505	-0.706729056	-0.707465829	-0.001970242	0.10650018	-4.95E-05	0
257	217206675	0.003709304	-0.003509715	-0.706727626	-0.707467303	-0.005159759	0.090184697	-0.000866642	0
258	217223342	0.003709951	-0.003500947	-0.706727062	-0.707467907	-0.015721912	0.073521926	-0.009148897	0
259	217240009	0.003708537	-0.003499267	-0.706724693	-0.707470289	-0.015910999	0.114983059	-0.004743398	0
260	217256676	0.003705656	-0.003489268	-0.706723894	-0.707471152	-0.007025619	0.086438	0.006331169	0
261	217273343	0.003697738	-0.003483406	-0.70672721	-0.70746791	-0.004694904	0.102136015	0.002018437	0
262	217290010	0.003691212	-0.003479024	-0.706727507	-0.707467668	-0.014380818	0.102370144	-0.008421451	0
263	217306677	0.003688881	-0.003476923	-0.706725578	-0.707469618	0.003926125	0.097989691	0.006005033	0
264	217323344	0.00368114	-0.0034779	-0.706719849	-0.707475377	-0.000912153	0.100770144	0.001462542	0
265	217340011	0.003674666	-0.003474069	-0.706715813	-0.707479461	0.00685214	0.089915355	0.002624128	0
266	217356678	0.003677691	-0.003466393	-0.706714671	-0.707480624	0.00238823	0.098996084	-0.000982825	0
267	217373345	0.003678714	-0.003457032	-0.706706791	-0.707488535	0.005388124	0.102372515	-0.003918644	0
268	217390012	0.003669273	-0.003449234	-0.706708845	-0.707486571	0.001445212	0.099863343	-0.010192337	0
269	217406679	0.003663935	-0.003445478	-0.706711217	-0.707484247	-0.000803748	0.073927024	0.004086729	0
270	217423346	0.003657883	-0.003440227	-0.706709168	-0.70748635	-0.001961163	0.087970824	0.000300425	0
271	217440013	0.003652051	-0.003437388	-0.706717084	-0.707478488	-0.009152268	0.104889818	0.002002182	0
272	217456680	0.003652362	-0.003436374	-0.70672319	-0.707472391	0.000143637	0.090365392	-0.016072997	0
273	217473347	0.003637719	-0.003432574	-0.706717556	-0.707478113	-0.003408623	0.087675208	-0.008040326	0
274	217490014	0.003629499	-0.003426914	-0.706715874	-0.707479863	-0.009021513	0.087105497	0.004992382	0
275	217506681	0.003622994	-0.003425459	-0.706715054	-0.707480722	0.001736443	0.092283662	-0.003407304	0
276	217523348	0.003615468	-0.003423479	-0.706717012	-0.707478814	-0.007981405	0.087871775	0.002294861	0
277	217540015	0.003620393	-0.003411143	-0.70672359	-0.707472278	-0.011515081	0.11161587	-0.001942741	0
278	217556682	0.003617262	-0.003413042	-0.706724048	-0.707471828	-0.004224027	0.073307796	-0.0063082	0
279	217573349	0.003606347	-0.003408226	-0.706725015	-0.707470941	-0.001638899	0.083327275	-0.014807772	0
280	217590016	0.003592348	-0.003399809	-0.706723519	-0.707472547	-0.019620086	0.109856331	-0.005520031	0
281	217606683	0.003576391	-0.003385803	-0.706719392	-0.707476817	-0.003847333	0.097496448	0.002280035	0
282	217623350	0.003557902	-0.003380187	-0.706719893	-0.707476437	0.016049439	0.090830743	-0.013125079	0
283	217640017	0.003545884	-0.003377765	-0.706716379	-0.707480019	-0.001816075	0.101648332	-0.003863032	0
284	217656684	0.003544644	-0.003371332	-0.706715967	-0.707480467	-0.009893722	0.095803372	-0.012811049	0
285	217673351	0.003539094	-0.003360926	-0.706712029	-0.707484479	-0.00130412	0.086860113	-0.004106096	0
286	217690018	0.003532569	-0.003359545	-0.706710212	-0.707486333	-0.002499422	0.077656412	0.004144005	0
287	217706685	0.003527256	-0.003347138	-0.706707757	-0.70748887	0.005636372	0.078471951	-0.00282611	0
288	217723352	0.003528142	-0.003347572	-0.706711182	-0.707485442	0.006945722	0.087821277	0.003128187	0
289	217740019	0.003519927	-0.003338239	-0.706709982	-0.707486726	-0.00236852	0.083335517	-0.002768559	0
290	217756686	0.00351135	-0.003338063	-0.7067068	-0.707489948	-0.017582813	0.085050888	-0.004029822	0
291	217773353	0.003503802	-0.003325539	-0.706709136	-0.707487711	-0.008576711	0.100017912	0.012515277	0
292	217790020	0.003484372	-0.003327022	-0.706709132	-0.707487804	-0.005884816	0.090922356	0.011869476	0
293	217806687	0.003472177	-0.003324395	-0.706708972	-0.707488036	-0.001496744	0.107958352	0.004508066	0
294	217823354	0.003468046	-0.003308414	-0.706704168	-0.70749293	0.00118327	0.100807825	-0.010525905	0
295	217840021	0.00346279	-0.003300548	-0.706704067	-0.707493093	0.000666538	0.091289446	-0.011699565	0
296	217856688	0.003467488	-0.003294324	-0.706705512	-0.707491656	-0.012355328	0.078742473	-0.003011941	0
297	217873355	0.003465866	-0.003292009	-0.706703721	-0.707493464	-0.00123359	0.084102583	-0.003585847	0
298	217890022	0.003468935	-0.003293403	-0.706706147	-0.707491019	-0.006822032	0.082037123	0.000992547	0
299	217906689	0.003465688	-0.00329631	-0.70669678	-0.707500378	-0.013944706	0.075586171	0.001499135	0
300	217923356	0.003459037	-0.003296333	-0.706692968	-0.707504218	-0.000269545	0.097988687	-0.000479392	0
301	217940023	0.003452486	-0.003290943	-0.706693126	-0.707504117	-0.017993228	0.080396954	-0.002048251	0
302	217956690	0.003438871	-0.003287598	-0.706692174	-0.70750515	0.006066603	0.07954074	-0.003420904	0
303	217973357	0.00342972	-0.003289789	-0.706687728	-0.707509625	0.00494462	0.098241368	-0.011861661	0
304	217990024	0.003425716	-0.003296435	-0.706692762	-0.707504585	0.015116867	0.086033161	-0.019453565	0
305	218006691	0.003414668	-0.00329579	-0.706696625	-0.707500783	-0.003871211	0.08130664	-0.00988231	0
306	218023358	0.003414064	-0.00330012	-0.706706732	-0.70749067	-0.012588584	0.085553147	-0.009436867	0
307	218040025	0.003417064	-0.003296513	-0.706711982	-0.707485428	0.000243655	0.10400664	0.001081468	0
308	218056692	0.003406392	-0.003300641	-0.706711565	-0.707485877	-0.005590413	0.085045755	-0.016299924	0
309	218073359	0.003401145	-0.003293441	-0.70670824	-0.707489258	-0.001813616	0.110589251	-0.005558763	0
310	218090026	0.003399664	-0.003286912	-0.70670982	-0.707487716	-0.024712586	0.091267413	0.005406555	0
311	218106693	0.003405433	-0.003275575	-0.706709795	-0.707487767	-0.011076143	0.097489947	-0.000543727	0
312	218123360	0.003394009	-0.003275023	-0.706705895	-0.707491719	-0.004192366	0.104563253	-0.001856088	0
313	218140027	0.003381709	-0.003274683	-0.70670138	-0.70749629	0.005147865	0.111073513	-0.000977825	0
314	218156694	0.003381299	-0.003272202	-0.706703285	-0.707494401	-0.001324106	0.095518422	-0.000400787	0
315	218173361	0.003371229	-0.003261546	-0.706704452	-0.707493332	-0.005641399	0.097362007	0.006591942	0
316	218190028	0.003369326	-0.003265006	-0.706706408	-0.707491371	0.000878826	0.107490006	-0.001065259	0
317	218206695	0.003375522	-0.003263412	-0.70670486	-0.707492895	-0.008730067	0.078457654	0.003279889	0
318	218223362	0.003370577	-0.003254984	-0.706700748	-0.707497065	-0.008736327	0.096690587	0.000158527	0
319	218240029	0.003363228	-0.003247419	-0.706698119	-0.707499761	-0.014489384	0.08309688	-0.000627805	0
320	218256696	0.0033519	-0.003237811	-0.706701945	-0.707496036	-0.014290352	0.099315367	0.004258725	0
321	218273363	0.0033364	-0.003230907	-0.706708229	-0.707489865	-0.006012957	0.094370835	0.004449608	0
322	218290030	0.003331252	-0.003230518	-0.706713823	-0.707484303	-0.00884347	0.078554512	-0.011895895	0
323	218306697	0.003328819	-0.003229952	-0.70671301	-0.707485129	0.014387209	0.106877774	0.005788368	0
324	218323364	0.003319864	-0.003226729	-0.706715791	-0.707482407	-0.012714361	0.077284478	0.000624493	0
325	218340031	0.00330948	-0.003223718	-0.706716322	-0.707481939	-0.010004298	0.096400107	0.012326063	0
326	218356698	0.00330531	-0.003221284	-0.706712177	-0.707486111	-0.011535611	0.074060007	-0.000762402	0
327	218373365	0.003288567	-0.003218106	-0.706705726	-0.707492647	-0.007425381	0.104645055	0.003460238	0
328	218390032	0.003278452	-0.003209446	-0.706712393	-0.707486074	-0.015233447	0.078688279	0.006037567	0
329	218406699	0.003266817	-0.003204552	-0.70671194	-0.707486602	-0.005190884	0.075866209	0.011411088	0
330	218423366	0.003261816	-0.003201259	-0.706707029	-0.707491546	0.003675661	0.0893539	-0.006002722	0
331	218440033	0.003252886	-0.00321084	-0.706703974	-0.707494596	-0.015621186	0.092347305	0.003409849	0
332	218456700	0.003238607	-0.003208794	-0.706706698	-0.707491949	-0.000686854	0.082570614	0.008122058	0
333	218473367	0.003243627	-0.003198014	-0.706708709	-0.707489967	-0.010832588	0.098480107	0.00561874	0
334	218490034	0.0032456	-0.003210718	-0.706715245	-0.707483371	-0.009804165	0.080124565	-0.008866047	0
335	218506701	0.003234691	-0.003205589	-0.706719325	-0.707479368	-0.001701793	0.065059308	-0.005015477	0
336	218523368	0.003229165	-0.003204761	-0.706721812	-0.707476913	0.000211113	0.109163878	0.004869108	0
337	218540035	0.003214115	-0.003201367	-0.706718795	-0.707480011	-0.004637412	0.084921356	0.002207024	0
338	218556702	0.003207819	-0.003202555	-0.706712747	-0.707486075	0.006077158	0.082553695	0.002829201	0
339	218573369	0.003209171	-0.003205766	-0.706713521	-0.707485281	-0.009043941	0.104565222	-0.01093871	0
340	218590036	0.003197384	-0.003193537	-0.706715904	-0.70748301	-0.008136127	0.096741533	-0.005973674	0
341	218606703	0.003201355	-0.003184523	-0.706720595	-0.707478346	0.003663574	0.07043278	0.009778948	0
342	218623370	0.003196184	-0.003192152	-0.706720145	-0.707478785	0.001028988	0.099979532	0.002597435	0
343	218640037	0.003201225	-0.00318183	-0.706721875	-0.70747708	0.004969968	0.104826641	0.00935771	0
344	218656704	0.003197527	-0.003175876	-0.70672354	-0.707475461	0.002049191	0.079736087	0.001571393	0
345	218673371	0.003193457	-0.003167655	-0.706720658	-0.707478395	-0.009904703	0.098436179	0.003483775	0
346	218690038	0.003189397	-0.003159393	-0.706722926	-0.707476185	-0.023837061	0.096471201	0.014976307	0
347	218706705	0.003187656	-0.003164176	-0.706726107	-0.707472993	-0.003220269	0.103475937	-0.000379482	0
348	218723372	0.003185529	-0.003155177	-0.706725186	-0.707473964	0.00076874	0.105916576	-0.007641632	0
349	218740039	0.003189889	-0.003151881	-0.706727832	-0.707471315	-0.016186111	0.100306505	-0.00523314	0
350	218756706	0.003182755	-0.00314046	-0.706730662	-0.707468571	0.00821408	0.08738884	0.002453231	0
351	218773373	0.003191861	-0.003132941	-0.706731693	-0.707467533	-0.000978641	0.078841701	-0.013328306	0
352	218790040	0.003184058	-0.00312534	-0.706741341	-0.707457965	0.003887471	0.069971744	0.009091671	0
353	218806707	0.00318935	-0.003120741	-0.70674432	-0.707454985	-0.002437646	0.084721635	0.003543539	0
354	218823374	0.003182498	-0.0031273	-0.706742845	-0.70745646	-0.01338637	0.089690354	-0.003905229	0
355	218840041	0.003185066	-0.003119227	-0.706745828	-0.707453504	-0.012799832	0.088585855	-0.003949683	0
356	218856708	0.003162233	-0.003121381	-0.706752078	-0.707447353	0.00412577	0.083821513	0.006830793	0
357	218873375	0.003149657	-0.003127305	-0.706753871	-0.707445592	-0.00929082	0.096418559	-0.006240893	0
358	218890042	0.003148072	-0.003133016	-0.706750798	-0.707448644	-0.005697676	0.09007779	-0.005281099	0
359	218906709	0.0031993	-0.003097406	-0.706742373	-0.707456987	-0.013415311	0.093102062	-0.006127754	0
360	218923376	0.003197761	-0.003097969	-0.706742381	-0.707456984	0.00751421	0.074205325	-0.000760856	0
361	218940043	0.003195128	-0.003104406	-0.706745317	-0.707454034	-0.004031589	0.092324744	-0.000933446	0
362	218956710	0.003188988	-0.003113933	-0.706750051	-0.707449291	0.002207113	0.099860964	-0.013038691	0
363	218973377	0.003188418	-0.003118952	-0.706748954	-0.707450368	-0.012503669	0.090266513	-0.004304294	0
364	218990044	0.003187241	-0.003112095	-0.706751544	-0.707447815	-0.012128001	0.080836745	-0.005542894	0
365	219006711	0.003181836	-0.003101806	-0.706749473	-0.707449954	-0.005091986	0.07926906	0.002719273	0
366	219023378	0.00317711	-0.003089606	-0.706751336	-0.707448167	0.000251418	0.100448168	-0.013010534	0
367	219040045	0.003169784	-0.003086101	-0.706751253	-0.707448298	-0.001931825	0.084932154	-0.006775133	0
368	219056712	0.003164631	-0.003098013	-0.706757771	-0.707441758	-0.002691323	0.095488616	0.012537413	0
369	219073379	0.003156073	-0.003092054	-0.706762825	-0.707436773	-0.003498927	0.071133544	0.010792185	0
370	219090046	0.003152861	-0.003090442	-0.706763825	-0.707435795	-0.003880176	0.097509456	-0.013409213	0
371	219106713	0.003145789	-0.003084598	-0.70676219	-0.707437485	-0.003498423	0.08302082	-0.011879689	0
372	219123380	0.003142321	-0.003075537	-0.706773009	-0.707426732	-0.002318229	0.126798118	-0.013020826	0
373	219140047	0.003138307	-0.003069266	-0.706776009	-0.707423779	-0.002550686	0.092910558	-0.001033853	0
374	219156714	0.003125811	-0.003064716	-0.706772458	-0.707427402	-0.002663919	0.094892088	-0.011068903	0
375	219173381	0.00312178	-0.003045839	-0.706769668	-0.707430289	0.010339547	0.086654167	-0.0044081	0
376	219190048	0.003110208	-0.003047111	-0.70677121	-0.707428794	-0.005090173	0.09769514	0.000831254	0
377	219206715	0.003112797	-0.003061116	-0.706770679	-0.707429252	0.006367279	0.107502068	0.001457615	0
378	219223382	0.003118017	-0.003057838	-0.706765379	-0.707434539	0.001817672	0.084782765	-0.00501706	0
379	219240049	0.003112765	-0.003047796	-0.70676364	-0.707436343	-0.009916996	0.098118507	0.003433036	0
380	219256716	0.003110412	-0.003040808	-0.706766511	-0.707433515	-0.001286518	0.09385781	-0.003163604	0
381	219273383	0.003102309	-0.003026923	-0.706760281	-0.707439834	0.001628878	0.091894809	-0.011377774	0
382	219290050	0.003090763	-0.003018848	-0.706758044	-0.707442154	-0.012525452	0.086221123	-0.015407709	0
383	219306717	0.003082206	-0.003012819	-0.70675723	-0.70744303	0.010432584	0.101035638	-0.00045946	0
384	219323384	0.003076958	-0.003009474	-0.706760538	-0.707439763	-0.001250609	0.090752491	-0.006906839	0
385	219340051	0.003068612	-0.003006769	-0.706755991	-0.707444352	-0.003310354	0.094143397	0.003185597	0
386	219356718	0.003075483	-0.002998699	-0.706753022	-0.707447323	0.001199417	0.096350203	-0.011972134	0
387	219373385	0.00306475	-0.003000772	-0.706746581	-0.707453796	-0.000823605	0.075506301	-0.006795583	0
388	219390052	0.003053497	-0.003010063	-0.70674502	-0.707455365	-0.012428748	0.064239584	-0.001702813	0
389	219406719	0.003050264	-0.003008356	-0.706744824	-0.707455581	-0.006572277	0.102981136	0.00201952	0
390	219423386	0.00305355	-0.00299356	-0.706739044	-0.707461404	-0.009542925	0.073965866	-0.009888558	0
391	219440053	0.003052299	-0.002998695	-0.706744619	-0.707455818	0.00260652	0.098156875	-0.002553591	0
392	219456720	0.003045189	-0.002997162	-0.706743366	-0.707457107	0.008289653	0.083983854	-0.004588955	0
393	219473387	0.003038558	-0.002995294	-0.706746394	-0.707454119	0.001469813	0.087659524	0.000439265	0
394	219490054	0.003034554	-0.002995067	-0.706748101	-0.707452432	-0.005337368	0.08839545	-0.001522226	0
395	219506721	0.003034878	-0.002999493	-0.706753012	-0.707447505	0.004172287	0.082075805	-0.005317463	0
396	219523388	0.003033936	-0.002996882	-0.706755817	-0.707444718	0.001610939	0.077342406	0.004626765	0
397	219540055	0.003030074	-0.002992187	-0.706757218	-0.707443355	-0.001704638	0.072662157	0.002115011	0
398	219556722	0.003026639	-0.00299485	-0.706749176	-0.707451393	-0.002601276	0.093009982	0.003743414	0
399	219573389	0.003016416	-0.002999891	-0.70675086	-0.707449732	-0.002220953	0.078634097	-0.013345616	0
400	219590056	0.003016985	-0.00300326	-0.706755244	-0.707445335	-0.001589797	0.097410901	0.013966676	0
401	219606723	0.003020851	-0.002994478	-0.706758638	-0.707441966	-0.004252718	0.089882986	-0.000243121	0
402	219623390	0.003024616	-0.002979134	-0.706759051	-0.707441602	-0.003780762	0.085090981	0.005376327	0
403	219640057	0.003020841	-0.002989284	-0.706765418	-0.707435214	-0.005582445	0.091328199	0.002264163	0
404	219656724	0.003024893	-0.002990583	-0.70677003	-0.707430584	-0.00556145	0.089059697	0.007062737	0
405	219673391	0.00301853	-0.002982151	-0.706769544	-0.707431132	-0.001063193	0.084148058	-0.007791758	0
406	219690058	0.003009755	-0.002982189	-0.70677922	-0.707421503	-0.002482539	0.076897306	0.005535046	0
407	219706725	0.003007382	-0.002976078	-0.706781544	-0.707419217	-0.009664442	0.102179871	-0.005000524	0
408	219723392	0.003004177	-0.002974048	-0.706776988	-0.70742379	0.008492405	0.098094477	-0.006386687	0
409	219740059	0.003002118	-0.002966138	-0.706781093	-0.707419731	0.000211253	0.077633474	-0.010086504	0
410	219756726	0.003000228	-0.002962337	-0.706780423	-0.707420424	-0.007768139	0.074358727	-0.002267673	0
411	219773393	0.002985772	-0.002961866	-0.706780295	-0.707420616	-0.01085965	0.095530515	-0.005588403	0
412	219790060	0.002979668	-0.002947031	-0.70678137	-0.707419629	-0.009920954	0.093717036	0.000173638	0
413	219806727	0.002987464	-0.002934912	-0.706780913	-0.707420103	0.001931631	0.084473769	1.29E-05	0
414	219823394	0.002979075	-0.002934324	-0.706782007	-0.707419048	0.00673198	0.082876182	-0.001606228	0
415	219840061	0.002976695	-0.002938925	-0.706784916	-0.707416132	-0.014065802	0.109535127	-0.002768691	0
416	219856728	0.002977781	-0.002932608	-0.70677796	-0.707423104	-0.006863534	0.11935454	-0.005941725	0
417	219873395	0.002974244	-0.002926667	-0.7067804	-0.707420706	-0.008891603	0.10209041	-0.005368363	0
418	219890062	0.002968429	-0.002920329	-0.706785827	-0.707415334	0.005936015	0.09557547	-0.005037343	0
419	219906729	0.002959932	-0.002908453	-0.706787274	-0.707413973	-0.003951015	0.100421978	0.001803127	0
420	219923396	0.002955637	-0.002901505	-0.706787477	-0.707413817	-0.003210964	0.088599392	0.001714119	0
421	219940063	0.002958681	-0.002899544	-0.706791462	-0.707409831	-0.000128087	0.078555078	-0.01193158	0
422	219956730	0.002964614	-0.002901292	-0.706793877	-0.707407385	0.001015101	0.09475574	-0.014794602	0
423	219973397	0.002963347	-0.002896646	-0.706794036	-0.707407251	-0.006971664	0.099995886	0.002297606	0
424	219990064	0.002964548	-0.002891392	-0.706793363	-0.70740794	-0.005219048	0.082249963	0.004550627	0
425	220006731	0.002976497	-0.002888653	-0.706796116	-0.70740515	-0.018028341	0.100268689	0.002672952	0
426	220023398	0.002974416	-0.002887679	-0.706796802	-0.707404478	0.002551954	0.097790634	0.002711253	0
427	220040065	0.002976465	-0.002882047	-0.70679464	-0.707406652	0.005429938	0.096466532	0.009127541	0
428	220056732	0.002976008	-0.002879882	-0.70679498	-0.707406323	-0.002401084	0.102647038	-0.004977348	0
429	220073399	0.002980537	-0.002879764	-0.706792119	-0.707409163	0.004842403	0.102983364	-0.00233797	0
430	220090066	0.002982138	-0.002873466	-0.706791135	-0.707410165	-0.004095527	0.102272555	0.000925565	0
431	220106733	0.002975862	-0.002869792	-0.706785095	-0.707416241	-0.001228864	0.107861394	-0.003213342	0
432	220123400	0.002975152	-0.002867136	-0.706785215	-0.707416135	0.000640911	0.098249006	0.000632022	0
433	220140067	0.0029757	-0.00286929	-0.706787419	-0.707413922	0.013341625	0.091708039	0.003493428	0
434	220156734	0.002971495	-0.002859927	-0.70678247	-0.707418922	-0.004071097	0.09654612	-0.001650345	0
435	220173401	0.002970093	-0.002841277	-0.706788096	-0.707413382	-0.020385246	0.085391895	-0.011502201	0
436	220190068	0.002968827	-0.002839319	-0.706789011	-0.707412481	-0.008699954	0.084359155	0.005849737	0
437	220206735	0.002978892	-0.002838632	-0.706791032	-0.707410423	-0.001502842	0.082142225	0.003656501	0
438	220223402	0.002971812	-0.002835686	-0.706784536	-0.707416954	0.002530123	0.091913045	-0.005617285	0
439	220240069	0.002972394	-0.002826332	-0.706784599	-0.707416926	-0.005832844	0.09776364	-0.00618077	0
440	220256736	0.002968351	-0.00282916	-0.706776884	-0.70742464	-0.020868994	0.100457834	0.004314528	0
441	220273403	0.002969987	-0.002829585	-0.706777586	-0.70742393	0.008405054	0.101244216	-0.00780913	0
442	220290070	0.00296854	-0.002827078	-0.706775366	-0.707426164	-0.001149435	0.096334412	0.006062608	0
443	220306737	0.002959288	-0.002831241	-0.706776538	-0.707425015	-0.008579457	0.079415518	-0.00495108	0
444	220323404	0.002957904	-0.002834194	-0.706774493	-0.707427052	0.001567444	0.091123699	-0.008055992	0
445	220340071	0.002959196	-0.002827704	-0.7067705	-0.707431062	0.003979589	0.106250835	-0.006388163	0
446	220356738	0.002952663	-0.002826608	-0.706774948	-0.707426649	-0.012696824	0.094307488	-0.003980798	0
447	220373405	0.002947167	-0.002827362	-0.706775478	-0.70742614	-0.017840906	0.0959228	-0.013882736	0
448	220390072	0.002937149	-0.002817967	-0.706777159	-0.70742454	-0.002044412	0.077911671	-0.000648717	0
449	220406739	0.002931609	-0.002822419	-0.706775864	-0.707425839	-0.002407808	0.090237714	0.003688046	0
450	220423406	0.002925299	-0.002818413	-0.706781457	-0.707420293	-0.003399587	0.09641697	0.005269251	0
451	220440073	0.00292896	-0.002805439	-0.706778201	-0.707423583	-0.00997779	0.097967591	-0.002304366	0
452	220456740	0.002924032	-0.002792584	-0.706779714	-0.707422143	-0.011793844	0.075758077	-0.0013849	0
453	220473407	0.002929168	-0.002789998	-0.706779157	-0.707422688	0.007350959	0.095271223	-0.000617036	0
454	220490074	0.002928912	-0.002790014	-0.706782813	-0.707419036	-0.008975854	0.094059014	0.001272476	0
455	220506741	0.002924647	-0.002782047	-0.706787228	-0.707414674	-0.011224507	0.093955885	-0.002341962	0
456	220523408	0.002923474	-0.002775698	-0.706780503	-0.707421423	-0.010889416	0.103452578	-0.002302291	0
457	220540075	0.002923027	-0.002776648	-0.706776624	-0.707425296	-0.018368614	0.106900681	-0.010758735	0
458	220556742	0.00291751	-0.002776685	-0.70677269	-0.707429249	-0.004349506	0.097665137	0.004962572	0
459	220573409	0.002907572	-0.002776458	-0.706774296	-0.707427687	-0.0018062	0.106942686	-0.006008387	0
460	220590076	0.002910424	-0.002780176	-0.706775724	-0.707426233	-0.021117652	0.105382715	-0.009047453	0
461	220606743	0.002902726	-0.002768383	-0.706781998	-0.707420043	-0.00733478	0.099674011	-0.001230091	0
462	220623410	0.002903925	-0.00276181	-0.706785785	-0.70741628	-0.004972455	0.112621752	0.001661829	0
463	220640077	0.002906253	-0.00275813	-0.706785203	-0.707416867	-0.002961606	0.092916643	-0.008280706	0
464	220656744	0.002905124	-0.002760207	-0.706785507	-0.707416559	0.002754556	0.094172337	-0.005582921	0
465	220673411	0.002890508	-0.002751109	-0.706786885	-0.707415278	-0.000500818	0.090741479	-0.004720471	0
466	220690078	0.002877224	-0.002751967	-0.706786136	-0.707416077	-0.007501798	0.101060761	0.005123687	0
467	220706745	0.00286842	-0.002759158	-0.706787777	-0.707414445	-0.009843075	0.104413081	0.006917303	0
468	220723412	0.002859601	-0.002749027	-0.706786486	-0.707415811	-0.001033367	0.097539617	-0.003025704	0
469	220740079	0.002864747	-0.00274946	-0.706779488	-0.707422779	0.005124286	0.095664754	0.002233961	0
470	220756746	0.002854442	-0.002737133	-0.70676801	-0.707434336	-0.014653254	0.09221145	-0.002189223	0
471	220773413	0.002850782	-0.002728088	-0.706769949	-0.707432448	-0.009762901	0.101791043	-0.004409941	0
472	220790080	0.002842302	-0.002722374	-0.706767728	-0.707434724	-0.007099462	0.099876771	-0.006640106	0
473	220806747	0.002833588	-0.002723002	-0.706764716	-0.707437765	-0.012273122	0.106266729	-0.008665684	0
474	220823414	0.002821976	-0.002714418	-0.706764312	-0.707438249	-0.003834215	0.097815027	-0.015036769	0
475	220840081	0.002818847	-0.002716427	-0.706765756	-0.707436811	-0.010096523	0.112350067	-0.005044494	0
476	220856748	0.002814701	-0.002716631	-0.706762524	-0.707440055	-0.002868783	0.09300137	0.007595237	0
477	220873415	0.002803298	-0.002704326	-0.706762654	-0.707440018	-0.019056631	0.094595438	-0.011126302	0
478	220890082	0.002798897	-0.002688812	-0.706769923	-0.707432833	0.007897198	0.093493628	0.002163519	0
479	220906749	0.002798476	-0.002694148	-0.706766542	-0.707436191	0.000659265	0.099082113	0.009078753	0
480	220923416	0.002790035	-0.002698366	-0.706773429	-0.707429328	7.03E-05	0.081607684	0.006358413	0
481	220940083	0.002791589	-0.002694466	-0.706771012	-0.707431752	-0.006068197	0.105255501	0.007962523	0
482	220956750	0.002802762	-0.002688155	-0.706766397	-0.707436342	-0.002092995	0.089158951	-0.016340241	0
483	220973417	0.002799161	-0.002688538	-0.70676671	-0.707436043	-0.00238111	0.088857927	-0.011708014	0
484	220990084	0.00279495	-0.002689607	-0.706764792	-0.707437971	0.003575421	0.109009843	0.003496595	0
485	221006751	0.002794689	-0.002691418	-0.706767266	-0.707435494	-0.002556919	0.083807888	-0.021461692	0
486	221023418	0.002797708	-0.002688878	-0.706771259	-0.707431502	0.00149542	0.076290811	-0.002496124	0
487	221040085	0.002798215	-0.002691009	-0.706773557	-0.707429196	-0.013861105	0.087136086	-0.007112425	0
488	221056752	0.002799588	-0.002691425	-0.706775011	-0.707427737	-0.00627645	0.102020487	0.001889036	0
489	221073419	0.002799975	-0.002691953	-0.706772218	-0.707430524	0.003594925	0.070527613	0.001056976	0
490	221090086	0.00279599	-0.002695967	-0.706772142	-0.7074306	0.0107384	0.110037895	-0.012789381	0
491	221106753	0.002793226	-0.002705408	-0.706769039	-0.707433675	-0.006578935	0.095240481	-0.001692374	0
492	221123420	0.00280025	-0.002707681	-0.706767667	-0.707435009	-0.002752051	0.08341321	-0.01557027	0
493	221140087	0.002786352	-0.00271626	-0.706768371	-0.707434328	-0.01373511	0.118165797	-0.006214544	0
494	221156754	0.002792874	-0.00269691	-0.706762385	-0.707440356	0.007071	0.100029436	0.000556349	0
495	221173421	0.0027928	-0.002681716	-0.706757067	-0.707445727	-0.004449532	0.092159298	0.00518679	0
496	221190088	0.002780672	-0.002680362	-0.706755439	-0.707447407	-0.010041191	0.102020445	-0.011286711	0
497	221206755	0.002766524	-0.002684831	-0.70675572	-0.707447164	-0.021843311	0.077454088	-0.008792706	0
498	221223422	0.002764088	-0.002684706	-0.706752651	-0.70745024	-0.006980973	0.076229056	-0.010350389	0
499	221240089	0.002762126	-0.00268248	-0.706754556	-0.707448354	0.001573939	0.108004118	-0.008052001	0
500	221256756	0.00275601	-0.002684497	-0.706756065	-0.707446861	-0.009979728	0.091347151	-0.022837296	0
501	221273423	0.002751103	-0.002687627	-0.70674999	-0.707452938	-0.001729122	0.079361809	0.008629914	0
502	221290090	0.002751145	-0.002672712	-0.706750405	-0.70745258	0.00189237	0.088386297	-0.01391112	0
503	221306757	0.002764741	-0.002661901	-0.706748983	-0.707453988	0.002732843	0.086844341	0.005312723	0
504	221323424	0.002754581	-0.002659827	-0.706751993	-0.707451028	-0.004143511	0.091028736	-6.10E-05	0
505	221340091	0.002769649	-0.00265174	-0.706756661	-0.707446337	-0.003978492	0.07908078	-0.008647116	0
506	221356758	0.002765382	-0.002654502	-0.706762239	-0.70744077	0.004888101	0.095168755	-0.011759373	0
507	221373425	0.002764169	-0.002660229	-0.70676461	-0.707438385	-0.005026223	0.090775641	-0.007871848	0
508	221390092	0.002761934	-0.002653406	-0.706765789	-0.707437242	-0.00264059	0.093380804	-0.00826829	0
509	221406759	0.002763402	-0.002645838	-0.706764049	-0.707439002	-0.001330694	0.103220332	-0.001538441	0
510	221423426	0.002761379	-0.002640117	-0.706763562	-0.707439518	0.005387768	0.093000181	-0.000761027	0
511	221440093	0.002756568	-0.002627626	-0.706767986	-0.707435164	-0.006866608	0.087474279	-0.003713586	0
512	221456760	0.002749558	-0.002625437	-0.706768427	-0.707434759	-0.01907044	0.089401819	-0.015166966	0
513	221473427	0.002742455	-0.002609759	-0.706771328	-0.707431945	-0.006996347	0.096039329	0.004242615	0
514	221490094	0.002741482	-0.002592654	-0.706770774	-0.707432566	0.007329672	0.091998008	-0.006383	0
515	221506761	0.002735342	-0.002594306	-0.706770172	-0.707433186	-0.003798227	0.082402908	0.012751657	0
516	221523428	0.002735204	-0.002588188	-0.706771137	-0.707432243	0.004568426	0.096859387	-0.002445858	0
517	221540095	0.002734344	-0.002578431	-0.706764283	-0.70743913	-0.004288411	0.089866953	0.002732518	0
518	221556762	0.002732549	-0.002578504	-0.706766474	-0.707436948	-0.004362297	0.101135484	-0.008209427	0
519	221573429	0.002734151	-0.002581332	-0.706772511	-0.707430901	-0.01296775	0.084977264	2.95E-05	0
520	221590096	0.002734419	-0.002578833	-0.70677132	-0.707432098	-0.013381731	0.094287017	-0.003154872	0
521	221606763	0.002741875	-0.002570844	-0.706769392	-0.707434025	-0.001576278	0.092111474	-0.00429014	0
522	221623430	0.002750296	-0.002577037	-0.706767629	-0.70743573	0.000246116	0.087434828	-0.007017623	0
523	221640097	0.002751461	-0.002569691	-0.706761174	-0.707442202	-0.003330676	0.104023891	-0.0017671	0
524	221656764	0.002750898	-0.002566772	-0.706765471	-0.707437922	-0.004308867	0.081796525	-0.003998544	0
525	221673431	0.002744113	-0.002567682	-0.706766318	-0.707437099	-0.017287969	0.103577778	-0.004597863	0
526	221690098	0.002734909	-0.002572089	-0.706770001	-0.707433439	0.002069239	0.089854084	-0.007414907	0
527	221706765	0.002725861	-0.00256619	-0.706770883	-0.707432614	-0.003998756	0.094287327	-0.001336596	0
528	221723432	0.002719898	-0.002572759	-0.706769566	-0.707433929	-0.019690189	0.087460993	0.004381459	0
529	221740099	0.002717848	-0.002561921	-0.706768873	-0.707434668	-0.000108165	0.078963682	-0.009516274	0
530	221756766	0.002714142	-0.002554148	-0.706772033	-0.707431554	-0.0206044	0.102259925	-0.010281146	0
531	221773433	0.002707767	-0.00256048	-0.706768678	-0.707434907	-0.006643459	0.094006143	-0.000975625	0
532	221790100	0.002712399	-0.002544448	-0.706765769	-0.707437853	-0.014711077	0.079145863	-0.015059428	0
533	221806767	0.002709666	-0.002550129	-0.706767211	-0.707436403	-0.007937015	0.093771543	0.002627073	0
534	221823434	0.002710481	-0.002554816	-0.70676129	-0.707442298	-0.011824097	0.080043458	0.009606773	0
535	221840101	0.002712019	-0.002551083	-0.706759329	-0.707444265	-0.00889065	0.090865348	0.00072313	0
536	221856768	0.002713145	-0.002557124	-0.706756716	-0.707446849	0.003416517	0.09259042	-0.00025783	0
537	221873435	0.002720093	-0.002562702	-0.706751506	-0.707452007	-0.006171317	0.066510109	0.007417461	0
538	221890102	0.002729632	-0.002562053	-0.706744385	-0.707459086	0.00020798	0.089344878	-0.000747449	0
539	221906769	0.002733233	-0.002554973	-0.706745029	-0.707458455	-0.008910052	0.096989475	-0.00292667	0
540	221923436	0.002731106	-0.002557303	-0.706744016	-0.707459467	-0.011741059	0.084964501	0.004081317	0
541	221940103	0.002729159	-0.002559288	-0.706743711	-0.707459772	0.000438551	0.078244987	0.010664217	0
542	221956770	0.002725336	-0.0025664	-0.706742519	-0.707460952	-0.008195996	0.107551837	-0.00666756	0
543	221973437	0.002726519	-0.002559144	-0.706740382	-0.707463108	-0.012824807	0.07085796	-0.003771511	0
544	221990104	0.002721776	-0.002568357	-0.706739323	-0.707464151	0.001293593	0.097929647	0.003409827	0
545	222006771	0.002712003	-0.002566302	-0.70673579	-0.707467725	-0.010473649	0.090848445	-0.003376039	0
546	222023438	0.00269613	-0.002558775	-0.706735771	-0.707467832	-0.007127486	0.107979698	0.000661205	0
547	222040105	0.002691887	-0.002556665	-0.706733832	-0.707469793	0.000748122	0.094528334	-0.006356918	0
548	222056772	0.002696664	-0.002547568	-0.706726139	-0.707477492	-0.002110693	0.090498951	-0.003079131	0
549	222073439	0.002690497	-0.002547523	-0.70672798	-0.707475677	-0.006139418	0.09236039	-0.009113689	0
550	222090106	0.002682388	-0.002540385	-0.706729446	-0.707474269	0.00971925	0.074614334	0.002037501	0
551	222106773	0.002672299	-0.002531845	-0.706736552	-0.707467239	-0.006379389	0.108443106	-0.004684108	0
552	222123440	0.002674577	-0.002524729	-0.706734947	-0.707468859	-0.001222161	0.101185793	0.016342107	0
553	222140107	0.002671782	-0.002531017	-0.706737268	-0.707466529	0.00326798	0.092664644	-0.002029407	0
554	222156774	0.002668983	-0.002537147	-0.706732106	-0.707471675	-0.00020919	0.077600401	-0.00447643	0
555	222173441	0.002668354	-0.002528101	-0.706732832	-0.707470984	-0.015832066	0.091063557	-0.000215459	0
556	222190108	0.002667678	-0.002528037	-0.70673108	-0.707472737	-0.003212764	0.093967843	-2.04E-05	0
557	222206775	0.002663373	-0.00251532	-0.706731494	-0.707472384	-0.000124292	0.089467537	0.000466244	0
558	222223442	0.002658771	-0.002515375	-0.706734556	-0.707469343	-0.003207697	0.094506836	0.000720305	0
559	222240109	0.002637369	-0.00251333	-0.706735796	-0.707468191	-0.01027988	0.084619562	0.006585373	0
560	222256776	0.002634738	-0.002506553	-0.706733148	-0.70747087	-0.000574098	0.101298131	0.008370836	0
561	222273443	0.00263786	-0.002503802	-0.706728598	-0.707475414	-0.008225593	0.077844245	-0.005562271	0
562	222290110	0.002633169	-0.002493505	-0.706730405	-0.707473663	-0.002496888	0.096538622	-0.000485153	0
563	222306777	0.002627863	-0.002492576	-0.706727546	-0.707476542	0.008696752	0.092623958	0.006751793	0
564	222323444	0.002620436	-0.002496495	-0.706728463	-0.707475639	-0.008106516	0.084594503	-0.013684879	0
565	222340111	0.00261046	-0.002491846	-0.706733819	-0.707470342	-0.012398369	0.099588382	-0.012866377	0
566	222356778	0.002615758	-0.002486753	-0.706736705	-0.707467458	-0.014127425	0.090469282	-0.016150862	0
567	222373445	0.002620033	-0.002474601	-0.70674114	-0.707463054	-0.008194699	0.078735956	-0.002171534	0
568	222390112	0.002612937	-0.002479658	-0.70673779	-0.707466409	0.000471797	0.106255815	0.008189904	0
569	222406779	0.002610601	-0.002461687	-0.706735318	-0.707468949	-0.007259606	0.082177696	0.006350568	0
570	222423446	0.002614134	-0.002456845	-0.706734072	-0.707470199	0.007949405	0.089835223	0.003494075	0
571	222440113	0.002620538	-0.002455333	-0.706734982	-0.707469271	0.000450928	0.088961493	0.006679126	0
572	222456780	0.002616236	-0.002446705	-0.706730485	-0.707473809	-0.001790084	0.090882135	0.00252422	0
573	222473447	0.002618023	-0.002447145	-0.706728222	-0.707476062	-0.013895302	0.073662183	0.004671722	0
574	222490114	0.00262105	-0.002447318	-0.706727116	-0.707477154	-0.008222388	0.070267867	0.000683918	0
575	222506781	0.002619656	-0.002438547	-0.706724844	-0.707479459	-0.010492149	0.08963671	0.015515676	0
576	222523448	0.002615989	-0.002443189	-0.706725089	-0.707479213	-0.004590341	0.097810408	0.003799956	0
577	222540115	0.002620637	-0.002444715	-0.706722864	-0.707481413	-0.013596701	0.080086651	-0.006560159	0
578	222556782	0.002628416	-0.002451377	-0.706719933	-0.707484289	-0.01376043	0.093915814	-0.004731061	0
579	222573449	0.002617636	-0.002450168	-0.706717619	-0.707486644	0.005293476	0.084398396	-0.009449752	0
580	222590116	0.002611128	-0.002452721	-0.706723834	-0.707480451	-0.010833231	0.094276888	0.001851711	0
581	222606783	0.002613117	-0.00245364	-0.706727997	-0.707476282	0.001120541	0.090040356	0.001043161	0
582	222623450	0.002612972	-0.002451845	-0.706728807	-0.70747548	-0.006529243	0.092912931	0.001131145	0
583	222640117	0.002604914	-0.002453723	-0.706731893	-0.70747242	-0.002621581	0.094769088	0.00080631	0
584	222656784	0.002618018	-0.002447563	-0.706733722	-0.707470566	-0.01092174	0.079543474	-0.00736008	0
585	222673451	0.002597926	-0.002436905	-0.706729181	-0.707475213	0.004419746	0.092586963	-0.001239626	0
586	222690118	0.00259131	-0.002434187	-0.706733366	-0.707471066	0.005334334	0.096276718	0.000749656	0
587	222706785	0.002590914	-0.002436491	-0.706735506	-0.707468922	-0.004613678	0.072585191	-0.00834349	0
588	222723452	0.002587315	-0.002429657	-0.706728496	-0.707475961	-0.008686046	0.099915599	-0.000930552	0
589	222740119	0.002584757	-0.002432547	-0.70672623	-0.707478224	0.003882415	0.079006187	-0.004557086	0
590	222756786	0.002594239	-0.002440166	-0.7067295	-0.707474897	-0.002376402	0.072783674	0.003885538	0
591	222773453	0.002586817	-0.002451073	-0.706736729	-0.707467664	-0.014596835	0.081428162	-0.000415761	0
592	222790120	0.002591077	-0.0024539	-0.706731179	-0.707473183	-0.009131256	0.101545973	0.001425818	0
593	222806787	0.002590392	-0.002452643	-0.706728488	-0.707475879	-0.008506245	0.099984975	-0.007651262	0
594	222823454	0.002590172	-0.002450942	-0.706735927	-0.707468454	-0.018186316	0.088431227	-0.003214067	0
595	222840121	0.002598074	-0.002450509	-0.706734375	-0.707469977	-0.010831516	0.085736344	-0.002152616	0
596	222856788	0.002601921	-0.002439411	-0.706736765	-0.707467614	-0.015844973	0.095233345	-0.001938374	0
597	222873455	0.002591087	-0.002440673	-0.706741575	-0.707462844	-0.00136223	0.085606611	-0.006808064	0
598	222890122	0.002582399	-0.002432545	-0.706748926	-0.70745556	0.007541348	0.089339481	0.003297112	0
599	222906789	0.002535253	-0.002469395	-0.706777726	-0.707426831	-0.001809125	0.096574399	0.010671833	0
600	222923456	0.002539208	-0.002468947	-0.706777982	-0.707426563	0.000237558	0.09213237	0.002362371	0
601	222940123	0.002540891	-0.00246808	-0.706780252	-0.707424291	-0.000997792	0.086046605	-0.00258792	0
602	222956790	0.002549568	-0.002460406	-0.706781259	-0.707423281	-0.010865003	0.089300505	-0.004961917	0
603	222973457	0.002541986	-0.002454201	-0.706787524	-0.70741707	-0.004394683	0.087119338	-0.005101492	0
604	222990124	0.002544054	-0.002455345	-0.706791012	-0.707413574	-0.003897049	0.092900708	-0.005321488	0
605	223006791	0.002548809	-0.002449979	-0.706790598	-0.707413989	-0.004542296	0.093677169	-0.00783019	0
606	223023458	0.002547786	-0.002447855	-0.706796002	-0.707408601	-0.01695742	0.104662875	-0.024640853	0
607	223040125	0.002542939	-0.002444109	-0.706791794	-0.707412836	0.002300092	0.086174444	-0.009861278	0
608	223056792	0.002536734	-0.002442338	-0.70679191	-0.707412748	-0.013695197	0.075308376	-0.004771909	0
609	223073459	0.002535531	-0.002446663	-0.706795691	-0.707408959	0.012167248	0.098612357	0.002256415	0
610	223090126	0.002529218	-0.002437366	-0.706797215	-0.707407492	-0.00668293	0.091329128	0.012829613	0
611	223106793	0.002508457	-0.002432103	-0.706796699	-0.707408099	0.004258686	0.092530064	-0.002534289	0
612	223123460	0.002512899	-0.002426322	-0.706798931	-0.707405874	0.003260843	0.1173105	0.009412713	0
613	223140127	0.002515328	-0.002423979	-0.706800233	-0.707404572	0.009141544	0.081569801	0.002347983	0
614	223156794	0.002507724	-0.002425447	-0.706803723	-0.707401107	0.008130641	0.085017428	0.00424796	0
615	223173461	0.002503479	-0.002420632	-0.706802992	-0.707401868	0.000925313	0.069917367	0.006153307	0
616	223190128	0.002499336	-0.00240238	-0.70679873	-0.707406204	-0.013864659	0.103604253	-0.000934855	0
617	223206795	0.002485365	-0.002400572	-0.706798225	-0.707406763	-0.00125908	0.068500843	-0.006056223	0
618	223223462	0.002483452	-0.002398819	-0.706796401	-0.707408599	-0.00643359	0.087497786	-0.00311611	0
619	223240129	0.002490321	-0.00239713	-0.706787574	-0.7074174	-0.018400562	0.10819839	0.007838218	0
620	223256796	0.002483609	-0.002397302	-0.706787016	-0.70741798	-0.002079729	0.083706761	0.005208422	0
621	223273463	0.002492754	-0.002395943	-0.70678846	-0.70741651	0.010647135	0.08936794	0.000485117	0
622	223290130	0.002488925	-0.002401355	-0.706791814	-0.707413154	-0.001756849	0.093827524	-0.001598658	0
623	223306797	0.002487153	-0.00238926	-0.706789054	-0.707415959	-0.000151281	0.073245241	-0.012031014	0
624	223323464	0.002479578	-0.002389866	-0.706791365	-0.707413675	-0.002113394	0.073365941	-0.007590646	0
625	223340131	0.002483221	-0.002396441	-0.706787283	-0.707417718	-0.010981821	0.086477251	-0.008886039	0
626	223356798	0.002481898	-0.002386623	-0.706781447	-0.707423586	-0.011655822	0.084111324	0.003475514	0
627	223373465	0.00248849	-0.002382382	-0.706776465	-0.707428555	-0.004302238	0.094540948	-0.001022156	0
628	223390132	0.002482112	-0.002393039	-0.70677233	-0.707432673	-0.01030855	0.091147085	0.01538087	0
629	223406799	0.002488282	-0.002400052	-0.706771606	-0.707433351	-0.009173487	0.094204866	0.002970509	0
630	223423466	0.002494062	-0.002396211	-0.706773881	-0.70743107	0.004382667	0.095650718	-0.002444641	0
631	223440133	0.002487768	-0.00238974	-0.706772953	-0.707432041	-0.00015285	0.081921752	0.000851583	0
632	223456800	0.002489412	-0.002385764	-0.706774299	-0.707430704	-0.007006172	0.107163449	0.007163838	0
633	223473467	0.002491176	-0.002387023	-0.70677583	-0.707429164	-0.003816228	0.092788759	-0.000614895	0
634	223490134	0.002493392	-0.002388466	-0.706780666	-0.707424319	-0.00748044	0.084300615	-0.009114083	0
635	223506801	0.002485408	-0.00239213	-0.706775094	-0.707429902	-0.009707211	0.091257385	-0.004706498	0
636	223523468	0.002486151	-0.002389083	-0.706776898	-0.707428108	-0.001043698	0.088637423	-0.006397463	0
637	223540135	0.002480986	-0.002388969	-0.706774977	-0.707430045	-0.004996008	0.107022251	-0.006773765	0
638	223556802	0.002470283	-0.002398323	-0.706771603	-0.707433422	0.005356524	0.100142764	0.009471262	0
639	223573469	0.002474264	-0.002388541	-0.706774147	-0.7074309	0.003791828	0.103574966	-0.010991462	0
640	223590136	0.002467221	-0.002388377	-0.706775249	-0.707429824	0.002368972	0.118955052	-0.014505994	0
641	223606803	0.002464493	-0.002380025	-0.706773782	-0.707431328	-0.010091717	0.096558489	-0.004202471	0
642	223623470	0.002465068	-0.002383051	-0.706774787	-0.707430311	-0.00414908	0.103173502	-0.00894375	0
643	223640137	0.002471359	-0.002375366	-0.706774794	-0.707430308	0.00136444	0.092008318	-0.012837752	0
644	223656804	0.0024651	-0.002374455	-0.706777426	-0.707427703	-0.00461094	0.114287112	0.001787351	0
645	223673471	0.002456082	-0.002381589	-0.706774708	-0.707430427	-0.015503927	0.106549051	-0.000397741	0
646	223690138	0.002459368	-0.002384784	-0.706771505	-0.707433603	0.003166373	0.084350499	-0.01683288	0
647	223706805	0.002454093	-0.002381671	-0.706774984	-0.707430157	0.000800689	0.10765915	-0.00068825	0
648	223723472	0.002457969	-0.002379036	-0.706778159	-0.70742698	-0.010795064	0.109897004	-0.001599647	0
649	223740139	0.00247063	-0.002372074	-0.706784717	-0.707420408	-0.006320754	0.097449015	0.014250262	0
650	223756806	0.002471051	-0.002365617	-0.706782803	-0.70742234	-0.001935808	0.09006365	-0.004045496	0
651	223773473	0.002467854	-0.00236528	-0.706781909	-0.707423245	0.008312876	0.081762322	-0.000768448	0
652	223790140	0.002465601	-0.002379506	-0.706784885	-0.707420232	0.003262117	0.07772339	0.004838345	0
653	223806807	0.002466001	-0.002375748	-0.706784002	-0.707421126	-0.007844719	0.085291713	-0.008280676	0
654	223823474	0.00246964	-0.002372217	-0.706790304	-0.707414828	-0.001140339	0.071140321	-0.006649577	0
655	223840141	0.002470349	-0.00237891	-0.706793348	-0.707411762	-0.008819084	0.085756266	0.007524494	0
656	223856808	0.002466537	-0.002385491	-0.706800537	-0.70740457	-0.012960636	0.095620968	0.004095137	0
657	223873475	0.002456804	-0.002378992	-0.706802671	-0.707402494	-0.003760035	0.07377151	-0.000478816	0
658	223890142	0.002463212	-0.002373115	-0.706798089	-0.70740707	-0.009730251	0.10052516	-0.002765661	0
659	223906809	0.00246754	-0.002362549	-0.706794591	-0.707410585	-0.013068159	0.104126028	-0.012044207	0
660	223923476	0.0024653	-0.002367936	-0.706801541	-0.707403631	-0.003955915	0.070104811	-0.013155624	0
661	223940143	0.002466428	-0.002363125	-0.706808768	-0.707396422	0.008423013	0.068170782	-0.005682913	0
662	223956810	0.00246444	-0.002364697	-0.706807833	-0.707397358	-0.007484472	0.082559592	-0.00464147	0
663	223973477	0.002465239	-0.002376045	-0.706813387	-0.707391768	-0.012480654	0.081058989	-0.005938968	0
664	223990144	0.002457128	-0.002363785	-0.706812001	-0.707393222	-0.01497373	0.100247434	-0.007008395	0
665	224006811	0.002461677	-0.002368105	-0.706814239	-0.707390956	-0.011133081	0.100740616	-0.008962089	0
666	224023478	0.002471107	-0.002358802	-0.706815585	-0.707389609	-0.016596259	0.09888671	0.00127891	0
667	224040145	0.00246334	-0.002357948	-0.706819276	-0.707385951	-0.015635885	0.114887868	0.00116321	0
668	224056812	0.002455406	-0.002365285	-0.706817535	-0.707387694	-0.009013134	0.096545057	-0.017698692	0
669	224073479	0.002456663	-0.002365635	-0.706819409	-0.707385815	-0.013187229	0.094068845	-0.009570821	0
670	224090146	0.002443061	-0.002373655	-0.706822609	-0.707382638	-0.005186394	0.102953683	-0.002707166	0
671	224106813	0.002443834	-0.002375719	-0.70682407	-0.707381168	-0.006504732	0.090385604	0.000260846	0
672	224123480	0.002437379	-0.002366161	-0.706821213	-0.707384078	0.006083628	0.079544757	0.004702253	0
673	224140147	0.00243703	-0.002364632	-0.706819489	-0.707385807	0.004082358	0.091751281	-0.004443633	0
674	224156814	0.002426712	-0.00235612	-0.706816754	-0.707388603	-0.007949683	0.095156944	0.009351407	0
675	224173481	0.00242433	-0.002359927	-0.706812881	-0.707392469	-0.005632204	0.100149993	0.001901917	0
676	224190148	0.002424968	-0.002355645	-0.706820488	-0.70738488	-0.001049077	0.067823955	0.015938104	0
677	224206815	0.002419712	-0.002345725	-0.706810375	-0.707395035	-0.013775995	0.090324477	0.004015364	0
678	224223482	0.002414619	-0.00234318	-0.706805779	-0.707399653	-0.006119072	0.109711088	-0.006812964	0
679	224240149	0.002419126	-0.00234705	-0.706805653	-0.707399751	0.004022459	0.087348514	0.001017855	0
680	224256816	0.002412041	-0.002340383	-0.706813382	-0.707392075	0.006044115	0.084207029	-0.007938049	0
681	224273483	0.002408261	-0.002340038	-0.706812155	-0.707393315	0.001298521	0.091879344	-0.000365675	0
682	224290150	0.002407805	-0.002334498	-0.706813708	-0.707391783	-0.003368819	0.11760027	0.002176637	0
683	224306817	0.002408102	-0.002328504	-0.706811961	-0.707393547	-0.013643926	0.105110732	0.012604351	0
684	224323484	0.002402506	-0.002321149	-0.70681667	-0.707388886	-0.025032632	0.099071982	-0.004028116	0
685	224340151	0.002393061	-0.002324317	-0.706822307	-0.707383275	-0.004191246	0.10000958	0.011982856	0
686	224356818	0.002384715	-0.002321867	-0.706823404	-0.707382215	-0.002345445	0.089639416	8.83E-05	0
687	224373485	0.002380402	-0.002318794	-0.706824276	-0.707381368	-0.007937245	0.095244535	-0.002184218	0
688	224390152	0.002383148	-0.002307576	-0.70681944	-0.707386227	0.005312714	0.083892695	-0.000303537	0
689	224406819	0.002381531	-0.00230384	-0.706816835	-0.707388848	-0.010725024	0.117095459	0.000408714	0
690	224423486	0.00238692	-0.002309702	-0.706816057	-0.707389588	-0.00367945	0.072782093	-0.009329361	0
691	224440153	0.002380269	-0.00230332	-0.706818196	-0.707387494	-0.001649781	0.100923351	-0.005863743	0
692	224456820	0.002386766	-0.00230456	-0.706821755	-0.707383912	0.012940662	0.08556949	-0.001850711	0
693	224473487	0.002384282	-0.002304883	-0.706826023	-0.707379655	0.001941957	0.080857413	-0.005954566	0
694	224490154	0.002383646	-0.002308232	-0.706824414	-0.707381254	0.002393575	0.08877391	0.009808361	0
695	224506821	0.002387966	-0.002310324	-0.706826052	-0.707379596	-0.007526916	0.099691445	-0.001060473	0
696	224523488	0.002376679	-0.002316398	-0.706821044	-0.707384618	-0.001167835	0.098553499	-0.002274565	0
697	224540155	0.002378381	-0.002321807	-0.706825363	-0.707380279	0.00435306	0.090654869	-0.003813091	0
698	224556822	0.002376494	-0.002323426	-0.706828593	-0.707377053	0.003197143	0.09190597	-0.011213658	0
699	224573489	0.002385874	-0.002331338	-0.706831902	-0.707373689	-0.005899887	0.080893175	-0.007563593	0
700	224590156	0.002386218	-0.002327361	-0.706834984	-0.707370621	0.002205781	0.102708488	0.000712841	0
701	224606823	0.002385829	-0.002331249	-0.7068353	-0.707370294	0.003194007	0.080708548	-0.002228199	0
702	224623490	0.002373149	-0.002335088	-0.706837911	-0.707367714	-0.000307282	0.099060968	0.003888378	0
703	224640157	0.002364263	-0.002330991	-0.70683713	-0.707368538	-0.003074117	0.091785433	0.003652553	0
704	224656824	0.002357645	-0.002330353	-0.706841718	-0.707363978	0.002524483	0.097160047	-0.008485995	0
705	224673491	0.002353691	-0.002329872	-0.706846426	-0.707359288	0.007045269	0.099681425	0.002249373	0
706	224690158	0.002356796	-0.002331705	-0.706850506	-0.707355194	-0.001830069	0.065044749	0.003461765	0
707	224706825	0.002355659	-0.002329064	-0.706854458	-0.707351258	-0.005002587	0.101677382	-0.010344058	0
708	224723492	0.002346771	-0.002323658	-0.706859444	-0.707346322	-0.001202258	0.11036131	-0.003093525	0
709	224740159	0.002350281	-0.002322915	-0.706862744	-0.707343015	-0.011845662	0.079028159	-0.003462869	0
710	224756826	0.002351551	-0.002315449	-0.706863038	-0.707342742	-0.005343144	0.099381349	-0.000201645	0
711	224773493	0.002341005	-0.002323194	-0.706864501	-0.70734129	-0.011729193	0.092167198	0.003430841	0
712	224790160	0.002345054	-0.002324543	-0.706860649	-0.707345121	-0.005144496	0.086279964	-0.003096084	0
713	224806827	0.002344163	-0.002325638	-0.706862057	-0.707343713	-0.004789712	0.080378968	0.006217731	0
714	224823494	0.002344997	-0.002330503	-0.706860972	-0.707344779	-0.000669341	0.100132267	-0.000388815	0
715	224840161	0.002332642	-0.002315214	-0.706857823	-0.707348017	0.000382244	0.088228875	0.001853521	0
716	224856828	0.002331572	-0.002312397	-0.706853727	-0.707352122	0.000936304	0.091790782	-0.006171674	0
717	224873495	0.002331487	-0.002309314	-0.706855471	-0.70735039	0.004093233	0.092559845	0.005609863	0
718	224890162	0.002328274	-0.002309229	-0.706857334	-0.70734854	-0.012015802	0.084486007	-0.011375643	0
719	224906829	0.002328037	-0.0022756	-0.706803017	-0.707402924	-0.004909101	0.093767069	0.000865969	0
720	224923496	0.002315541	-0.002277758	-0.706806083	-0.707399895	0.000546397	0.092543075	-0.002708346	0
721	224940163	0.002301193	-0.002279327	-0.706810523	-0.7073955	8.13E-05	0.083298663	-0.004546808	0
722	224956830	0.00229038	-0.002262848	-0.706804855	-0.707401252	-0.005556679	0.069832704	0.002169371	0
723	224973497	0.002286125	-0.00226169	-0.706808336	-0.707397791	-0.001523248	0.088372702	-0.000588011	0
724	224990164	0.002280097	-0.002259681	-0.706804059	-0.70740209	0.002491146	0.073049063	0.005187813	0
725	225006831	0.00228295	-0.002253207	-0.706808132	-0.707398032	-0.005324381	0.092376859	-0.004964952	0
726	225023498	0.0022864	-0.002244633	-0.706812146	-0.707394038	-0.006526089	0.096792923	-0.00241517	0
727	225040165	0.002282541	-0.002244681	-0.706815625	-0.707390574	-0.000122838	0.098128059	-0.007860803	0
728	225056832	0.002271099	-0.002241944	-0.706817704	-0.707388542	0.0055419	0.073714677	-0.003769787	0
729	225073499	0.002260334	-0.002240636	-0.706815498	-0.707390784	-1.49E-05	0.081704152	-0.004670093	0
730	225090166	0.002270804	-0.002239532	-0.706819328	-0.707386928	-0.003874646	0.069057709	0.00071272	0
731	225106833	0.002260059	-0.002237225	-0.70681656	-0.707389735	0.008821602	0.089678937	-0.008086065	0
732	225123500	0.002250425	-0.002242054	-0.706814304	-0.707392005	-0.006269759	0.077921574	0.004986334	0
733	225140167	0.002249503	-0.002245145	-0.706818119	-0.707388186	0.003816298	0.100433453	0.002298649	0
734	225156834	0.002243047	-0.002240877	-0.706822599	-0.707383744	-0.000352773	0.079515377	0.012150187	0
735	225173501	0.002249557	-0.002237581	-0.706826218	-0.707380118	-0.000784176	0.084364003	-0.003712027	0
