sep=,
DeviceTag:,Xsens_1,,,,,,,,,,,,,,,,,
FirmwareVersion:,2.2.1,,,,,,,,,,,,,,,,,
AppVersion:,2023.0.0,,,,,,,,,,,,,,,,,
StartTime:,2023-07-05 17:20:20.000 +0200,,,,,,,,,,,,,,,,,
© Movella Technologies B. V. 2005-2023,,,,,,,,,,,,,,,,,,,

PacketCounter,SampleTimeFine,Quat_W,Quat_X,Quat_Y,Quat_Z,Acc_X,Acc_Y,Acc_Z,Gyr_X,Gyr_Y,Gyr_Z,Mag_X,Mag_Y,Mag_Z,Status,
0, 1233310423, 0.71401983, 0.02511894, -0.6404058, 0.2818247, 0.0, 0.0, 0.0, 0.0, 0.0, 0.0, -0.78759765625, 0.697021484375, -0.38134765625, 0, 
1, 1233327090, 0.7137588, 0.024949016, -0.6403487, 0.2826296, 9.22170352935791, -3.309128522872925, 1.7342170476913452, 1.6141700744628906, 2.400672197341919, -1.23183012008667, -0.788818359375, 0.69482421875, -0.382080078125, 0, 
2, 1233343757, 0.7134397, 0.024913047, -0.6403178, 0.28350708, 9.265477180480957, -3.315047025680542, 1.7448806762695312, 2.0596258640289307, 2.6012446880340576, -1.020076870918274, -0.791259765625, 0.696533203125, -0.38623046875, 0, 
3, 1233360424, 0.71312743, 0.025146011, -0.6402415, 0.28444365, 9.241133689880371, -3.285630464553833, 1.715154767036438, 1.9638344049453735, 2.635207414627075, -0.5104226469993591, -0.791748046875, 0.6943359375, -0.383544921875, 0, 
4, 1233377091, 0.712912, 0.025293797, -0.64021325, 0.2850333, 9.19803524017334, -3.2796108722686768, 1.7142482995986938, 1.483686089515686, 2.540914297103882, -0.039059367030858994, -0.7900390625, 0.6953125, -0.384033203125, 0, 
5, 1233393758, 0.7127344, 0.025426226, -0.6401437, 0.2856214, 9.162566184997559, -3.2625393867492676, 1.6987849473953247, 1.4705339670181274, 2.6247446537017822, 0.7131920456886292, -0.7900390625, 0.696533203125, -0.383544921875, 0, 
6, 1233410425, 0.7126172, 0.025490817, -0.6400586, 0.286098, 9.08818244934082, -3.2267916202545166, 1.6854923963546753, 1.2903358936309814, 2.6749842166900635, 0.9773999452590942, -0.78857421875, 0.6953125, -0.38916015625, 0, 
7, 1233427092, 0.71243334, 0.02560329, -0.64004624, 0.28657314, 9.065851211547852, -3.1715455055236816, 1.6830024719238281, -0.5960715413093567, 2.4148738384246826, 0.9520047903060913, -0.78857421875, 0.69384765625, -0.388671875, 0, 
8, 1233443759, 0.7122718, 0.025490386, -0.6401501, 0.28675285, 9.094123840332031, -3.2064027786254883, 1.671989917755127, -3.0846269130706787, 2.045846700668335, 1.1184234619140625, -0.7890625, 0.6943359375, -0.386962890625, 0, 
9, 1233460426, 0.71206534, 0.02530297, -0.6403767, 0.28677633, 9.147055625915527, -3.242830514907837, 1.7117688655853271, -3.7969415187835693, 1.0781985521316528, 1.0925929546356201, -0.786865234375, 0.69384765625, -0.387451171875, 0, 
10, 1233477093, 0.7117452, 0.025278833, -0.6406561, 0.28694862, 9.170191764831543, -3.2393531799316406, 1.7384793758392334, -3.124019145965576, -0.011397650465369225, 1.2450268268585205, -0.787841796875, 0.6953125, -0.386474609375, 0, 
11, 1233493760, 0.71140313, 0.025174469, -0.6410152, 0.2870046, 9.170921325683594, -3.1904449462890625, 1.7496376037597656, -3.3453261852264404, -0.9916853308677673, 1.34202241897583, -0.788330078125, 0.697509765625, -0.38623046875, 0, 
12, 1233510427, 0.7110068, 0.025061829, -0.6414432, 0.2870401, 9.213263511657715, -3.172375440597534, 1.74657142162323, -3.6920318603515625, -1.8400931358337402, 1.6193053722381592, -0.787841796875, 0.69482421875, -0.38525390625, 0, 
13, 1233527094, 0.7105681, 0.025088709, -0.6418695, 0.28717104, 9.209365844726562, -3.1867477893829346, 1.6965652704238892, -2.7459123134613037, -2.433680534362793, 1.7678208351135254, -0.787841796875, 0.69873046875, -0.386962890625, 0, 
14, 1233543761, 0.71010065, 0.025376584, -0.64219934, 0.28756437, 9.186023712158203, -3.1951606273651123, 1.6756936311721802, -0.6818099617958069, -2.4001657962799072, 1.9426652193069458, -0.78662109375, 0.697021484375, -0.38525390625, 0, 
15, 1233560428, 0.7096537, 0.025830997, -0.6424461, 0.2880758, 9.243302345275879, -3.1490044593811035, 1.6404398679733276, 0.9447757005691528, -2.2788643836975098, 1.7814146280288696, -0.788330078125, 0.697509765625, -0.382568359375, 0, 
16, 1233577095, 0.7092685, 0.026124664, -0.64270556, 0.2884189, 9.29941177368164, -3.112497568130493, 1.662147045135498, 0.4504441022872925, -2.1154425144195557, 1.8862026929855347, -0.79150390625, 0.696044921875, -0.3828125, 0, 
17, 1233593762, 0.70895725, 0.026255993, -0.6429727, 0.28857642, 9.327872276306152, -3.124100923538208, 1.6743206977844238, -0.6006178259849548, -1.7650095224380493, 1.8452221155166626, -0.7900390625, 0.697509765625, -0.383544921875, 0, 
18, 1233610429, 0.7086428, 0.026500732, -0.6431868, 0.28884894, 9.319734573364258, -3.1218223571777344, 1.6577707529067993, -0.15934941172599792, -1.5026074647903442, 1.8847811222076416, -0.788818359375, 0.697998046875, -0.383544921875, 0, 
19, 1233627096, 0.70834047, 0.02689763, -0.64333266, 0.28922883, 9.303898811340332, -3.1567580699920654, 1.7017934322357178, 1.0377049446105957, -1.3643245697021484, 1.7415673732757568, -0.789794921875, 0.696533203125, -0.3818359375, 0, 
20, 1233643763, 0.7080614, 0.027402995, -0.64340776, 0.28969753, 9.356101989746094, -3.149939775466919, 1.6933825016021729, 2.2772443294525146, -1.2674829959869385, 1.66534423828125, -0.788330078125, 0.69921875, -0.3857421875, 0, 
21, 1233660430, 0.70784694, 0.027902734, -0.64346087, 0.29005575, 9.381138801574707, -3.1251840591430664, 1.7271300554275513, 2.73421311378479, -1.278048038482666, 1.2060058116912842, -0.78759765625, 0.70068359375, -0.383544921875, 0, 
22, 1233677097, 0.7076338, 0.028444698, -0.64352393, 0.29038316, 9.299065589904785, -3.2023279666900635, 1.6890630722045898, 2.8265345096588135, -1.5068464279174805, 0.9085144400596619, -0.788330078125, 0.69873046875, -0.384033203125, 0, 
23, 1233693764, 0.70737964, 0.029024007, -0.6436169, 0.29073867, 9.22795581817627, -3.142491579055786, 1.7108502388000488, 2.6873679161071777, -1.7974737882614136, 0.8109429478645325, -0.788818359375, 0.697021484375, -0.38525390625, 0, 
24, 1233710431, 0.70710164, 0.02950744, -0.643758, 0.2910538, 9.15687084197998, -3.101409435272217, 1.7103636264801025, 1.7287997007369995, -1.940738320350647, 1.0073539018630981, -0.788818359375, 0.697998046875, -0.3857421875, 0, 
25, 1233727098, 0.7067629, 0.029965026, -0.64393014, 0.2914486, 9.112870216369629, -3.0900485515594482, 1.7309271097183228, 0.774675190448761, -1.956630825996399, 1.397422432899475, -0.7861328125, 0.697998046875, -0.38427734375, 0, 
26, 1233743765, 0.7065514, 0.030171897, -0.64408565, 0.2915966, 9.118722915649414, -3.133525848388672, 1.7242833375930786, 1.151066780090332, -1.9035615921020508, 1.5022040605545044, -0.78662109375, 0.697021484375, -0.38525390625, 0, 
27, 1233760432, 0.7062449, 0.030715931, -0.6441585, 0.29212114, 9.190287590026855, -3.1766324043273926, 1.704488754272461, 2.1369383335113525, -1.683779001235962, 1.4925225973129272, -0.78662109375, 0.69921875, -0.387451171875, 0, 
28, 1233777099, 0.7059993, 0.03122241, -0.64417535, 0.29262304, 9.256839752197266, -3.1331324577331543, 1.7079159021377563, 2.488203287124634, -1.2941073179244995, 1.445011019706726, -0.787353515625, 0.6953125, -0.385986328125, 0, 
29, 1233793766, 0.705782, 0.0316563, -0.6441915, 0.29306507, 9.289141654968262, -3.123413562774658, 1.694705605506897, 1.6295249462127686, -0.9690566062927246, 1.3525874614715576, -0.787841796875, 0.696044921875, -0.387939453125, 0, 
30, 1233810433, 0.705627, 0.031934716, -0.64422226, 0.2933402, 9.305985450744629, -3.105349063873291, 1.7180484533309937, 0.7541083097457886, -0.7348538637161255, 1.2161741256713867, -0.787841796875, 0.696533203125, -0.3857421875, 0, 
31, 1233827100, 0.7055408, 0.032111008, -0.6442351, 0.29350019, 9.321770668029785, -3.0974926948547363, 1.7397936582565308, 0.005782066844403744, -0.26674342155456543, 1.0094796419143677, -0.78662109375, 0.697998046875, -0.386474609375, 0, 
32, 1233843767, 0.7055055, 0.032115467, -0.64426476, 0.29351935, 9.405329704284668, -3.103559732437134, 1.8139005899429321, -1.1820900440216064, 0.052973464131355286, 1.0470919609069824, -0.787109375, 0.697998046875, -0.384765625, 0, 
33, 1233860434, 0.70551777, 0.032025773, -0.6443205, 0.29337725, 9.440705299377441, -3.159128189086914, 1.8054567575454712, -1.8808300495147705, 0.04628854990005493, 0.7003984451293945, -0.78662109375, 0.698486328125, -0.3857421875, 0, 
34, 1233877101, 0.705494, 0.032123487, -0.64433527, 0.2933915, 9.47150707244873, -3.2350125312805176, 1.7824631929397583, -1.1352189779281616, 0.04432918131351471, 0.509378969669342, -0.78662109375, 0.69921875, -0.384765625, 0, 
35, 1233893768, 0.70545983, 0.032371946, -0.64426446, 0.2936015, 9.479126930236816, -3.262860059738159, 1.735315203666687, 0.09482462704181671, 0.3283868432044983, 0.6567161083221436, -0.7861328125, 0.696533203125, -0.38818359375, 0, 
36, 1233910435, 0.7053816, 0.0326935, -0.6441431, 0.2940202, 9.461834907531738, -3.271758794784546, 1.6881147623062134, 0.8773950338363647, 0.5027581453323364, 1.2670283317565918, -0.7900390625, 0.69384765625, -0.3857421875, 0, 
37, 1233927102, 0.70536196, 0.03302809, -0.6438668, 0.294634, 9.390079498291016, -3.2975192070007324, 1.6859865188598633, 2.9161791801452637, 1.2648897171020508, 2.099684476852417, -0.78955078125, 0.696533203125, -0.387451171875, 0, 
38, 1233943769, 0.7054597, 0.033387415, -0.643311, 0.29557213, 9.227189064025879, -3.2833328247070312, 1.602681040763855, 5.415313243865967, 3.037327766418457, 3.2741808891296387, -0.786865234375, 0.69580078125, -0.3896484375, 0, 
39, 1233960436, 0.7056535, 0.033744264, -0.6425492, 0.29672372, 9.077485084533691, -3.192909002304077, 1.5466313362121582, 6.829543590545654, 4.526616096496582, 4.025132656097412, -0.786865234375, 0.696533203125, -0.39306640625, 0, 
40, 1233977103, 0.7059005, 0.033928826, -0.6417849, 0.29776773, 9.020668983459473, -3.1712753772735596, 1.5208982229232788, 5.766477108001709, 5.060641765594482, 4.150750637054443, -0.786376953125, 0.6943359375, -0.39404296875, 0, 
41, 1233993770, 0.7061863, 0.033956937, -0.64105564, 0.2986562, 9.050230979919434, -3.2364630699157715, 1.5949070453643799, 4.459478855133057, 5.320424556732178, 4.013075351715088, -0.781982421875, 0.69482421875, -0.39599609375, 0, 
42, 1234010437, 0.7064142, 0.034191594, -0.64032465, 0.29965702, 9.052407264709473, -3.361943483352661, 1.6527646780014038, 5.872230529785156, 4.749433994293213, 3.6965599060058594, -0.78271484375, 0.69482421875, -0.39697265625, 0, 
43, 1234027104, 0.7065203, 0.034806084, -0.63959616, 0.30088955, 9.117185592651367, -3.364325761795044, 1.7306543588638306, 9.099037170410156, 3.3706390857696533, 3.3909754753112793, -0.7822265625, 0.6953125, -0.40087890625, 0, 
44, 1234043771, 0.70645463, 0.035656463, -0.6389872, 0.30223495, 9.1394681930542, -3.209329843521118, 1.853331446647644, 10.475906372070312, 1.602164626121521, 3.213332176208496, -0.780029296875, 0.69580078125, -0.402099609375, 0, 
45, 1234060438, 0.70620936, 0.036288604, -0.63874143, 0.30325085, 9.149181365966797, -3.1677956581115723, 1.8346836566925049, 7.340498447418213, -0.6315836906433105, 3.038268804550171, -0.779052734375, 0.69482421875, -0.40771484375, 0, 
46, 1234077105, 0.70573986, 0.036707073, -0.638903, 0.30395207, 9.206321716308594, -3.266366958618164, 1.7949550151824951, 3.018373489379883, -2.8374903202056885, 2.7995002269744873, -0.779052734375, 0.693603515625, -0.405517578125, 0, 
47, 1234093772, 0.70519805, 0.036918633, -0.6393111, 0.30432546, 9.323471069335938, -3.428422212600708, 1.7921150922775269, 1.1606395244598389, -4.394588470458984, 2.526475429534912, -0.778564453125, 0.693115234375, -0.406494140625, 0, 
48, 1234110439, 0.70445025, 0.037524644, -0.6397382, 0.30508494, 9.375706672668457, -3.5646681785583496, 1.7802079916000366, 2.959656238555908, -5.447565078735352, 2.707063913345337, -0.78076171875, 0.693603515625, -0.4052734375, 0, 
49, 1234127106, 0.70371664, 0.0386007, -0.639833, 0.3064421, 9.377785682678223, -3.632347583770752, 1.6191459894180298, 10.258761405944824, -5.21823787689209, 3.689383029937744, -0.780517578125, 0.697021484375, -0.406005859375, 0, 
50, 1234143773, 0.70312154, 0.040552117, -0.6391289, 0.30901444, 9.256510734558105, -3.5316596031188965, 1.4954404830932617, 21.33440399169922, -2.1677024364471436, 5.11623477935791, -0.781982421875, 0.692626953125, -0.410400390625, 0, 
51, 1234160440, 0.7027914, 0.042842768, -0.63772506, 0.31233913, 9.081317901611328, -3.2725236415863037, 1.4064569473266602, 27.845783233642578, 1.8742276430130005, 6.479186058044434, -0.7783203125, 0.69140625, -0.414794921875, 0, 
52, 1234177107, 0.7026967, 0.044888783, -0.63601846, 0.31572613, 8.917597770690918, -3.112638235092163, 1.3831061124801636, 27.606115341186523, 4.947440147399902, 7.2584428787231445, -0.7763671875, 0.68603515625, -0.421630859375, 0, 
53, 1234193774, 0.7026134, 0.04660906, -0.63438714, 0.318928, 8.879741668701172, -3.1835105419158936, 1.5701152086257935, 24.738187789916992, 5.467670440673828, 7.722734451293945, -0.778076171875, 0.68505859375, -0.427490234375, 0, 
54, 1234210441, 0.70242983, 0.048181973, -0.6329032, 0.32203212, 8.989511489868164, -3.238142728805542, 1.932266354560852, 23.735519409179688, 4.486560821533203, 8.236868858337402, -0.77392578125, 0.683837890625, -0.435546875, 0, 
55, 1234227108, 0.70207393, 0.049725432, -0.63169813, 0.3249267, 9.080148696899414, -3.2746636867523193, 2.3101625442504883, 22.631813049316406, 2.1733317375183105, 7.930950164794922, -0.770751953125, 0.684326171875, -0.4404296875, 0, 
56, 1234243775, 0.70130783, 0.051412575, -0.6309954, 0.327672, 9.229743003845215, -3.286388397216797, 2.5174543857574463, 21.114980697631836, -2.2687065601348877, 7.55099630355835, -0.77099609375, 0.683349609375, -0.44482421875, 0, 
57, 1234260442, 0.7002737, 0.053362094, -0.630485, 0.33054194, 9.55971622467041, -3.4758152961730957, 2.416513204574585, 21.633129119873047, -4.650871276855469, 7.491549491882324, -0.773193359375, 0.6806640625, -0.4453125, 0, 
58, 1234277109, 0.69954425, 0.05554034, -0.62946284, 0.33366102, 9.732016563415527, -3.7387869358062744, 2.143554210662842, 26.074682235717773, -1.8043620586395264, 7.082699775695801, -0.767822265625, 0.6767578125, -0.453369140625, 0, 
59, 1234293776, 0.6989511, 0.058205403, -0.6279001, 0.33737397, 9.442503929138184, -3.443620443344116, 1.7589111328125, 30.94186019897461, 0.9540891647338867, 7.007108211517334, -0.769775390625, 0.672607421875, -0.458740234375, 0, 
60, 1234310443, 0.69872254, 0.0602301, -0.6261892, 0.34065577, 9.344881057739258, -3.100865125656128, 1.6446305513381958, 26.980220794677734, 4.312345027923584, 6.959553241729736, -0.767822265625, 0.672607421875, -0.462890625, 0, 
61, 1234327110, 0.6990855, 0.060723912, -0.6245672, 0.34279463, 9.138238906860352, -2.9043917655944824, 1.6021093130111694, 14.5112886428833, 9.509405136108398, 6.805481910705566, -0.765625, 0.671875, -0.468994140625, 0, 
62, 1234343777, 0.69980145, 0.059664287, -0.6234218, 0.34360352, 8.977994918823242, -2.8926889896392822, 1.7479121685028076, -0.47405925393104553, 12.104336738586426, 6.372583866119385, -0.763671875, 0.67236328125, -0.472412109375, 0, 
63, 1234360444, 0.7007949, 0.057482854, -0.6226526, 0.34334528, 8.887723922729492, -2.978411912918091, 2.0675244331359863, -11.454582214355469, 13.737015724182129, 5.58722448348999, -0.76025390625, 0.67236328125, -0.4736328125, 0, 
64, 1234377111, 0.70203805, 0.05474974, -0.6220283, 0.34238273, 8.773995399475098, -3.156790256500244, 2.2864863872528076, -16.928905487060547, 14.8792142868042, 4.207623481750488, -0.757568359375, 0.6767578125, -0.475341796875, 0, 
65, 1234393778, 0.70316637, 0.05234385, -0.62155586, 0.34129974, 8.644305229187012, -3.2929530143737793, 2.4354851245880127, -16.762454986572266, 13.02708625793457, 2.4219658374786377, -0.75341796875, 0.6787109375, -0.47216796875, 0, 
66, 1234410445, 0.7040246, 0.050541826, -0.62133956, 0.3401946, 8.718547821044922, -3.307077169418335, 2.6516010761260986, -14.38220500946045, 9.13321590423584, 0.4671248495578766, -0.75244140625, 0.680908203125, -0.47314453125, 0, 
67, 1234427112, 0.70452595, 0.04954419, -0.62148225, 0.33904046, 8.784461975097656, -3.396639108657837, 2.7815818786621094, -11.185961723327637, 3.808303117752075, -2.1963605880737305, -0.751708984375, 0.681884765625, -0.470947265625, 0, 
68, 1234443779, 0.70465404, 0.049432855, -0.6218546, 0.33810687, 8.785099029541016, -3.4118661880493164, 2.5701513290405273, -6.604036808013916, -0.8794570565223694, -4.033751010894775, -0.75390625, 0.68359375, -0.46875, 0, 
69, 1234460446, 0.70469946, 0.0496952, -0.62234116, 0.33707675, 8.770000457763672, -3.2497189044952393, 2.2902004718780518, -5.193572521209717, -2.8370108604431152, -5.817946434020996, -0.75732421875, 0.6826171875, -0.4697265625, 0, 
70, 1234477113, 0.7047289, 0.049587704, -0.6232235, 0.33539668, 8.736194610595703, -3.0754570960998535, 2.0936357975006104, -10.81999683380127, -4.155426025390625, -7.2441020011901855, -0.7587890625, 0.68359375, -0.466796875, 0, 
71, 1234493780, 0.70474654, 0.048441194, -0.62477624, 0.33262673, 8.8610258102417, -2.9704480171203613, 1.999272108078003, -21.90744972229004, -5.490970134735107, -7.760401248931885, -0.7587890625, 0.68212890625, -0.463623046875, 0, 
72, 1234510447, 0.70484626, 0.04613285, -0.6268129, 0.3288912, 8.972382545471191, -3.066074848175049, 1.9720187187194824, -32.96710205078125, -5.084801197052002, -7.4787278175354, -0.76171875, 0.6826171875, -0.45458984375, 0, 
73, 1234527114, 0.70495254, 0.043202266, -0.62905645, 0.324752, 9.02924919128418, -3.2762792110443115, 1.898775577545166, -38.18777084350586, -4.773470401763916, -6.674096584320068, -0.762451171875, 0.690185546875, -0.447509765625, 0, 
74, 1234543781, 0.7049562, 0.040559966, -0.63114774, 0.32100487, 9.114450454711914, -3.4215903282165527, 1.997159481048584, -35.10506057739258, -4.848691940307617, -5.914799690246582, -0.762939453125, 0.691650390625, -0.439697265625, 0, 
75, 1234560448, 0.7048988, 0.038648345, -0.6328785, 0.3179452, 9.17004680633545, -3.431975841522217, 2.1722662448883057, -27.146642684936523, -5.0233683586120605, -5.589603424072266, -0.76708984375, 0.690185546875, -0.432373046875, 0, 
76, 1234577115, 0.7047098, 0.037487514, -0.63437426, 0.3155124, 9.142714500427246, -3.337857246398926, 2.219085454940796, -20.691057205200195, -5.780919075012207, -5.69512939453125, -0.7685546875, 0.69189453125, -0.428466796875, 0, 
77, 1234593782, 0.7044307, 0.03674409, -0.63574, 0.31346756, 9.070616722106934, -3.30043888092041, 2.134158134460449, -16.86178970336914, -6.308921813964844, -5.50754976272583, -0.772216796875, 0.69287109375, -0.421630859375, 0, 
78, 1234610449, 0.7041379, 0.036135856, -0.6370547, 0.31152093, 9.06332778930664, -3.2359352111816406, 2.0497748851776123, -15.211685180664062, -6.586920738220215, -5.50642204284668, -0.772705078125, 0.695556640625, -0.41552734375, 0, 
79, 1234627116, 0.70388114, 0.035478584, -0.6383178, 0.30958518, 9.11224365234375, -3.1598315238952637, 1.9106565713882446, -15.089071273803711, -6.172346591949463, -5.279064178466797, -0.773193359375, 0.693603515625, -0.413330078125, 0, 
80, 1234643783, 0.7036854, 0.03479345, -0.63947225, 0.30771992, 9.242302894592285, -3.152405023574829, 1.8469597101211548, -14.951642990112305, -5.2154154777526855, -5.005429267883301, -0.778076171875, 0.69482421875, -0.409423828125, 0, 
81, 1234660450, 0.70364183, 0.03419432, -0.6403128, 0.30613494, 9.343347549438477, -3.1767380237579346, 1.8039261102676392, -12.868925094604492, -3.0739171504974365, -4.443992614746094, -0.775146484375, 0.69580078125, -0.405517578125, 0, 
82, 1234677117, 0.70377696, 0.033873215, -0.64068836, 0.30507246, 9.466684341430664, -3.2876596450805664, 1.755213737487793, -8.118191719055176, -0.5627111792564392, -3.574265956878662, -0.77783203125, 0.69580078125, -0.40380859375, 0, 
83, 1234693784, 0.7040991, 0.033949852, -0.64054006, 0.30463153, 9.506659507751465, -3.2475409507751465, 1.7917194366455078, -2.426547050476074, 2.123824119567871, -2.828486919403076, -0.77783203125, 0.694580078125, -0.406005859375, 0, 
84, 1234710451, 0.704612, 0.034228437, -0.63998157, 0.3045884, 9.488140106201172, -3.1828420162200928, 1.7596435546875, 0.8852326273918152, 4.710066795349121, -2.318423271179199, -0.78173828125, 0.69580078125, -0.406982421875, 0, 
85, 1234727118, 0.70529073, 0.034384787, -0.63923246, 0.30457288, 9.41015911102295, -3.1381280422210693, 1.7037880420684814, 1.072896957397461, 6.522576332092285, -1.9663128852844238, -0.77734375, 0.69580078125, -0.405029296875, 0, 
86, 1234743785, 0.70604855, 0.034471933, -0.6384074, 0.3045383, 9.301412582397461, -3.1342177391052246, 1.7105648517608643, 0.49973586201667786, 7.498996257781982, -1.9795290231704712, -0.778076171875, 0.693603515625, -0.408203125, 0, 
87, 1234760452, 0.70689553, 0.034526095, -0.6374849, 0.30449942, 9.289411544799805, -3.224839687347412, 1.671587347984314, 0.8268486857414246, 8.323534965515137, -1.989800214767456, -0.78076171875, 0.691650390625, -0.410888671875, 0, 
88, 1234777119, 0.70780563, 0.034636915, -0.6364209, 0.30459815, 9.24846076965332, -3.1783816814422607, 1.7543630599975586, 1.622110366821289, 9.353588104248047, -1.8067331314086914, -0.778076171875, 0.69140625, -0.413330078125, 0, 
89, 1234793786, 0.7087229, 0.03467881, -0.6354001, 0.30459157, 9.158665657043457, -3.1256628036499023, 1.7794495820999146, 1.045177698135376, 9.189813613891602, -1.9545378684997559, -0.777099609375, 0.69189453125, -0.414794921875, 0, 
90, 1234810453, 0.7095428, 0.034653, -0.63456154, 0.30443364, 9.129277229309082, -3.1226749420166016, 1.851669430732727, -0.1560261994600296, 7.936532020568848, -2.112081289291382, -0.776611328125, 0.688232421875, -0.418212890625, 0, 
91, 1234827120, 0.7102352, 0.03460946, -0.63393384, 0.30413225, 9.067255020141602, -3.0703372955322266, 1.9441503286361694, -1.5196017026901245, 6.445565223693848, -2.4614450931549072, -0.776123046875, 0.68994140625, -0.417724609375, 0, 
92, 1234843787, 0.7107514, 0.03448323, -0.63361484, 0.30360454, 9.038618087768555, -3.1090643405914307, 1.9703031778335571, -3.2954459190368652, 4.204235553741455, -2.7101311683654785, -0.775634765625, 0.6904296875, -0.417724609375, 0, 
93, 1234860454, 0.7110781, 0.03437114, -0.63358223, 0.3029199, 9.02327823638916, -3.1061108112335205, 1.9616732597351074, -4.423774719238281, 1.8917860984802246, -3.063138008117676, -0.777587890625, 0.689208984375, -0.413818359375, 0, 
94, 1234877121, 0.7112453, 0.034354668, -0.63377744, 0.3021193, 9.097975730895996, -3.1510181427001953, 1.927064299583435, -4.733765602111816, -0.20949910581111908, -3.619997262954712, -0.777099609375, 0.69091796875, -0.4169921875, 0, 
95, 1234893788, 0.7112988, 0.03439185, -0.63412184, 0.3012656, 9.155706405639648, -3.1843526363372803, 1.8979843854904175, -5.056280612945557, -1.5336631536483765, -3.8550069332122803, -0.77783203125, 0.689208984375, -0.416015625, 0, 
96, 1234910455, 0.7112521, 0.034489386, -0.63458544, 0.30038682, 9.228400230407715, -3.1751480102539062, 1.8847683668136597, -5.116753101348877, -2.6741585731506348, -4.0106425285339355, -0.78173828125, 0.688232421875, -0.4169921875, 0, 
97, 1234927122, 0.71112025, 0.034627408, -0.63515085, 0.29948702, 9.274914741516113, -3.171491861343384, 1.8744266033172607, -5.339928150177002, -3.5794906616210938, -4.1149749755859375, -0.783203125, 0.68896484375, -0.4140625, 0, 
98, 1234943789, 0.71093714, 0.034803245, -0.6357866, 0.2985507, 9.316442489624023, -3.177257537841797, 1.8596044778823853, -5.673495769500732, -4.149348258972168, -4.380002975463867, -0.78369140625, 0.6904296875, -0.410888671875, 0, 
99, 1234960456, 0.7107524, 0.034968257, -0.63643897, 0.2975794, 9.371589660644531, -3.216670274734497, 1.8401128053665161, -5.477443218231201, -4.375290393829346, -4.402657508850098, -0.78466796875, 0.689453125, -0.4091796875, 0, 
100, 1234977123, 0.7105685, 0.035309583, -0.6369981, 0.29678157, 9.382668495178223, -3.2731847763061523, 1.8175714015960693, -4.009840965270996, -4.109321117401123, -4.419926166534424, -0.786376953125, 0.686279296875, -0.40625, 0, 
101, 1234993790, 0.7104542, 0.035678998, -0.6374211, 0.29610184, 9.356305122375488, -3.26462984085083, 1.770693302154541, -2.923664093017578, -3.22127103805542, -4.10955810546875, -0.78759765625, 0.68359375, -0.407958984375, 0, 
102, 1235010457, 0.71040237, 0.035992455, -0.63774055, 0.2955, 9.31711196899414, -3.2065064907073975, 1.7582341432571411, -2.7331762313842773, -2.277193307876587, -3.6561169624328613, -0.789794921875, 0.686279296875, -0.40625, 0, 
103, 1235027124, 0.71042186, 0.03610857, -0.6380133, 0.29484943, 9.297403335571289, -3.1594557762145996, 1.7739272117614746, -3.7426815032958984, -1.3703819513320923, -3.1701605319976807, -0.787353515625, 0.6845703125, -0.40478515625, 0, 
104, 1235043791, 0.7104939, 0.03603583, -0.63824046, 0.2941923, 9.277287483215332, -3.190765142440796, 1.818858027458191, -4.4984354972839355, -0.5722262263298035, -2.468564987182617, -0.791748046875, 0.685302734375, -0.404052734375, 0, 
105, 1235060458, 0.71056354, 0.036007226, -0.63840127, 0.29367822, 9.298355102539062, -3.2565102577209473, 1.8061816692352295, -3.704339027404785, -0.24773883819580078, -2.01473331451416, -0.786865234375, 0.68505859375, -0.40478515625, 0, 
106, 1235077125, 0.71062976, 0.03615872, -0.6384358, 0.29342392, 9.304231643676758, -3.2947919368743896, 1.8635119199752808, -1.5819813013076782, 0.10901406407356262, -1.5987319946289062, -0.791259765625, 0.68408203125, -0.4033203125, 0, 
107, 1235093792, 0.71069807, 0.036359996, -0.63838714, 0.2933395, 9.25745964050293, -3.269902229309082, 1.837259292602539, -0.16853155195713043, 0.37514278292655945, -0.9722709059715271, -0.790771484375, 0.684814453125, -0.4033203125, 0, 
108, 1235110459, 0.71072894, 0.036504097, -0.63835984, 0.29330626, 9.224973678588867, -3.229418992996216, 1.8429375886917114, -0.2815091907978058, 0.24195678532123566, -0.40521854162216187, -0.7919921875, 0.6826171875, -0.4033203125, 0, 
109, 1235127126, 0.7107395, 0.03656266, -0.63835657, 0.29328048, 9.211433410644531, -3.216569423675537, 1.8514559268951416, -0.6996620893478394, 0.20398592948913574, 0.04732586443424225, -0.79248046875, 0.685302734375, -0.40380859375, 0, 
110, 1235143793, 0.71073765, 0.03659168, -0.63834035, 0.2933167, 9.246058464050293, -3.2182576656341553, 1.8519604206085205, -0.5729689002037048, 0.296767920255661, 0.48918333649635315, -0.790283203125, 0.68359375, -0.404052734375, 0, 
111, 1235160460, 0.71071523, 0.036636952, -0.638275, 0.29350746, 9.260186195373535, -3.208111524581909, 1.8212486505508423, 0.1568329632282257, 0.49554815888404846, 1.1691622734069824, -0.7919921875, 0.6826171875, -0.4033203125, 0, 
112, 1235177127, 0.71067494, 0.03675143, -0.63814324, 0.29387707, 9.323164939880371, -3.1880481243133545, 1.8462567329406738, 1.356378197669983, 0.6692278385162354, 1.7410169839859009, -0.7919921875, 0.684326171875, -0.405517578125, 0, 
113, 1235193794, 0.71065307, 0.036893483, -0.63793623, 0.2943617, 9.307320594787598, -3.1702306270599365, 1.8538973331451416, 2.2983617782592773, 1.0373591184616089, 2.155186891555786, -0.791259765625, 0.68310546875, -0.40283203125, 0, 
114, 1235210461, 0.7106153, 0.037003465, -0.63772833, 0.294889, 9.28388500213623, -3.122499465942383, 1.8196133375167847, 2.5171587467193604, 0.9840975999832153, 2.5700745582580566, -0.79248046875, 0.680908203125, -0.40283203125, 0, 
115, 1235227128, 0.7105905, 0.037015386, -0.63752985, 0.29537594, 9.247235298156738, -3.1307172775268555, 1.8145617246627808, 1.9926103353500366, 1.1321901082992554, 2.8125498294830322, -0.790283203125, 0.684814453125, -0.40673828125, 0, 
116, 1235243795, 0.71054506, 0.03700568, -0.6373448, 0.29588506, 9.241268157958984, -3.1211276054382324, 1.8276219367980957, 1.687383770942688, 1.1230720281600952, 3.007078170776367, -0.790771484375, 0.684814453125, -0.408447265625, 0, 
117, 1235260462, 0.71049494, 0.036994714, -0.6371441, 0.2964387, 9.236106872558594, -3.095015287399292, 1.8401455879211426, 1.7533302307128906, 1.2488497495651245, 3.207517385482788, -0.7880859375, 0.68359375, -0.407470703125, 0, 
118, 1235277129, 0.71044564, 0.036983546, -0.6369443, 0.29698744, 9.244760513305664, -3.060734748840332, 1.8593374490737915, 1.8758679628372192, 1.1980534791946411, 3.215911865234375, -0.78759765625, 0.6845703125, -0.407958984375, 0, 
119, 1235293796, 0.7103715, 0.03694792, -0.636784, 0.2975119, 9.23911190032959, -3.0485291481018066, 1.8958615064620972, 1.6053719520568848, 0.9283386468887329, 3.278444528579712, -0.7880859375, 0.6875, -0.41015625, 0, 
120, 1235310463, 0.7102596, 0.03692754, -0.6366711, 0.29802287, 9.232200622558594, -3.044071674346924, 1.864338994026184, 1.5574123859405518, 0.4870191216468811, 3.248401403427124, -0.7880859375, 0.6875, -0.412841796875, 0, 
121, 1235327130, 0.710127, 0.03697369, -0.63657176, 0.29854494, 9.249381065368652, -3.0346410274505615, 1.8783320188522339, 1.9209331274032593, 0.18978369235992432, 3.070021390914917, -0.787109375, 0.68359375, -0.41064453125, 0, 
122, 1235343797, 0.709967, 0.03707753, -0.636491, 0.29908454, 9.253344535827637, -3.015305280685425, 1.888820767402649, 2.071805000305176, -0.07245832681655884, 2.938781976699829, -0.788818359375, 0.685302734375, -0.4111328125, 0, 
123, 1235360464, 0.70981604, 0.03719142, -0.6364135, 0.29959297, 9.235868453979492, -3.0142738819122314, 1.8681864738464355, 1.888251543045044, -0.04807503521442413, 2.7188968658447266, -0.78369140625, 0.681396484375, -0.410888671875, 0, 
124, 1235377131, 0.70968676, 0.037278596, -0.63636297, 0.29999518, 9.236088752746582, -3.003469467163086, 1.8603419065475464, 1.3836619853973389, -0.11049317568540573, 2.3232767581939697, -0.78759765625, 0.684814453125, -0.412353515625, 0, 
125, 1235393798, 0.7095532, 0.03729016, -0.63636684, 0.30030173, 9.231745719909668, -2.9920287132263184, 1.856123685836792, 0.39930200576782227, -0.23222395777702332, 2.2061116695404053, -0.7861328125, 0.68310546875, -0.41455078125, 0, 
126, 1235410465, 0.7094155, 0.037308127, -0.63639957, 0.30055526, 9.227439880371094, -2.9920384883880615, 1.8554089069366455, -0.31940311193466187, -0.255614697933197, 1.8559086322784424, -0.784912109375, 0.686279296875, -0.410888671875, 0, 
127, 1235427132, 0.7093439, 0.037260268, -0.6364203, 0.30068624, 9.230191230773926, -3.02337646484375, 1.8977218866348267, -0.5254765152931213, -0.028218790888786316, 1.551053762435913, -0.78759765625, 0.6875, -0.412841796875, 0, 
128, 1235443799, 0.70927846, 0.037306912, -0.636422, 0.30083123, 9.229018211364746, -3.0334789752960205, 1.8927288055419922, -0.04181273281574249, -0.07723509520292282, 1.184619426727295, -0.78662109375, 0.685791015625, -0.41455078125, 0, 
129, 1235460466, 0.70918757, 0.037428334, -0.63643456, 0.30100372, 9.241863250732422, -3.015164852142334, 1.909974455833435, 0.12604008615016937, -0.284230500459671, 0.9981268048286438, -0.784912109375, 0.685791015625, -0.41455078125, 0, 
130, 1235477133, 0.70908475, 0.037497133, -0.63651246, 0.3010727, 9.216828346252441, -3.0022640228271484, 1.917339563369751, -0.532372772693634, -0.6416621208190918, 0.8158092498779297, -0.78662109375, 0.686279296875, -0.412353515625, 0, 
131, 1235493800, 0.7089731, 0.037497055, -0.636668, 0.3010067, 9.207603454589844, -3.0264394283294678, 1.8889117240905762, -1.526555061340332, -0.987830400466919, 0.5292671322822571, -0.785400390625, 0.686767578125, -0.41357421875, 0, 
132, 1235510467, 0.70885885, 0.037509628, -0.63685733, 0.3008736, 9.222444534301758, -3.0606539249420166, 1.9020603895187378, -1.8970175981521606, -1.1852918863296509, 0.15774862468242645, -0.7841796875, 0.68505859375, -0.410400390625, 0, 
133, 1235527134, 0.7087488, 0.037619542, -0.63701886, 0.30077708, 9.21932601928711, -3.075387954711914, 1.9324029684066772, -1.1330674886703491, -1.2533318996429443, -0.08076965808868408, -0.78759765625, 0.6845703125, -0.41064453125, 0, 
134, 1235543801, 0.7086467, 0.037821736, -0.63714164, 0.30073267, 9.2257661819458, -3.074559211730957, 1.9205490350723267, -0.41680827736854553, -1.1980470418930054, -0.2572155296802521, -0.78759765625, 0.68408203125, -0.411376953125, 0, 
135, 1235560468, 0.70855254, 0.038006764, -0.6372679, 0.3006634, 9.214075088500977, -3.0419435501098633, 1.9399052858352661, -0.590609610080719, -1.1673563718795776, -0.3055018484592438, -0.78662109375, 0.68359375, -0.4130859375, 0, 
136, 1235577135, 0.70847714, 0.03809998, -0.6374302, 0.3004853, 9.24100399017334, -3.0346860885620117, 1.9298286437988281, -1.838876724243164, -1.0190908908843994, -0.5003440976142883, -0.78759765625, 0.684814453125, -0.41357421875, 0, 
137, 1235593802, 0.7084258, 0.038041826, -0.6376459, 0.3001559, 9.239418029785156, -3.0748932361602783, 1.925157904624939, -3.072025775909424, -1.008461594581604, -0.5428739786148071, -0.785888671875, 0.6845703125, -0.410888671875, 0, 
138, 1235610469, 0.7084006, 0.038023278, -0.6378152, 0.2998577, 9.255419731140137, -3.13079833984375, 1.8871643543243408, -2.718231201171875, -0.7248586416244507, -0.6351757645606995, -0.787109375, 0.6845703125, -0.412353515625, 0, 
139, 1235627136, 0.7084033, 0.03811329, -0.63790226, 0.29965493, 9.244611740112305, -3.1294422149658203, 1.9230257272720337, -2.0070624351501465, -0.2634010314941406, -0.7996286153793335, -0.787109375, 0.68310546875, -0.412353515625, 0, 
140, 1235643803, 0.7084041, 0.038188357, -0.6379924, 0.2994514, 9.241698265075684, -3.122509002685547, 1.8853955268859863, -2.13857102394104, -0.2451135665178299, -0.7392209768295288, -0.7880859375, 0.68408203125, -0.41015625, 0, 
141, 1235660470, 0.70843786, 0.03822429, -0.6380717, 0.29919806, 9.229183197021484, -3.159303903579712, 1.9181396961212158, -2.2045109272003174, -0.10145191103219986, -0.8112054467201233, -0.789794921875, 0.68701171875, -0.41015625, 0, 
142, 1235677137, 0.7084877, 0.038330916, -0.63807666, 0.29905543, 9.217659950256348, -3.211683988571167, 1.8674677610397339, -1.1924632787704468, 0.19811423122882843, -0.6284204125404358, -0.789306640625, 0.681884765625, -0.407958984375, 0, 
143, 1235693804, 0.70854723, 0.038477927, -0.63800794, 0.29904225, 9.169928550720215, -3.1540472507476807, 1.8503868579864502, -0.35213619470596313, 0.5728216171264648, -0.23024536669254303, -0.7880859375, 0.684814453125, -0.41015625, 0, 
144, 1235710471, 0.70861644, 0.03849909, -0.6379794, 0.29893637, 9.158690452575684, -3.0816521644592285, 1.8817479610443115, -1.4187899827957153, 0.6385054588317871, -0.13211031258106232, -0.7919921875, 0.6826171875, -0.41064453125, 0, 
145, 1235727138, 0.70867705, 0.038276967, -0.6380573, 0.2986551, 9.16081714630127, -3.100374221801758, 1.8799856901168823, -3.5895304679870605, 0.5296258330345154, 0.1302982121706009, -0.78759765625, 0.682373046875, -0.406982421875, 0, 
146, 1235743805, 0.70871115, 0.03803621, -0.6381664, 0.29837117, 9.199949264526367, -3.2138724327087402, 1.8990131616592407, -3.5873661041259766, 0.23838382959365845, 0.2956666052341461, -0.789306640625, 0.68212890625, -0.408935546875, 0, 
147, 1235760472, 0.7087408, 0.038009193, -0.6381874, 0.2982597, 9.272147178649902, -3.228140115737915, 1.8708422183990479, -1.5218424797058105, 0.21943040192127228, 0.19817183911800385, -0.79150390625, 0.684814453125, -0.4111328125, 0, 
148, 1235777139, 0.7087558, 0.03817382, -0.63812387, 0.29833865, 9.242143630981445, -3.1892762184143066, 1.8448545932769775, 0.07839406281709671, 0.34352388978004456, 0.22201727330684662, -0.79150390625, 0.684814453125, -0.408447265625, 0, 
149, 1235793806, 0.7088017, 0.03823339, -0.6380561, 0.2983671, 9.195207595825195, -3.118536949157715, 1.830755591392517, -0.42149537801742554, 0.6200770139694214, 0.416917085647583, -0.790283203125, 0.68310546875, -0.405029296875, 0, 
150, 1235810473, 0.70883423, 0.03814867, -0.6380593, 0.29829395, 9.225954055786133, -3.1203057765960693, 1.831281304359436, -1.6479212045669556, 0.4621172249317169, 0.6149481534957886, -0.79150390625, 0.684814453125, -0.408935546875, 0, 
151, 1235827140, 0.70890385, 0.038030703, -0.63800454, 0.2982606, 9.238465309143066, -3.1370890140533447, 1.8253483772277832, -1.6981732845306396, 1.0454272031784058, 0.8327649235725403, -0.789306640625, 0.68310546875, -0.40966796875, 0, 
152, 1235843807, 0.7089757, 0.037952114, -0.6379154, 0.29829055, 9.235052108764648, -3.153165340423584, 1.8159511089324951, -1.239539384841919, 1.187462329864502, 0.9399155974388123, -0.789306640625, 0.681396484375, -0.41015625, 0, 
153, 1235860474, 0.7090691, 0.037912443, -0.63777214, 0.2983798, 9.22641658782959, -3.147554397583008, 1.8237413167953491, -0.5378538966178894, 1.431128740310669, 1.0298417806625366, -0.790771484375, 0.68310546875, -0.407958984375, 0, 
154, 1235877141, 0.70917714, 0.037870716, -0.63761514, 0.2984636, 9.227377891540527, -3.0889737606048584, 1.838043451309204, -0.5139699578285217, 1.5558369159698486, 0.9851731657981873, -0.789306640625, 0.68359375, -0.41015625, 0, 
155, 1235893808, 0.7092648, 0.037799563, -0.63749534, 0.29852036, 9.193532943725586, -3.094118118286133, 1.8468537330627441, -0.9776110649108887, 1.3835147619247437, 1.0126813650131226, -0.78759765625, 0.685302734375, -0.40966796875, 0, 
156, 1235910475, 0.709344, 0.03768335, -0.6374228, 0.29850185, 9.192182540893555, -3.0748581886291504, 1.8210279941558838, -1.3830088376998901, 1.1041953563690186, 0.923382580280304, -0.789794921875, 0.68701171875, -0.408935546875, 0, 
157, 1235927142, 0.70940447, 0.03759079, -0.6373571, 0.29851013, 9.195587158203125, -3.0885281562805176, 1.8086163997650146, -1.2643451690673828, 0.9852499961853027, 0.9744670391082764, -0.789306640625, 0.684814453125, -0.408447265625, 0, 
158, 1235943809, 0.7094437, 0.037570108, -0.63729143, 0.29855978, 9.215741157531738, -3.096933126449585, 1.8296351432800293, -0.7023642063140869, 0.7483582496643066, 0.9137011170387268, -0.789794921875, 0.686279296875, -0.412353515625, 0, 
159, 1235960476, 0.70944047, 0.03757554, -0.6372514, 0.2986523, 9.22568130493164, -3.0659189224243164, 1.8572447299957275, -0.6089354753494263, 0.4590691924095154, 1.0695991516113281, -0.78759765625, 0.68310546875, -0.412353515625, 0, 
160, 1235977143, 0.7094084, 0.037549023, -0.6372919, 0.29864526, 9.207849502563477, -3.0235869884490967, 1.8336433172225952, -1.4830394983291626, 0.02227664738893509, 0.7865725159645081, -0.785888671875, 0.68408203125, -0.411376953125, 0, 
161, 1235993810, 0.7092863, 0.037459552, -0.63749063, 0.2985221, 9.199481964111328, -3.0460591316223145, 1.7969675064086914, -2.6053876876831055, -1.041412353515625, 0.7279449105262756, -0.7880859375, 0.685302734375, -0.408935546875, 0, 
162, 1236010477, 0.7090647, 0.037355117, -0.6378436, 0.29830787, 9.205873489379883, -3.0694308280944824, 1.824534296989441, -3.138042449951172, -2.300942897796631, 0.6457154154777527, -0.790283203125, 0.684326171875, -0.408447265625, 0, 
163, 1236027144, 0.708729, 0.037252497, -0.6383342, 0.29806864, 9.228020668029785, -3.076997995376587, 1.8453220129013062, -3.593013286590576, -3.4460866451263428, 0.7716146111488342, -0.78759765625, 0.6845703125, -0.407470703125, 0, 
164, 1236043811, 0.70832247, 0.03716976, -0.6388831, 0.29786962, 9.245274543762207, -3.021303653717041, 1.8345365524291992, -3.446458101272583, -4.06455659866333, 1.04134202003479, -0.7890625, 0.685302734375, -0.405029296875, 0, 
165, 1236060478, 0.7078552, 0.0372231, -0.6394772, 0.29769874, 9.223597526550293, -3.0729641914367676, 1.7222886085510254, -2.6270434856414795, -4.862225532531738, 0.7468982934951782, -0.7880859375, 0.68310546875, -0.40478515625, 0, 
166, 1236077145, 0.7073638, 0.037278187, -0.6400773, 0.29757035, 9.302507400512695, -3.1070666313171387, 1.7558958530426025, -2.7559778690338135, -4.873482704162598, 0.943296492099762, -0.787353515625, 0.68896484375, -0.404541015625, 0, 
167, 1236093812, 0.7069892, 0.037209578, -0.6405883, 0.2973696, 9.298602104187012, -3.0726592540740967, 1.788283348083496, -3.3249900341033936, -3.7586770057678223, 0.9165313839912415, -0.78955078125, 0.6875, -0.4013671875, 0, 
168, 1236110479, 0.70677483, 0.037012402, -0.640993, 0.29703125, 9.30921745300293, -3.0975353717803955, 1.8356021642684937, -4.251297950744629, -2.355010747909546, 0.49142444133758545, -0.78955078125, 0.685791015625, -0.404052734375, 0, 
169, 1236127146, 0.7066972, 0.03685363, -0.6412363, 0.29671067, 9.249889373779297, -3.0701253414154053, 1.8476473093032837, -4.093050479888916, -0.9049350619316101, 0.019894663244485855, -0.791259765625, 0.685791015625, -0.399658203125, 0, 
170, 1236143813, 0.70662355, 0.036802795, -0.64144325, 0.29644492, 9.258371353149414, -3.130314588546753, 1.757694125175476, -2.836632251739502, -1.0695863962173462, -0.12288974225521088, -0.79345703125, 0.6865234375, -0.3994140625, 0, 
171, 1236160480, 0.7065405, 0.03694265, -0.6415337, 0.29642934, 9.256871223449707, -3.141965866088867, 1.8102413415908813, -0.9302403926849365, -0.7433317303657532, 0.17545337975025177, -0.78955078125, 0.6845703125, -0.3984375, 0, 
172, 1236177147, 0.70641255, 0.037121087, -0.6416574, 0.2964445, 9.238465309143066, -3.0575754642486572, 1.7883849143981934, -0.36001211404800415, -1.2852325439453125, 0.31435105204582214, -0.788818359375, 0.686279296875, -0.399658203125, 0, 
173, 1236193814, 0.7062329, 0.037129786, -0.64190346, 0.29633838, 9.22614574432373, -3.090367317199707, 1.7865865230560303, -2.067073106765747, -1.7546108961105347, 0.5953992009162903, -0.79052734375, 0.686279296875, -0.400634765625, 0, 
174, 1236210481, 0.7060563, 0.03701095, -0.6422092, 0.2961119, 9.25169849395752, -3.1550581455230713, 1.7648800611495972, -3.524231195449829, -1.742112159729004, 0.553074300289154, -0.793212890625, 0.6875, -0.397705078125, 0, 
175, 1236227148, 0.70593154, 0.03686419, -0.6424505, 0.29590413, 9.21229362487793, -3.2755377292633057, 1.7528430223464966, -3.2575643062591553, -1.2104562520980835, 0.6838014721870422, -0.793212890625, 0.6884765625, -0.397705078125, 0, 
176, 1236243815, 0.70583564, 0.036921564, -0.6425568, 0.2958948, 9.24363899230957, -3.279381513595581, 1.7132229804992676, -1.0725061893463135, -0.8118072748184204, 0.6538473963737488, -0.79443359375, 0.68701171875, -0.397216796875, 0, 
177, 1236260482, 0.7057582, 0.037206244, -0.6425394, 0.29608175, 9.240913391113281, -3.1924445629119873, 1.7355616092681885, 0.9600471258163452, -0.47660115361213684, 0.49317893385887146, -0.791015625, 0.685302734375, -0.395751953125, 0, 
178, 1236277149, 0.7056926, 0.037346244, -0.6425673, 0.2961596, 9.262794494628906, -3.119457244873047, 1.74332594871521, -0.10854661464691162, -0.45324230194091797, 0.6270436644554138, -0.788818359375, 0.68798828125, -0.399169921875, 0, 
179, 1236293816, 0.7055902, 0.037302095, -0.6426771, 0.29617092, 9.266287803649902, -3.139688730239868, 1.727927565574646, -1.8549870252609253, -0.5135602951049805, 1.1429731845855713, -0.79345703125, 0.684326171875, -0.3994140625, 0, 
180, 1236310483, 0.70553833, 0.037201762, -0.64276505, 0.29611662, 9.289737701416016, -3.117410182952881, 1.7548367977142334, -2.144897222518921, -0.17321869730949402, 1.01141357421875, -0.791015625, 0.686767578125, -0.3974609375, 0, 
181, 1236327150, 0.70552146, 0.037103042, -0.6428077, 0.29607633, 9.266630172729492, -3.177053689956665, 1.7189747095108032, -1.9009360074996948, 0.16787204146385193, 1.0082374811172485, -0.7900390625, 0.6875, -0.3984375, 0, 
182, 1236343817, 0.70552707, 0.037102185, -0.64277256, 0.29613927, 9.263245582580566, -3.1555304527282715, 1.7530897855758667, -0.898672878742218, 0.5004017353057861, 0.9959819316864014, -0.791015625, 0.6875, -0.39794921875, 0, 
183, 1236360484, 0.7055574, 0.03721615, -0.64267814, 0.29625764, 9.25553035736084, -3.1785740852355957, 1.7706053256988525, 0.013747615739703178, 0.6780769228935242, 0.6914339065551758, -0.792724609375, 0.6875, -0.396728515625, 0, 
184, 1236377151, 0.7055978, 0.037359707, -0.642542, 0.29643887, 9.201591491699219, -3.1322238445281982, 1.7354828119277954, 0.6747345924377441, 0.8219563961029053, 0.8621939420700073, -0.791015625, 0.6875, -0.3974609375, 0, 
185, 1236393818, 0.7056293, 0.037491266, -0.6424104, 0.29663244, 9.175127029418945, -3.0734236240386963, 1.6921825408935547, 0.6563190221786499, 0.7897740006446838, 0.9935742020606995, -0.791748046875, 0.68701171875, -0.400634765625, 0, 
186, 1236410485, 0.705623, 0.037519887, -0.64236015, 0.29675236, 9.204259872436523, -3.0712175369262695, 1.7435801029205322, -0.8430547714233398, 0.6034672260284424, 1.0975618362426758, -0.792724609375, 0.68896484375, -0.397705078125, 0, 
187, 1236427152, 0.70566565, 0.03738874, -0.6423293, 0.29673433, 9.237936019897461, -3.086928367614746, 1.7782070636749268, -1.7248361110687256, 0.818588376045227, 1.1442409753799438, -0.79052734375, 0.686279296875, -0.3984375, 0, 
188, 1236443819, 0.70570195, 0.037346844, -0.6422795, 0.29676118, 9.275052070617676, -3.1277694702148438, 1.775442123413086, -1.2332642078399658, 0.7721011638641357, 0.9463828206062317, -0.792236328125, 0.6875, -0.3994140625, 0, 
189, 1236460486, 0.70577556, 0.037441507, -0.6421436, 0.2968682, 9.276288032531738, -3.1237354278564453, 1.7453925609588623, -0.08203747868537903, 1.105713129043579, 0.6317884922027588, -0.791748046875, 0.68798828125, -0.3984375, 0, 
190, 1236477153, 0.7059186, 0.03763208, -0.641896, 0.29703927, 9.2943754196167, -3.1110382080078125, 1.6992690563201904, 1.0596805810928345, 1.709589958190918, 0.3840688169002533, -0.792236328125, 0.68701171875, -0.39892578125, 0, 
191, 1236493820, 0.70610946, 0.037817005, -0.64159477, 0.2972126, 9.28173542022705, -3.0302748680114746, 1.7837246656417847, 1.0636634826660156, 2.2225229740142822, 0.29740825295448303, -0.791748046875, 0.68798828125, -0.39892578125, 0, 
192, 1236510487, 0.7063055, 0.03785669, -0.6413229, 0.2973286, 9.24018383026123, -3.0356431007385254, 1.820968508720398, 0.15770380198955536, 2.3427231311798096, 0.6842496395111084, -0.787353515625, 0.686767578125, -0.40185546875, 0, 
193, 1236527154, 0.7063387, 0.03777766, -0.641289, 0.29733318, 9.178215026855469, -3.0497641563415527, 1.7317551374435425, -1.3047363758087158, 0.6609932780265808, 1.0777758359909058, -0.7900390625, 0.6875, -0.4033203125, 0, 
194, 1236543821, 0.70619893, 0.037619825, -0.64147556, 0.2972827, 9.234912872314453, -3.083808660507202, 1.654592514038086, -2.7059943675994873, -0.8949589133262634, 1.5045347213745117, -0.791259765625, 0.68798828125, -0.401611328125, 0, 
195, 1236560488, 0.70608366, 0.037632603, -0.64160347, 0.29727918, 9.315213203430176, -3.1502280235290527, 1.7488908767700195, -1.381331205368042, -0.8951124548912048, 0.949917197227478, -0.788818359375, 0.685302734375, -0.398681640625, 0, 
196, 1236577155, 0.7060461, 0.037683453, -0.64164203, 0.29727837, 9.279769897460938, -3.1138899326324463, 1.7172337770462036, -1.0295921564102173, -0.19221051037311554, 0.6134177446365356, -0.791259765625, 0.68701171875, -0.401123046875, 0, 
197, 1236593822, 0.70607454, 0.037624545, -0.6416328, 0.29723826, 9.251679420471191, -3.0607125759124756, 1.7637939453125, -1.6424015760421753, 0.5418686270713806, 0.7643918395042419, -0.7900390625, 0.685302734375, -0.40234375, 0, 
198, 1236610489, 0.7061024, 0.037755966, -0.64156073, 0.297311, 9.22154426574707, -3.068652868270874, 1.749335765838623, -0.6730761528015137, 0.6896668076515198, 0.35484471917152405, -0.79052734375, 0.6875, -0.400146484375, 0, 
199, 1236627156, 0.70617807, 0.03757012, -0.64156294, 0.29714996, 9.254659652709961, -3.02884578704834, 1.7837637662887573, -2.784651041030884, 0.9066703915596008, 0.6600328087806702, -0.79052734375, 0.6884765625, -0.3984375, 0, 
200, 1236643823, 0.70630413, 0.037204277, -0.64156795, 0.29688564, 9.216385841369629, -3.1003549098968506, 1.785455346107483, -4.185672760009766, 1.4722052812576294, 0.8461028933525085, -0.78955078125, 0.686279296875, -0.3984375, 0, 
201, 1236660490, 0.7064211, 0.036975276, -0.64153016, 0.29671744, 9.201766014099121, -3.234586238861084, 1.7736667394638062, -2.974665641784668, 1.3708301782608032, 0.7262481451034546, -0.7900390625, 0.690185546875, -0.401123046875, 0, 
202, 1236677157, 0.7063152, 0.0369937, -0.641664, 0.29667783, 9.188943862915039, -3.2198283672332764, 1.6917154788970947, -1.4905180931091309, -0.9219290018081665, 0.7541083097457886, -0.789306640625, 0.687255859375, -0.395751953125, 0, 
203, 1236693824, 0.70614094, 0.037259102, -0.6417823, 0.29680404, 9.260213851928711, -3.1513099670410156, 1.7324880361557007, 0.48868393898010254, -1.6066206693649292, 0.6001504063606262, -0.78955078125, 0.6875, -0.40185546875, 0, 
204, 1236710491, 0.705978, 0.03750984, -0.64189726, 0.29691097, 9.280658721923828, -3.1079494953155518, 1.6971025466918945, -0.17242468893527985, -1.3341014385223389, 0.4537610113620758, -0.78955078125, 0.687255859375, -0.399169921875, 0, 
205, 1236727158, 0.70589924, 0.03750755, -0.64203674, 0.29679698, 9.268813133239746, -3.107959747314453, 1.704756259918213, -2.019254207611084, -0.7705197334289551, 0.4153163433074951, -0.792724609375, 0.686279296875, -0.3984375, 0, 
206, 1236743825, 0.705887, 0.03746508, -0.6421262, 0.29663786, 9.29095458984375, -3.171919822692871, 1.7384451627731323, -2.214653491973877, -0.2032880187034607, 0.24786049127578735, -0.79052734375, 0.686767578125, -0.3974609375, 0, 
207, 1236760492, 0.7058971, 0.037543193, -0.64211464, 0.29662898, 9.269855499267578, -3.2039122581481934, 1.7017351388931274, -0.8053529262542725, 0.19366402924060822, 0.3654996156692505, -0.792236328125, 0.686279296875, -0.39892578125, 0, 
208, 1236777159, 0.70595485, 0.037712168, -0.64198637, 0.29674762, 9.248115539550781, -3.142552137374878, 1.723049283027649, 0.3029662072658539, 0.8629750609397888, 0.4299667775630951, -0.79052734375, 0.686767578125, -0.3974609375, 0, 
209, 1236793826, 0.70611715, 0.03780843, -0.6417833, 0.29678845, 9.280173301696777, -3.083693027496338, 1.7498581409454346, -0.09461332112550735, 1.7551552057266235, 0.17337878048419952, -0.79052734375, 0.6884765625, -0.400634765625, 0, 
210, 1236810493, 0.7064003, 0.037906118, -0.64143777, 0.2968496, 9.243298530578613, -3.163339376449585, 1.6862139701843262, 0.06118233501911163, 3.0525150299072266, -0.053146351128816605, -0.79052734375, 0.689453125, -0.399658203125, 0, 
211, 1236827160, 0.7067299, 0.03812687, -0.64104795, 0.2968785, 9.264480590820312, -3.1890957355499268, 1.7371561527252197, 0.9554880857467651, 3.0885651111602783, -0.7931612730026245, -0.78857421875, 0.68896484375, -0.403564453125, 0, 
212, 1236843827, 0.7071863, 0.038263243, -0.64054847, 0.29685217, 9.298751831054688, -3.089905261993408, 1.8529444932937622, 0.10454464703798294, 4.4759674072265625, -1.053309679031372, -0.790771484375, 0.6875, -0.40283203125, 0, 
213, 1236860494, 0.707801, 0.03833908, -0.639858, 0.29686627, 9.246759414672852, -3.121887445449829, 1.884584665298462, 0.4866926074028015, 6.178616523742676, -0.9327442049980164, -0.791748046875, 0.685302734375, -0.40283203125, 0, 
214, 1236877161, 0.7082638, 0.03860483, -0.6393054, 0.29691896, 9.115680694580078, -3.141375780105591, 1.8143455982208252, 1.3019001483917236, 4.468744277954102, -1.2418575286865234, -0.78955078125, 0.68408203125, -0.404052734375, 0, 
215, 1236893828, 0.70861053, 0.03887407, -0.63889164, 0.2969471, 9.2142915725708, -3.1246533393859863, 1.8138175010681152, 1.0381786823272705, 3.2393338680267334, -1.0913571119308472, -0.78955078125, 0.685791015625, -0.405029296875, 0, 
216, 1236910495, 0.7089983, 0.039115403, -0.63841057, 0.2970245, 9.201558113098145, -3.2009565830230713, 1.8275145292282104, 1.5015251636505127, 3.7271275520324707, -0.7825063467025757, -0.79150390625, 0.6826171875, -0.40625, 0, 
217, 1236927162, 0.7092879, 0.039469037, -0.63799804, 0.2971728, 9.207198143005371, -3.1452016830444336, 1.8189215660095215, 2.04551362991333, 2.822052240371704, -0.7549600005149841, -0.790771484375, 0.6826171875, -0.4072265625, 0, 
218, 1236943829, 0.7096256, 0.039667454, -0.63757694, 0.29724386, 9.240612983703613, -3.035026788711548, 1.7913405895233154, 1.037500023841858, 3.341848850250244, -0.5390448570251465, -0.789794921875, 0.6826171875, -0.4111328125, 0, 
219, 1236960496, 0.70989037, 0.03988291, -0.6372507, 0.29728234, 9.225959777832031, -3.116590976715088, 1.690903663635254, 0.48852384090423584, 2.6276581287384033, -0.6575100421905518, -0.79052734375, 0.68212890625, -0.41162109375, 0, 
220, 1236977163, 0.7100724, 0.039897677, -0.6370865, 0.29719746, 9.280714988708496, -3.099745273590088, 1.8392096757888794, -1.333217978477478, 1.8566454648971558, -0.16782721877098083, -0.791015625, 0.6826171875, -0.41015625, 0, 
221, 1236993830, 0.7103388, 0.03971042, -0.6368935, 0.2969994, 9.302947044372559, -3.032691240310669, 1.8705452680587769, -2.5313799381256104, 2.6638810634613037, 0.033430978655815125, -0.78759765625, 0.6845703125, -0.407470703125, 0, 
222, 1237010497, 0.7105702, 0.03956697, -0.63672453, 0.29682705, 9.247236251831055, -3.0859649181365967, 1.8613810539245605, -1.9863929748535156, 2.219820737838745, 0.09948613494634628, -0.789794921875, 0.684326171875, -0.41162109375, 0, 
223, 1237027164, 0.7107743, 0.039445955, -0.6365303, 0.29677156, 9.24136734008789, -3.0741283893585205, 1.9379703998565674, -1.5742206573486328, 2.3028829097747803, 0.5675709843635559, -0.78759765625, 0.681884765625, -0.41015625, 0, 
224, 1237043831, 0.71091413, 0.039453525, -0.636358, 0.29680473, 9.215341567993164, -3.081739664077759, 1.8960403203964233, -0.5722517371177673, 1.6683982610702515, 0.5774126052856445, -0.79052734375, 0.68310546875, -0.412841796875, 0, 
225, 1237060498, 0.71096843, 0.03956707, -0.6362647, 0.2968595, 9.218822479248047, -3.088710069656372, 1.8797246217727661, -0.28810441493988037, 0.7619329690933228, 0.3782547414302826, -0.788330078125, 0.68359375, -0.412841796875, 0, 
226, 1237077165, 0.71100944, 0.03964748, -0.6361722, 0.2969489, 9.198219299316406, -3.1132307052612305, 1.8759735822677612, -0.10657443851232529, 0.7106691002845764, 0.7561957240104675, -0.789306640625, 0.684814453125, -0.412841796875, 0, 
227, 1237093832, 0.711084, 0.0396423, -0.636063, 0.29700524, 9.15106201171875, -3.022059202194214, 1.8912429809570312, -0.6818740963935852, 1.1179494857788086, 0.8863081932067871, -0.789306640625, 0.680908203125, -0.412841796875, 0, 
228, 1237110499, 0.7111277, 0.03952359, -0.636064, 0.29691443, 9.18881893157959, -3.0075249671936035, 1.8665661811828613, -2.1954054832458496, 0.668984591960907, 0.737088680267334, -0.78662109375, 0.68310546875, -0.411376953125, 0, 
229, 1237127166, 0.7111848, 0.039318725, -0.6360909, 0.2967469, 9.206775665283203, -3.03967547416687, 1.9068603515625, -2.8186264038085938, 0.689807653427124, 0.7603065967559814, -0.787841796875, 0.681884765625, -0.41455078125, 0, 
230, 1237143833, 0.71118134, 0.039148353, -0.63617617, 0.2965947, 9.236211776733398, -3.057140350341797, 1.9489237070083618, -3.116834878921509, 0.2202627956867218, 0.7371782660484314, -0.78759765625, 0.6845703125, -0.411865234375, 0, 
231, 1237160500, 0.7111971, 0.038976606, -0.6362514, 0.29641855, 9.273934364318848, -3.086881399154663, 1.9486973285675049, -2.7760066986083984, 0.1964942216873169, 0.6737228035926819, -0.789794921875, 0.68212890625, -0.41064453125, 0, 
232, 1237177167, 0.71124005, 0.03890541, -0.63626355, 0.29629853, 9.297280311584473, -3.080090045928955, 1.9201799631118774, -1.926535964012146, 0.43316835165023804, 0.43563997745513916, -0.786376953125, 0.686279296875, -0.40966796875, 0, 
233, 1237193834, 0.71137136, 0.038816866, -0.63618606, 0.29616126, 9.272189140319824, -3.067559003829956, 1.9250903129577637, -1.4203650951385498, 1.1120713949203491, 0.3276568651199341, -0.788818359375, 0.68359375, -0.412353515625, 0, 
234, 1237210501, 0.711492, 0.03874686, -0.63610363, 0.29605752, 9.25222110748291, -3.0112380981445312, 1.9501127004623413, -1.8945844173431396, 1.309327483177185, 0.2838207483291626, -0.7861328125, 0.682373046875, -0.4140625, 0, 
235, 1237227168, 0.7116025, 0.03860328, -0.6360479, 0.2959302, 9.256145477294922, -3.068922996520996, 1.9392154216766357, -2.6600582599639893, 1.361039638519287, 0.4700634479522705, -0.788330078125, 0.6826171875, -0.412353515625, 0, 
236, 1237243835, 0.7117253, 0.03840686, -0.63598007, 0.2958062, 9.274702072143555, -3.1140873432159424, 1.9632799625396729, -2.75050950050354, 1.5340662002563477, 0.7169826626777649, -0.787109375, 0.68408203125, -0.41015625, 0, 
237, 1237260502, 0.7119407, 0.038285043, -0.6357797, 0.2957349, 9.365790367126465, -3.0820298194885254, 1.9960860013961792, -1.5532437562942505, 2.324845552444458, 0.4965853989124298, -0.78662109375, 0.685302734375, -0.411376953125, 0, 
238, 1237277169, 0.7122875, 0.03836893, -0.63530874, 0.29590073, 9.336250305175781, -3.116046190261841, 1.9959955215454102, 0.9022651314735413, 3.8989131450653076, 0.40131905674934387, -0.788818359375, 0.685791015625, -0.4111328125, 0, 
239, 1237293836, 0.71278346, 0.03855354, -0.63463044, 0.29613805, 9.305191040039062, -3.1117982864379883, 2.0057528018951416, 2.47141432762146, 5.244565486907959, 0.03223998844623566, -0.788330078125, 0.68310546875, -0.411865234375, 0, 
240, 1237310503, 0.7133847, 0.03882181, -0.63376224, 0.2965143, 9.303668975830078, -3.074920654296875, 2.0553014278411865, 3.8514528274536133, 6.496796607971191, 0.08329891413450241, -0.78662109375, 0.6826171875, -0.415771484375, 0, 
241, 1237327170, 0.7140925, 0.038972195, -0.6327603, 0.29693067, 9.302855491638184, -2.9550342559814453, 2.1329848766326904, 3.321878671646118, 7.992189884185791, 0.46376925706863403, -0.78515625, 0.681884765625, -0.420166015625, 0, 
242, 1237343837, 0.7148972, 0.038838927, -0.631701, 0.29726705, 9.278855323791504, -2.9827592372894287, 2.1016957759857178, 1.6530505418777466, 9.2510986328125, 1.0919145345687866, -0.7841796875, 0.680908203125, -0.4208984375, 0, 
243, 1237360504, 0.71581465, 0.038520634, -0.63054985, 0.297544, 9.23808479309082, -3.053191900253296, 2.154254198074341, 0.7435945868492126, 10.515151023864746, 1.3743332624435425, -0.785400390625, 0.680908203125, -0.424072265625, 0, 
244, 1237377171, 0.7167808, 0.038180348, -0.6293342, 0.29783598, 9.183938026428223, -3.098633289337158, 2.1973953247070312, 0.7369480729103088, 11.115242958068848, 1.4078856706619263, -0.779296875, 0.681396484375, -0.4248046875, 0, 
245, 1237393838, 0.7178118, 0.03777535, -0.62809485, 0.29802057, 9.179814338684082, -3.0773205757141113, 2.2138009071350098, 0.2802222669124603, 11.509270668029785, 1.084973692893982, -0.77880859375, 0.68017578125, -0.42919921875, 0, 
246, 1237410505, 0.7188547, 0.03729404, -0.6268971, 0.29808915, 9.172511100769043, -3.0951130390167236, 2.2326412200927734, -0.9932546615600586, 11.581223487854004, 0.7555621862411499, -0.779296875, 0.6806640625, -0.4287109375, 0, 
247, 1237427172, 0.7198987, 0.03667106, -0.6257801, 0.29799402, 9.144721984863281, -3.147109270095825, 2.204435110092163, -1.618972897529602, 11.101123809814453, 0.7948007583618164, -0.7783203125, 0.68017578125, -0.430908203125, 0, 
248, 1237443839, 0.72084326, 0.03613242, -0.624752, 0.29793373, 9.107377052307129, -3.1176180839538574, 2.242748737335205, -1.7566347122192383, 10.257075309753418, 0.6996687650680542, -0.775634765625, 0.681884765625, -0.435302734375, 0, 
249, 1237460506, 0.7217487, 0.035518643, -0.6238084, 0.2977927, 9.112934112548828, -3.1053216457366943, 2.277158260345459, -2.8932628631591797, 9.889328956604004, 0.6579328775405884, -0.775634765625, 0.6806640625, -0.4365234375, 0, 
250, 1237477173, 0.7226776, 0.03483029, -0.6228585, 0.2976097, 9.119367599487305, -3.1700007915496826, 2.296189069747925, -3.4841737747192383, 10.173042297363281, 0.7056238055229187, -0.7724609375, 0.682373046875, -0.437744140625, 0, 
251, 1237493840, 0.72366047, 0.034169544, -0.6218209, 0.29746777, 9.085832595825195, -3.2291927337646484, 2.2661848068237305, -2.6622488498687744, 10.673731803894043, 0.7383951544761658, -0.771484375, 0.681640625, -0.441650390625, 0, 
252, 1237510507, 0.72469765, 0.03350457, -0.6206316, 0.2975018, 9.078368186950684, -3.248109817504883, 2.2720112800598145, -2.062591791152954, 11.85757827758789, 1.3692492246627808, -0.76904296875, 0.683349609375, -0.440185546875, 0, 
253, 1237527174, 0.72571546, 0.03268341, -0.61952394, 0.29742095, 9.045232772827148, -3.283738851547241, 2.310952663421631, -3.048757553100586, 11.506132125854492, 1.6302683353424072, -0.768798828125, 0.68701171875, -0.446533203125, 0, 
254, 1237543841, 0.7266556, 0.031752836, -0.6185146, 0.29732695, 9.048849105834961, -3.3295300006866455, 2.3989036083221436, -3.911022663116455, 10.93220329284668, 2.1785340309143066, -0.767578125, 0.685302734375, -0.445068359375, 0, 
255, 1237560508, 0.7275284, 0.030775478, -0.6175398, 0.2973214, 9.052767753601074, -3.374145746231079, 2.4726059436798096, -3.569976568222046, 10.494661331176758, 3.0219733715057373, -0.764892578125, 0.685302734375, -0.4462890625, 0, 
256, 1237577175, 0.7282809, 0.02980873, -0.6166766, 0.29736933, 8.979912757873535, -3.32940411567688, 2.5212948322296143, -3.6594932079315186, 9.469077110290527, 3.4603731632232666, -0.764404296875, 0.685302734375, -0.447998046875, 0, 
257, 1237593842, 0.7289762, 0.028684592, -0.6159121, 0.29736042, 8.965764045715332, -3.309390068054199, 2.6327598094940186, -4.601937770843506, 8.937649726867676, 4.0401291847229, -0.761474609375, 0.68701171875, -0.44970703125, 0, 
258, 1237610509, 0.7295767, 0.027537964, -0.6152199, 0.2974295, 8.93259334564209, -3.3620476722717285, 2.666144609451294, -4.969019412994385, 8.387222290039062, 4.604711055755615, -0.7587890625, 0.68896484375, -0.4501953125, 0, 
259, 1237627176, 0.7300648, 0.026463468, -0.61459905, 0.29761216, 8.926210403442383, -3.4299373626708984, 2.6382646560668945, -3.864413022994995, 7.276775360107422, 5.206858158111572, -0.755615234375, 0.6884765625, -0.453125, 0, 
260, 1237643843, 0.7304402, 0.025557999, -0.6139795, 0.29804897, 8.956954002380371, -3.3793482780456543, 2.5845108032226562, -2.539736747741699, 6.708594799041748, 5.8144426345825195, -0.7587890625, 0.691162109375, -0.451416015625, 0, 
261, 1237660510, 0.73085713, 0.024570968, -0.6133684, 0.29836807, 9.001337051391602, -3.334414482116699, 2.6320736408233643, -2.4469549655914307, 6.610101699829102, 5.7613348960876465, -0.75390625, 0.68994140625, -0.45166015625, 0, 
262, 1237677177, 0.7312651, 0.023588825, -0.6127333, 0.298752, 9.12121868133545, -3.3323707580566406, 2.62904953956604, -2.3429033756256104, 6.776226043701172, 6.006257057189941, -0.75048828125, 0.693115234375, -0.455078125, 0, 
263, 1237693844, 0.7317145, 0.022714682, -0.6119398, 0.29934534, 9.153647422790527, -3.326140880584717, 2.6423401832580566, -1.0332998037338257, 7.714240074157715, 6.368651390075684, -0.75048828125, 0.69482421875, -0.45654296875, 0, 
264, 1237710511, 0.7321714, 0.021856772, -0.61108524, 0.30003703, 9.138728141784668, -3.2590150833129883, 2.668027877807617, -0.48763394355773926, 8.060152053833008, 6.747527122497559, -0.747802734375, 0.697998046875, -0.458984375, 0, 
265, 1237727178, 0.7326915, 0.020904532, -0.6101913, 0.3006541, 9.14517879486084, -3.2162652015686035, 2.7401297092437744, -0.7895182371139526, 8.549113273620605, 6.750639915466309, -0.746826171875, 0.69677734375, -0.458984375, 0, 
266, 1237743845, 0.7333297, 0.019869704, -0.6091672, 0.30124426, 9.126801490783691, -3.2754175662994385, 2.7257821559906006, -1.0033715963363647, 9.83633041381836, 6.72314453125, -0.742919921875, 0.695068359375, -0.462890625, 0, 
267, 1237760512, 0.7340438, 0.018928833, -0.6079913, 0.3019407, 9.084694862365723, -3.2704734802246094, 2.7297139167785645, -0.5717974305152893, 11.033892631530762, 6.450536251068115, -0.7421875, 0.701171875, -0.460693359375, 0, 
268, 1237777179, 0.7350195, 0.017794196, -0.6065971, 0.30243972, 9.030701637268066, -3.2291550636291504, 2.7561800479888916, -0.44302961230278015, 13.027717590332031, 6.1597819328308105, -0.738525390625, 0.700439453125, -0.46484375, 0, 
269, 1237793846, 0.736146, 0.016508214, -0.6050971, 0.30277756, 9.004240036010742, -3.21380877494812, 2.83703875541687, -2.0292258262634277, 14.613390922546387, 5.545845985412598, -0.736328125, 0.700927734375, -0.4697265625, 0, 
270, 1237810513, 0.73737186, 0.015134181, -0.6034986, 0.3030566, 9.010881423950195, -3.249509572982788, 2.8840067386627197, -3.4259777069091797, 16.041763305664062, 5.126540660858154, -0.73095703125, 0.702880859375, -0.469482421875, 0, 
271, 1237827180, 0.7387764, 0.013585744, -0.60172987, 0.30322653, 9.023622512817383, -3.2779295444488525, 2.9957427978515625, -3.933225154876709, 17.800373077392578, 5.073920249938965, -0.72802734375, 0.702880859375, -0.47119140625, 0, 
272, 1237843847, 0.7402958, 0.011878376, -0.5998412, 0.3033343, 9.028693199157715, -3.2769925594329834, 3.0613558292388916, -4.320350170135498, 19.028162002563477, 5.308739185333252, -0.725830078125, 0.703369140625, -0.471923828125, 0, 
273, 1237860514, 0.7419717, 0.010186243, -0.597727, 0.3034744, 9.043771743774414, -3.3013312816619873, 3.126779079437256, -3.6204442977905273, 20.76829719543457, 5.095962047576904, -0.72265625, 0.704833984375, -0.47802734375, 0, 
274, 1237877181, 0.74382937, 0.008568192, -0.5952887, 0.30376947, 9.03113079071045, -3.3268685340881348, 3.1745400428771973, -2.7696409225463867, 23.3402042388916, 4.913511276245117, -0.718505859375, 0.704833984375, -0.484130859375, 0, 
275, 1237893848, 0.7459259, 0.0068767313, -0.5925321, 0.3040609, 8.99644947052002, -3.2684497833251953, 3.2448298931121826, -2.0550973415374756, 25.913097381591797, 4.819374084472656, -0.7158203125, 0.705810546875, -0.488037109375, 0, 
276, 1237910515, 0.74821395, 0.005103286, -0.5895114, 0.30434585, 8.982723236083984, -3.301208257675171, 3.311504602432251, -2.133345603942871, 28.276809692382812, 4.666327476501465, -0.70751953125, 0.70947265625, -0.4912109375, 0, 
277, 1237927182, 0.7507319, 0.003154442, -0.5861941, 0.3045787, 8.92917251586914, -3.40043568611145, 3.368553400039673, -2.05751371383667, 30.85439682006836, 4.846503734588623, -0.7021484375, 0.707763671875, -0.496826171875, 0, 
278, 1237943849, 0.7534019, 0.0011548575, -0.5825752, 0.30494338, 8.895655632019043, -3.4491541385650635, 3.4689507484436035, -1.4345219135284424, 33.23521423339844, 5.312082290649414, -0.698974609375, 0.707763671875, -0.50244140625, 0, 
279, 1237960516, 0.7562512, -8.3494774E-4, -0.57864225, 0.3053796, 8.870957374572754, -3.497311592102051, 3.597919464111328, 0.02422972209751606, 35.35923767089844, 5.446744441986084, -0.694091796875, 0.712890625, -0.507568359375, 0, 
280, 1237977183, 0.7592655, -0.0027731336, -0.57434255, 0.30600503, 8.82859992980957, -3.5236918926239014, 3.676741123199463, 1.7635843753814697, 37.81418228149414, 5.903424263000488, -0.687255859375, 0.71240234375, -0.51513671875, 0, 
281, 1237993850, 0.7623964, -0.004618205, -0.5696759, 0.30692005, 8.789706230163574, -3.555718421936035, 3.7165679931640625, 3.5652449131011963, 40.22733688354492, 6.58119535446167, -0.681884765625, 0.715576171875, -0.52294921875, 0, 
282, 1238010517, 0.7656245, -0.0064128386, -0.5646796, 0.30808312, 8.716116905212402, -3.6577394008636475, 3.7814645767211914, 6.353233814239502, 41.85483169555664, 7.856145858764648, -0.673095703125, 0.7119140625, -0.529296875, 0, 
283, 1238027184, 0.76891345, -0.008087354, -0.55932623, 0.30961412, 8.667817115783691, -3.6734235286712646, 3.940335988998413, 9.505813598632812, 43.553627014160156, 9.365238189697266, -0.662841796875, 0.71240234375, -0.53857421875, 0, 
284, 1238043851, 0.77217466, -0.0097723175, -0.55383706, 0.31131262, 8.599397659301758, -3.5960330963134766, 4.049076557159424, 10.12824821472168, 44.27709197998047, 10.257299423217773, -0.65380859375, 0.712646484375, -0.55224609375, 0, 
285, 1238060518, 0.77534413, -0.011601429, -0.5483537, 0.3130737, 8.505919456481934, -3.5487420558929443, 4.176290512084961, 8.266960144042969, 44.7670783996582, 10.717742919921875, -0.645751953125, 0.709716796875, -0.559814453125, 0, 
286, 1238077185, 0.7784961, -0.013837454, -0.54300797, 0.31447536, 8.424943923950195, -3.6013693809509277, 4.249351501464844, 5.032331466674805, 44.61457443237305, 10.633320808410645, -0.63720703125, 0.712890625, -0.568359375, 0, 
287, 1238093852, 0.7815773, -0.016400753, -0.53783804, 0.31559196, 8.36498737335205, -3.663562297821045, 4.249595642089844, 2.0290911197662354, 44.051612854003906, 10.564379692077637, -0.625732421875, 0.7109375, -0.575439453125, 0, 
288, 1238110519, 0.78457963, -0.019039128, -0.53274155, 0.3166368, 8.299849510192871, -3.733762741088867, 4.3105902671813965, 0.7777479887008667, 43.7232780456543, 10.397958755493164, -0.619873046875, 0.712890625, -0.583251953125, 0, 
289, 1238127186, 0.7875821, -0.021642864, -0.5276033, 0.31761762, 8.235420227050781, -3.798710823059082, 4.402242183685303, 0.9256623387336731, 43.836883544921875, 9.979994773864746, -0.60986328125, 0.716064453125, -0.588623046875, 0, 
290, 1238143853, 0.7905139, -0.02425315, -0.52247614, 0.31861988, 8.254022598266602, -3.786613941192627, 4.455162525177002, 0.8016575574874878, 43.594482421875, 10.198177337646484, -0.59912109375, 0.71630859375, -0.59619140625, 0, 
291, 1238160520, 0.7933919, -0.026935514, -0.517326, 0.31965265, 8.23962116241455, -3.783052444458008, 4.544742584228516, 0.6039389371871948, 43.66560745239258, 10.762301445007324, -0.593017578125, 0.714599609375, -0.599853515625, 0, 
292, 1238177187, 0.79629976, -0.029660802, -0.51203424, 0.32069936, 8.102659225463867, -3.8137171268463135, 4.606746673583984, 0.803719699382782, 44.60987854003906, 10.991515159606934, -0.58056640625, 0.7158203125, -0.6083984375, 0, 
293, 1238193854, 0.7991134, -0.032538284, -0.5068322, 0.3216838, 7.977120876312256, -3.882441759109497, 4.805852890014648, -0.5021470785140991, 44.1583251953125, 11.354436874389648, -0.5703125, 0.71826171875, -0.614990234375, 0, 
294, 1238210521, 0.8018551, -0.035669945, -0.50168157, 0.3226012, 7.878795623779297, -3.8321309089660645, 5.008758068084717, -2.2327969074249268, 44.18888473510742, 12.03549575805664, -0.5625, 0.72314453125, -0.622314453125, 0, 
295, 1238227188, 0.80450726, -0.03910383, -0.49667057, 0.32335332, 7.743547439575195, -3.8797202110290527, 5.09100866317749, -4.773556709289551, 43.804931640625, 12.351494789123535, -0.55224609375, 0.72607421875, -0.62646484375, 0, 
296, 1238243855, 0.8070514, -0.04271893, -0.49179825, 0.32400268, 7.634223937988281, -3.9832892417907715, 5.194355487823486, -6.4444122314453125, 43.08486557006836, 12.618416786193848, -0.540771484375, 0.725830078125, -0.630859375, 0, 
297, 1238260522, 0.80950576, -0.046352077, -0.48702103, 0.32459617, 7.438138008117676, -4.071588516235352, 5.339481830596924, -6.991335391998291, 42.31528854370117, 12.527105331420898, -0.529052734375, 0.730224609375, -0.633056640625, 0, 
298, 1238277189, 0.81179065, -0.05004698, -0.48247716, 0.32512644, 7.31366491317749, -4.128918647766113, 5.514432430267334, -8.063117027282715, 40.568641662597656, 12.719759941101074, -0.520751953125, 0.7294921875, -0.6376953125, 0, 
299, 1238293856, 0.8138732, -0.053860802, -0.4782018, 0.32562667, 7.229943752288818, -4.146074295043945, 5.586735248565674, -9.546699523925781, 38.68959045410156, 13.266396522521973, -0.5107421875, 0.733642578125, -0.6396484375, 0, 
300, 1238310523, 0.8157386, -0.057525445, -0.47416908, 0.32622868, 7.126082420349121, -4.368837833404541, 5.692770004272461, -9.000832557678223, 36.23323059082031, 13.736499786376953, -0.500244140625, 0.734375, -0.640625, 0, 
301, 1238327190, 0.8173879, -0.060950626, -0.47031692, 0.32705373, 7.004426002502441, -4.425589561462402, 5.862534523010254, -7.3888840675354, 33.862037658691406, 14.63093090057373, -0.491455078125, 0.739013671875, -0.644287109375, 0, 
302, 1238343857, 0.8188288, -0.06437236, -0.4667511, 0.32790083, 6.931143760681152, -4.304269790649414, 5.9556145668029785, -8.025935173034668, 31.544815063476562, 15.081759452819824, -0.4833984375, 0.740966796875, -0.650146484375, 0, 
303, 1238360524, 0.8200243, -0.068260215, -0.46364123, 0.32853863, 6.94716739654541, -4.307472229003906, 6.015748500823975, -12.494399070739746, 29.33514976501465, 15.718111038208008, -0.47265625, 0.74462890625, -0.650634765625, 0, 
304, 1238377191, 0.8210632, -0.072463445, -0.46082267, 0.32900876, 7.039196014404297, -4.40739631652832, 6.088567733764648, -15.529285430908203, 27.962556838989258, 15.997057914733887, -0.466064453125, 0.748779296875, -0.64794921875, 0, 
305, 1238393858, 0.8220411, -0.076727666, -0.45801133, 0.32952568, 7.2042036056518555, -4.489824295043945, 6.088815212249756, -15.776412010192871, 27.82997703552246, 16.582658767700195, -0.454345703125, 0.753662109375, -0.649658203125, 0, 
306, 1238410525, 0.823034, -0.08090798, -0.45503935, 0.33016437, 7.28279447555542, -4.481137752532959, 6.048213958740234, -14.553775787353516, 28.527263641357422, 17.04952049255371, -0.447998046875, 0.759033203125, -0.649169921875, 0, 
307, 1238427192, 0.8240544, -0.084976785, -0.4519227, 0.3308762, 7.225447177886963, -4.516191005706787, 6.040978908538818, -13.346461296081543, 29.131839752197266, 17.138254165649414, -0.439208984375, 0.760986328125, -0.650634765625, 0, 
308, 1238443859, 0.82509625, -0.089094654, -0.44864327, 0.33165875, 7.152824878692627, -4.508835792541504, 6.027106761932373, -13.022923469543457, 30.18829917907715, 17.740453720092773, -0.427490234375, 0.76220703125, -0.64990234375, 0, 
309, 1238460526, 0.8260769, -0.09352728, -0.44528127, 0.33252692, 7.1070146560668945, -4.509921073913574, 5.999180793762207, -14.837064743041992, 31.4246768951416, 19.021608352661133, -0.420654296875, 0.770263671875, -0.649169921875, 0, 
310, 1238477193, 0.8270929, -0.09832844, -0.44178632, 0.333277, 7.040750503540039, -4.557700157165527, 6.0862650871276855, -16.506366729736328, 32.902828216552734, 19.875385284423828, -0.410888671875, 0.77099609375, -0.650634765625, 0, 
311, 1238493860, 0.8281476, -0.1033004, -0.438032, 0.3341089, 7.054086685180664, -4.645350933074951, 6.127771854400635, -17.06667137145996, 35.14675521850586, 20.56035041809082, -0.3955078125, 0.777099609375, -0.647216796875, 0, 
312, 1238510527, 0.8293001, -0.108272105, -0.43389404, 0.3350738, 7.08921480178833, -4.773351192474365, 6.160321235656738, -15.714921951293945, 37.5386848449707, 21.365633010864258, -0.385498046875, 0.783203125, -0.648193359375, 0, 
313, 1238527194, 0.83058155, -0.11320037, -0.42928514, 0.33620575, 6.994856834411621, -4.797140121459961, 6.273368835449219, -13.787959098815918, 40.395469665527344, 22.246023178100586, -0.375, 0.78564453125, -0.648681640625, 0, 
314, 1238543861, 0.83194137, -0.11829099, -0.42438877, 0.33730555, 6.781573295593262, -4.843957901000977, 6.356619834899902, -14.085886001586914, 42.678768157958984, 22.588462829589844, -0.36328125, 0.790771484375, -0.645751953125, 0, 
315, 1238560528, 0.83332086, -0.12375824, -0.41931435, 0.33828375, 6.586643695831299, -4.895378112792969, 6.432742118835449, -16.16810417175293, 44.7338752746582, 23.094532012939453, -0.3466796875, 0.794677734375, -0.65087890625, 0, 
316, 1238577195, 0.8346254, -0.1296334, -0.41426575, 0.33908653, 6.404355049133301, -5.043159484863281, 6.51644229888916, -19.137989044189453, 45.47404098510742, 23.4193058013916, -0.33447265625, 0.799072265625, -0.650634765625, 0, 
317, 1238593862, 0.83581895, -0.13584036, -0.4092128, 0.33985147, 6.252655982971191, -5.1839599609375, 6.615296363830566, -21.23900032043457, 45.992191314697266, 24.409265518188477, -0.321044921875, 0.801513671875, -0.646728515625, 0, 
318, 1238610529, 0.8369322, -0.14233418, -0.40408593, 0.3405882, 6.142925262451172, -5.268568992614746, 6.626166820526123, -22.87091827392578, 46.89082717895508, 25.309181213378906, -0.3076171875, 0.806640625, -0.64501953125, 0, 
319, 1238627196, 0.8379364, -0.1490099, -0.39897004, 0.34129432, 6.051440715789795, -5.304749488830566, 6.743474006652832, -24.13524627685547, 46.983642578125, 25.88024139404297, -0.29296875, 0.814208984375, -0.64404296875, 0, 
320, 1238643863, 0.83882904, -0.15571485, -0.39387497, 0.34202537, 5.9367804527282715, -5.388704776763916, 6.815062522888184, -24.40079116821289, 46.60387420654297, 26.344209671020508, -0.2783203125, 0.8203125, -0.638427734375, 0, 
321, 1238660530, 0.839696, -0.1622923, -0.3886222, 0.34284762, 5.811318397521973, -5.482120513916016, 6.820261001586914, -23.078697204589844, 47.04862976074219, 26.753366470336914, -0.2646484375, 0.825927734375, -0.635009765625, 0, 
322, 1238677197, 0.84053093, -0.16877075, -0.38319466, 0.3437819, 5.688754081726074, -5.551280498504639, 6.785117149353027, -21.834413528442383, 47.61708450317383, 27.405515670776367, -0.24853515625, 0.82763671875, -0.633056640625, 0, 
323, 1238693864, 0.8412873, -0.17508474, -0.3776353, 0.344924, 5.610215663909912, -5.615566730499268, 6.770540714263916, -20.116313934326172, 47.54716491699219, 28.513019561767578, -0.231689453125, 0.831298828125, -0.62939453125, 0, 
324, 1238710531, 0.8419311, -0.18140896, -0.3719945, 0.34621254, 5.500176429748535, -5.610427379608154, 6.756895065307617, -19.73853874206543, 47.58164978027344, 29.75346565246582, -0.216064453125, 0.83740234375, -0.62939453125, 0, 
325, 1238727198, 0.8424427, -0.18797742, -0.3663213, 0.34751078, 5.354310989379883, -5.606052398681641, 6.728446006774902, -21.21750831604004, 48.00861358642578, 30.79261016845703, -0.2021484375, 0.842041015625, -0.623291015625, 0, 
326, 1238743865, 0.8428436, -0.19473875, -0.36060053, 0.34879598, 5.274286270141602, -5.650454998016357, 6.670584201812744, -22.398231506347656, 48.4929084777832, 31.53366470336914, -0.184814453125, 0.84423828125, -0.62060546875, 0, 
327, 1238760532, 0.8432157, -0.20144556, -0.35479712, 0.35003754, 5.196650981903076, -5.736565113067627, 6.702200889587402, -22.031696319580078, 48.84039306640625, 31.33155632019043, -0.171875, 0.84814453125, -0.6162109375, 0, 
328, 1238777199, 0.843573, -0.20796217, -0.34886786, 0.3513226, 5.024172782897949, -5.846977710723877, 6.679930210113525, -20.542627334594727, 49.029319763183594, 31.3367919921875, -0.155029296875, 0.853515625, -0.613037109375, 0, 
329, 1238793866, 0.8439312, -0.21414138, -0.342867, 0.35265556, 4.8052849769592285, -5.9095048904418945, 6.715093612670898, -18.295068740844727, 48.57655715942383, 30.91280746459961, -0.1337890625, 0.856201171875, -0.610107421875, 0, 
330, 1238810533, 0.8442749, -0.2201384, -0.33677188, 0.3540112, 4.683475971221924, -5.874823570251465, 6.810328960418701, -16.977663040161133, 48.62526321411133, 30.794628143310547, -0.123779296875, 0.85693359375, -0.607177734375, 0, 
331, 1238827200, 0.8445094, -0.22613448, -0.33085185, 0.35525244, 4.472197532653809, -5.8689374923706055, 6.747017860412598, -17.831480026245117, 47.539772033691406, 30.135847091674805, -0.104736328125, 0.859619140625, -0.601806640625, 0, 
332, 1238843867, 0.84455955, -0.23234348, -0.3252606, 0.35628852, 4.313133716583252, -5.847735404968262, 6.751027584075928, -20.62641716003418, 46.059715270996094, 29.376008987426758, -0.087890625, 0.863037109375, -0.596435546875, 0, 
333, 1238860534, 0.8443811, -0.23889369, -0.31995824, 0.35717943, 4.141933441162109, -5.977294921875, 6.714907169342041, -24.00929832458496, 44.95045471191406, 29.40228843688965, -0.074951171875, 0.863525390625, -0.5888671875, 0, 
334, 1238877201, 0.8440404, -0.24553885, -0.3148415, 0.35802442, 4.047541618347168, -6.065610408782959, 6.716508388519287, -25.38544464111328, 43.83369064331055, 29.44546890258789, -0.05908203125, 0.86962890625, -0.586669921875, 0, 
335, 1238893868, 0.8436582, -0.25198388, -0.3096728, 0.358954, 3.9991259574890137, -6.142760276794434, 6.802271842956543, -23.9857120513916, 43.42149353027344, 29.700634002685547, -0.045166015625, 0.871337890625, -0.57958984375, 0, 
336, 1238910535, 0.8433337, -0.25797355, -0.30438155, 0.35998592, 3.8638932704925537, -6.170979976654053, 6.84264612197876, -20.72574806213379, 42.9659538269043, 29.40340805053711, -0.031494140625, 0.8759765625, -0.573486328125, 0, 
337, 1238927202, 0.84303516, -0.2636205, -0.29912585, 0.36099815, 3.6365764141082764, -6.2511420249938965, 6.852028846740723, -18.82684326171875, 42.01197052001953, 28.453676223754883, -0.017578125, 0.877197265625, -0.569580078125, 0, 
338, 1238943869, 0.84263074, -0.26933473, -0.29407537, 0.36187264, 3.3964803218841553, -6.278975009918213, 6.87239408493042, -20.20530128479004, 41.03041076660156, 27.692729949951172, -0.00244140625, 0.87939453125, -0.56201171875, 0, 
339, 1238960536, 0.8420818, -0.27521735, -0.28931367, 0.3625619, 3.272608995437622, -6.354887962341309, 6.947910308837891, -22.546079635620117, 39.83330535888672, 26.791318893432617, 0.010498046875, 0.880615234375, -0.560791015625, 0, 
340, 1238977203, 0.8414305, -0.28118765, -0.28470513, 0.36314124, 3.21894907951355, -6.498539924621582, 6.949254989624023, -23.854305267333984, 39.176979064941406, 26.300491333007812, 0.024169921875, 0.884033203125, -0.5498046875, 0, 
341, 1238993870, 0.8406984, -0.28720897, -0.28011993, 0.36368987, 3.1376535892486572, -6.591212749481201, 6.870052337646484, -24.42862892150879, 39.07745361328125, 26.385427474975586, 0.035888671875, 0.884033203125, -0.543212890625, 0, 
342, 1239010537, 0.8399495, -0.29317778, -0.27547875, 0.36420214, 3.0737016201019287, -6.653875350952148, 6.822168350219727, -24.092023849487305, 39.317291259765625, 26.23482322692871, 0.04833984375, 0.886962890625, -0.53662109375, 0, 
343, 1239027204, 0.83920515, -0.29913947, -0.27064654, 0.36469293, 2.892827033996582, -6.771657466888428, 6.849957466125488, -23.606149673461914, 40.465667724609375, 26.47789192199707, 0.064697265625, 0.888671875, -0.52880859375, 0, 
344, 1239043871, 0.83852977, -0.30497733, -0.2655602, 0.36515042, 2.7011001110076904, -6.904619216918945, 6.885693073272705, -22.176530838012695, 41.82602310180664, 26.41219139099121, 0.076171875, 0.88818359375, -0.521240234375, 0, 
345, 1239060538, 0.83796626, -0.31062523, -0.26020667, 0.3655366, 2.484877824783325, -7.035634517669678, 6.830615997314453, -20.30849838256836, 43.251136779785156, 25.93811798095703, 0.088623046875, 0.892333984375, -0.514404296875, 0, 
346, 1239077205, 0.8374336, -0.31621632, -0.25473058, 0.3658204, 2.3626012802124023, -6.9809417724609375, 6.826427936553955, -19.79081153869629, 44.09381103515625, 25.433483123779297, 0.103759765625, 0.891845703125, -0.505859375, 0, 
347, 1239093872, 0.83664876, -0.32253653, -0.24947315, 0.36572143, 2.1952714920043945, -6.877017021179199, 6.807777404785156, -25.759061813354492, 45.06510925292969, 24.6693115234375, 0.114501953125, 0.89404296875, -0.495361328125, 0, 
348, 1239110539, 0.8354319, -0.3298657, -0.2446913, 0.36519638, 1.95228910446167, -7.031979560852051, 6.674037456512451, -34.453758239746094, 45.0750732421875, 23.984664916992188, 0.128173828125, 0.894775390625, -0.48583984375, 0, 
349, 1239127206, 0.83393884, -0.33755124, -0.24011992, 0.36461985, 1.8853343725204468, -7.362120151519775, 6.651040077209473, -37.74287033081055, 44.41610336303711, 24.505727767944336, 0.13916015625, 0.89599609375, -0.474853515625, 0, 
350, 1239143873, 0.83234435, -0.34502193, -0.23543161, 0.3643277, 1.8161414861679077, -7.5280632972717285, 6.688938140869141, -35.98171615600586, 43.725215911865234, 26.30866241455078, 0.151123046875, 0.902587890625, -0.46484375, 0, 
351, 1239160540, 0.83081615, -0.35198638, -0.23046784, 0.3643279, 1.7636449337005615, -7.437121868133545, 6.749485969543457, -31.763338088989258, 43.451751708984375, 27.652008056640625, 0.164306640625, 0.902099609375, -0.447265625, 0, 
352, 1239177207, 0.8293743, -0.35831282, -0.2253945, 0.36461973, 1.6052054166793823, -7.51733922958374, 6.629590034484863, -27.175315856933594, 41.91747283935547, 28.360668182373047, 0.17626953125, 0.9013671875, -0.441162109375, 0, 
353, 1239193874, 0.82800066, -0.36410624, -0.22011368, 0.3652282, 1.558890700340271, -7.531885623931885, 6.648180961608887, -22.95881462097168, 41.09605026245117, 29.685287475585938, 0.189208984375, 0.903564453125, -0.43115234375, 0, 
354, 1239210541, 0.82671165, -0.36944613, -0.21455316, 0.36609337, 1.4484080076217651, -7.480254173278809, 6.590383052825928, -19.07663917541504, 41.04335403442383, 30.954418182373047, 0.203369140625, 0.902587890625, -0.42041015625, 0, 
355, 1239227208, 0.8254653, -0.3744776, -0.20891668, 0.36705226, 1.2749406099319458, -7.419117450714111, 6.488305568695068, -16.88932228088379, 40.53324890136719, 31.124547958374023, 0.22021484375, 0.898193359375, -0.41455078125, 0, 
356, 1239243875, 0.8241402, -0.37950248, -0.20340274, 0.36796513, 1.1328150033950806, -7.410885810852051, 6.428943634033203, -17.43448829650879, 39.834495544433594, 30.74488067626953, 0.233154296875, 0.89892578125, -0.40625, 0, 
357, 1239260542, 0.8227395, -0.3845491, -0.19791856, 0.36884984, 1.0358476638793945, -7.479597091674805, 6.3417463302612305, -17.87278938293457, 39.69695281982422, 30.736087799072266, 0.240966796875, 0.898681640625, -0.400634765625, 0, 
358, 1239277209, 0.82132196, -0.3893423, -0.1924631, 0.36986595, 0.899167537689209, -7.580438613891602, 6.229788303375244, -16.380815505981445, 38.53130340576172, 31.107271194458008, 0.25439453125, 0.893798828125, -0.3935546875, 0, 
359, 1239293876, 0.81996125, -0.39378276, -0.18695514, 0.3710079, 0.7197306752204895, -7.589155673980713, 6.230813980102539, -13.935515403747559, 37.677799224853516, 31.35532569885254, 0.266357421875, 0.89453125, -0.383544921875, 0, 
360, 1239310543, 0.8185935, -0.3981378, -0.18142533, 0.3721233, 0.5891435146331787, -7.545969009399414, 6.216879367828369, -13.451262474060059, 37.65569305419922, 31.177902221679688, 0.27978515625, 0.889404296875, -0.378662109375, 0, 
361, 1239327210, 0.81717986, -0.40251562, -0.17581995, 0.37320995, 0.4101238250732422, -7.634690761566162, 6.165709972381592, -13.548840522766113, 38.168331146240234, 31.376089096069336, 0.292236328125, 0.888427734375, -0.369384765625, 0, 
362, 1239343877, 0.8157765, -0.4067015, -0.17022601, 0.3743338, 0.261196494102478, -7.70994234085083, 6.067084789276123, -12.42750072479248, 37.5289421081543, 31.299304962158203, 0.3056640625, 0.8857421875, -0.36279296875, 0, 
363, 1239360544, 0.8143031, -0.41090196, -0.16469611, 0.3754269, 0.1204741895198822, -7.632004737854004, 6.132863998413086, -12.903465270996094, 37.21916961669922, 31.14897918701172, 0.314697265625, 0.879638671875, -0.35595703125, 0, 
364, 1239377211, 0.8126835, -0.41527414, -0.15935132, 0.37643123, -0.00846661627292633, -7.634844779968262, 6.128584861755371, -14.85716724395752, 36.718109130859375, 30.706016540527344, 0.32763671875, 0.878662109375, -0.348388671875, 0, 
365, 1239393878, 0.81102437, -0.41960338, -0.15406337, 0.3774085, -0.07056614756584167, -7.705729961395264, 6.034650802612305, -14.908544540405273, 36.33080291748047, 30.451974868774414, 0.336181640625, 0.876220703125, -0.336669921875, 0, 
366, 1239410545, 0.8094697, -0.42365018, -0.14865491, 0.37839264, -0.18616348505020142, -7.798895359039307, 5.9897308349609375, -12.712133407592773, 36.36848831176758, 30.273826599121094, 0.351318359375, 0.872314453125, -0.331298828125, 0, 
367, 1239427212, 0.8080235, -0.4273018, -0.14314207, 0.37950146, -0.40028053522109985, -7.861072063446045, 5.97476863861084, -9.796610832214355, 35.67771911621094, 30.591421127319336, 0.36083984375, 0.87060546875, -0.326171875, 0, 
368, 1239443879, 0.80663323, -0.43068823, -0.13758123, 0.3806863, -0.6208615303039551, -7.813963413238525, 6.021158695220947, -7.9561543464660645, 35.0911865234375, 30.751693725585938, 0.370361328125, 0.867431640625, -0.3173828125, 0, 
369, 1239460546, 0.80510443, -0.43416414, -0.13217081, 0.38188955, -0.7281465530395508, -7.754826545715332, 6.0131659507751465, -9.240091323852539, 34.311317443847656, 30.857189178466797, 0.3828125, 0.86279296875, -0.310791015625, 0, 
370, 1239477213, 0.80330527, -0.4378651, -0.12706654, 0.3831833, -0.8702868819236755, -7.803467273712158, 5.921157360076904, -12.015924453735352, 32.69707489013672, 31.36316680908203, 0.39501953125, 0.857421875, -0.30322265625, 0, 
371, 1239493880, 0.8014255, -0.44152182, -0.12207127, 0.38454437, -0.904626190662384, -7.934928894042969, 5.957817077636719, -12.241535186767578, 31.711551666259766, 31.58207130432129, 0.40234375, 0.853515625, -0.298583984375, 0, 
372, 1239510547, 0.7996502, -0.44498485, -0.116869636, 0.38586226, -0.96961909532547, -7.944491386413574, 5.925724029541016, -10.347309112548828, 32.56229019165039, 31.53691291809082, 0.4169921875, 0.84912109375, -0.289794921875, 0, 
373, 1239527214, 0.7979933, -0.44826916, -0.111495934, 0.38707912, -1.1514967679977417, -7.9191741943359375, 5.859297752380371, -8.626480102539062, 33.44620895385742, 31.05508041381836, 0.42431640625, 0.843994140625, -0.2841796875, 0, 
374, 1239543881, 0.79631317, -0.4514977, -0.10623504, 0.3882649, -1.3266513347625732, -7.891833305358887, 5.78816556930542, -8.714957237243652, 32.763771057128906, 30.559885025024414, 0.43212890625, 0.840576171875, -0.27685546875, 0, 
375, 1239560548, 0.7944953, -0.45486298, -0.10105856, 0.3894408, -1.3897910118103027, -7.913000583648682, 5.808021068572998, -10.12185001373291, 32.60285186767578, 30.715030670166016, 0.444580078125, 0.833251953125, -0.269287109375, 0, 
376, 1239577215, 0.7924804, -0.45844132, -0.09598303, 0.39063263, -1.4838807582855225, -7.835378646850586, 5.7276177406311035, -12.161060333251953, 32.44169235229492, 31.165477752685547, 0.4541015625, 0.832763671875, -0.26318359375, 0, 
377, 1239593882, 0.79034936, -0.46213895, -0.09105571, 0.39177126, -1.5564881563186646, -7.828256130218506, 5.716459274291992, -13.609109878540039, 32.052284240722656, 30.804628372192383, 0.464111328125, 0.8271484375, -0.257080078125, 0, 
378, 1239610549, 0.7881229, -0.46601745, -0.08616108, 0.3927679, -1.7153093814849854, -7.833065032958984, 5.732708930969238, -15.07286548614502, 32.761348724365234, 30.304224014282227, 0.474365234375, 0.822998046875, -0.24609375, 0, 
379, 1239627216, 0.78577405, -0.47010678, -0.08126805, 0.3936422, -1.8739572763442993, -7.972458362579346, 5.61888313293457, -16.685163497924805, 33.64767837524414, 30.0968017578125, 0.484130859375, 0.818359375, -0.236083984375, 0, 
380, 1239643883, 0.7834205, -0.4741197, -0.076268904, 0.39452, -1.961305022239685, -8.012235641479492, 5.555621147155762, -15.9970121383667, 34.00677490234375, 30.433876037597656, 0.49462890625, 0.813720703125, -0.2294921875, 0, 
381, 1239660550, 0.7811161, -0.47787145, -0.07122355, 0.3955049, -2.1131396293640137, -8.047983169555664, 5.581757068634033, -14.247797012329102, 33.23004913330078, 30.895828247070312, 0.5009765625, 0.80908203125, -0.21923828125, 0, 
382, 1239677217, 0.7789125, -0.4814422, -0.06606541, 0.39641446, -2.3285436630249023, -7.985546112060547, 5.576913833618164, -12.674088478088379, 33.647422790527344, 30.503185272216797, 0.51171875, 0.801025390625, -0.211669921875, 0, 
383, 1239693884, 0.7767974, -0.4847944, -0.061014432, 0.39728794, -2.5013484954833984, -7.995349884033203, 5.510638236999512, -11.519414901733398, 32.643123626708984, 29.61820411682129, 0.521728515625, 0.798583984375, -0.203125, 0, 
384, 1239710551, 0.7747348, -0.48785064, -0.055942997, 0.39831936, -2.7197656631469727, -8.101744651794434, 5.415500640869141, -9.642422676086426, 31.44422721862793, 30.26413917541504, 0.529296875, 0.7939453125, -0.19384765625, 0, 
385, 1239727218, 0.7728869, -0.4903419, -0.050880395, 0.3995274, -3.044898748397827, -8.173530578613281, 5.378918170928955, -5.867580413818359, 29.3444766998291, 30.369998931884766, 0.5380859375, 0.788330078125, -0.1904296875, 0, 
386, 1239743885, 0.7710912, -0.4925064, -0.046084907, 0.40091422, -3.109703540802002, -8.134864807128906, 5.460870265960693, -4.623010635375977, 26.44322967529297, 30.15920639038086, 0.5458984375, 0.781005859375, -0.184814453125, 0, 
387, 1239760552, 0.76927227, -0.49452218, -0.04147082, 0.40242824, -2.982229709625244, -7.964092254638672, 5.434589385986328, -4.373129844665527, 24.636554718017578, 30.234867095947266, 0.5537109375, 0.77490234375, -0.17919921875, 0, 
388, 1239777219, 0.7674253, -0.4963743, -0.03701943, 0.40410462, -3.090411424636841, -7.921436309814453, 5.334042549133301, -4.006519317626953, 22.768848419189453, 30.57244873046875, 0.564453125, 0.770751953125, -0.173095703125, 0, 
389, 1239793886, 0.7654148, -0.49826643, -0.032907713, 0.40594068, -3.2248246669769287, -7.842784881591797, 5.234362602233887, -5.679471969604492, 20.505783081054688, 30.721614837646484, 0.571044921875, 0.765625, -0.167236328125, 0, 
390, 1239810553, 0.763265, -0.50034094, -0.028955506, 0.40773413, -3.2301759719848633, -7.80595064163208, 5.199479579925537, -7.568981170654297, 20.293718338012695, 30.382280349731445, 0.57958984375, 0.760986328125, -0.162841796875, 0, 
391, 1239827220, 0.76117116, -0.50238585, -0.024852851, 0.40940124, -3.1805152893066406, -7.844518184661865, 5.127021789550781, -6.824480056762695, 21.45126724243164, 30.07539939880371, 0.587890625, 0.751953125, -0.15771484375, 0, 
392, 1239843887, 0.75923496, -0.50411695, -0.02049096, 0.41110662, -3.1752333641052246, -7.772313117980957, 5.026241779327393, -3.89756178855896, 21.825546264648438, 30.678646087646484, 0.594970703125, 0.746337890625, -0.15380859375, 0, 
393, 1239860554, 0.7573409, -0.5057639, -0.015983531, 0.4127741, -3.230128526687622, -7.547775745391846, 4.952548027038574, -2.9041686058044434, 22.49189567565918, 30.859132766723633, 0.603271484375, 0.741943359375, -0.149658203125, 0, 
394, 1239877221, 0.755144, -0.50787216, -0.011604899, 0.4143535, -3.3131208419799805, -7.343655586242676, 4.961390495300293, -6.730816841125488, 23.41054344177246, 30.867963790893555, 0.61181640625, 0.7333984375, -0.1435546875, 0, 
395, 1239893888, 0.7526078, -0.5104102, -0.0074450662, 0.41594175, -3.2685110569000244, -7.326477527618408, 4.863938808441162, -10.771053314208984, 23.447906494140625, 31.154029846191406, 0.617431640625, 0.727294921875, -0.134521484375, 0, 
396, 1239910555, 0.750073, -0.5129979, -0.00322143, 0.41738877, -3.4013726711273193, -7.364180564880371, 4.812119007110596, -10.848597526550293, 24.423748016357422, 30.652393341064453, 0.62646484375, 0.719482421875, -0.1279296875, 0, 
397, 1239927222, 0.7476229, -0.5156231, 9.934725E-4, 0.41855943, -3.6371688842773438, -7.2849907875061035, 4.76958703994751, -10.77219295501709, 25.470476150512695, 28.959562301635742, 0.632080078125, 0.71435546875, -0.122802734375, 0, 
398, 1239943889, 0.7449902, -0.5185758, 0.0050044036, 0.4195756, -3.810450792312622, -7.214666843414307, 4.704819679260254, -13.688827514648438, 25.917789459228516, 27.969005584716797, 0.6416015625, 0.70751953125, -0.11328125, 0, 
399, 1239960556, 0.7421352, -0.5217309, 0.008762159, 0.42066085, -3.860050916671753, -7.181438446044922, 4.551931381225586, -16.251794815063477, 24.971311569213867, 28.05517578125, 0.647216796875, 0.7001953125, -0.104248046875, 0, 
400, 1239977223, 0.73936296, -0.5247275, 0.012375141, 0.42172307, -3.990201711654663, -7.184824466705322, 4.501522064208984, -15.56393051147461, 23.855594635009766, 27.19205093383789, 0.6513671875, 0.69677734375, -0.097412109375, 0, 
401, 1239993890, 0.73670346, -0.5275813, 0.015795393, 0.42270163, -4.142314434051514, -7.200971603393555, 4.459663391113281, -14.980896949768066, 22.756202697753906, 25.758255004882812, 0.6591796875, 0.68994140625, -0.089599609375, 0, 
402, 1240010557, 0.73411316, -0.5303242, 0.019115899, 0.4236376, -4.208527088165283, -7.1944661140441895, 4.3733320236206055, -14.453998565673828, 22.078197479248047, 24.992538452148438, 0.664794921875, 0.683837890625, -0.081787109375, 0, 
403, 1240027224, 0.7317178, -0.53280437, 0.022403281, 0.42450795, -4.376467227935791, -7.212235927581787, 4.312939167022705, -12.50331974029541, 21.362884521484375, 24.00698471069336, 0.667724609375, 0.677734375, -0.072998046875, 0, 
404, 1240043891, 0.7293957, -0.5351641, 0.025567638, 0.42535606, -4.532815456390381, -7.224232196807861, 4.169368743896484, -11.983173370361328, 20.462770462036133, 23.249841690063477, 0.675048828125, 0.671630859375, -0.068603515625, 0, 
405, 1240060558, 0.7270639, -0.5374761, 0.028564652, 0.42624143, -4.693799018859863, -7.293320178985596, 4.098557949066162, -12.272196769714355, 19.348173141479492, 22.856510162353516, 0.67919921875, 0.67041015625, -0.06005859375, 0, 
406, 1240077225, 0.724711, -0.53964174, 0.031392064, 0.42731184, -4.794312477111816, -7.340210914611816, 4.151069164276123, -12.147522926330566, 17.389801025390625, 23.24314308166504, 0.68408203125, 0.664306640625, -0.05419921875, 0, 
407, 1240093892, 0.72243035, -0.5416131, 0.03411052, 0.4284696, -4.75373649597168, -7.301124095916748, 4.257149696350098, -11.248345375061035, 15.936400413513184, 23.10222816467285, 0.689208984375, 0.65478515625, -0.050048828125, 0, 
408, 1240110559, 0.7202643, -0.5434126, 0.03688618, 0.42960617, -4.8061699867248535, -7.275301456451416, 4.20343542098999, -9.79369068145752, 15.768006324768066, 22.91240692138672, 0.692626953125, 0.652099609375, -0.04638671875, 0, 
409, 1240127226, 0.7181618, -0.5451087, 0.039668977, 0.4307283, -5.027862071990967, -7.286651611328125, 4.043661594390869, -9.017778396606445, 15.538579940795898, 22.706377029418945, 0.696533203125, 0.644287109375, -0.037353515625, 0, 
410, 1240143893, 0.7159395, -0.54688835, 0.04224898, 0.4319245, -5.116825580596924, -7.224264621734619, 4.025774002075195, -10.498067855834961, 14.538424491882324, 22.642255783081055, 0.70166015625, 0.6435546875, -0.033203125, 0, 
411, 1240160560, 0.7135997, -0.5488189, 0.044756938, 0.433094, -5.109048366546631, -7.208250045776367, 4.017327785491943, -11.88630485534668, 14.765174865722656, 22.542736053466797, 0.708984375, 0.63623046875, -0.029296875, 0, 
412, 1240177227, 0.71124524, -0.55083185, 0.047338475, 0.4341356, -5.256492614746094, -7.235821723937988, 3.9983229637145996, -12.085844039916992, 15.86005973815918, 22.209543228149414, 0.71337890625, 0.629638671875, -0.021240234375, 0, 
413, 1240193894, 0.70888364, -0.55283386, 0.049804088, 0.43517622, -5.301568508148193, -7.254451751708984, 4.006856918334961, -12.403365135192871, 15.265022277832031, 21.789480209350586, 0.715087890625, 0.624755859375, -0.020263671875, 0, 
414, 1240210561, 0.70640486, -0.55491686, 0.05217931, 0.4362762, -5.2545857429504395, -7.166952610015869, 4.014644145965576, -13.533940315246582, 14.881986618041992, 22.056215286254883, 0.718505859375, 0.61962890625, -0.01220703125, 0, 
415, 1240227228, 0.70392394, -0.55698913, 0.054512743, 0.43735856, -5.283961772918701, -7.170444488525391, 3.973417043685913, -13.609087944030762, 14.717576026916504, 21.82111167907715, 0.725830078125, 0.61572265625, -0.00927734375, 0, 
416, 1240243895, 0.7014597, -0.5590116, 0.05684002, 0.43844005, -5.329977989196777, -7.166022777557373, 3.906524419784546, -13.321698188781738, 14.53660774230957, 21.763240814208984, 0.729248046875, 0.60693359375, -0.00146484375, 0, 
417, 1240260562, 0.69913155, -0.5608198, 0.059333403, 0.43951777, -5.347414016723633, -7.2476725578308105, 3.836033344268799, -11.262852668762207, 14.65640926361084, 22.056503295898438, 0.7314453125, 0.60302734375, 0.00390625, 0, 
418, 1240277229, 0.69698507, -0.56233996, 0.06204848, 0.44060838, -5.347744464874268, -7.177931785583496, 3.8183155059814453, -8.51087474822998, 14.730405807495117, 22.544647216796875, 0.736572265625, 0.598876953125, 0.0107421875, 0, 
419, 1240293896, 0.6948647, -0.5637617, 0.06489324, 0.4417293, -5.4630351066589355, -7.018704891204834, 3.860057830810547, -7.557873249053955, 14.928890228271484, 23.15580177307129, 0.740478515625, 0.591796875, 0.014892578125, 0, 
420, 1240310563, 0.69261706, -0.56526595, 0.06755639, 0.44293612, -5.627519607543945, -6.954235553741455, 3.834230661392212, -9.036397933959961, 14.040179252624512, 23.212448120117188, 0.74169921875, 0.585205078125, 0.02099609375, 0, 
421, 1240327230, 0.6902427, -0.56686, 0.07010396, 0.44420737, -5.586401462554932, -6.994446754455566, 3.6507620811462402, -10.33955192565918, 13.574272155761719, 23.413612365722656, 0.7470703125, 0.5791015625, 0.0234375, 0, 
422, 1240343897, 0.6880188, -0.5682621, 0.072769664, 0.44543564, -5.671991348266602, -7.074568748474121, 3.57938551902771, -8.459059715270996, 13.646087646484375, 23.30353546142578, 0.751708984375, 0.5712890625, 0.029541015625, 0, 
423, 1240360564, 0.68601495, -0.56943, 0.07560809, 0.44656077, -5.7657341957092285, -7.020783424377441, 3.6564910411834717, -5.908627986907959, 14.040611267089844, 22.93442726135254, 0.752685546875, 0.56640625, 0.030517578125, 0, 
424, 1240377231, 0.6841255, -0.5705417, 0.07856623, 0.4475287, -5.877696514129639, -6.93699312210083, 3.6497578620910645, -4.744963645935059, 14.99181842803955, 22.3398380279541, 0.756591796875, 0.560791015625, 0.035888671875, 0, 
425, 1240393898, 0.68221074, -0.5717114, 0.08152811, 0.44842842, -6.021218776702881, -6.8675007820129395, 3.6057634353637695, -5.068811893463135, 15.47230339050293, 22.07914161682129, 0.760009765625, 0.55419921875, 0.041015625, 0, 
426, 1240410565, 0.68007684, -0.5730648, 0.08427027, 0.4494342, -6.034438133239746, -6.741152286529541, 3.605156898498535, -7.529481887817383, 14.716161727905273, 22.283519744873047, 0.763427734375, 0.547119140625, 0.0498046875, 0, 
427, 1240427232, 0.6777316, -0.5745615, 0.086860865, 0.4505713, -6.015750885009766, -6.741623401641846, 3.6329333782196045, -9.577261924743652, 14.057955741882324, 22.86859703063965, 0.76904296875, 0.543212890625, 0.051513671875, 0, 
428, 1240443899, 0.6754855, -0.57591635, 0.08953989, 0.45168838, -6.123652458190918, -6.903750896453857, 3.570920467376709, -8.241055488586426, 14.054288864135742, 22.90128517150879, 0.7734375, 0.5380859375, 0.05419921875, 0, 
429, 1240460566, 0.6735135, -0.5769178, 0.092460126, 0.45276573, -6.1966633796691895, -6.955074787139893, 3.4511241912841797, -4.740685939788818, 14.069785118103027, 23.03839111328125, 0.77294921875, 0.531494140625, 0.061279296875, 0, 
430, 1240477233, 0.67186743, -0.57733434, 0.09582103, 0.45397997, -6.150003910064697, -7.0574564933776855, 3.300480842590332, 0.546909511089325, 13.542536735534668, 24.777463912963867, 0.7763671875, 0.526611328125, 0.064208984375, 0, 
431, 1240493900, 0.6706149, -0.57702744, 0.09985181, 0.4553515, -6.170086860656738, -6.99000883102417, 3.3759262561798096, 7.442692279815674, 13.498003959655762, 27.414600372314453, 0.78173828125, 0.51611328125, 0.068359375, 0, 
432, 1240510567, 0.6694915, -0.5763719, 0.10422703, 0.45685166, -6.398869514465332, -6.644453048706055, 3.5115644931793213, 10.556342124938965, 13.401219367980957, 29.209110260009766, 0.783935546875, 0.5126953125, 0.068115234375, 0, 
433, 1240527234, 0.6679554, -0.57601744, 0.10831916, 0.458592, -6.52454948425293, -6.487468719482422, 3.382202386856079, 6.473148822784424, 12.392702102661133, 30.272205352783203, 0.79052734375, 0.5029296875, 0.066650390625, 0, 
434, 1240543901, 0.6660514, -0.57600534, 0.11202735, 0.46048152, -6.636993885040283, -6.618983268737793, 3.2773478031158447, 2.1233134269714355, 11.395670890808105, 30.337627410888672, 0.793212890625, 0.4951171875, 0.07080078125, 0, 
435, 1240560568, 0.6642091, -0.5759229, 0.11566652, 0.4623424, -6.732952117919922, -6.6804585456848145, 3.264510154724121, 2.4961843490600586, 10.923408508300781, 29.789730072021484, 0.79931640625, 0.488037109375, 0.07373046875, 0, 
436, 1240577235, 0.6624899, -0.57571524, 0.11925388, 0.46415251, -6.715920925140381, -6.656118869781494, 3.284501314163208, 3.4356093406677246, 10.393911361694336, 29.059358596801758, 0.80126953125, 0.479248046875, 0.07421875, 0, 
437, 1240593902, 0.6609612, -0.5753056, 0.12288081, 0.46589082, -6.78765344619751, -6.508201599121094, 3.282768726348877, 5.299259185791016, 10.059548377990723, 28.446109771728516, 0.802490234375, 0.474365234375, 0.077880859375, 0, 
438, 1240610569, 0.6594082, -0.57492507, 0.1263875, 0.4676198, -6.809821128845215, -6.358047962188721, 3.2827532291412354, 4.696295261383057, 9.665892601013184, 27.980911254882812, 0.806884765625, 0.46435546875, 0.080322265625, 0, 
439, 1240627236, 0.6575755, -0.5748633, 0.12957574, 0.46940064, -6.871492862701416, -6.142007350921631, 3.292288064956665, 1.0789892673492432, 9.287818908691406, 27.5776309967041, 0.811279296875, 0.458251953125, 0.080078125, 0, 
440, 1240643903, 0.6553622, -0.57522756, 0.1323332, 0.47127664, -6.892289161682129, -6.0689311027526855, 3.2846806049346924, -3.8248770236968994, 8.680181503295898, 27.151111602783203, 0.816650390625, 0.45166015625, 0.081787109375, 0, 
441, 1240660570, 0.6528785, -0.5759049, 0.13492653, 0.4731578, -6.936600685119629, -6.154217720031738, 3.301703929901123, -6.840309143066406, 9.182296752929688, 27.115238189697266, 0.8232421875, 0.442138671875, 0.088134765625, 0, 
442, 1240677237, 0.6503245, -0.5766981, 0.13747925, 0.47497046, -6.93335485458374, -6.150275707244873, 3.3023107051849365, -7.706327438354492, 9.716680526733398, 26.767478942871094, 0.82275390625, 0.43359375, 0.0908203125, 0, 
443, 1240693904, 0.64782965, -0.5774617, 0.14001513, 0.4767081, -6.994636058807373, -6.004796028137207, 3.3473949432373047, -7.321328639984131, 9.788856506347656, 26.20223617553711, 0.8271484375, 0.4306640625, 0.092041015625, 0, 
444, 1240710571, 0.6452414, -0.5783284, 0.1424046, 0.47845677, -7.072758674621582, -5.896605491638184, 3.354818105697632, -8.641589164733887, 9.525684356689453, 25.876392364501953, 0.82861328125, 0.418701171875, 0.0947265625, 0, 
445, 1240727238, 0.64256054, -0.5793611, 0.14464876, 0.4801392, -7.173909664154053, -5.818774223327637, 3.289728879928589, -10.160351753234863, 9.786218643188477, 25.146251678466797, 0.833740234375, 0.412109375, 0.099853515625, 0, 
446, 1240743905, 0.6398818, -0.5804212, 0.1468372, 0.48176897, -7.1755690574646, -5.855344295501709, 3.299818515777588, -10.404145240783691, 9.841490745544434, 24.657018661499023, 0.834716796875, 0.405029296875, 0.103515625, 0, 
447, 1240760572, 0.6372826, -0.581438, 0.14914301, 0.48327762, -7.187901020050049, -5.761855602264404, 3.309408187866211, -9.385318756103516, 10.621525764465332, 24.372623443603516, 0.8369140625, 0.396728515625, 0.107666015625, 0, 
448, 1240777239, 0.63475645, -0.5823982, 0.15162122, 0.4846728, -7.263089179992676, -5.687272548675537, 3.279480218887329, -8.157557487487793, 11.574089050292969, 24.379117965698242, 0.838134765625, 0.391845703125, 0.1103515625, 0, 
449, 1240793906, 0.63231766, -0.5832714, 0.15417707, 0.48600242, -7.36536169052124, -5.6877288818359375, 3.2586238384246826, -7.102415084838867, 11.799994468688965, 24.202543258666992, 0.841552734375, 0.383056640625, 0.114501953125, 0, 
450, 1240810573, 0.62992287, -0.58407646, 0.15688275, 0.48727804, -7.366840362548828, -5.586546897888184, 3.3015928268432617, -6.072333812713623, 12.398860931396484, 24.493135452270508, 0.84326171875, 0.378173828125, 0.12109375, 0, 
451, 1240827240, 0.62750447, -0.5848807, 0.15970276, 0.48851585, -7.470801830291748, -5.5295281410217285, 3.2273976802825928, -5.741814136505127, 13.07520580291748, 24.867633819580078, 0.84716796875, 0.370849609375, 0.12353515625, 0, 
452, 1240843907, 0.62500685, -0.58574796, 0.16239403, 0.48978978, -7.524888515472412, -5.492455959320068, 3.1835591793060303, -6.806191444396973, 12.679078102111816, 24.700458526611328, 0.851318359375, 0.362548828125, 0.12646484375, 0, 
453, 1240860574, 0.62249875, -0.5866368, 0.16508031, 0.49102035, -7.56451940536499, -5.456042289733887, 3.0490245819091797, -6.909742832183838, 12.922065734863281, 24.504072189331055, 0.850341796875, 0.356689453125, 0.13037109375, 0, 
454, 1240877241, 0.6199821, -0.5875478, 0.16782129, 0.49218485, -7.611121654510498, -5.465904712677002, 3.028212547302246, -6.779387474060059, 13.512160301208496, 24.44370460510254, 0.854736328125, 0.347412109375, 0.135986328125, 0, 
455, 1240893908, 0.6174764, -0.58844167, 0.17060433, 0.4933089, -7.6802825927734375, -5.297429084777832, 2.9442057609558105, -6.474466800689697, 13.789198875427246, 24.422931671142578, 0.853759765625, 0.342529296875, 0.140869140625, 0, 
456, 1240910575, 0.6148857, -0.58940464, 0.17320949, 0.49448588, -7.642387390136719, -5.236781597137451, 2.910325288772583, -7.7770676612854, 13.157344818115234, 24.133197784423828, 0.85595703125, 0.333740234375, 0.14404296875, 0, 
457, 1240927242, 0.61223537, -0.5904322, 0.17564881, 0.49568653, -7.716884136199951, -5.194100379943848, 2.8577687740325928, -8.883349418640137, 12.654720306396484, 23.68499183654785, 0.85986328125, 0.325927734375, 0.149169921875, 0, 
458, 1240943909, 0.60965973, -0.5913567, 0.17788926, 0.49695852, -7.835522174835205, -5.191256999969482, 2.6553738117218018, -8.910765647888184, 11.090558052062988, 23.046459197998047, 0.858642578125, 0.3193359375, 0.154296875, 0, 
459, 1240960576, 0.6071632, -0.59219956, 0.17995328, 0.49826658, -7.76455545425415, -5.128851890563965, 2.552398443222046, -8.891923904418945, 9.830202102661133, 22.307445526123047, 0.858154296875, 0.314697265625, 0.1552734375, 0, 
460, 1240977243, 0.6046661, -0.5930924, 0.18192098, 0.49952486, -7.684572696685791, -5.054342746734619, 2.568398952484131, -9.36937141418457, 9.802373886108398, 21.64631462097168, 0.862548828125, 0.306396484375, 0.160400390625, 0, 
461, 1240993910, 0.60232306, -0.59389144, 0.18386607, 0.50069296, -7.686347007751465, -5.036020755767822, 2.4502274990081787, -8.315686225891113, 9.56309700012207, 20.7669620513916, 0.86328125, 0.30029296875, 0.165771484375, 0, 
462, 1241010577, 0.60007083, -0.594649, 0.18577257, 0.50179297, -7.736786365509033, -4.97033166885376, 2.401224136352539, -7.8179779052734375, 9.424954414367676, 20.066232681274414, 0.8671875, 0.29248046875, 0.169921875, 0, 
463, 1241027244, 0.5978339, -0.59544384, 0.18767785, 0.50281054, -7.731712341308594, -4.942756652832031, 2.446014881134033, -7.806528091430664, 9.86629867553711, 19.619556427001953, 0.86572265625, 0.28662109375, 0.167236328125, 0, 
464, 1241043911, 0.5956089, -0.5961286, 0.18958525, 0.50392294, -7.796266555786133, -4.951820373535156, 2.32517147064209, -7.41909646987915, 9.091653823852539, 20.119081497192383, 0.866943359375, 0.28125, 0.172119140625, 0, 
465, 1241060578, 0.59346247, -0.5966794, 0.19141763, 0.50510925, -7.86000919342041, -4.88938570022583, 2.3193790912628174, -6.90214204788208, 7.916285037994385, 20.015989303588867, 0.866455078125, 0.27587890625, 0.1748046875, 0, 
466, 1241077245, 0.5913414, -0.5972427, 0.19322209, 0.50624305, -7.867815017700195, -4.7883148193359375, 2.369654417037964, -6.875336647033691, 8.027442932128906, 19.582183837890625, 0.870361328125, 0.269775390625, 0.179443359375, 0, 
467, 1241093912, 0.58925027, -0.5978168, 0.1950126, 0.50731593, -7.991394519805908, -4.768007278442383, 2.332578420639038, -6.7624101638793945, 8.219551086425781, 19.157358169555664, 0.869140625, 0.2626953125, 0.1826171875, 0, 
468, 1241110579, 0.5872803, -0.598268, 0.19665948, 0.50843114, -8.170783042907715, -4.819807529449463, 2.3381967544555664, -6.324239253997803, 6.874253749847412, 18.479293823242188, 0.87255859375, 0.2587890625, 0.18310546875, 0, 
469, 1241127246, 0.5853206, -0.5987399, 0.19803233, 0.5096011, -8.281752586364746, -4.7705535888671875, 2.311755895614624, -7.395082473754883, 5.601518630981445, 17.507137298583984, 0.8759765625, 0.25146484375, 0.189453125, 0, 
470, 1241143913, 0.58336705, -0.59918255, 0.19920619, 0.51086235, -8.279030799865723, -4.711602687835693, 2.2844772338867188, -8.073318481445312, 4.314323902130127, 17.071487426757812, 0.873046875, 0.2451171875, 0.1904296875, 0, 
471, 1241160580, 0.5815138, -0.5995769, 0.20025645, 0.5121002, -8.316158294677734, -4.730881214141846, 2.263916492462158, -7.866968631744385, 3.608295440673828, 16.179943084716797, 0.872802734375, 0.24072265625, 0.187744140625, 0, 
472, 1241177247, 0.5797289, -0.60001534, 0.20118321, 0.5132458, -8.334579467773438, -4.7126898765563965, 2.3177921772003174, -8.068807601928711, 3.5562493801116943, 15.000154495239258, 0.8740234375, 0.233154296875, 0.189697265625, 0, 
473, 1241193914, 0.57787466, -0.60061044, 0.20200351, 0.5143176, -8.281804084777832, -4.664486885070801, 2.245349645614624, -9.252771377563477, 4.086177825927734, 14.293131828308105, 0.876220703125, 0.2314453125, 0.190673828125, 0, 
474, 1241210581, 0.57588476, -0.60134363, 0.20272948, 0.51540613, -8.294357299804688, -4.631557464599609, 2.2615065574645996, -10.717562675476074, 4.319150924682617, 14.25829792022705, 0.87548828125, 0.2265625, 0.191162109375, 0, 
475, 1241227248, 0.5736898, -0.60222226, 0.20332742, 0.51659137, -8.326580047607422, -4.637787818908691, 2.2268168926239014, -12.729009628295898, 4.214626789093018, 14.634732246398926, 0.87890625, 0.2216796875, 0.19482421875, 0, 
476, 1241243915, 0.5714569, -0.60305655, 0.2040106, 0.5178219, -8.145666122436523, -4.684662342071533, 2.1413631439208984, -12.47110366821289, 4.260691165924072, 15.362648010253906, 0.878173828125, 0.2177734375, 0.196044921875, 0, 
477, 1241260582, 0.5694931, -0.6035941, 0.20515695, 0.51890504, -8.174447059631348, -4.7429327964782715, 2.1276774406433105, -8.332775115966797, 5.2581658363342285, 16.16431999206543, 0.878173828125, 0.210693359375, 0.2001953125, 0, 
478, 1241277249, 0.5676068, -0.6040352, 0.20652659, 0.5199142, -8.320504188537598, -4.6688947677612305, 2.21152400970459, -6.730134963989258, 5.988525390625, 16.662322998046875, 0.881591796875, 0.206298828125, 0.2021484375, 0, 
479, 1241293916, 0.5655648, -0.6045324, 0.20789139, 0.52101654, -8.398975372314453, -4.573277950286865, 2.0923731327056885, -7.74419641494751, 6.005545616149902, 17.484891891479492, 0.880859375, 0.1982421875, 0.203857421875, 0, 
480, 1241310583, 0.5634227, -0.60503083, 0.2092957, 0.5221953, -8.426965713500977, -4.487159252166748, 2.087610960006714, -8.131268501281738, 5.9904985427856445, 18.302438735961914, 0.87890625, 0.194580078125, 0.211669921875, 0, 
481, 1241327250, 0.56119686, -0.605572, 0.21058096, 0.52344656, -8.419966697692871, -4.52256441116333, 2.113826274871826, -9.175334930419922, 5.502243995666504, 18.326862335205078, 0.8798828125, 0.18798828125, 0.208740234375, 0, 
482, 1241343917, 0.5590827, -0.60597193, 0.21188982, 0.52471656, -8.457815170288086, -4.535898208618164, 2.0344130992889404, -8.106975555419922, 4.846812725067139, 18.301593780517578, 0.882080078125, 0.181396484375, 0.211181640625, 0, 
483, 1241360584, 0.5571125, -0.6062441, 0.21332291, 0.5259156, -8.528653144836426, -4.483985900878906, 2.018512487411499, -6.462072849273682, 4.951171398162842, 18.213136672973633, 0.8837890625, 0.177001953125, 0.21337890625, 0, 
484, 1241377251, 0.55500233, -0.6066287, 0.21459036, 0.527186, -8.594254493713379, -4.2397027015686035, 2.0027976036071777, -8.178101539611816, 4.632562637329102, 18.137619018554688, 0.8818359375, 0.17333984375, 0.212890625, 0, 
485, 1241393918, 0.5527817, -0.6070606, 0.21562593, 0.5285976, -8.49999713897705, -4.243443012237549, 1.9491980075836182, -9.867315292358398, 3.4927070140838623, 18.03839874267578, 0.88623046875, 0.16455078125, 0.213134765625, 0, 
486, 1241410585, 0.5507177, -0.6073008, 0.21670039, 0.5300347, -8.505838394165039, -4.282618522644043, 1.926518201828003, -8.380186080932617, 2.605353355407715, 18.013015747070312, 0.885009765625, 0.158447265625, 0.21630859375, 0, 
487, 1241427252, 0.54873127, -0.60748327, 0.21776685, 0.5314467, -8.649249076843262, -4.256053447723389, 1.9288780689239502, -7.8273091316223145, 2.355142116546631, 17.686988830566406, 0.88623046875, 0.153076171875, 0.21630859375, 0, 
488, 1241443919, 0.5466304, -0.6078156, 0.21865849, 0.53286386, -8.802994728088379, -4.149120807647705, 1.9234654903411865, -9.516674041748047, 2.393254041671753, 17.169933319091797, 0.885009765625, 0.146484375, 0.219482421875, 0, 
489, 1241460586, 0.54433215, -0.6082676, 0.2193686, 0.5344067, -8.746575355529785, -4.189490795135498, 1.9185885190963745, -11.643800735473633, 1.9205454587936401, 17.426177978515625, 0.887939453125, 0.142578125, 0.22265625, 0, 
490, 1241477253, 0.54199123, -0.6087418, 0.2200649, 0.5359576, -8.685113906860352, -4.1646552085876465, 1.9562127590179443, -11.966878890991211, 1.981516718864441, 17.52141761779785, 0.885009765625, 0.134033203125, 0.221923828125, 0, 
491, 1241493920, 0.53969836, -0.6091487, 0.2208694, 0.53747576, -8.691866874694824, -4.108669281005859, 2.020488739013672, -11.065860748291016, 2.201965570449829, 17.777891159057617, 0.885986328125, 0.13037109375, 0.222412109375, 0, 
492, 1241510587, 0.5374085, -0.60947776, 0.22172034, 0.5390448, -8.692888259887695, -4.038387775421143, 2.003174304962158, -10.668800354003906, 1.87171471118927, 18.269527435302734, 0.88818359375, 0.123046875, 0.223388671875, 0, 
493, 1241527254, 0.5350357, -0.6098543, 0.22252724, 0.5406443, -8.661593437194824, -3.9388034343719482, 2.005284309387207, -11.400251388549805, 1.8867883682250977, 18.432491302490234, 0.89013671875, 0.118896484375, 0.220458984375, 0, 
494, 1241543921, 0.5325714, -0.6102742, 0.22335184, 0.5422611, -8.672101020812988, -3.9285616874694824, 2.0300822257995605, -11.904860496520996, 2.1832425594329834, 18.8445987701416, 0.888427734375, 0.1123046875, 0.22607421875, 0, 
495, 1241560588, 0.5302145, -0.610566, 0.22428645, 0.54385436, -8.630538940429688, -3.9652161598205566, 1.9635876417160034, -10.536089897155762, 2.0458178520202637, 19.017141342163086, 0.8896484375, 0.10400390625, 0.22705078125, 0, 
496, 1241577255, 0.52815056, -0.61060613, 0.22564483, 0.54525375, -8.590770721435547, -3.8793160915374756, 1.9452120065689087, -6.505987644195557, 3.0146195888519287, 19.38309097290039, 0.889404296875, 0.099365234375, 0.225830078125, 0, 
497, 1241593922, 0.52615815, -0.61058515, 0.22709732, 0.54659915, -8.634238243103027, -3.735058307647705, 1.8998467922210693, -5.544830322265625, 3.246875286102295, 19.409753799438477, 0.889892578125, 0.095458984375, 0.22900390625, 0, 
498, 1241610589, 0.5240776, -0.6107028, 0.22834328, 0.54794544, -8.670652389526367, -3.5934090614318848, 1.897473692893982, -7.1931891441345215, 3.1575253009796143, 18.65970802307129, 0.889892578125, 0.087890625, 0.228271484375, 0, 
499, 1241627256, 0.5218542, -0.6110016, 0.22937387, 0.5493023, -8.745545387268066, -3.5681233406066895, 1.8618804216384888, -9.272712707519531, 3.2461581230163574, 18.045656204223633, 0.891357421875, 0.080810546875, 0.229736328125, 0, 
500, 1241643923, 0.51955223, -0.61142457, 0.23021676, 0.5506595, -8.81965160369873, -3.5434322357177734, 1.7886186838150024, -10.757766723632812, 3.164889097213745, 17.359416961669922, 0.890869140625, 0.075927734375, 0.23046875, 0, 
501, 1241660590, 0.51723474, -0.61192226, 0.23091823, 0.5519931, -8.911327362060547, -3.520538330078125, 1.8109312057495117, -11.587977409362793, 3.068354845046997, 16.618953704833984, 0.887451171875, 0.06787109375, 0.233642578125, 0, 
502, 1241677257, 0.5149009, -0.61248153, 0.23155643, 0.5532858, -8.966647148132324, -3.520268678665161, 1.7780104875564575, -12.050387382507324, 3.2769062519073486, 16.170318603515625, 0.891357421875, 0.062255859375, 0.2333984375, 0, 
503, 1241693924, 0.5125555, -0.6130394, 0.23209092, 0.55462027, -8.999288558959961, -3.5495920181274414, 1.7621853351593018, -12.554563522338867, 2.74731183052063, 15.927178382873535, 0.891357421875, 0.057861328125, 0.23876953125, 0, 
504, 1241710591, 0.51021475, -0.6136082, 0.2325718, 0.5559465, -8.90298843383789, -3.5465383529663086, 1.7712424993515015, -12.764793395996094, 2.6279308795928955, 15.636819839477539, 0.8896484375, 0.05419921875, 0.2373046875, 0, 
505, 1241727258, 0.50795, -0.614122, 0.23320192, 0.55718756, -8.910606384277344, -3.565335988998413, 1.7663336992263794, -11.54262924194336, 3.181063413619995, 15.765034675598145, 0.892822265625, 0.048583984375, 0.237548828125, 0, 
506, 1241743925, 0.5057317, -0.6145346, 0.23405501, 0.5583916, -8.861849784851074, -3.552037000656128, 1.7102835178375244, -10.080141067504883, 3.65605092048645, 16.563457489013672, 0.88818359375, 0.041748046875, 0.237060546875, 0, 
507, 1241760592, 0.5036276, -0.6148016, 0.23526266, 0.55949074, -8.913019180297852, -3.5438361167907715, 1.6959903240203857, -7.55891227722168, 4.590877056121826, 17.493253707885742, 0.88818359375, 0.037353515625, 0.23974609375, 0, 
508, 1241777259, 0.5015244, -0.61500853, 0.23660436, 0.5605856, -8.933019638061523, -3.379000186920166, 1.7631475925445557, -6.82460880279541, 4.842804908752441, 18.139564514160156, 0.888671875, 0.02880859375, 0.241455078125, 0, 
509, 1241793926, 0.49923277, -0.6152831, 0.23796086, 0.5617545, -8.905714988708496, -3.262009620666504, 1.721181869506836, -7.915802478790283, 5.149825096130371, 19.073511123657227, 0.887451171875, 0.0244140625, 0.24072265625, 0, 
510, 1241810593, 0.49688038, -0.6156089, 0.2392788, 0.5629221, -8.835801124572754, -3.1833600997924805, 1.609215497970581, -8.494856834411621, 5.3236985206604, 19.055931091308594, 0.8896484375, 0.017822265625, 0.243896484375, 0, 
