sep=,
DeviceTag:,Xsens_3,,,,,,,,,,,,,,,,,
FirmwareVersion:,2.4.0,,,,,,,,,,,,,,,,,
AppVersion:,2022.0.1,,,,,,,,,,,,,,,,,
SyncStatus:,Synced,,,,,,,,,,,,,,,,,
OutputRate:,60Hz,,,,,,,,,,,,,,,,,
FilterProfile:,General,,,,,,,,,,,,,,,,,
Measurement Mode:,Sensor fusion Mode - Extended (Quaternion),,,,,,,,,,,,,,,,,
StartTime:,2020-11-25 11:02:17.793 +0100,,,,,,,,,,,,,,,,,
© Xsens Technologies B. V. 2005-2020,,,,,,,,,,,,,,,,,,,

PacketCounter,SampleTimeFine,Quat_W,Quat_X,Quat_Y,Quat_Z,FreeAcc_X,FreeAcc_Y,FreeAcc_Z,Status
1, 1702266872, -0.41903928, 0.66485465, 0.28598535, 0.54827666, 0.110991396, 0.045168616, 0.11508179, 0
2, 1702283539, -0.41920573, 0.66498214, 0.28542948, 0.54828465, 0.046819195, 0.0941697, 0.13886929, 0
3, 1702300206, -0.41944498, 0.66506135, 0.284828, 0.54831815, 0.021056535, 0.119091555, 0.1459217, 0
4, 1702316873, -0.4197431, 0.66509336, 0.2841916, 0.54838145, 0.09569121, -0.029550312, 0.1255722, 0
5, 1702333540, -0.41986215, 0.66525835, 0.2834277, 0.5484855, 0.12489365, -0.04421483, 0.11405659, 0
6, 1702350207, -0.41994005, 0.6654528, 0.28269348, 0.5485691, 0.08845617, 0.022140356, 0.14890957, 0
7, 1702366874, -0.42014372, 0.66553134, 0.28207457, 0.5486362, 0.08776524, -0.002019272, 0.12984943, 0
8, 1702383541, -0.42033347, 0.6655743, 0.28148448, 0.54874194, 0.028648298, -0.10427986, 0.061582565, 0
9, 1702400208, -0.4204879, 0.6655929, 0.28092533, 0.5488876, 0.01249061, -0.12044755, 0.060207367, 0
10, 1702416875, -0.4205643, 0.66562426, 0.28034997, 0.5490853, 0.04200752, -0.12810461, 0.05730915, 0
11, 1702433542, -0.42059168, 0.66563374, 0.27970484, 0.54938173, 0.0790261, -0.115452096, 0.09113121, 0
12, 1702450209, -0.42058393, 0.66561276, 0.27906582, 0.5497377, 0.053148467, -0.10111324, 0.096432686, 0
13, 1702466876, -0.42069533, 0.66546464, 0.27868867, 0.550023, 0.0908103, -0.042242162, 0.115992546, 0
14, 1702483543, -0.42092004, 0.6652398, 0.27854738, 0.5501948, 0.13362338, -0.1393168, 0.07822418, 0
15, 1702500210, -0.42094773, 0.66514367, 0.27841297, 0.55035776, 0.12407173, -0.09853116, 0.11207771, 0
16, 1702516877, -0.42105633, 0.6649504, 0.2784895, 0.5504695, 0.12422933, 0.05316714, 0.1357851, 0
17, 1702533544, -0.42141274, 0.66457176, 0.2788749, 0.5504589, 0.074522346, 0.060316928, 0.12631702, 0
20, 1702583545, -0.42156625, 0.6641113, 0.2786645, 0.5510032, 0.10542816, -0.05764997, 0.10002422, 0
23, 1702633546, -0.42044556, 0.6646217, 0.27642065, 0.5523729, 0.11448128, 0.13221937, 0.0862236, 0
26, 1702683547, -0.42063397, 0.6643707, 0.27580035, 0.5528412, 0.019991096, -7.286522E-5, 0.09385109, 0
28, 1702716881, -0.42086822, 0.66423607, 0.2755142, 0.5529673, 0.04143444, 0.13781373, 0.088357925, 0
32, 1702783549, -0.4211086, 0.6644182, 0.27354473, 0.5535429, 0.01688567, -0.064245835, 0.172822, 0
35, 1702833550, -0.42139474, 0.6645453, 0.2721417, 0.5538642, 0.082559414, -0.06149629, 0.072589874, 0
38, 1702883551, -0.4220988, 0.664423, 0.2719689, 0.5535595, 0.019809093, -0.06784149, 0.068632126, 0
40, 1702916885, -0.42305154, 0.66394186, 0.27247328, 0.5531615, 0.005513953, -0.018403051, 0.14535713, 0
43, 1702966886, -0.42497712, 0.6625824, 0.27381182, 0.5526542, 0.027357623, -0.06647113, 0.10792637, 0
46, 1703016887, -0.4272716, 0.66090316, 0.27558255, 0.5520152, 0.09908559, -0.05065575, 0.09005737, 0
50, 1703083555, -0.42889217, 0.65986544, 0.2767282, 0.5514264, 0.016906353, -0.02802914, 0.1482296, 0
53, 1703133556, -0.4294623, 0.65951395, 0.27704138, 0.5512459, 0.053883, 0.051769905, 0.12754631, 0
57, 1703200224, -0.43136322, 0.6580791, 0.2791193, 0.5504277, 0.14958839, 0.021772733, 0.04395199, 0
59, 1703233558, -0.43173718, 0.6577804, 0.27958563, 0.55025476, 0.10259782, -0.030987222, 0.05833435, 0
62, 1703283559, -0.4322104, 0.6575882, 0.28014934, 0.54982615, 0.12546624, -0.07887275, 0.1317749, 0
65, 1703333560, -0.4327761, 0.6574631, 0.2813527, 0.54891574, 0.13409819, 0.115779094, 0.23919582, 0
67, 1703366894, -0.43426687, 0.65652835, 0.28370145, 0.5476468, 0.21183355, -0.019005362, 0.08288479, 0
70, 1703416895, -0.43586272, 0.65563405, 0.28626528, 0.5461139, 0.16224453, 0.04922247, 0.0883894, 0
73, 1703466896, -0.4368674, 0.6552557, 0.28745863, 0.5451376, 0.20588662, 0.06609535, 0.21437645, 0
75, 1703500230, -0.43721932, 0.6552892, 0.28760898, 0.5447356, 0.15203167, 0.0069665634, 0.1580534, 0
78, 1703550231, -0.43806544, 0.65504354, 0.28762957, 0.54434025, 0.16941784, 0.028711747, 0.033200264, 0
81, 1703600232, -0.4386014, 0.6552109, 0.2870612, 0.5440072, 0.06892025, -0.01353818, 0.14719963, 0
84, 1703650233, -0.43927872, 0.6553499, 0.28664663, 0.54351175, -0.025260093, -0.015393505, 0.10174465, 0
86, 1703683567, -0.439856, 0.6553737, 0.286479, 0.5431044, -0.050855827, -0.053401325, 0.09161949, 0
89, 1703733568, -0.4406053, 0.6556281, 0.28626093, 0.5423043, -0.06787317, -0.026119724, 0.0637455, 0
92, 1703783569, -0.44118565, 0.65604305, 0.28613913, 0.54139405, 0.019689264, -0.04191097, 0.0837183, 0
94, 1703816903, -0.44132453, 0.6565102, 0.28620383, 0.54067993, 0.055038117, -0.023370683, 0.12000179, 0
97, 1703866904, -0.4414224, 0.6572362, 0.2863819, 0.5396229, 0.051143803, -0.040248536, 0.057032585, 0
100, 1703916905, -0.44112206, 0.6581865, 0.2858638, 0.53898454, 0.04462766, 0.01803811, 0.04913616, 0
104, 1703983573, -0.4402177, 0.6598689, 0.28535455, 0.5379356, 0.10143806, -0.032681003, 0.12215042, 0
106, 1704016907, -0.43975425, 0.6605997, 0.2854948, 0.5373431, 0.090868674, 0.008655148, 0.095811844, 0
109, 1704066908, -0.43931553, 0.6611647, 0.2860868, 0.5366917, 0.08978794, -0.0040028933, 0.108104706, 0
112, 1704116909, -0.4390102, 0.6613021, 0.28666392, 0.53646433, 0.12810327, 0.010398437, 0.08215618, 0
115, 1704166910, -0.4386707, 0.66136664, 0.28689033, 0.5365412, 0.09130955, 0.110834375, 0.20109081, 0
117, 1704200244, -0.43861163, 0.66127795, 0.28712964, 0.53657097, 0.14322157, 0.18437712, 0.12569714, 0
120, 1704250245, -0.43863934, 0.6612283, 0.28704178, 0.5366565, 0.19581966, 0.0804379, 0.13611126, 0
123, 1704300246, -0.43848816, 0.6613989, 0.28661615, 0.5367973, 0.20464116, 0.07128208, 0.15380192, 0
125, 1704333580, -0.4385114, 0.66137016, 0.28645784, 0.53689826, 0.1664608, 0.11464874, 0.14843273, 0
128, 1704383581, -0.43866438, 0.6612302, 0.28610605, 0.5371332, 0.16428962, 0.033647865, 0.08980179, 0
132, 1704450249, -0.43927896, 0.66048825, 0.2853474, 0.53794676, 0.06437131, -0.037255473, 0.08439636, 0
135, 1704500250, -0.43974495, 0.6597335, 0.28462708, 0.5388731, 0.009025244, -0.027719574, 0.12597275, 0
138, 1704550251, -0.4404809, 0.65851563, 0.28473443, 0.5397042, -0.045209862, -0.06099663, 0.056492805, 0
140, 1704583585, -0.44096607, 0.6576155, 0.28504542, 0.5402412, -0.06530837, -0.07566802, 0.07093239, 0
143, 1704633586, -0.44154286, 0.65633905, 0.28566796, 0.540993, -0.010817622, 0.02592253, 0.14369392, 0
146, 1704683587, -0.44184312, 0.65537775, 0.2863344, 0.5415605, 0.002298754, 0.024032112, 0.09363556, 0
148, 1704716921, -0.44194013, 0.6548603, 0.28666383, 0.54193294, -0.021701654, 2.6083962E-4, 0.08025646, 0
151, 1704766922, -0.44201013, 0.6541719, 0.2870115, 0.542523, 0.012612543, 0.0069234255, 0.081887245, 0
154, 1704816923, -0.44239995, 0.6533966, 0.28729817, 0.54298747, -0.016717212, -0.080264896, 0.10649967, 0
156, 1704850257, -0.4422976, 0.6532617, 0.2868574, 0.543466, 0.0077238465, 0.03878514, 0.18288898, 0
161, 1704933592, -0.44324267, 0.6522753, 0.28804183, 0.5432543, 0.029585257, -0.013384906, 0.085100174, 0
163, 1704966926, -0.44368845, 0.65188974, 0.28832662, 0.54320216, 0.04768208, -0.04614643, 0.073960304, 0
166, 1705016927, -0.44412673, 0.6515505, 0.2883042, 0.5432629, 0.081406415, -0.019847503, 0.11581802, 0
169, 1705066928, -0.4445229, 0.651367, 0.28820482, 0.5432116, 0.11422402, -0.023151528, 0.050543785, 0
171, 1705100262, -0.44457638, 0.6515247, 0.2879566, 0.54311055, 0.119072296, 0.031458665, 0.13031006, 0
174, 1705150263, -0.4449002, 0.6516993, 0.28803182, 0.5425956, 0.0859175, 0.013137253, 0.12670708, 0
177, 1705200264, -0.44479358, 0.65231305, 0.28721637, 0.5423776, 0.11470905, 0.05488869, 0.115003586, 0
179, 1705233598, -0.4446693, 0.6528082, 0.28641513, 0.5423078, 0.1987254, -0.0061800773, 0.087623596, 0
182, 1705283599, -0.4445761, 0.6534, 0.28568634, 0.54205567, 0.1733034, -0.013020524, 0.0995636, 0
185, 1705333600, -0.44430012, 0.65393037, 0.28462857, 0.5421989, 0.21073145, 8.2437164E-4, 0.1183157, 0
188, 1705383601, -0.44431293, 0.6538921, 0.2838852, 0.54262394, 0.17223628, -0.010667379, 0.15749645, 0
190, 1705416935, -0.4443408, 0.65366614, 0.28341532, 0.54311895, 0.08653955, 0.008752935, 0.119734764, 0
193, 1705466936, -0.44455132, 0.6529735, 0.28281978, 0.5440894, 0.06859496, 0.0093489885, 0.06789875, 0
196, 1705516937, -0.4445454, 0.6523276, 0.2822333, 0.54517233, -0.03562929, 0.0047021536, 0.108901024, 0
198, 1705550271, -0.44434193, 0.65207756, 0.28164682, 0.5459404, -0.019843606, 0.04433463, 0.092430115, 0
201, 1705600272, -0.4440546, 0.65187496, 0.28125077, 0.5466198, -0.024923295, 0.057461996, 0.0756073, 0
204, 1705650273, -0.44368592, 0.6518604, 0.28105026, 0.5470391, -0.0128267035, 0.08470046, 0.09354591, 0
206, 1705683607, -0.44354594, 0.6518044, 0.2810185, 0.5472359, 0.009316293, 0.05491853, 0.059033394, 0
209, 1705733608, -0.44338366, 0.6517931, 0.28093413, 0.5474242, 0.0507515, 0.048523434, 0.094364166, 0
212, 1705783609, -0.44279405, 0.65228283, 0.28088814, 0.54734164, 0.059142765, 0.12002601, 0.10012913, 0
214, 1705816943, -0.44266292, 0.65251184, 0.28129047, 0.5469681, 0.049170665, 0.027835019, 0.094083786, 0
217, 1705866944, -0.44230115, 0.65293616, 0.28143692, 0.5466789, 0.12111069, 0.115111075, 0.14339161, 0
220, 1705916945, -0.4423865, 0.6530094, 0.2819341, 0.54626596, 0.18369518, 0.06444365, 0.08597374, 0
223, 1705966946, -0.44243264, 0.6532294, 0.28221828, 0.5458187, 0.22009994, 0.01607304, 0.1140337, 0
225, 1706000280, -0.44243586, 0.6534076, 0.28229392, 0.5455636, 0.16906108, 0.044092458, 0.2441845, 0
228, 1706050281, -0.44277215, 0.6532291, 0.28245118, 0.5454233, 0.09868796, -0.05912633, 0.16129875, 0
231, 1706100282, -0.44315332, 0.65298575, 0.28216642, 0.5455524, 0.09813741, -0.010610272, 0.05457115, 0
233, 1706133616, -0.44332907, 0.6529606, 0.28163198, 0.54571563, 0.025858885, -0.056070965, 0.046463966, 0
236, 1706183617, -0.44330356, 0.6531654, 0.28046128, 0.54609436, 0.02830828, -0.121413805, 0.11995983, 0
240, 1706250285, -0.44323093, 0.6532454, 0.27951026, 0.54654485, -0.016184798, -0.09634157, 0.13647842, 0
243, 1706300286, -0.44307524, 0.6531236, 0.2788212, 0.5471683, 0.003391802, -0.09343356, 0.10123062, 0
246, 1706350287, -0.44260508, 0.65315664, 0.27828187, 0.54778373, 0.045974422, -0.016160825, 0.109609604, 0
248, 1706383621, -0.442242, 0.6532483, 0.2781417, 0.5480388, 0.03904795, -0.005375934, 0.12077618, 0
251, 1706433622, -0.44158298, 0.6534929, 0.27781403, 0.5484445, 0.09787297, 0.00201279, 0.09333801, 0
254, 1706483623, -0.4409548, 0.65380335, 0.27727434, 0.5488529, 0.108255215, 0.05474067, 0.113726616, 0
256, 1706516957, -0.44067323, 0.6539134, 0.2768076, 0.5491834, 0.09393945, 0.075965345, 0.13444042, 0
259, 1706566958, -0.44059604, 0.65380514, 0.27621034, 0.5496748, 0.13395026, 0.07103734, 0.12663364, 0
262, 1706616959, -0.44072968, 0.6535435, 0.27562273, 0.5501734, 0.058229875, 0.061845142, 0.13099861, 0
264, 1706650293, -0.44094592, 0.6532254, 0.27505803, 0.55066025, 0.06237586, 0.04777908, 0.10110855, 0
268, 1706716961, -0.44129473, 0.6526643, 0.27378094, 0.5516818, 0.022194572, 0.018758995, 0.09726906, 0
271, 1706766962, -0.44162527, 0.6521632, 0.27292663, 0.5524326, -0.013260486, -0.07871674, 0.07906246, 0
274, 1706816963, -0.44171503, 0.6518345, 0.2718873, 0.5532608, -0.0057843267, -0.018658135, 0.07111168, 0
277, 1706866964, -0.44158095, 0.65165603, 0.2713263, 0.5538531, -0.026865657, 0.06892759, 0.06408024, 0
279, 1706900298, -0.4415214, 0.6514786, 0.27126485, 0.5541394, 0.0061478075, -0.02104514, 0.04975605, 0
282, 1706950299, -0.44114253, 0.6514798, 0.27092347, 0.5546065, 0.009320504, 0.11270166, 0.08203983, 0
285, 1707000300, -0.44096744, 0.6513392, 0.27103928, 0.55485415, 0.0015485187, 0.070069075, 0.14132023, 0
287, 1707033634, -0.4408579, 0.65127486, 0.27084213, 0.5551128, 0.002525787, 0.0920347, 0.12791061, 0
290, 1707083635, -0.44077566, 0.65122724, 0.27078438, 0.55526227, 0.06768075, 0.112723954, 0.07782364, 0
293, 1707133636, -0.4407823, 0.6512759, 0.27085736, 0.5551642, 0.06569071, 0.13514292, 0.09344864, 0
297, 1707200304, -0.44094527, 0.6514577, 0.2709275, 0.5547872, 0.06261835, 0.077184, 0.12982845, 0
300, 1707250305, -0.44116423, 0.65156513, 0.27092987, 0.55448574, 0.11077242, 0.021188917, 0.096619606, 0
302, 1707283639, -0.4413462, 0.6516078, 0.2710349, 0.5542394, 0.06943355, 0.048019357, 0.120137215, 0
305, 1707333640, -0.44161245, 0.65167046, 0.27137512, 0.5537872, 0.0844462, 8.4012933E-4, 0.13328838, 0
308, 1707383641, -0.44182998, 0.6518078, 0.2718309, 0.5532281, 0.034528643, -0.014054942, 0.10274696, 0
310, 1707416975, -0.44200373, 0.6518313, 0.2720683, 0.5529449, 0.06689704, 0.00821466, 0.1045208, 0
313, 1707466976, -0.4423655, 0.6517361, 0.27257055, 0.5525201, 0.08521552, 0.036663, 0.094882965, 0
316, 1707516977, -0.4425443, 0.6518334, 0.27335072, 0.55187654, 0.01267799, -0.06392303, 0.11917305, 0
318, 1707550311, -0.44254625, 0.6520149, 0.2735395, 0.55156684, 0.034785397, -0.025574408, 0.15331078, 0
321, 1707600312, -0.44226247, 0.6525543, 0.27341473, 0.55121857, 0.074927635, -0.019346612, 0.08508015, 0
324, 1707650313, -0.4417688, 0.6533895, 0.2734006, 0.5506316, 0.042206153, 0.006172813, 0.0636816, 0
327, 1707700314, -0.4413178, 0.65423167, 0.27339524, 0.5499955, 0.08200073, 0.029944645, 0.10514355, 0
329, 1707733648, -0.4409875, 0.65476966, 0.27363342, 0.54950166, 0.05813175, -0.098569326, 0.1083498, 0
332, 1707783649, -0.44024333, 0.65562403, 0.27398422, 0.54890466, 0.03820241, -0.059668012, 0.12142944, 0
335, 1707833650, -0.43963724, 0.65609026, 0.27489012, 0.54838, 0.06582357, -0.072588734, 0.053246498, 0
337, 1707866984, -0.43922147, 0.65626985, 0.27564123, 0.5481212, 0.07800495, -0.04870705, 0.06278992, 0
340, 1707916985, -0.43868396, 0.6562752, 0.27680433, 0.5479592, 0.094047725, 0.033354446, 0.13627338, 0
343, 1707966986, -0.43840086, 0.65605456, 0.27758184, 0.54805636, 0.12444187, 0.080377325, 0.13836288, 0
345, 1708000320, -0.43836796, 0.65583676, 0.27800778, 0.5481276, 0.19303207, 0.08482004, 0.080825806, 0
348, 1708050321, -0.43843663, 0.655503, 0.27869457, 0.54812324, 0.108048566, 0.06809395, 0.11524296, 0
351, 1708100322, -0.43874532, 0.6550112, 0.27896175, 0.54832804, 0.11271652, 0.03096554, 0.11122227, 0
354, 1708150323, -0.4391615, 0.65446734, 0.2790995, 0.54857403, 0.103217915, -0.0133012, 0.12131882, 0
356, 1708183657, -0.4394424, 0.654128, 0.27922177, 0.5486918, 0.0624129, -0.015758557, 0.10341835, 0
359, 1708233658, -0.4397984, 0.6536031, 0.27951717, 0.54888153, 0.045177467, -0.028093008, 0.11913109, 0
362, 1708283659, -0.4399737, 0.65322196, 0.27975595, 0.54907316, 0.027954234, -0.022700815, 0.09646416, 0
366, 1708350327, -0.4399649, 0.65289456, 0.28021547, 0.5492353, 0.031492893, -0.014877246, 0.06597996, 0
368, 1708383661, -0.43979484, 0.65282845, 0.28045702, 0.54932684, 0.036811765, 0.045406714, 0.08484173, 0
371, 1708433662, -0.43957642, 0.65278023, 0.28099966, 0.54928154, 0.05049713, -0.018011903, 0.090847015, 0
374, 1708483663, -0.4394517, 0.6526793, 0.28143534, 0.54927814, 0.06402804, 0.08183586, 0.10589886, 0
378, 1708550331, -0.43926767, 0.6527858, 0.2820277, 0.54899496, 0.036483567, 0.051891103, 0.124809265, 0
381, 1708600332, -0.43892914, 0.65322256, 0.28212306, 0.54869705, 0.124148354, 0.03628599, 0.115935326, 0
383, 1708633666, -0.43887922, 0.6533809, 0.28238922, 0.54841155, 0.08351305, 0.08591749, 0.12152386, 0
386, 1708683667, -0.43912172, 0.65331954, 0.28273118, 0.5481143, 0.10442158, 0.008810098, 0.13190174, 0
389, 1708733668, -0.43928182, 0.6532791, 0.28276622, 0.548016, 0.13486923, 0.009659392, 0.10924435, 0
391, 1708767002, -0.4393922, 0.6532201, 0.2827365, 0.54801303, 0.09889311, 0.046914868, 0.12752628, 0
394, 1708817003, -0.43955436, 0.6531587, 0.28243572, 0.5481115, 0.12424549, 0.013635743, 0.14826298, 0
397, 1708867004, -0.4397052, 0.6530696, 0.28210893, 0.548265, 0.06666973, -0.022811398, 0.139287, 0
399, 1708900338, -0.43978214, 0.65296555, 0.28182426, 0.5484736, 0.07776388, -0.040919747, 0.097846985, 0
402, 1708950339, -0.43994287, 0.65266275, 0.28144005, 0.5489021, 0.04212947, 3.4214245E-4, 0.06199932, 0
406, 1709017007, -0.43992883, 0.6524629, 0.28130573, 0.5492199, -0.003584652, 0.012260356, 0.108184814, 0
409, 1709067008, -0.43981865, 0.6525717, 0.2812264, 0.54921937, 0.020445896, 0.053218715, 0.114341736, 0
412, 1709117009, -0.43952376, 0.65292007, 0.28071725, 0.54930186, 0.017854208, 0.0622383, 0.17084217, 0
414, 1709150343, -0.43945932, 0.65306234, 0.28053734, 0.5492761, 0.07788765, 0.027891846, 0.060516357, 0
417, 1709200344, -0.43897027, 0.6535972, 0.2799074, 0.5493525, 0.03794409, 0.12639122, 0.08703613, 0
420, 1709250345, -0.438824, 0.65385956, 0.27927122, 0.54948086, 0.08062523, 0.07997377, 0.10524273, 0
422, 1709283679, -0.43890876, 0.6538543, 0.27902895, 0.5495424, 0.07031121, 0.0020982279, 0.101332664, 0
425, 1709333680, -0.43885195, 0.65401334, 0.27842307, 0.5497059, 0.032074794, 0.0020400586, 0.1300211, 0
428, 1709383681, -0.43880823, 0.65410465, 0.27789763, 0.5498979, 0.060698602, -0.0021337664, 0.07528877, 0
430, 1709417015, -0.4386589, 0.65427935, 0.277693, 0.5499128, 0.043161407, 0.0055226698, 0.10941696, 0
435, 1709500350, -0.43893954, 0.6538204, 0.27785712, 0.5501519, 0.07690374, 0.061262444, 0.12350559, 0
437, 1709533684, -0.43920073, 0.65341455, 0.27833933, 0.5501819, 0.068110205, 6.253334E-4, 0.1178112, 0
440, 1709583685, -0.43935248, 0.65294677, 0.27894014, 0.55031157, 0.048700344, 0.05126806, 0.11633301, 0
443, 1709633686, -0.43912157, 0.6528984, 0.27903292, 0.5505063, 0.023856746, 0.036854602, 0.108867645, 0
445, 1709667020, -0.43903747, 0.65293205, 0.27918306, 0.55045724, -0.025634687, 0.010145868, 0.07923317, 0
448, 1709717021, -0.43873814, 0.6531228, 0.2793486, 0.55038553, 0.025235556, 0.014943518, 0.0998497, 0
451, 1709767022, -0.43852368, 0.6532891, 0.27981448, 0.55012244, -0.005181303, 0.0017812307, 0.1276989, 0
453, 1709800356, -0.43834507, 0.6533914, 0.28010067, 0.5499976, 0.009704988, -0.054751847, 0.081495285, 0
456, 1709850357, -0.43795013, 0.6536189, 0.28034207, 0.549919, 0.022910092, -0.0025636936, 0.09216213, 0
459, 1709900358, -0.43779755, 0.65359044, 0.28089476, 0.54979223, 0.06638537, 0.0036929369, 0.1227293, 0
462, 1709950359, -0.43755674, 0.65364033, 0.28167972, 0.54952294, 0.04835649, 0.051579807, 0.11705971, 0
464, 1709983693, -0.43745667, 0.65366024, 0.28207028, 0.54937845, 0.109425195, 0.049689222, 0.09067631, 0
467, 1710033694, -0.43744865, 0.6536518, 0.28246078, 0.5491944, 0.119848706, 0.09152246, 0.109895706, 0
470, 1710083695, -0.43760288, 0.65366846, 0.28245032, 0.549057, 0.10337143, 0.08732255, 0.14431763, 0
472, 1710117029, -0.4377669, 0.6537024, 0.28239432, 0.54891455, 0.12897201, 0.06335078, 0.16222954, 0
475, 1710167030, -0.43802583, 0.653784, 0.28208613, 0.54876935, 0.08475582, 0.03354756, 0.1061306, 0
478, 1710217031, -0.4384134, 0.65362513, 0.28204596, 0.5486697, 0.11270886, -0.062789485, 0.08704853, 0
480, 1710250365, -0.4386152, 0.6535161, 0.28199387, 0.54866505, 0.03673484, 0.016194016, 0.1517868, 0
483, 1710300366, -0.43903902, 0.65311754, 0.2821471, 0.548722, 0.03424598, -0.030062996, 0.0779047, 0
486, 1710350367, -0.4392788, 0.6528073, 0.2823419, 0.54879904, 0.052240077, 0.0236722, 0.09572601, 0
489, 1710400368, -0.43960482, 0.65245545, 0.28286287, 0.54868823, 0.037444554, 0.01798944, 0.1205225, 0
491, 1710433702, -0.4396296, 0.65240747, 0.2827807, 0.54876745, 0.056148656, 0.06504652, 0.11406422, 0
494, 1710483703, -0.4396761, 0.65240866, 0.28286117, 0.5486874, 0.0360272, 0.03573849, 0.088599205, 0
497, 1710533704, -0.4398104, 0.6524847, 0.2828273, 0.54850686, 0.026649157, 0.06205854, 0.09149265, 0
499, 1710567038, -0.4398955, 0.65259296, 0.28277913, 0.5483346, 0.06414694, 0.056954734, 0.10890579, 0
502, 1710617039, -0.4400815, 0.65278035, 0.28266403, 0.54802144, 0.0288824, 0.053487375, 0.10615826, 0
505, 1710667040, -0.4404295, 0.6528687, 0.2828028, 0.54756486, 0.03621577, 0.0646172, 0.12809658, 0
507, 1710700374, -0.44060567, 0.6529858, 0.28285855, 0.5472547, 0.06114021, 5.377722E-4, 0.08919048, 0
510, 1710750375, -0.44078827, 0.6531787, 0.28288242, 0.54686487, 0.044509545, 0.044373244, 0.077692986, 0
514, 1710817043, -0.44125077, 0.65315855, 0.28284025, 0.54653776, 0.074236564, 0.02046725, 0.12741375, 0
517, 1710867044, -0.441728, 0.6529556, 0.28297016, 0.54632753, 0.0636865, -0.001345548, 0.14195538, 0
520, 1710917045, -0.44204465, 0.65283483, 0.2830677, 0.54616517, 0.06221995, -0.0582035, 0.093914986, 0
522, 1710950379, -0.44221327, 0.65274775, 0.28308916, 0.5461216, 0.04502105, -0.05886387, 0.07390976, 0
525, 1711000380, -0.44241375, 0.6524928, 0.28343922, 0.54608226, 0.06798805, -0.03685628, 0.101436615, 0
528, 1711050381, -0.44274694, 0.65204096, 0.28409737, 0.54601, 0.044056416, -0.01712165, 0.16934013, 0
530, 1711083715, -0.4429436, 0.651737, 0.2844064, 0.54605246, 0.07218804, 0.030596074, 0.09629822, 0
533, 1711133716, -0.44322625, 0.65134984, 0.28482014, 0.5460695, -0.0010753768, 0.03980034, 0.11207676, 0
536, 1711183717, -0.44364253, 0.65101135, 0.28500473, 0.54603875, 0.101485215, 0.05648843, 0.13206577, 0
539, 1711233718, -0.44404835, 0.6508676, 0.28514504, 0.5458069, 0.043230243, 0.050351713, 0.109889984, 0
543, 1711300386, -0.44411975, 0.65124756, 0.28445232, 0.54565704, 0.062756225, 0.044759195, 0.14441872, 0
545, 1711333720, -0.44431716, 0.65132457, 0.284325, 0.5454707, 0.029502885, -0.029701632, 0.14239693, 0
548, 1711383721, -0.44449815, 0.65146565, 0.28386256, 0.5453956, 0.018216578, -0.018363768, 0.12376022, 0
551, 1711433722, -0.4449625, 0.65131104, 0.2837991, 0.5452345, 0.037636723, -0.032678936, 0.1010046, 0
553, 1711467056, -0.44537392, 0.6511019, 0.28403825, 0.54502404, 0.010968773, -0.048796285, 0.12484169, 0
556, 1711517057, -0.44550526, 0.651153, 0.28375494, 0.5450032, 0.05257888, 0.053275038, 0.14713478, 0
559, 1711567058, -0.44562966, 0.6511866, 0.28383768, 0.5448182, 0.10387955, 4.2104252E-4, 0.11018658, 0
561, 1711600392, -0.44560593, 0.6512674, 0.28392303, 0.5446965, 0.07671121, 0.045896877, 0.10550594, 0
564, 1711650393, -0.44575822, 0.65120804, 0.28406304, 0.54456997, 0.11994384, 0.06967893, 0.09375763, 0
567, 1711700394, -0.44597822, 0.6509892, 0.28422123, 0.544569, 0.09476068, 0.027523162, 0.11454582, 0
571, 1711767062, -0.44611365, 0.65073454, 0.28386468, 0.5449482, 0.10180362, 0.034682952, 0.12987518, 0
574, 1711817063, -0.44630146, 0.6504652, 0.28363037, 0.54523784, 0.0681519, 0.033497326, 0.09665966, 0
576, 1711850397, -0.4464296, 0.6502268, 0.28349587, 0.5454872, 0.0791521, 0.04246841, 0.09282017, 0
579, 1711900398, -0.4466078, 0.6498788, 0.28330922, 0.5458529, 0.046436507, 0.04326272, 0.13364697, 0
582, 1711950399, -0.44678104, 0.6496025, 0.28311324, 0.5461416, 0.08727781, 0.043897722, 0.11312294, 0
584, 1711983733, -0.4468828, 0.64946777, 0.2831062, 0.5462223, 0.020565065, 0.038228314, 0.11559677, 0
587, 1712033734, -0.44712293, 0.64928335, 0.28310734, 0.5462444, 0.0353244, 0.06091041, 0.09023285, 0
590, 1712083735, -0.447592, 0.6488893, 0.28331262, 0.5462222, 0.054115426, 0.014723022, 0.118400574, 0
592, 1712117069, -0.44796807, 0.6485709, 0.28340638, 0.54624337, 0.02660597, 0.010005502, 0.117720604, 0
595, 1712167070, -0.44832784, 0.6482684, 0.28341758, 0.5463014, 0.07229581, 0.043317817, 0.12456417, 0
598, 1712217071, -0.44890302, 0.6478169, 0.28392816, 0.5460994, 0.012725494, -0.06002809, 0.116888046, 0
601, 1712267072, -0.44886643, 0.6478914, 0.28335464, 0.5463391, 0.022630457, -0.002804864, 0.101903915, 0
603, 1712300406, -0.44894087, 0.64790285, 0.2834562, 0.5462115, 0.07458853, -0.060051616, 0.0813427, 0
606, 1712350407, -0.4490097, 0.6480349, 0.2838748, 0.5457809, 0.0031254445, -0.048505105, 0.095108986, 0
609, 1712400408, -0.44854182, 0.6485283, 0.283594, 0.5457255, 0.089087196, -0.03409718, 0.12200928, 0
611, 1712433742, -0.4483268, 0.6487827, 0.28376445, 0.54551107, 0.04094919, 0.040153936, 0.1573019, 0
614, 1712483743, -0.4478449, 0.6491858, 0.28382218, 0.54539734, 0.05530717, 0.030563775, 0.10938263, 0
617, 1712533744, -0.4474594, 0.6494756, 0.28395012, 0.5453022, 0.08500336, -0.0020609011, 0.088695526, 0
619, 1712567078, -0.4473032, 0.64954895, 0.28397864, 0.5453278, 0.043233447, 0.04270148, 0.12467861, 0
622, 1712617079, -0.4472179, 0.649578, 0.28379932, 0.54545677, 0.08282506, 0.025203321, 0.16994667, 0
625, 1712667080, -0.44720617, 0.6496704, 0.283646, 0.54543585, 0.0656251, 0.034901828, 0.14374256, 0
628, 1712717081, -0.4470842, 0.64993924, 0.2833662, 0.5453612, 0.06429844, -0.005518926, 0.11600399, 0
630, 1712750415, -0.4468654, 0.6501877, 0.28292164, 0.54547524, 0.09178873, 0.027816411, 0.097364426, 0
633, 1712800416, -0.44681793, 0.65031964, 0.2828568, 0.5453903, 0.04999671, -0.045428563, 0.1512909, 0
636, 1712850417, -0.4464772, 0.6506533, 0.28261384, 0.5453973, 0.12387126, -0.015573097, 0.09241104, 0
638, 1712883751, -0.44611347, 0.6509953, 0.28261176, 0.54528797, 0.10241697, 0.0031860096, 0.05993271, 0
641, 1712933752, -0.44524795, 0.6517804, 0.28306058, 0.5448246, 0.07285609, -0.014022141, 0.09487057, 0
644, 1712983753, -0.44422856, 0.65267193, 0.2837779, 0.5442161, -0.030428551, -0.024911469, 0.113087654, 0
646, 1713017087, -0.4438762, 0.6529418, 0.2839604, 0.5440843, -0.02104362, 0.023056423, 0.09701824, 0
651, 1713100422, -0.44338003, 0.65306664, 0.2830559, 0.54481006, 0.114951424, 0.15321735, 0.13120556, 0
653, 1713133756, -0.44371265, 0.6527444, 0.2832911, 0.544803, 0.06651702, 0.07811856, 0.12241936, 0
656, 1713183757, -0.44398093, 0.6524753, 0.2830698, 0.5450219, 0.11244582, 0.09589667, 0.15429688, 0
659, 1713233758, -0.4443546, 0.65231866, 0.28276667, 0.5450621, 0.058056436, 0.086775996, 0.12404442, 0
661, 1713267092, -0.4446256, 0.6522398, 0.28246605, 0.54509145, 0.029420514, 0.019977868, 0.13267803, 0
664, 1713317093, -0.44510502, 0.6521339, 0.28214097, 0.54499537, 0.05258661, -0.03682946, 0.079045296, 0
667, 1713367094, -0.44537616, 0.6521539, 0.28191975, 0.5448643, 0.042428926, -0.09858866, 0.05375099, 0
669, 1713400428, -0.44539312, 0.65227884, 0.28169468, 0.5448172, 0.015669215, 0.038233735, 0.09900379, 0
672, 1713450429, -0.44564593, 0.6521606, 0.28184843, 0.54467255, 0.034459732, -0.07605263, 0.0942812, 0
675, 1713500430, -0.44560564, 0.6521035, 0.2818229, 0.54478717, 0.08551536, -0.028748013, 0.12505531, 0
679, 1713567098, -0.4455136, 0.6519132, 0.2819445, 0.545027, 0.048200365, -0.009023498, 0.11697483, 0
682, 1713617099, -0.4453743, 0.6516449, 0.28218073, 0.54533947, 0.08932075, 0.027357819, 0.09445, 0
684, 1713650433, -0.44525355, 0.651524, 0.2822569, 0.54554313, 0.09906315, 0.0074472283, 0.11693001, 0
687, 1713700434, -0.44532472, 0.65110755, 0.28274336, 0.5457303, 0.055510275, -0.03207763, 0.09304047, 0
690, 1713750435, -0.44508794, 0.6509679, 0.28241506, 0.5462598, 0.06421131, 0.03449112, 0.12455654, 0
692, 1713783769, -0.4449834, 0.65084755, 0.2822764, 0.5465599, 0.106496915, 0.07781196, 0.13965607, 0
695, 1713833770, -0.44521645, 0.65035033, 0.28239137, 0.54690254, 0.00441816, 0.043900404, 0.12778282, 0
698, 1713883771, -0.44542354, 0.64995253, 0.28208786, 0.5473632, 0.044873822, 0.034903504, 0.11140633, 0
700, 1713917105, -0.44549793, 0.64984715, 0.28196707, 0.54749006, 0.042693984, 0.07015273, 0.11064434, 0
703, 1713967106, -0.44578755, 0.6497065, 0.28217876, 0.5473121, 0.025113728, 0.011802434, 0.09514713, 0
707, 1714033774, -0.44576362, 0.649928, 0.28173584, 0.5472967, 0.13762255, 0.058693774, 0.12157154, 0
710, 1714083775, -0.4459738, 0.6499313, 0.28201297, 0.5469787, 0.07536354, -0.0017109358, 0.11575222, 0
713, 1714133776, -0.44617754, 0.64994115, 0.28198832, 0.5468135, 0.11076516, 0.0072493074, 0.13828182, 0
715, 1714167110, -0.4463725, 0.6498692, 0.28193265, 0.54676884, 0.12251566, -0.012365128, 0.10161018, 0
718, 1714217111, -0.44631097, 0.65000737, 0.28171074, 0.54676914, 0.12270266, 0.08301757, 0.15532303, 0
721, 1714267112, -0.44653165, 0.64993674, 0.28178582, 0.5466343, 0.07616367, 0.032237217, 0.10857773, 0
723, 1714300446, -0.44671065, 0.6497755, 0.2816617, 0.54674363, 0.105742455, -0.010221806, 0.095069885, 0
726, 1714350447, -0.44677708, 0.64967006, 0.28119203, 0.5470563, 0.054399114, 0.021462664, 0.13932037, 0
729, 1714400448, -0.44692296, 0.6495337, 0.2808442, 0.5472777, 0.05584976, 0.030774884, 0.114522934, 0
732, 1714450449, -0.44697735, 0.6495289, 0.28049487, 0.54741806, 0.0029787852, -0.040764462, 0.08803654, 0
734, 1714483783, -0.44679978, 0.6497082, 0.28009835, 0.5475532, 0.014248127, 0.009863907, 0.112688065, 0
737, 1714533784, -0.4467126, 0.6498059, 0.27997082, 0.5475737, -0.0064201374, -0.013291142, 0.14071941, 0
740, 1714583785, -0.44658488, 0.64991593, 0.2800436, 0.5475101, 0.038420457, 0.033889033, 0.10216141, 0
742, 1714617119, -0.44651455, 0.6499746, 0.28028697, 0.5473733, 0.04224601, 0.0034849022, 0.100483894, 0
745, 1714667120, -0.4463226, 0.65013784, 0.2805277, 0.5472127, 0.026039882, 0.020310733, 0.09875584, 0
748, 1714717121, -0.446084, 0.65031606, 0.28065634, 0.5471295, 0.032082465, 0.011165422, 0.108468056, 0
750, 1714750455, -0.44602272, 0.65034753, 0.28077865, 0.5470792, 0.017905476, -0.018317055, 0.089847565, 0
753, 1714800456, -0.445634, 0.65067476, 0.28050244, 0.5471487, 0.022017011, 0.012386361, 0.12292576, 0
756, 1714850457, -0.44546777, 0.6507823, 0.28044403, 0.5471861, 0.041546818, 0.009264612, 0.09238243, 0
759, 1714900458, -0.44520712, 0.65096325, 0.2805734, 0.5471164, 0.010535346, 0.030850263, 0.116514206, 0
761, 1714933792, -0.445047, 0.6510231, 0.28064305, 0.5471399, 0.021501053, -0.015396299, 0.07269478, 0
764, 1714983793, -0.4447925, 0.6511322, 0.28087482, 0.5470981, 0.025883555, -0.020240942, 0.1137352, 0
767, 1715033794, -0.44441026, 0.65132093, 0.2809109, 0.5471655, 0.050254855, 0.0134855425, 0.10027218, 0
769, 1715067128, -0.4440426, 0.6515107, 0.28089637, 0.54724556, 0.036010046, -0.0037219378, 0.1181488, 0
772, 1715117129, -0.4438157, 0.6514892, 0.2813292, 0.54723287, 0.013453154, -0.09345267, 0.09054661, 0
775, 1715167130, -0.4431833, 0.6517514, 0.28148627, 0.5473524, 0.039844647, 0.024338996, 0.08524895, 0
777, 1715200464, -0.44282037, 0.6519216, 0.2814805, 0.5474464, 0.0061428277, 0.05618557, 0.11819363, 0
780, 1715250465, -0.44256812, 0.6519221, 0.28161657, 0.5475798, 0.11109155, 0.014156752, 0.12812042, 0
783, 1715300466, -0.44230673, 0.6519569, 0.28179294, 0.54765886, 0.09170182, 0.0405457, 0.18428326, 0
787, 1715367134, -0.4419968, 0.6519911, 0.2817396, 0.5478957, 0.111832626, 0.016311472, 0.11668205, 0
790, 1715417135, -0.441925, 0.65183544, 0.2816996, 0.54815936, 0.039578438, 0.014441004, 0.12106037, 0
792, 1715450469, -0.44187123, 0.6517339, 0.28163552, 0.54835635, 0.036992274, -0.022399127, 0.15066051, 0
795, 1715500470, -0.44199628, 0.651453, 0.28185236, 0.5484777, 0.02945539, -0.011316237, 0.09148216, 0
798, 1715550471, -0.4420179, 0.65122014, 0.28204912, 0.5486358, 0.011310293, 0.02192081, 0.096858025, 0
800, 1715583805, -0.44203192, 0.6511074, 0.2822793, 0.5486399, 0.019436393, 0.043095365, 0.11154175, 0
803, 1715633806, -0.44203538, 0.6510638, 0.28232598, 0.548665, 0.016420344, 0.017871816, 0.08933067, 0
806, 1715683807, -0.44195372, 0.65128434, 0.28213823, 0.54856557, 0.04736435, 0.055578563, 0.08058739, 0
808, 1715717141, -0.44197345, 0.6514356, 0.2820394, 0.5484208, 0.014964611, 0.030329702, 0.08534813, 0
811, 1715767142, -0.44189385, 0.6517431, 0.28178972, 0.54824793, 0.0608206, 0.03458595, 0.11527443, 0
815, 1715833810, -0.44217739, 0.6517998, 0.28196016, 0.5478642, 0.01904463, -0.031180225, 0.070786476, 0
818, 1715883811, -0.44226554, 0.65181726, 0.28191257, 0.5477966, 0.1083498, -0.02505569, 0.09721279, 0
821, 1715933812, -0.44217417, 0.6518053, 0.2818691, 0.5479071, 0.08451646, -0.025828207, 0.14235592, 0
823, 1715967146, -0.44208378, 0.6517113, 0.28194273, 0.548054, 0.07656778, -0.050202742, 0.08513069, 0
826, 1716017147, -0.44157022, 0.6518304, 0.2823612, 0.5481109, 0.075267024, 0.033520628, 0.10097504, 0
829, 1716067148, -0.44108668, 0.6518507, 0.28325075, 0.54801714, 0.010723174, -0.028358094, 0.08478546, 0
831, 1716100482, -0.44056654, 0.65200007, 0.28358978, 0.54808253, 0.06963811, 0.019794922, 0.07290745, 0
834, 1716150483, -0.43967348, 0.6522544, 0.28456873, 0.5479895, -0.0033761144, -0.023030495, 0.14765453, 0
837, 1716200484, -0.43868062, 0.6525274, 0.285421, 0.5480172, -0.056289237, 0.033876795, 0.10355091, 0
840, 1716250485, -0.4380363, 0.6524563, 0.28598562, 0.5483226, 0.030812532, 0.06089957, 0.11339378, 0
844, 1716317153, -0.43799126, 0.65177166, 0.286945, 0.54867154, 0.076202035, 0.10209988, 0.18456364, 0
846, 1716350487, -0.43827167, 0.65132195, 0.28739548, 0.5487458, 0.16613033, 0.1718247, 0.1600895, 0
849, 1716400488, -0.43866566, 0.65089095, 0.2878182, 0.5487209, 0.12082511, 0.15136409, 0.12814426, 0
852, 1716450489, -0.43918878, 0.65055484, 0.2879706, 0.5486211, 0.09956847, 0.11425636, 0.15291405, 0
854, 1716483823, -0.439678, 0.6503205, 0.28803807, 0.54847175, 0.094844386, 0.03895445, 0.12848377, 0
857, 1716533824, -0.44027188, 0.6501274, 0.2878888, 0.5483025, 0.054252338, 0.0021828834, 0.11604881, 0
860, 1716583825, -0.44114712, 0.6496883, 0.28812778, 0.54799384, -0.01082696, -0.041898564, 0.11057854, 0
862, 1716617159, -0.44165337, 0.64938736, 0.28818393, 0.5479132, 0.05182063, -0.04037516, 0.090405464, 0
865, 1716667160, -0.44222772, 0.6490494, 0.28824914, 0.5478161, 0.07426181, -0.025732432, 0.11099243, 0
868, 1716717161, -0.44260013, 0.6487737, 0.28818965, 0.5478731, 0.077383555, 0.005228974, 0.100094795, 0
871, 1716767162, -0.4428164, 0.6485473, 0.28852588, 0.5477896, 0.05279923, -0.06377428, 0.111079216, 0
873, 1716800496, -0.44295534, 0.6484021, 0.28867185, 0.54777205, 0.016624376, -0.042333186, 0.11353493, 0
876, 1716850497, -0.44285053, 0.6482491, 0.28861338, 0.5480689, 0.0402869, -0.025031216, 0.06875801, 0
879, 1716900498, -0.44261009, 0.64821976, 0.2888896, 0.5481522, 0.023702528, 0.060063854, 0.10138035, 0
881, 1716933832, -0.44263598, 0.6481305, 0.28912973, 0.54811, 0.007785389, 0.011997393, 0.07977486, 0
884, 1716983833, -0.44231972, 0.64826137, 0.2890965, 0.5482282, 0.058790516, 0.03915025, 0.123989105, 0
887, 1717033834, -0.44234324, 0.6482576, 0.2898022, 0.547841, 0.005241225, 0.021458138, 0.13148594, 0
889, 1717067168, -0.4422169, 0.64838886, 0.2899912, 0.5476876, 0.041087575, 0.0016589691, 0.10816574, 0
892, 1717117169, -0.44197533, 0.64866245, 0.29010877, 0.5474964, 4.7307913E-4, 0.02524305, 0.11716938, 0
895, 1717167170, -0.44200575, 0.64871293, 0.29051328, 0.54719734, 0.028682195, 6.231541E-4, 0.09921265, 0
898, 1717217171, -0.44198868, 0.64875114, 0.2907297, 0.5470509, 0.049191214, 0.066791594, 0.12999153, 0
900, 1717250505, -0.44212815, 0.6486345, 0.2910369, 0.54691297, 0.044634156, 0.017028222, 0.13098621, 0
903, 1717300506, -0.44243506, 0.64837843, 0.29129553, 0.5468309, 0.07619114, -0.018794814, 0.095998764, 0
906, 1717350507, -0.4427372, 0.648159, 0.29148093, 0.54674774, 0.04502398, -0.015666302, 0.114463806, 0
908, 1717383841, -0.4428794, 0.6480463, 0.2914758, 0.5467688, 0.050170828, -0.0013953355, 0.13215446, 0
911, 1717433842, -0.44301456, 0.6479082, 0.29131982, 0.546906, 0.025486045, -0.014277225, 0.09578419, 0
914, 1717483843, -0.44319293, 0.6477235, 0.29148397, 0.54689276, 0.052592207, -0.034351427, 0.091472626, 0
916, 1717517177, -0.44321918, 0.6476144, 0.2915992, 0.54693943, 0.015469429, -0.01418497, 0.11839867, 0
919, 1717567178, -0.44307077, 0.64751154, 0.2915304, 0.54721814, 0.066580676, 0.050402842, 0.10292721, 0
923, 1717633846, -0.4429034, 0.64738905, 0.29167336, 0.54742235, 0.0026290573, 0.06888384, 0.11713886, 0
926, 1717683847, -0.44274753, 0.64743394, 0.29166037, 0.54750216, 0.047032673, 0.016544653, 0.12055111, 0
929, 1717733848, -0.44282213, 0.6473787, 0.29202834, 0.54731107, 0.009748392, -0.023565808, 0.100058556, 0
931, 1717767182, -0.4425227, 0.6476807, 0.2916597, 0.5473923, 0.0062767398, 0.14481784, 0.12629318, 0
934, 1717817183, -0.44225246, 0.6481225, 0.29140732, 0.5472224, 0.04936843, 0.05935582, 0.10555172, 0
937, 1717867184, -0.44189644, 0.6486519, 0.29098028, 0.5471101, 0.038439255, 9.059539E-4, 0.14063454, 0
939, 1717900518, -0.44179153, 0.6488723, 0.2909975, 0.54692423, 0.014383024, 0.01745016, 0.1700859, 0
942, 1717950519, -0.4416306, 0.64910716, 0.29074103, 0.5469117, 0.037942115, 0.016305381, 0.11584091, 0
945, 1718000520, -0.44152078, 0.64931446, 0.29055613, 0.54685247, 0.10344719, 0.024116825, 0.11922455, 0
948, 1718050521, -0.44137543, 0.6495167, 0.29043263, 0.5467952, 0.087629355, 0.034431107, 0.13419437, 0
952, 1718117189, -0.44148332, 0.6495272, 0.29056698, 0.5466243, 0.047188982, -0.0056656064, 0.10782051, 0
954, 1718150523, -0.44143227, 0.6495968, 0.29048812, 0.54662466, 0.036126316, -0.0028960574, 0.07194424, 0
957, 1718200524, -0.44135275, 0.64970064, 0.2903294, 0.5466499, 0.017928205, -0.06708842, 0.09059429, 0
960, 1718250525, -0.44118777, 0.6499104, 0.29000852, 0.54670405, 0.0143360095, -0.026671018, 0.08670044, 0
962, 1718283859, -0.44097066, 0.6501734, 0.28984922, 0.54665107, 0.06194607, 0.04403965, 0.08852482, 0
965, 1718333860, -0.44086897, 0.6503697, 0.29019347, 0.5463168, 0.017428402, -0.06282731, 0.0873909, 0
968, 1718383861, -0.44060826, 0.65067667, 0.29045534, 0.54602236, 0.01970373, 0.0023014012, 0.13590622, 0
970, 1718417195, -0.4410243, 0.6505203, 0.2910416, 0.5455606, 0.107887805, 0.18538415, 0.18711376, 0
973, 1718467196, -0.44344142, 0.6493495, 0.29355776, 0.54364437, 0.4747902, 0.7153279, 0.18323517, 0
976, 1718517197, -0.4475618, 0.647711, 0.2969481, 0.5403713, 0.3166038, 0.52869016, 0.22162819, 0
980, 1718583865, -0.45579314, 0.64444256, 0.29844493, 0.5365609, 0.22012888, 0.4361602, 0.22515965, 0
983, 1718633866, -0.46378157, 0.6410976, 0.29874027, 0.5335498, 0.2562158, 0.5402268, 0.33042622, 0
985, 1718667200, -0.47068757, 0.6380022, 0.2998601, 0.5305759, 0.37945572, 0.8256547, 0.49167156, 0
988, 1718717201, -0.48392105, 0.6318206, 0.30201045, 0.5248175, 0.65071595, 1.0518987, 0.6997194, 0
991, 1718767202, -0.49975485, 0.6246107, 0.30101544, 0.51915014, 0.6960018, 1.1608759, 0.90132236, 0
993, 1718800536, -0.51263416, 0.61827415, 0.29898617, 0.51533604, 0.8212811, 1.0224416, 0.90278625, 0
996, 1718850537, -0.53248876, 0.60882175, 0.2919893, 0.51044565, 1.1771308, 1.2470443, 1.1458826, 0
999, 1718900538, -0.5550461, 0.59719515, 0.28150323, 0.50602204, 0.79738706, 0.8806537, 1.4691792, 0
1002, 1718950539, -0.5803044, 0.5828805, 0.26405543, 0.503778, 0.44280046, 0.63310444, 1.5882788, 0
1004, 1718983873, -0.5987213, 0.571346, 0.25005433, 0.5025832, -0.0175752, 0.6316172, 1.6079302, 0
1007, 1719033874, -0.62898546, 0.5503191, 0.22955805, 0.49884865, -0.2538047, 0.32554764, 1.3460932, 0
1010, 1719083875, -0.6574545, 0.5306143, 0.20708874, 0.49329188, -0.64470756, 0.0347927, 1.1850157, 0
1012, 1719117209, -0.6768315, 0.51609486, 0.19208416, 0.48853806, -0.8030602, -0.37670627, 0.9762535, 0
1015, 1719167210, -0.7042616, 0.49497277, 0.16722664, 0.480701, -0.7583102, -0.52981937, 0.59786034, 0
1018, 1719217211, -0.72992766, 0.47372925, 0.14379397, 0.4713068, -0.61324334, -0.5218547, 0.56868935, 0
1020, 1719250545, -0.74637437, 0.45901978, 0.12998888, 0.46405768, -0.6942518, -0.6690924, 0.6660528, 0
1023, 1719300546, -0.77052695, 0.43483686, 0.109045394, 0.45313904, -0.8623961, -0.9017726, 0.16487026, 0
1026, 1719350547, -0.7925985, 0.41140643, 0.085565634, 0.4418499, -0.7038706, -0.8136522, 0.020068169, 0
1029, 1719400548, -0.8133416, 0.38667637, 0.0640703, 0.429968, -0.5720285, -0.7948048, -0.3134117, 0
1031, 1719433882, -0.8260875, 0.36990637, 0.051318184, 0.42206132, -0.4253284, -0.89748096, -0.36137962, 0
1034, 1719483883, -0.8443351, 0.34248224, 0.033794835, 0.4107099, -0.28621918, -1.0553503, -1.0036764, 0
1037, 1719533884, -0.8593105, 0.318298, 0.014596283, 0.40009934, -0.112001225, -0.699036, -1.0833416, 0
1039, 1719567218, -0.8677497, 0.3037997, 0.0029652566, 0.39335486, -0.11081929, -0.7166983, -1.1442804, 0
1042, 1719617219, -0.8783654, 0.2847723, -0.01071135, 0.38377687, 0.04766302, -0.42490506, -1.0958252, 0
1045, 1719667220, -0.88678896, 0.26950938, -0.022480369, 0.37481385, 0.24960552, -0.44218573, -1.2106504, 0
1047, 1719700554, -0.89087933, 0.2631421, -0.030827992, 0.3689995, 0.25452265, -0.44060773, -0.992074, 0
1050, 1719750555, -0.8958088, 0.25523394, -0.041156024, 0.3615369, 0.46070966, -0.3312119, -0.7643757, 0
1053, 1719800556, -0.89967775, 0.24840623, -0.04873628, 0.35569578, 0.28688145, -0.23953716, -0.45306587, 0
1056, 1719850557, -0.9029746, 0.24150206, -0.054973073, 0.35115787, 0.32792407, -0.18707609, -0.38328838, 0
1060, 1719917225, -0.9063198, 0.23338223, -0.063718334, 0.34652248, 0.44541958, -0.09947164, -0.5466385, 0
1062, 1719950559, -0.90730715, 0.23069367, -0.06873373, 0.34477592, 0.24773282, -0.13781942, -0.3794546, 0
1065, 1720000560, -0.9082316, 0.22796054, -0.07431515, 0.34299713, 0.14876844, 0.018640757, -0.47764874, 0
1068, 1720050561, -0.90907145, 0.2255092, -0.07911811, 0.34131458, -0.0052575837, 0.16823776, -0.46483898, 0
1070, 1720083895, -0.90980923, 0.22288111, -0.08194678, 0.3404061, 0.014577515, 0.19451751, -0.5705328, 0
1073, 1720133896, -0.91079175, 0.2192245, -0.08646706, 0.33903235, 0.18819584, 0.0764302, -0.73127556, 0
1076, 1720183897, -0.9110297, 0.21984118, -0.09000306, 0.33706743, -0.07757833, 0.20997249, -0.5238714, 0
1078, 1720217231, -0.91162884, 0.21925405, -0.090184286, 0.33577904, -0.08204803, 0.1896495, -0.59566593, 0
1081, 1720267232, -0.9122721, 0.22080967, -0.08945971, 0.33319685, -0.1392355, 0.133396, -0.38358688, 0
1084, 1720317233, -0.9134917, 0.22065149, -0.086921096, 0.33062235, 0.1044476, 0.17091623, -0.17797565, 0
1088, 1720383901, -0.9147734, 0.22167587, -0.08399825, 0.32713035, 0.36589807, -0.041233223, -0.07571125, 0
1091, 1720433902, -0.91511846, 0.22402662, -0.082815975, 0.32485738, 0.46163976, -0.13066003, -0.19091702, 0
1093, 1720467236, -0.9148934, 0.22666118, -0.08236846, 0.32377556, 0.4368421, -0.11139126, 0.06721687, 0
1096, 1720517237, -0.9145166, 0.22837079, -0.08085615, 0.32402018, 0.48941633, -0.18107589, 0.02090168, 0
1099, 1720567238, -0.9136855, 0.23045766, -0.07924532, 0.32528272, 0.2835293, -0.0647907, 0.0237751, 0
1101, 1720600572, -0.9129771, 0.23244406, -0.078303605, 0.32608536, 0.1550106, -0.03317167, 0.23328495, 0
1104, 1720650573, -0.91221744, 0.23468283, -0.076233596, 0.32709673, 0.010865747, 0.046819594, 0.06560135, 0
1107, 1720700574, -0.9117869, 0.23625517, -0.07463473, 0.32753393, -0.12284976, 0.07432074, 0.12775135, 0
1109, 1720733908, -0.9117738, 0.23642173, -0.0742416, 0.32753924, -0.048951797, 0.059568327, -0.0029621124, 0
1112, 1720783909, -0.9120399, 0.23540457, -0.07343446, 0.327713, 0.05802821, 0.06101546, -0.20895767, 0
1116, 1720850577, -0.9126538, 0.23395234, -0.07020299, 0.3277523, 0.1543728, 0.11087008, -0.16358566, 0
1119, 1720900578, -0.913021, 0.23326719, -0.06709519, 0.32786852, 0.104403794, 0.022237975, 0.03642559, 0
1122, 1720950579, -0.91348046, 0.23177013, -0.064107575, 0.3282479, 0.25531694, 8.609719E-4, 0.15827656, 0
1124, 1720983913, -0.9135353, 0.23160382, -0.062910974, 0.3284445, 0.12672481, -0.031157035, 0.17298603, 0
1127, 1721033914, -0.91345686, 0.23217078, -0.06228318, 0.32838193, 0.18572026, 1.3410777E-4, 0.3379116, 0
1130, 1721083915, -0.9134327, 0.2329898, -0.06276204, 0.3277772, 0.12678437, 0.048428774, 0.32027626, 0
1132, 1721117249, -0.9135654, 0.23308213, -0.06369554, 0.3271615, 0.15388264, 0.029143296, 0.38920784, 0
1135, 1721167250, -0.913973, 0.23211129, -0.06558246, 0.32633924, 0.20916219, -0.06787563, 0.13794708, 0
1138, 1721217251, -0.91421413, 0.23119473, -0.06881942, 0.32564682, 0.17830902, -0.085961185, 0.061962128, 0
1141, 1721267252, -0.91458595, 0.22887456, -0.0714504, 0.32567528, 0.30931884, -0.074585825, -0.0063495636, 0
1143, 1721300586, -0.9148433, 0.2269074, -0.07228141, 0.3261454, 0.17695163, -0.09719204, -0.1077652, 0
1146, 1721350587, -0.91518295, 0.22384013, -0.07310413, 0.32712716, 0.2104113, -0.05758107, -0.18452168, 0
1149, 1721400588, -0.9151976, 0.22095993, -0.073255435, 0.32900462, 0.28473276, 0.0221479, -0.28343868, 0
1151, 1721433922, -0.91506284, 0.21948642, -0.07316208, 0.33038393, 0.18260618, -0.027365306, -0.2549858, 0
1154, 1721483923, -0.9145176, 0.21898456, -0.07357637, 0.33213013, 0.15182956, 0.07924574, -0.2273159, 0
1157, 1721533924, -0.91419876, 0.2180345, -0.07264689, 0.33383295, 0.025015347, 0.068596795, -0.1590414, 0
1159, 1721567258, -0.91407096, 0.2175797, -0.07149855, 0.334726, 0.07510762, 0.07891555, -0.027810097, 0
1162, 1721617259, -0.91391826, 0.2175234, -0.07034632, 0.33542356, 0.116373025, 0.14019106, 0.0793066, 0
1165, 1721667260, -0.91373473, 0.21802905, -0.069852546, 0.33569834, 0.10170901, 0.036405344, 0.12492657, 0
1168, 1721717261, -0.9136268, 0.21847197, -0.069622904, 0.33575207, 0.10931873, 0.016919428, 0.13871765, 0
1170, 1721750595, -0.91350013, 0.21921319, -0.06986818, 0.3355619, 0.14414808, -0.008459854, 0.18853474, 0
1173, 1721800596, -0.91361725, 0.2190308, -0.07019877, 0.33529347, 0.14816998, -0.012714981, 0.058013916, 0
1176, 1721850597, -0.9136634, 0.21882556, -0.07117769, 0.33509502, 0.181442, -0.014314608, -0.09450436, 0
1178, 1721883931, -0.9136168, 0.21883632, -0.07174991, 0.33509344, 0.116787195, -0.0070259064, -0.13198185, 0
1181, 1721933932, -0.91358244, 0.21856211, -0.07180462, 0.335354, 0.109599575, 5.583354E-4, -0.181036, 0
1184, 1721983933, -0.9135257, 0.21863833, -0.07106757, 0.335616, 0.20548272, 0.09814007, -0.06977844, 0
1186, 1722017267, -0.9133742, 0.21933451, -0.07071555, 0.3356483, 0.10430031, 0.013242807, -0.037462234, 0
1189, 1722067268, -0.91314256, 0.22026485, -0.07064304, 0.3356845, 0.17238359, 0.049914356, 0.113609314, 0
1192, 1722117269, -0.91278636, 0.22158545, -0.07117041, 0.33567274, 0.09594651, 0.01679767, 0.09528637, 0
1196, 1722183937, -0.91245747, 0.22254561, -0.07194443, 0.33576667, 0.14318933, 0.06368974, 0.036808014, 0
1199, 1722233938, -0.9123299, 0.22292833, -0.072217606, 0.33580065, 0.05414266, 0.034449324, -0.04746437, 0
1201, 1722267272, -0.9123647, 0.22300892, -0.07221879, 0.33565253, 0.070359975, 0.058593642, -0.084630966, 0
1204, 1722317273, -0.91244876, 0.22363228, -0.07181319, 0.33509594, 0.020322356, 0.057455458, -0.011854172, 0
1207, 1722367274, -0.9127195, 0.2238594, -0.07099721, 0.33437994, 0.05370614, 0.034972124, 0.015535355, 0
1209, 1722400608, -0.9128785, 0.22419868, -0.070637226, 0.33379424, 0.10594648, 0.020481944, 0.049017906, 0
1212, 1722450609, -0.9130385, 0.22522137, -0.070545055, 0.33268604, 0.09923349, -0.0041837157, 0.10425949, 0
1215, 1722500610, -0.9132128, 0.22592634, -0.07084605, 0.33166394, 0.20095894, -0.025746457, 0.11142254, 0
1217, 1722533944, -0.9133167, 0.22618446, -0.07116851, 0.33113262, 0.25890678, -0.042988695, 0.034298897, 0
1220, 1722583945, -0.9133694, 0.22665808, -0.07180513, 0.33052543, 0.29590535, -0.06435922, -0.070295334, 0
1224, 1722650613, -0.9132947, 0.22748578, -0.072289035, 0.33005747, 0.28420433, 0.010874576, -0.024450302, 0
1227, 1722700614, -0.9131842, 0.22829711, -0.07245868, 0.32976538, 0.20985284, -0.024861906, -0.027015686, 0
1230, 1722750615, -0.9130898, 0.2289555, -0.072325975, 0.3295996, 0.17520052, -0.023525074, 0.06259251, 0
1234, 1722817283, -0.9128088, 0.23028359, -0.072825104, 0.3293428, 0.1817451, -0.0065601054, 0.092980385, 0
1236, 1722850617, -0.9125861, 0.23110226, -0.073570184, 0.32922068, 0.16319194, -0.008617318, 0.10092449, 0
1239, 1722900618, -0.9123974, 0.23144227, -0.07442755, 0.3293123, 0.24731888, 0.018561633, -0.0017843246, 0
1242, 1722950619, -0.9121634, 0.23174891, -0.07542747, 0.32951713, 0.27661818, 0.01065788, -0.08034325, 0
1244, 1722983953, -0.91190135, 0.23230013, -0.07608838, 0.32970187, 0.10863914, 0.032932848, -0.058855057, 0
1247, 1723033954, -0.911549, 0.23295942, -0.07679387, 0.3300478, 0.05454901, 0.028561939, -0.029375076, 0
1250, 1723083955, -0.91144824, 0.2328305, -0.076903, 0.33039126, 0.033708546, 0.048023995, -0.046131134, 0
1254, 1723150623, -0.9113303, 0.23312676, -0.0770797, 0.3304667, 0.08157753, 0.043565135, -0.061890602, 0
1257, 1723200624, -0.91125125, 0.23363042, -0.077215925, 0.3302968, 0.05746328, 0.020850072, -0.06971645, 0
1259, 1723233958, -0.91122454, 0.23392847, -0.077087566, 0.33018988, 0.07117088, 0.04253921, -0.017255783, 0
1262, 1723283959, -0.91125655, 0.23434949, -0.07665595, 0.32990327, 0.062148783, 0.048922405, -0.006556511, 0
1265, 1723333960, -0.9114052, 0.23428904, -0.07615769, 0.32965097, 0.08387525, 0.041890018, 0.05881405, 0
1267, 1723367294, -0.9115156, 0.23439023, -0.0760284, 0.32930335, 0.11993493, 0.052232742, 0.033659935, 0
1270, 1723417295, -0.9117036, 0.23429257, -0.075993806, 0.32886013, 0.20196831, 0.003966014, -0.061621666, 0
1273, 1723467296, -0.9117172, 0.23470533, -0.076237835, 0.32847157, 0.18189104, -0.042584583, -0.053257942, 0
1276, 1723517297, -0.9117312, 0.23472002, -0.07604966, 0.32846573, 0.18544702, -0.021805923, -0.055042267, 0
1278, 1723550631, -0.9117265, 0.23452231, -0.07563031, 0.32871658, 0.15889771, -0.007960749, -0.02941227, 0
1281, 1723600632, -0.91163564, 0.23452398, -0.07516067, 0.32907486, 0.11441561, 0.005781945, -0.010951996, 0
1284, 1723650633, -0.9116144, 0.23456432, -0.074691035, 0.32921198, 0.11470551, 0.009699903, -0.0035095215, 0
1286, 1723683967, -0.9116813, 0.23458752, -0.07420121, 0.329121, 0.12503515, 0.05001717, 0.041168213, 0
1289, 1723733968, -0.91173875, 0.23515692, -0.073849335, 0.3286342, 0.14863075, 0.023349952, 0.057107925, 0
1292, 1723783969, -0.9117477, 0.23572788, -0.07423194, 0.3281138, 0.2257254, 0.016531466, 0.05730629, 0
1294, 1723817303, -0.9116479, 0.23650372, -0.07476847, 0.32771075, 0.20444931, -0.01733857, 0.04878235, 0
1297, 1723867304, -0.9114354, 0.23764732, -0.075535126, 0.327298, 0.20477095, -0.0285302, -0.012041092, 0
1300, 1723917305, -0.9111642, 0.23866066, -0.0761936, 0.32716337, 0.20961581, -0.034103494, -0.045103073, 0
1303, 1723967306, -0.9108188, 0.23964387, -0.07671234, 0.32728532, 0.22574373, -0.009853345, -0.035009384, 0
1305, 1724000640, -0.9105375, 0.24050462, -0.07694226, 0.327383, 0.1839249, -0.032121606, -0.07588482, 0
1308, 1724050641, -0.9100786, 0.24189398, -0.07710108, 0.32759792, 0.15105955, -0.015791526, -0.01355648, 0
1311, 1724100642, -0.9097722, 0.24271959, -0.07676548, 0.3279166, 0.21485853, 0.038952943, 0.047175407, 0
1313, 1724133976, -0.90951884, 0.24356806, -0.07666176, 0.32801476, 0.088154405, 0.008789312, 0.09194279, 0
1316, 1724183977, -0.9093469, 0.24399427, -0.07667161, 0.32817212, 0.14856191, -0.009348094, 0.093483925, 0
1319, 1724233978, -0.9090222, 0.2449659, -0.07724537, 0.32821336, 0.122715876, 0.0086172065, 0.060936928, 0
1321, 1724267312, -0.90882885, 0.24548927, -0.07780608, 0.3282254, 0.10670866, -4.8569366E-4, -0.022024155, 0
1324, 1724317313, -0.9085582, 0.24623564, -0.07846356, 0.32825923, 0.14514731, -0.015499618, -0.058527946, 0
1327, 1724367314, -0.90833616, 0.24691492, -0.07872801, 0.32830006, 0.10797386, 0.00177514, -0.116848946, 0
1330, 1724417315, -0.9080542, 0.24791615, -0.078757934, 0.32831824, 0.117479414, 0.003964114, -0.088900566, 0
1334, 1724483983, -0.9077902, 0.24911788, -0.0778879, 0.32834628, 0.16124481, -0.0017175853, -0.006409645, 0
1336, 1724517317, -0.9076644, 0.2496926, -0.07740694, 0.32837144, 0.087425195, 0.0074208537, 0.01649189, 0
1339, 1724567318, -0.9075771, 0.25025073, -0.07681783, 0.32832623, 0.11354481, -0.01651582, 0.14152718, 0
1342, 1724617319, -0.90753204, 0.25074652, -0.07662113, 0.32811803, 0.15545873, -6.760149E-4, 0.04264164, 0
1344, 1724650653, -0.90743595, 0.25126988, -0.076724984, 0.32795924, 0.15665554, 0.019953337, 0.0574255, 0
1347, 1724700654, -0.90733206, 0.25184566, -0.07686525, 0.327772, 0.10805879, 0.021226913, 0.0054864883, 0
1351, 1724767322, -0.90724134, 0.25245738, -0.07701944, 0.32751623, 0.15844901, -0.0033247552, -0.013552666, 0
1354, 1724817323, -0.9071475, 0.25297114, -0.07704743, 0.3273731, 0.101969965, -0.018690601, 0.014253616, 0
1357, 1724867324, -0.9070424, 0.25333712, -0.07697086, 0.32739934, 0.22715633, -0.00530061, -0.034983635, 0
1359, 1724900658, -0.9068657, 0.2539304, -0.077076696, 0.32740444, 0.14968339, -0.02161102, -0.062335014, 0
1363, 1724967326, -0.90649164, 0.25491056, -0.077119164, 0.32766834, 0.13045636, -0.018079627, -0.0057144165, 0
1366, 1725017327, -0.9061704, 0.25576583, -0.07712076, 0.32789022, 0.12920234, -0.016378134, -0.0012159348, 0
1369, 1725067328, -0.9057808, 0.2568506, -0.07735286, 0.3280645, 0.08081401, -0.014511243, -0.002632141, 0
1371, 1725100662, -0.905591, 0.25729892, -0.07746352, 0.32821053, 0.13872679, 0.019995023, -0.0066432953, 0
1374, 1725150663, -0.90539783, 0.2577864, -0.077378996, 0.3283807, 0.12704353, 0.010347979, 0.008418083, 0
1377, 1725200664, -0.9052893, 0.25822127, -0.07702203, 0.32842207, 0.09423206, -0.0011704256, 0.017608643, 0
1380, 1725250665, -0.9052962, 0.2583789, -0.07679235, 0.32833293, 0.16583544, -0.0145492405, 0.03148842, 0
1382, 1725283999, -0.90524805, 0.25877514, -0.076926194, 0.3281224, 0.15451081, -0.014242358, -0.009224892, 0
1385, 1725334000, -0.90515804, 0.25933257, -0.077057004, 0.3278997, 0.11893247, -0.035111763, 0.021550179, 0
1388, 1725384001, -0.90512645, 0.25956702, -0.07697113, 0.32782155, 0.12684517, -0.03528588, 0.04246044, 0
1392, 1725450669, -0.9051055, 0.2596923, -0.07693776, 0.32778814, 0.15387169, -0.04760692, 0.0060987473, 0
1394, 1725484003, -0.905059, 0.25982034, -0.076922975, 0.32781813, 0.115488365, -0.02386392, -0.0036678314, 0
1397, 1725534004, -0.9050728, 0.25969154, -0.076715186, 0.32793105, 0.09469964, -0.0048149163, -0.04019165, 0
1400, 1725584005, -0.9050987, 0.2595471, -0.07634193, 0.32806098, 0.112146065, -0.03777034, 0.0057783127, 0
1402, 1725617339, -0.90511644, 0.25947434, -0.07604442, 0.32813856, 0.16100231, 0.010226612, 0.06470394, 0
1405, 1725667340, -0.905097, 0.25975138, -0.07582518, 0.3280238, 0.080787756, -0.026843123, 0.045653343, 0
1408, 1725717341, -0.90516746, 0.2596684, -0.07576788, 0.32790852, 0.1168243, -0.052539736, 0.08105469, 0
1411, 1725767342, -0.90527123, 0.25938052, -0.07584217, 0.3278327, 0.15156, -0.027615584, 0.01304245, 0
1413, 1725800676, -0.9053173, 0.25925598, -0.076077506, 0.32774946, 0.13626534, -0.01806968, 0.0628252, 0
1416, 1725850677, -0.9053471, 0.25919273, -0.07650616, 0.3276172, 0.14558125, -0.023720313, 0.022444725, 0
1419, 1725900678, -0.90541065, 0.25902465, -0.076848954, 0.3274942, 0.13321629, -0.033063155, -0.072553635, 0
1421, 1725934012, -0.9054457, 0.25894347, -0.07713087, 0.3273953, 0.16140139, -0.009343512, -0.019901276, 0
1424, 1725984013, -0.90556955, 0.25857073, -0.07721429, 0.32732752, 0.17673941, -0.006875035, 0.035758972, 0
1427, 1726034014, -0.9057678, 0.25795722, -0.07719936, 0.32726684, 0.13703534, -0.0128742345, 0.047415733, 0
1429, 1726067348, -0.9058702, 0.25755873, -0.07744181, 0.3272398, 0.2168298, -0.025534566, 0.013220787, 0
1432, 1726117349, -0.9059193, 0.25712284, -0.078373104, 0.3272249, 0.1813108, -0.024445612, 0.019547462, 0
1435, 1726167350, -0.9059274, 0.25668067, -0.07930123, 0.32732606, 0.15061398, -0.016632717, -0.009435654, 0
1438, 1726217351, -0.90590596, 0.25616807, -0.07998483, 0.32762077, 0.18264306, -0.025481371, -0.067266464, 0
1440, 1726250685, -0.90585804, 0.25592804, -0.080450684, 0.32782665, 0.09465516, -0.0036408026, -0.073269844, 0
1443, 1726300686, -0.90582323, 0.2554391, -0.08103803, 0.32815915, 0.15717867, -0.0037825098, 0.010532379, 0
1446, 1726350687, -0.9057064, 0.25521109, -0.0816087, 0.32851744, 0.103989065, -0.031155024, 0.0026721954, 0
1450, 1726417355, -0.9055413, 0.2546031, -0.08297052, 0.32910275, 0.08585513, -0.025243105, 0.044587135, 0
1452, 1726450689, -0.90556866, 0.25363302, -0.08391843, 0.32953587, 0.08454109, -0.048472695, 0.057440758, 0
1455, 1726500690, -0.9055298, 0.252356, -0.0856982, 0.33016476, 0.114195004, -0.020214958, 0.0649004, 0
1458, 1726550691, -0.9055469, 0.2509591, -0.08722644, 0.3307818, 0.1103318, 0.00241204, 3.7574768E-4, 0
1460, 1726584025, -0.90559566, 0.24972191, -0.08832888, 0.33129153, 0.03498291, -0.046333008, -0.028055191, 0
1463, 1726634026, -0.9060352, 0.24550623, -0.090743616, 0.33258545, 0.15509307, -0.1344759, 0.015849113, 0
1467, 1726700694, -0.90656435, 0.23647445, -0.09799692, 0.3356161, -0.13626568, -0.051095508, 0.2656765, 0
1470, 1726750695, -0.90773284, 0.22364435, -0.10659294, 0.33861884, -0.017044762, -0.11973902, 0.39542007, 0
1474, 1726817363, -0.9074193, 0.20938727, -0.12750375, 0.34133622, 0.16731833, -0.33334628, 0.48167992, 0
1477, 1726867364, -0.9054596, 0.19868407, -0.14954989, 0.34398094, 0.22400647, -0.4664274, 0.28564167, 0
1479, 1726900698, -0.9035125, 0.189866, -0.16656177, 0.34625697, 0.074792355, -0.35256207, 0.30204487, 0
1482, 1726950699, -0.89944136, 0.17452523, -0.19446732, 0.35035583, 0.12318168, -0.42450655, 0.08918381, 0
1485, 1727000700, -0.8938278, 0.15674435, -0.22512217, 0.35474455, 0.0034888138, -0.4788768, -0.05983925, 0
1487, 1727034034, -0.8891579, 0.14146665, -0.24672152, 0.35851717, -0.08322784, -0.40420693, -0.12268829, 0
1490, 1727084035, -0.88101435, 0.11674515, -0.27949888, 0.36343527, -0.15339291, -0.3204989, -0.06737709, 0
1493, 1727134036, -0.87124205, 0.09019745, -0.3122056, 0.3678994, -0.144519, -0.27818027, -0.21129513, 0
1496, 1727184037, -0.85942435, 0.06450445, -0.34601417, 0.370842, -0.07060875, -0.34224412, -0.28192997, 0
1498, 1727217371, -0.85030675, 0.0484889, -0.36886084, 0.37227583, 0.06615358, -0.18428968, -0.28188038, 0
1502, 1727284039, -0.83012927, 0.018393382, -0.41296747, 0.37419966, 0.06609379, 0.07056566, -0.44481945, 0
1505, 1727334040, -0.8143087, -0.0021429807, -0.44326955, 0.37473926, 0.23226538, 0.13070132, -0.65736866, 0
1508, 1727384041, -0.79873455, -0.023568794, -0.4691885, 0.3759658, 0.095575035, 0.15737715, -0.73376846, 0
1510, 1727417375, -0.7885584, -0.039229155, -0.48386845, 0.3775295, 0.30031168, 0.11201821, -0.8328304, 0
1513, 1727467376, -0.77377546, -0.06321165, -0.50313044, 0.3796789, -0.03595474, 0.12900665, -0.53719616, 0
1516, 1727517377, -0.7590064, -0.08766723, -0.5201406, 0.3817041, 0.039769437, 0.15608357, -0.30874348, 0
1519, 1727567378, -0.7436055, -0.111256555, -0.53692067, 0.38263512, -0.009273105, 0.043906774, -0.22098827, 0
1521, 1727600712, -0.73294973, -0.12493844, -0.54892915, 0.38193232, -0.059470985, 0.21834913, -0.12205219, 0
1524, 1727650713, -0.7167388, -0.14338788, -0.56665933, 0.38031983, 0.08243515, 0.08399036, -0.36848736, 0
1528, 1727717381, -0.6970846, -0.15766685, -0.591658, 0.37306225, -0.05089781, 0.4203645, -0.07703686, 0
1532, 1727784049, -0.6776991, -0.16692048, -0.6145197, 0.3677603, 0.30454567, 0.57334995, 0.24775505, 0
1535, 1727834050, -0.66510165, -0.17398404, -0.6272627, 0.36596638, 0.15748332, 0.40339428, 0.08524132, 0
1537, 1727867384, -0.6581396, -0.17894115, -0.6339216, 0.36468673, 0.5048348, 0.19793513, -0.123885155, 0
1540, 1727917385, -0.6501985, -0.1855486, -0.64232695, 0.36090225, 0.362767, 0.32349724, -0.22690296, 0
1543, 1727967386, -0.64513093, -0.1903241, -0.648467, 0.35650215, 0.09161685, 0.43880945, -0.06748676, 0
1547, 1728034054, -0.6418369, -0.19377242, -0.65227044, 0.35364032, 0.3109139, 0.58425057, 0.3315153, 0
1551, 1728100722, -0.6422838, -0.19161484, -0.65340716, 0.351902, 0.30621922, 0.32295185, 0.043395996, 0
1554, 1728150723, -0.6441865, -0.1872289, -0.65397555, 0.34972218, 0.03088178, 0.14440624, -0.40427113, 0
1558, 1728217391, -0.64640856, -0.18482482, -0.65218264, 0.35024852, 0.20703715, -0.023043962, -0.469841, 0
1560, 1728250725, -0.64850986, -0.18386908, -0.651113, 0.34885472, 0.15039897, -0.052445192, -0.375988, 0
1563, 1728300726, -0.6511203, -0.18372278, -0.64961934, 0.34684783, -0.09523865, 0.023420358, -0.17997456, 0
1566, 1728350727, -0.6523464, -0.18478489, -0.6484272, 0.34621015, 0.07845517, 0.11606637, -0.031206131, 0
1568, 1728384061, -0.65294755, -0.18511482, -0.64821965, 0.34528804, -0.051655855, 0.08357485, -0.013109207, 0
1571, 1728434062, -0.6529778, -0.18630691, -0.64792156, 0.34514907, 0.20776501, 0.037508827, -0.06566334, 0
1574, 1728484063, -0.6537392, -0.1863463, -0.6479667, 0.34359813, -0.03233741, 0.121194534, -0.11690998, 0
1577, 1728534064, -0.65415645, -0.18730731, -0.6473526, 0.34343922, 0.25011805, 0.05829464, -0.15933132, 0
1579, 1728567398, -0.65494525, -0.1874029, -0.64685047, 0.34282953, 0.13521136, 0.15956098, -0.09194946, 0
1582, 1728617399, -0.65631723, -0.18726498, -0.6458092, 0.34224302, 0.17029932, 0.16332684, -0.0813694, 0
1585, 1728667400, -0.6575023, -0.18704574, -0.6445663, 0.3424318, 0.17775047, 0.052374896, -0.12883282, 0
1587, 1728700734, -0.6583942, -0.18648772, -0.64380026, 0.3424636, 0.1988806, 0.028764777, -0.14058399, 0
1590, 1728750735, -0.65972286, -0.18490262, -0.6429229, 0.34241378, -0.002671874, 0.0238124, -0.21621418, 0
1593, 1728800736, -0.6598542, -0.18413743, -0.6419103, 0.34446704, 0.24872532, -0.029599374, -0.23667431, 0
1595, 1728834070, -0.66045034, -0.18269178, -0.6416389, 0.3445999, 0.056997705, 0.032398872, -0.2176981, 0
1598, 1728884071, -0.6611191, -0.1810095, -0.6412075, 0.34500784, 0.12112457, -0.038297493, -0.19025898, 0
1602, 1728950739, -0.6618297, -0.17979716, -0.6407411, 0.3451461, 0.046429787, 0.005812678, -0.12614536, 0
1605, 1729000740, -0.6620806, -0.17976414, -0.64037347, 0.3453643, 0.062591225, 0.011229738, -0.115270615, 0
1608, 1729050741, -0.6620848, -0.17993355, -0.64014006, 0.3457005, -0.037191328, 0.058845486, -0.14845657, 0
1610, 1729084075, -0.6618401, -0.18014053, -0.6400859, 0.34616145, 0.11773959, 0.015511017, -0.2000866, 0
1613, 1729134076, -0.6618117, -0.17942461, -0.6404933, 0.34583375, -0.005580448, 0.06684602, -0.24565315, 0
1617, 1729200744, -0.66127336, -0.17887542, -0.6409861, 0.3462347, 0.08788776, 0.120737225, -0.2274723, 0
1620, 1729250745, -0.6609893, -0.17837457, -0.6412921, 0.34646893, 0.16206835, 0.101074904, -0.22358608, 0
1622, 1729284079, -0.66102993, -0.17807792, -0.6412326, 0.34665403, 0.07101711, 0.11930864, -0.20864964, 0
1625, 1729334080, -0.6611985, -0.17762575, -0.6409869, 0.34701872, 0.04889044, 0.14482354, -0.16823483, 0
1628, 1729384081, -0.66137755, -0.17712295, -0.6407342, 0.34740096, 0.11446288, 0.1167578, -0.16911411, 0
1631, 1729434082, -0.661506, -0.17653245, -0.6404646, 0.3479537, 0.040257365, 0.114512615, -0.18389702, 0
1633, 1729467416, -0.66160476, -0.17620443, -0.6401977, 0.34842312, 0.12752867, 0.06992346, -0.20807838, 0
1636, 1729517417, -0.66200423, -0.17531176, -0.63977844, 0.34888422, 0.014195979, 0.103747785, -0.20245552, 0
1639, 1729567418, -0.66251004, -0.17430696, -0.63926303, 0.34937218, 0.06292392, 0.14606504, -0.13010025, 0
1641, 1729600752, -0.66289973, -0.17365271, -0.6389726, 0.3494898, 0.051052816, 0.07958984, -0.08638668, 0
1645, 1729667420, -0.66380405, -0.17237927, -0.63844836, 0.34936213, 0.027589433, 0.08136084, -0.05221653, 0
1648, 1729717421, -0.6641897, -0.17165391, -0.63820124, 0.3494376, 0.041734897, 0.0374259, -0.094646454, 0
1651, 1729767422, -0.6646402, -0.170794, -0.6382709, 0.34887496, 0.0038759382, 0.046551492, -0.1501503, 0
1654, 1729817423, -0.66488904, -0.17050856, -0.6382278, 0.34861872, -0.010506115, 0.065633796, -0.24074078, 0
1656, 1729850757, -0.664966, -0.17070891, -0.63797456, 0.3488378, 0.055466864, 0.023502275, -0.2497549, 0
1659, 1729900758, -0.665451, -0.170981, -0.6374185, 0.34879622, 0.10229607, 0.07013948, -0.17883873, 0
1662, 1729950759, -0.6661888, -0.17058805, -0.63718224, 0.34801087, 0.0126985535, 0.098244004, -0.14625263, 0
1664, 1729984093, -0.66650796, -0.17030247, -0.637016, 0.34784406, 0.046567358, 0.035131544, -0.11362171, 0
1667, 1730034094, -0.66684985, -0.17006749, -0.6367333, 0.34782106, 0.07501363, 0.068036005, -0.10541153, 0
1670, 1730084095, -0.6672802, -0.1697497, -0.6365562, 0.34747502, 0.12297314, 0.04394075, -0.166996, 0
1674, 1730150763, -0.66794354, -0.16941759, -0.6360123, 0.3473584, 0.111823976, 0.032089084, -0.2165699, 0
1677, 1730200764, -0.6685057, -0.16941522, -0.6353924, 0.34741282, 0.059261106, -6.9400776E-5, -0.2052908, 0
1679, 1730234098, -0.6688892, -0.16961704, -0.6348183, 0.3476255, 0.14945552, 0.07253387, -0.18357468, 0
1682, 1730284099, -0.6690643, -0.17008774, -0.6341231, 0.34832653, 0.022144994, 0.057074144, -0.14177895, 0
1685, 1730334100, -0.6691861, -0.1696747, -0.63403106, 0.34846175, -0.027844016, 0.059418686, -0.10286617, 0
1687, 1730367434, -0.6690283, -0.16952978, -0.6340519, 0.34879702, 0.064216055, -0.0028607424, -0.14042282, 0
1690, 1730417435, -0.6689033, -0.16950674, -0.63404226, 0.3490653, 0.04609139, 0.061730254, -0.14398003, 0
1693, 1730467436, -0.6689491, -0.16972896, -0.6339167, 0.3490977, 0.00564292, 0.06070221, -0.18701935, 0
1695, 1730500770, -0.6689912, -0.16994795, -0.6337161, 0.34927467, 0.020399468, 0.072014645, -0.17241573, 0
1698, 1730550771, -0.6690722, -0.16997959, -0.6336352, 0.34925073, -0.042950362, 0.07693238, -0.12719631, 0
1701, 1730600772, -0.6689681, -0.17018975, -0.63360846, 0.34939694, 0.0038712444, 0.01480751, -0.1285572, 0
1703, 1730634106, -0.66908383, -0.17003082, -0.63367325, 0.34913474, 0.01926838, 0.070553206, -0.13567448, 0
1706, 1730684107, -0.6691952, -0.16994476, -0.6337951, 0.3487416, 0.048477277, 0.024262778, -0.1648674, 0
1709, 1730734108, -0.66947055, -0.16972347, -0.6338983, 0.34813306, 0.00497104, -0.0058027315, -0.18083477, 0
1712, 1730784109, -0.6696748, -0.16955426, -0.6339064, 0.3478075, 0.09964688, 0.087067686, -0.18354607, 0
1714, 1730817443, -0.66970557, -0.16947198, -0.63394564, 0.34771687, 0.07748646, -0.0025229026, -0.16083145, 0
1717, 1730867444, -0.66992533, -0.16918314, -0.6339619, 0.3474044, 0.04603104, 0.03872239, -0.20556736, 0
1720, 1730917445, -0.67004085, -0.16925935, -0.63376, 0.34751302, 0.08855785, 0.029000582, -0.2166872, 0
1722, 1730950779, -0.67009544, -0.1693667, -0.633565, 0.3477109, 0.07031461, 0.025748134, -0.22593117, 0
1725, 1731000780, -0.67020124, -0.16938747, -0.63320094, 0.3481597, 0.085968114, 0.038528048, -0.1685915, 0
1728, 1731050781, -0.6701704, -0.16912511, -0.6328541, 0.34897637, 0.06274389, 0.07402526, -0.13251877, 0
1730, 1731084115, -0.6701804, -0.16858992, -0.63283664, 0.34924787, 0.060901806, 0.039144494, -0.12514496, 0
1733, 1731134116, -0.6701206, -0.1681557, -0.632717, 0.3497881, 0.0438348, 0.057559505, -0.1310339, 0
1736, 1731184117, -0.6701218, -0.16784549, -0.63271236, 0.3499431, 0.025520261, 0.020229487, -0.21281338, 0
1739, 1731234118, -0.6699399, -0.16800928, -0.63244647, 0.35069308, 0.15520081, -0.0033853273, -0.23835182, 0
1741, 1731267452, -0.6700454, -0.16763823, -0.63235354, 0.35083663, 0.022757865, 0.06336335, -0.2204361, 0
1744, 1731317453, -0.67006576, -0.16706851, -0.63199353, 0.35171628, 0.10409021, 0.06705433, -0.17510319, 0
1747, 1731367454, -0.67017066, -0.1663367, -0.63163185, 0.35251275, 0.041919295, 0.06710563, -0.12381649, 0
1749, 1731400788, -0.6702384, -0.16601688, -0.6313038, 0.35312182, 0.0594445, 0.05005461, -0.09321213, 0
1753, 1731467456, -0.67023075, -0.16586298, -0.6307227, 0.354245, 0.07076755, -0.010771536, -0.15866375, 0
1756, 1731517457, -0.67039794, -0.16572382, -0.6304958, 0.3543976, -0.055604994, 0.03437361, -0.14365578, 0
1759, 1731567458, -0.6702267, -0.1658436, -0.63039315, 0.3548479, 0.022434331, 0.07812594, -0.1135416, 0
1762, 1731617459, -0.67010796, -0.16533642, -0.6305396, 0.355049, -0.009468791, 0.080152415, -0.10823536, 0
1764, 1731650793, -0.6700593, -0.16509324, -0.63051784, 0.35529196, 0.069190115, 0.05160333, -0.14749908, 0
1767, 1731700794, -0.6704078, -0.1647258, -0.63036406, 0.3550781, -0.008876817, 0.05728313, -0.21067429, 0
1770, 1731750795, -0.6708007, -0.16481689, -0.6300647, 0.35482484, 0.05179309, 0.0125094615, -0.20131302, 0
1772, 1731784129, -0.6710351, -0.16465355, -0.6300274, 0.3545238, 0.042684603, 0.07552224, -0.16328812, 0
1775, 1731834130, -0.6711117, -0.16425915, -0.63014483, 0.35435286, 0.01132406, 0.07452324, -0.13361645, 0
1778, 1731884131, -0.67118585, -0.16396789, -0.630087, 0.35445017, 0.11169781, 0.022732943, -0.105716705, 0
1782, 1731950799, -0.67152655, -0.16384101, -0.62983525, 0.3543111, 0.07621099, 0.044110842, -0.12191391, 0
1785, 1732000800, -0.67168874, -0.16398133, -0.6296786, 0.35421702, 0.015589023, 0.028120054, -0.21114254, 0
1787, 1732034134, -0.67166555, -0.16408044, -0.62968993, 0.3541949, -6.580221E-4, 0.026651014, -0.20902061, 0
1790, 1732084135, -0.67142475, -0.16456139, -0.6296997, 0.3544109, 0.049927764, 0.029926484, -0.169878, 0
1793, 1732134136, -0.67131484, -0.16503045, -0.6297006, 0.35439932, 0.017263135, 0.04926449, -0.14850521, 0
1795, 1732167470, -0.6712922, -0.16521905, -0.62971973, 0.3543204, 0.0167628, 0.055225804, -0.12809563, 0
1798, 1732217471, -0.67128843, -0.16529422, -0.6296436, 0.354428, -0.0063635255, 0.021723894, -0.19670582, 0
1801, 1732267472, -0.6712792, -0.16511469, -0.62973094, 0.35437366, -0.028889943, 0.033762526, -0.22463036, 0
1805, 1732334140, -0.6708381, -0.16468096, -0.62998044, 0.35496694, 0.08831298, 0.030115576, -0.18279552, 0
1807, 1732367474, -0.6706196, -0.16423517, -0.6302393, 0.35512683, 0.021890411, 0.02637017, -0.13005352, 0
1811, 1732434142, -0.6704638, -0.16392235, -0.6302967, 0.35546342, 0.01727174, 0.030838864, -0.13101482, 0
1814, 1732484143, -0.6706499, -0.16428497, -0.62992156, 0.35560998, 0.028824342, -0.031381108, -0.20058632, 0
1817, 1732534144, -0.6708434, -0.16467388, -0.6296106, 0.35561565, 0.010913802, -0.05682705, -0.21119308, 0
1820, 1732584145, -0.6706573, -0.16506994, -0.6296395, 0.3557323, -0.0025631348, 0.033508614, -0.17933369, 0
1822, 1732617479, -0.670495, -0.16511112, -0.6297845, 0.35576227, 0.04106369, 0.023632137, -0.21512794, 0
1825, 1732667480, -0.67021686, -0.16505261, -0.6300127, 0.35590953, 0.0504937, 0.053737655, -0.12665653, 0
1828, 1732717481, -0.670215, -0.1648666, -0.6300782, 0.355883, -0.01665652, 0.07362595, -0.12414837, 0
1830, 1732750815, -0.670287, -0.16489775, -0.6299275, 0.35599977, 0.03162239, 0.029203756, -0.14758396, 0
1833, 1732800816, -0.6705737, -0.16485599, -0.6296631, 0.35594693, 0.0015213409, 0.037844542, -0.16322613, 0
1836, 1732850817, -0.6708679, -0.16448075, -0.6295527, 0.3557616, 0.012936371, 0.010023885, -0.22964, 0
1838, 1732884151, -0.6709221, -0.16419469, -0.62959135, 0.3557229, -0.031912398, 0.022572573, -0.19001484, 0
1841, 1732934152, -0.67102087, -0.16403729, -0.62952936, 0.3557191, 0.025966842, 0.017373215, -0.1678648, 0
1844, 1732984153, -0.67134154, -0.16384915, -0.62936056, 0.3554994, -0.016828626, 0.04993134, -0.115831375, 0
1847, 1733034154, -0.6717438, -0.16365892, -0.6291052, 0.35527924, 0.035837173, -0.029642176, -0.2536211, 0
1849, 1733067488, -0.6719232, -0.16338572, -0.6289708, 0.3553033, -0.024539934, 0.0052418257, -0.25636005, 0
1852, 1733117489, -0.6717955, -0.16274802, -0.6289245, 0.35591915, 0.06288816, 0.014924072, -0.17817116, 0
1855, 1733167490, -0.67170656, -0.16142592, -0.62921876, 0.35616857, 0.057110913, 0.0047499854, -0.11849022, 0
1857, 1733200824, -0.6715884, -0.16086471, -0.62923783, 0.35661143, 0.07327459, 0.027169788, -0.043912888, 0
1860, 1733250825, -0.6715771, -0.16041455, -0.6292309, 0.35684767, 0.012687378, 0.012089704, -0.098077774, 0
1863, 1733300826, -0.6715456, -0.1608167, -0.62903833, 0.35706535, 0.052625567, -0.01905381, -0.1368103, 0
1865, 1733334160, -0.67167467, -0.16105776, -0.62902725, 0.35673326, -0.026817756, 0.010659333, -0.143157, 0
1868, 1733384161, -0.6715456, -0.16187002, -0.6289888, 0.35667682, 0.04430787, 0.05386528, -0.13516712, 0
1871, 1733434162, -0.67143387, -0.16202568, -0.6292163, 0.3564149, -0.03189932, 0.0533797, -0.17762661, 0
1874, 1733484163, -0.6712793, -0.16174407, -0.62937045, 0.35656172, 0.026573008, 0.027034115, -0.17106724, 0
1876, 1733517497, -0.6713327, -0.16159262, -0.6292959, 0.35666144, 0.06847331, 0.04508491, -0.20069599, 0
1879, 1733567498, -0.6715988, -0.1617666, -0.6289207, 0.35674348, 0.014057848, 0.036400538, -0.1766386, 0
1883, 1733634166, -0.67213035, -0.1620636, -0.62829554, 0.35670885, -0.0029378543, -0.0062355646, -0.14174843, 0
1886, 1733684167, -0.6722913, -0.16216408, -0.62818754, 0.35655025, -0.03363736, 0.0021942267, -0.119654655, 0
1888, 1733717501, -0.67231035, -0.16211878, -0.62830585, 0.35632634, -0.021016477, -0.03190178, -0.12839031, 0
1893, 1733800836, -0.6719339, -0.16197851, -0.62891674, 0.3560226, 1.6763472E-6, 0.044615645, -0.17183113, 0
1895, 1733834170, -0.6718155, -0.16189249, -0.6291369, 0.3558961, -0.0013154855, 0.00316472, -0.14743328, 0
1898, 1733884171, -0.67168653, -0.16184016, -0.62934154, 0.35580146, 0.030970626, -0.012337357, -0.20849323, 0
1901, 1733934172, -0.6714494, -0.1615639, -0.62970126, 0.35573813, 0.006089387, 0.069806114, -0.17037773, 0
1903, 1733967506, -0.67121804, -0.16126695, -0.62999755, 0.35578492, 0.06440771, -0.028237509, -0.14367104, 0
1906, 1734017507, -0.6710447, -0.16079584, -0.63026744, 0.35584703, 0.0018694623, -0.016629029, -0.106946945, 0
1909, 1734067508, -0.6709526, -0.16084895, -0.63027894, 0.35597634, 0.0035555323, -0.03367558, -0.15201664, 0
1911, 1734100842, -0.6709535, -0.16100663, -0.6302895, 0.35588455, -0.048278127, -0.054277215, -0.1477375, 0
1914, 1734150843, -0.67075133, -0.16149378, -0.6304364, 0.35578465, 0.0103111, -0.010834679, -0.15173149, 0
1917, 1734200844, -0.67043936, -0.16183582, -0.6307703, 0.35562545, 0.045185715, 0.010375695, -0.19501019, 0
1921, 1734267512, -0.67008543, -0.16189392, -0.6313673, 0.35520643, 0.03798703, 0.028921347, -0.1770525, 0
1924, 1734317513, -0.6700939, -0.16183497, -0.6314935, 0.35499275, 0.016087793, 0.0042012613, -0.1962738, 0
1926, 1734350847, -0.6702255, -0.16181777, -0.63144857, 0.3548324, 0.024507413, 0.02405614, -0.19126701, 0
1929, 1734400848, -0.670323, -0.1620153, -0.6312096, 0.3549832, 0.058295645, -0.014577627, -0.20093536, 0
1933, 1734467516, -0.6704584, -0.16147256, -0.63121617, 0.35496306, 0.030600041, 0.0062651797, -0.19833183, 0
1936, 1734517517, -0.67028075, -0.1608822, -0.63137853, 0.3552776, 0.0059187347, -0.040642813, -0.16438198, 0
1938, 1734550851, -0.6702399, -0.16063821, -0.6313971, 0.35543215, 0.034126516, -0.032911725, -0.15467167, 0
1941, 1734600852, -0.6702217, -0.16084442, -0.6311705, 0.3557753, 0.00873131, 0.009912688, -0.18636227, 0
1944, 1734650853, -0.67058206, -0.1609775, -0.6308781, 0.35555512, -0.028072892, 0.048227727, -0.10925865, 0
1946, 1734684187, -0.67075825, -0.16103365, -0.6307014, 0.3555105, 0.027037244, -0.0034622157, -0.17828083, 0
1951, 1734767522, -0.6707367, -0.16060106, -0.63076293, 0.3556376, 0.08948419, 0.013186258, -0.15250587, 0
1953, 1734800856, -0.6704354, -0.16015731, -0.6310103, 0.35596734, 0.05872434, -0.03317882, -0.15313625, 0
1956, 1734850857, -0.6698601, -0.15930642, -0.6314487, 0.3566537, 0.031137366, -0.040137228, -0.21386147, 0
1959, 1734900858, -0.66927814, -0.1591552, -0.63145113, 0.35780758, -0.017279116, -0.00956859, -0.23197651, 0
1961, 1734934192, -0.66921467, -0.15920427, -0.6312318, 0.35829127, -0.027715495, 0.06773125, -0.21396446, 0
1964, 1734984193, -0.66933465, -0.15941465, -0.6306912, 0.35892537, -0.07810526, 0.057605322, -0.103770256, 0
1967, 1735034194, -0.66952205, -0.1590242, -0.6302997, 0.3594362, -0.044424653, 0.03683136, -0.124331474, 0
1969, 1735067528, -0.6695769, -0.15857814, -0.6302779, 0.3595694, -0.07506571, 0.009878937, -0.11320305, 0
1972, 1735117529, -0.6694984, -0.15800431, -0.63047206, 0.35962757, -0.012182127, 0.012786841, -0.09452152, 0
1975, 1735167530, -0.66907066, -0.1584159, -0.63056636, 0.36007732, 0.07189618, -0.045839265, -0.122101784, 0
1978, 1735217531, -0.6688256, -0.15943804, -0.6304545, 0.3602767, 0.03339686, 0.052955806, -0.19789982, 0
1980, 1735250865, -0.66890526, -0.16035801, -0.63018227, 0.3601969, -0.0075209877, -0.017963065, -0.21246147, 0
1983, 1735300866, -0.66928434, -0.16169485, -0.6295415, 0.36001554, -0.037095327, 0.07003957, -0.15400887, 0
1986, 1735350867, -0.6695647, -0.16258323, -0.62903607, 0.35997754, -0.086085565, 0.0722224, -0.15820408, 0
1988, 1735384201, -0.66967505, -0.16263187, -0.6288881, 0.36000896, -0.10363625, 0.07770439, -0.12486172, 0
1991, 1735434202, -0.6697349, -0.16190292, -0.6291014, 0.35985386, -0.0829204, 0.049304724, -0.16783333, 0
1994, 1735484203, -0.66937095, -0.16188397, -0.6292854, 0.3602172, 0.13959412, -0.06981472, -0.14376545, 0
1996, 1735517537, -0.6691933, -0.16245884, -0.6291111, 0.36059278, 0.093345046, -0.066263765, -0.18254185, 0
1999, 1735567538, -0.669157, -0.16427413, -0.62834793, 0.36116797, 0.08522538, -0.04155441, -0.17023468, 0
2002, 1735617539, -0.6691761, -0.16731106, -0.6269912, 0.3620951, 0.17640112, -0.02678367, -0.17982006, 0
2005, 1735667540, -0.6688198, -0.17134842, -0.625316, 0.36375844, 0.22644444, -0.12669665, -0.070674896, 0
2007, 1735700874, -0.6681632, -0.17447081, -0.6240648, 0.3656249, 0.22575457, -0.118199125, -0.15426159, 0
2010, 1735750875, -0.6665902, -0.1791475, -0.62258744, 0.36873987, 0.10577773, -0.17554864, -0.23362923, 0
2013, 1735800876, -0.66459495, -0.18380244, -0.62105143, 0.37262005, 0.11040478, -0.06857187, -0.32578468, 0
2015, 1735834210, -0.66353893, -0.18664472, -0.620036, 0.37477422, -0.03393463, -0.0150497975, -0.24609661, 0
2018, 1735884211, -0.66190803, -0.19229911, -0.61784506, 0.37840044, 0.15460168, -0.091966085, -0.1544056, 0
2021, 1735934212, -0.66041756, -0.19835684, -0.615607, 0.38151246, 0.100798756, -0.112582244, -0.034116745, 0
2023, 1735967546, -0.65893185, -0.20330697, -0.61398137, 0.3840868, 0.474577, -0.30831957, 0.08102512, 0
2026, 1736017547, -0.65642655, -0.21199927, -0.6110128, 0.3883866, 0.5578756, -0.49426246, 0.05993557, 0
2032, 1736117549, -0.64707935, -0.2457365, -0.5965734, 0.40622982, 0.75446886, -1.1338865, -0.03823185, 0
2034, 1736150883, -0.64184606, -0.26351312, -0.5880047, 0.41577095, 0.49472526, -0.9462873, -0.06389618, 0
2037, 1736200884, -0.63148886, -0.2928557, -0.5732888, 0.43222427, 0.10407512, -1.0128499, -0.16100788, 0
2040, 1736250885, -0.6176622, -0.3220184, -0.55927205, 0.44948083, -0.2591826, -0.5402461, -0.1890459, 0
2042, 1736284219, -0.6065057, -0.34100193, -0.5501588, 0.46175137, -0.20393613, -0.6615201, 0.008730888, 0
2045, 1736334220, -0.58837736, -0.36705697, -0.53765786, 0.47961003, -0.44268206, -0.39744303, -0.09070873, 0
2048, 1736384221, -0.56889844, -0.3910386, -0.5247688, 0.49807787, -0.34834036, -0.37435782, -0.19817162, 0
2050, 1736417555, -0.5551617, -0.40686876, -0.515543, 0.5103815, -0.34331125, -0.56643796, -0.32927036, 0
2053, 1736467556, -0.53403187, -0.42970517, -0.50075746, 0.5286075, -0.20672946, -0.33562103, -0.38935184, 0
2056, 1736517557, -0.51121736, -0.45075825, -0.4856741, 0.54737085, -0.19183536, -0.07328051, -0.29305458, 0
2063, 1736634226, -0.4557262, -0.48450488, -0.45693046, 0.590596, -0.18345083, 0.264921, -0.6199026, 0
2065, 1736667560, -0.43997762, -0.4908357, -0.44988865, 0.60259503, -0.079878315, 0.035324827, -0.51817703, 0
2068, 1736717561, -0.4169272, -0.49849403, -0.43896055, 0.62049145, -0.38359958, 0.64014065, 0.12326336, 0
2071, 1736767562, -0.3945636, -0.50449485, -0.42888075, 0.637092, -0.26992193, 0.24172717, 0.31023598, 0
2073, 1736800896, -0.38172725, -0.50836414, -0.42248094, 0.64605004, -0.383398, 0.28985366, 0.10917282, 0
2076, 1736850897, -0.36836362, -0.5152159, -0.4112994, 0.6555256, -0.4209509, 0.72985363, -0.05235672, 0
2079, 1736900898, -0.35373792, -0.52475816, -0.39661282, 0.6649942, -0.14136913, 0.5605069, -0.25665188, 0
2081, 1736934232, -0.348092, -0.52959585, -0.38928303, 0.6684605, -0.2883178, 0.7870206, -0.29168987, 0
2084, 1736984233, -0.33742756, -0.5377023, -0.3753627, 0.6753828, -0.13335392, 0.104484625, -0.20456028, 0
2087, 1737034234, -0.32897276, -0.54404485, -0.3627536, 0.6813386, 0.20460682, 0.38117826, -0.13504314, 0
2091, 1737100902, -0.3196838, -0.5492042, -0.35005262, 0.6882301, 0.083082825, 0.47271442, -0.19024372, 0
2095, 1737167570, -0.31260186, -0.5504135, -0.3419, 0.6945861, -0.053959765, 0.42438048, -0.35154343, 0
2098, 1737217571, -0.30696803, -0.55122745, -0.33482638, 0.69987917, 0.011660482, -0.012917652, -0.30626965, 0
2100, 1737250905, -0.3036648, -0.5522108, -0.3304447, 0.7026222, -0.07952985, 0.13435744, -0.12931347, 0
2103, 1737300906, -0.29780674, -0.55406964, -0.32371706, 0.70678544, -0.10448096, -0.029640723, -0.122097015, 0
2106, 1737350907, -0.29170108, -0.5557849, -0.31720063, 0.7109276, 0.014200518, 0.014786444, -0.112935066, 0
2108, 1737384241, -0.28785917, -0.5569514, -0.31338522, 0.71326864, -0.05414391, 0.11365779, -0.05684662, 0
2111, 1737434242, -0.282509, -0.5583341, -0.30768138, 0.7168016, 0.19823752, 0.13617975, 0.027565002, 0
2114, 1737484243, -0.2776615, -0.5592997, -0.30291152, 0.7199675, 0.004891595, 0.1529289, 0.027012825, 0
2117, 1737534244, -0.2742362, -0.56064653, -0.29758584, 0.7224493, 0.07114362, -0.036730945, -0.0641737, 0
2119, 1737567578, -0.27236006, -0.561973, -0.29347113, 0.72381043, -0.09511939, 0.26143354, -0.3086853, 0
2122, 1737617579, -0.27020696, -0.56371796, -0.28819516, 0.72537875, 0.019187124, 0.29958066, -0.26649284, 0
2125, 1737667580, -0.26788297, -0.56447786, -0.28432485, 0.727175, 0.06555141, -0.022147061, -0.1554184, 0
2129, 1737734248, -0.26840043, -0.5642794, -0.28021756, 0.7287307, -0.04164116, 0.06504931, -0.17003632, 0
2131, 1737767582, -0.26915282, -0.5650028, -0.27600226, 0.7295011, -0.06691697, -0.19851951, -0.17009926, 0
2134, 1737817583, -0.27107412, -0.5669999, -0.2683722, 0.7300868, -0.03190562, 0.08199729, -0.18492413, 0
2137, 1737867584, -0.2726881, -0.5682412, -0.26342863, 0.73032117, 0.025079822, 0.276952, -0.09212589, 0
2140, 1737917585, -0.27282846, -0.5680263, -0.26216587, 0.7308901, -0.08171063, -0.05895305, -0.17589283, 0
2142, 1737950919, -0.27294403, -0.56746846, -0.26267487, 0.73109734, -0.065489374, -0.07870065, -0.19034195, 0
2145, 1738000920, -0.2730412, -0.5666599, -0.26255822, 0.73172987, -0.079679005, -0.3183205, -0.15386295, 0
2149, 1738067588, -0.27323386, -0.5665223, -0.2599041, 0.7327116, -0.05646809, -0.13028659, -0.17687225, 0
2152, 1738117589, -0.27342916, -0.56576055, -0.25866213, 0.73366606, -0.0035149509, 0.10718256, -0.22464657, 0
2154, 1738150923, -0.2726583, -0.56521285, -0.257808, 0.7346751, 0.0077004475, -0.25720665, -0.11112785, 0
2157, 1738200924, -0.27216017, -0.5639032, -0.257904, 0.73583156, -0.03839294, -0.03742076, -0.060494423, 0
2160, 1738250925, -0.27181122, -0.56268215, -0.25826854, 0.7367668, 0.0026621511, -0.065978736, -0.0023326874, 0
2162, 1738284259, -0.2715239, -0.56201214, -0.25865784, 0.7372475, -0.033674896, -0.07302252, -0.053705215, 0
2165, 1738334260, -0.271021, -0.56150246, -0.25928527, 0.73760027, -0.07853971, 0.07784408, -0.15830326, 0
2168, 1738384261, -0.27047795, -0.5614266, -0.25964898, 0.73772955, -0.022825701, 0.06518012, -0.2580166, 0
2171, 1738434262, -0.2706061, -0.5610461, -0.26054868, 0.7376548, -0.06169101, 0.053077567, -0.19741154, 0
2175, 1738500930, -0.27067453, -0.55981064, -0.2613252, 0.7382933, -0.020395124, -0.0062925043, -0.14483929, 0
2177, 1738534264, -0.2710542, -0.5587064, -0.26201916, 0.7387445, 0.035242558, -0.0015601763, -0.15427303, 0
2180, 1738584265, -0.2714748, -0.5574073, -0.26263767, 0.7393513, -0.03981075, -0.079839446, -0.20121288, 0
2183, 1738634266, -0.27279186, -0.556501, -0.26245946, 0.7396126, -0.0010762707, -0.07220944, -0.19778538, 0
2185, 1738667600, -0.27378157, -0.55617875, -0.26194602, 0.73967135, -0.017529828, -0.08719866, -0.20270443, 0
2188, 1738717601, -0.27496606, -0.5558871, -0.26115057, 0.7397324, -0.07507706, -0.064891845, -0.15639687, 0
2191, 1738767602, -0.2758466, -0.5557012, -0.26060203, 0.7397378, 0.036804557, -0.082945436, -0.07163048, 0
2194, 1738817603, -0.2767339, -0.5555364, -0.2605462, 0.73954964, -0.04053541, -0.13091043, -0.07955456, 0
2196, 1738850937, -0.27734149, -0.55540174, -0.26062372, 0.73939604, -0.022504374, -0.12337591, -0.08181572, 0
2199, 1738900938, -0.27797344, -0.5550421, -0.26108763, 0.73926497, -0.031299308, -0.080369785, -0.14746952, 0
2204, 1738984273, -0.2786259, -0.5544347, -0.26179713, 0.73922426, -0.08948295, -0.07132835, -0.21103477, 0
2207, 1739034274, -0.27924898, -0.554209, -0.26192063, 0.7391146, -0.046516664, -0.1157392, -0.1729269, 0
2210, 1739084275, -0.27951306, -0.554024, -0.26225153, 0.7390362, -0.03706067, -0.14640965, -0.13979721, 0
2212, 1739117609, -0.27947628, -0.5537549, -0.26251307, 0.7391589, 0.014658, -0.17828874, -0.11433506, 0
2215, 1739167610, -0.2796756, -0.55304295, -0.26318178, 0.73937887, 0.0045134947, -0.117039315, -0.14673805, 0
2218, 1739217611, -0.27965096, -0.55212176, -0.26346797, 0.7399745, 0.019592643, -0.11493489, -0.16486359, 0
2221, 1739267612, -0.27977857, -0.55115056, -0.26313895, 0.74076676, 0.002250014, -0.06589128, -0.1888628, 0
2223, 1739300946, -0.2803529, -0.55049294, -0.26308662, 0.7410572, -0.07217669, 0.049121946, -0.14664364, 0
2226, 1739350947, -0.28088054, -0.5496788, -0.2631096, 0.7414534, -0.14015475, -0.03247403, -0.11890602, 0
2229, 1739400948, -0.28077903, -0.54924303, -0.2634064, 0.74170935, -0.15959102, -0.1254068, -0.08960819, 0
2233, 1739467616, -0.28096634, -0.5488264, -0.26453382, 0.74154556, -0.018244447, -0.057660922, -0.10058308, 0
2235, 1739500950, -0.2810448, -0.548826, -0.26483926, 0.7414071, -0.018748706, -0.09058902, -0.07469845, 0
2238, 1739550951, -0.28137743, -0.5489301, -0.26514685, 0.74109393, -0.010637212, -0.029083673, -0.12415409, 0
2241, 1739600952, -0.28198823, -0.54899627, -0.26568657, 0.74061936, -0.040672254, 0.060065474, -0.24213028, 0
2243, 1739634286, -0.28235042, -0.54882646, -0.26633534, 0.74037397, -0.069234714, -0.012682013, -0.25615597, 0
2246, 1739684287, -0.28281498, -0.5482178, -0.26764965, 0.74017376, -0.062797196, -0.08093645, -0.22078323, 0
2249, 1739734288, -0.28305298, -0.5472143, -0.269167, 0.74027497, -0.068742946, -0.081885874, -0.179286, 0
2252, 1739784289, -0.28373718, -0.54640174, -0.27028197, 0.74020714, -0.029274955, -0.076423995, -0.07427502, 0
2254, 1739817623, -0.283823, -0.54641587, -0.26989418, 0.7403052, -0.06953484, -0.123212576, -0.10564327, 0
2258, 1739884291, -0.28450686, -0.5465262, -0.2691399, 0.7402359, -0.06444588, -0.021034246, -0.097029686, 0
2261, 1739934292, -0.2849116, -0.54651695, -0.2691023, 0.7401006, -0.07011769, -0.033344667, -0.1094656, 0
2264, 1739984293, -0.28526086, -0.5465814, -0.26934272, 0.73983085, -0.12184996, -0.1106093, -0.15680885, 0
2266, 1740017627, -0.2857461, -0.54677963, -0.2693235, 0.7395043, -0.102108106, -0.013866073, -0.14798737, 0
2269, 1740067628, -0.28616643, -0.54741436, -0.26878917, 0.7390663, -0.11625106, -0.05610991, -0.1689272, 0
2272, 1740117629, -0.28639132, -0.54763323, -0.26905617, 0.7387199, -0.06083197, -0.04017394, -0.18983078, 0
2275, 1740167630, -0.28665853, -0.5472272, -0.27033228, 0.7384511, -0.08328181, -0.06940949, -0.1388998, 0
2277, 1740200964, -0.28662163, -0.54696864, -0.27093187, 0.73843735, -0.08059146, -0.08270946, -0.14003277, 0
2280, 1740250965, -0.28691715, -0.54671425, -0.2716964, 0.7382301, -0.05785679, -0.02740252, -0.1027956, 0
2283, 1740300966, -0.286936, -0.5467007, -0.27190703, 0.7381552, -0.10227619, -0.107859306, -0.13982677, 0
2285, 1740334300, -0.2870647, -0.5466146, -0.2720121, 0.7381302, -0.0642404, -0.030370157, -0.13785458, 0
2288, 1740384301, -0.28712142, -0.5465343, -0.27218103, 0.7381053, -0.07232017, 0.020216914, -0.1750269, 0
2291, 1740434302, -0.28688473, -0.54659486, -0.27214998, 0.7381642, -0.049952693, -0.10400281, -0.17141533, 0
2293, 1740467636, -0.28677586, -0.54674387, -0.27199242, 0.7381539, -0.043996803, -0.035770733, -0.15709877, 0
2296, 1740517637, -0.28659332, -0.5471001, -0.2716667, 0.7380808, -0.028839052, -0.031047178, -0.1340847, 0
2299, 1740567638, -0.2861921, -0.5472544, -0.2714177, 0.73821396, -0.022816597, -0.018930038, -0.12690353, 0
2302, 1740617639, -0.28630352, -0.54715335, -0.27155736, 0.73819405, -0.06539486, 0.058714226, -0.133955, 0
2304, 1740650973, -0.28603816, -0.5472036, -0.27151695, 0.73827463, -0.04821131, -0.03531924, -0.13848877, 0
2307, 1740700974, -0.28598332, -0.5471485, -0.27182898, 0.7382219, -0.029815992, -0.012086519, -0.09575462, 0
2310, 1740750975, -0.28589365, -0.5473719, -0.27207312, 0.738001, -0.04498528, -0.049296733, -0.08694267, 0
2315, 1740834310, -0.2858118, -0.5479426, -0.272205, 0.7375605, -0.0412737, -0.0782563, -0.15267086, 0
2318, 1740884311, -0.28589314, -0.54829055, -0.27213237, 0.7372971, -0.0057045044, -0.032272197, -0.20264626, 0
2320, 1740917645, -0.28589654, -0.5485608, -0.27188066, 0.7371877, -0.0075009866, -0.0839033, -0.1793518, 0
2323, 1740967646, -0.2859562, -0.548798, -0.27175927, 0.7370327, -0.0452848, -0.056920312, -0.17216969, 0
2327, 1741034314, -0.28594515, -0.54876345, -0.2720335, 0.7369615, -0.025814975, -0.055837113, -0.109267235, 0
2330, 1741084315, -0.28572753, -0.5486431, -0.27231774, 0.73703057, -0.019789254, -0.059548266, -0.1668253, 0
2333, 1741134316, -0.2857111, -0.5487212, -0.27218977, 0.737026, -0.07253073, -0.10454902, -0.21709824, 0
2335, 1741167650, -0.28574872, -0.5487481, -0.27200276, 0.73706055, -0.07140012, -0.017899197, -0.20863342, 0
2338, 1741217651, -0.285654, -0.5486297, -0.27165487, 0.73731345, -0.035073843, -0.054453343, -0.20323086, 0
2341, 1741267652, -0.28562677, -0.5482222, -0.27185118, 0.7375548, -4.374463E-4, -0.037510782, -0.08254242, 0
2345, 1741334320, -0.28583413, -0.54735047, -0.27251393, 0.73787737, -0.0847575, -0.035611536, -0.11566639, 0
2347, 1741367654, -0.28606224, -0.54725057, -0.2723167, 0.7379359, -0.12707147, -0.09077666, -0.13641834, 0
2350, 1741417655, -0.286442, -0.5476922, -0.27135432, 0.7378154, -0.11475057, -0.10092789, -0.15877342, 0
2353, 1741467656, -0.28651989, -0.5482784, -0.27071106, 0.7375862, -0.051404256, -0.02457525, -0.13922119, 0
2356, 1741517657, -0.28635925, -0.5485159, -0.270801, 0.7374387, -0.06996144, -0.033447653, -0.11362934, 0
2358, 1741550991, -0.28609556, -0.54857814, -0.2710167, 0.73741573, -0.06272845, -0.056692272, -0.18271351, 0
2361, 1741600992, -0.28593445, -0.5486266, -0.27132723, 0.73732793, -0.0561364, -0.015601652, -0.2020855, 0
2364, 1741650993, -0.2859299, -0.548809, -0.27110344, 0.7372762, -0.031936936, -0.025752604, -0.13425541, 0
2366, 1741684327, -0.2860748, -0.548866, -0.27096063, 0.73723006, -0.018911174, -0.055870026, -0.119353294, 0
2369, 1741734328, -0.28637815, -0.5488271, -0.27099344, 0.73712915, -0.04318855, -0.03138692, -0.10719395, 0
2373, 1741800996, -0.28685063, -0.5486582, -0.27113312, 0.7370198, -0.06254028, -0.017667359, -0.15672016, 0
2376, 1741850997, -0.28689194, -0.5486621, -0.27118546, 0.7369815, -0.08503809, -0.015212795, -0.1752119, 0
2379, 1741900998, -0.28690875, -0.54871863, -0.27141437, 0.7368486, -0.09371447, -0.031246273, -0.12496185, 0
2383, 1741967666, -0.287095, -0.54902524, -0.2715747, 0.7364886, -0.059323426, -0.036802974, -0.116680145, 0
2385, 1742001000, -0.28707576, -0.5493016, -0.27144426, 0.73633814, -0.051982816, -0.13194238, -0.14043713, 0
2388, 1742051001, -0.28715652, -0.54961956, -0.27146336, 0.73606205, -0.020708898, -0.08251768, -0.17824364, 0
2391, 1742101002, -0.28698283, -0.5498047, -0.2715516, 0.73595923, -0.06441064, -0.10460954, -0.19523525, 0
2393, 1742134336, -0.28697312, -0.54977214, -0.27165115, 0.73595065, -0.096534215, -0.07278051, -0.21423054, 0
2396, 1742184337, -0.2867974, -0.5498985, -0.27140903, 0.736014, -0.06530026, -0.07948786, -0.17702484, 0
2399, 1742234338, -0.2866372, -0.5499756, -0.27105942, 0.7361474, -0.025536774, -0.064677104, -0.14461899, 0
2401, 1742267672, -0.28651124, -0.5499448, -0.27097723, 0.7362499, -0.04246525, -0.028860888, -0.168643, 0
2404, 1742317673, -0.28624606, -0.5500155, -0.27092332, 0.73632, -0.020471437, -0.06455859, -0.18710804, 0
2407, 1742367674, -0.2860004, -0.5500242, -0.2709, 0.7364176, -0.034638364, -0.092905566, -0.1773138, 0
2410, 1742417675, -0.2858257, -0.54984164, -0.27111065, 0.7365442, 0.03749643, -0.023681253, -0.15688133, 0
2412, 1742451009, -0.28563654, -0.5496353, -0.27121282, 0.736734, 0.013893084, -0.089260735, -0.12334442, 0
2415, 1742501010, -0.28550798, -0.5492344, -0.27115718, 0.7371031, -0.003269572, -0.033257723, -0.16065502, 0
2418, 1742551011, -0.28542992, -0.5490207, -0.27113813, 0.7372995, 0.023175908, -0.016110925, -0.1458683, 0
2420, 1742584345, -0.28525057, -0.5488935, -0.27123073, 0.7374295, -0.04020405, 0.011859598, -0.14523506, 0
2423, 1742634346, -0.28503734, -0.5487829, -0.2712146, 0.7376003, -0.035074003, -0.013722299, -0.15688515, 0
2426, 1742684347, -0.28507483, -0.548689, -0.27101755, 0.73772806, -0.03637064, -0.022500938, -0.15346909, 0
2428, 1742717681, -0.2853001, -0.54857796, -0.27086914, 0.73777795, -0.056231916, -6.155547E-4, -0.19114971, 0
2431, 1742767682, -0.2854543, -0.54853207, -0.2705675, 0.73786324, -0.037183277, -0.016373945, -0.14281273, 0
2434, 1742817683, -0.28583786, -0.54823506, -0.27072296, 0.73787856, -0.025087632, -0.024527976, -0.1420641, 0
2438, 1742884351, -0.28632748, -0.5478644, -0.27085665, 0.7379149, -0.07574158, -0.08333625, -0.117155075, 0
2441, 1742934352, -0.28679734, -0.54777455, -0.27078763, 0.7378245, -0.071722664, -0.014817903, -0.118748665, 0
2443, 1742967686, -0.28711945, -0.54770213, -0.270794, 0.7377506, -0.0681318, -0.015845168, -0.14476681, 0
2446, 1743017687, -0.28722736, -0.54782045, -0.27078253, 0.7376249, -0.07471469, -0.015871208, -0.14119625, 0
2449, 1743067688, -0.2872754, -0.54796165, -0.27105963, 0.7373996, -0.011824828, -0.031723026, -0.13887978, 0
2451, 1743101022, -0.28707522, -0.54821575, -0.27110887, 0.7372705, -0.047401212, -0.07064445, -0.14420795, 0
2455, 1743167690, -0.28712505, -0.5484565, -0.27124825, 0.7370207, -0.041204844, -0.003581907, -0.16428661, 0
2458, 1743217691, -0.28719687, -0.5484697, -0.27139655, 0.7369282, -0.008802624, -0.035218153, -0.21443558, 0
2461, 1743267692, -0.28713983, -0.54845864, -0.27145848, 0.736936, -0.018186387, -0.081472315, -0.23373508, 0
2464, 1743317693, -0.2873244, -0.54821604, -0.2713886, 0.73707014, -0.04180434, -0.023846876, -0.16003036, 0
2466, 1743351027, -0.28760314, -0.5478398, -0.27120146, 0.7373101, -0.08577388, -0.009814175, -0.16894627, 0
2469, 1743401028, -0.2879349, -0.54735696, -0.27065364, 0.73774064, -0.10356319, 0.078549996, -0.12581635, 0
2472, 1743451029, -0.2873031, -0.54742676, -0.26954198, 0.73834187, -0.11790728, -0.068399824, -0.10719967, 0
2474, 1743484363, -0.2872218, -0.5474295, -0.26921356, 0.73849106, -0.11501088, -0.05442613, -0.021944046, 0
2477, 1743534364, -0.2872709, -0.5473361, -0.2696283, 0.73839, -0.09797648, -0.009607257, -0.016508102, 0
2480, 1743584365, -0.28748602, -0.5473711, -0.27056617, 0.7379371, -0.1301543, 0.02980456, -0.16111088, 0
2484, 1743651033, -0.28762707, -0.5482213, -0.27086064, 0.7371426, -0.121292464, 0.017418476, -0.15604115, 0
2486, 1743684367, -0.28763825, -0.5486808, -0.2708846, 0.7367876, -0.104593925, -0.10445431, -0.1693945, 0
2489, 1743734368, -0.28791815, -0.5489808, -0.2714572, 0.73624367, -0.078944705, -0.032592155, -0.21019936, 0
2493, 1743801036, -0.28802174, -0.5490855, -0.27165774, 0.7360511, -0.0615111, -0.07561874, -0.25421047, 0
2496, 1743851037, -0.28792143, -0.5492538, -0.2714675, 0.736035, -0.07323517, -0.058317155, -0.18080044, 0
2499, 1743901038, -0.287814, -0.54912, -0.27144042, 0.7361867, -0.029361056, -0.057227977, -0.13380909, 0
2501, 1743934372, -0.28779626, -0.54897285, -0.27147934, 0.736289, -0.08956977, -0.057482112, -0.13798809, 0
2504, 1743984373, -0.2874998, -0.54899436, -0.2709813, 0.73657227, -0.13691032, -0.09792868, -0.11553764, 0
2507, 1744034374, -0.2870129, -0.54928553, -0.27070066, 0.73664844, -0.07387423, -0.039610576, -0.11421585, 0
2509, 1744067708, -0.2868423, -0.54943454, -0.27081016, 0.7365633, -0.086620145, 0.02294612, -0.1106205, 0
2513, 1744134376, -0.28613913, -0.54999465, -0.27066168, 0.7364733, -0.109022625, -0.010278691, -0.10670662, 0
2516, 1744184377, -0.2857611, -0.5504625, -0.27062804, 0.736283, -0.03817958, 0.02147071, -0.17915916, 0
2519, 1744234378, -0.2854995, -0.5509879, -0.2706477, 0.73598427, -0.049735878, 0.011142009, -0.16637039, 0
2522, 1744284379, -0.28550065, -0.55102146, -0.2712014, 0.7357547, -0.05742003, 0.038124885, -0.1755619, 0
2524, 1744317713, -0.2854609, -0.55101967, -0.27164915, 0.73560625, -0.10085928, -0.013345176, -0.10802841, 0
2528, 1744384381, -0.28564167, -0.5512381, -0.27234456, 0.7351153, -0.1182888, -0.07871053, -0.013180733, 0
2531, 1744434382, -0.2856257, -0.5515219, -0.27324912, 0.7345727, -0.14335848, -0.098040886, 0.12343502, 0
2534, 1744484383, -0.28561968, -0.5519225, -0.27532157, 0.7334995, -0.19240345, 0.0011106918, 0.16114044, 0
2536, 1744517717, -0.28518516, -0.55245, -0.27670595, 0.7327501, -0.17189792, -0.1048958, 0.30610466, 0
2539, 1744567718, -0.28361535, -0.55281806, -0.28067425, 0.7315715, 0.08878241, 0.2303591, 0.9147606, 0
2542, 1744617719, -0.2809189, -0.55208355, -0.29069692, 0.72924906, 0.2582048, 0.17995302, 1.8665457, 0
2547, 1744701054, -0.2782725, -0.55392647, -0.3070743, 0.72211885, -0.18258257, -0.06959618, 1.1749878, 0
2550, 1744751055, -0.28007078, -0.55499035, -0.3176526, 0.7160052, -0.22258863, 0.40299493, 0.9237566, 0
2553, 1744801056, -0.28034198, -0.55349237, -0.33164603, 0.7106941, -0.44744095, 0.19213599, 0.4413309, 0
2555, 1744834390, -0.2831251, -0.55011773, -0.34510672, 0.7057851, -0.5312038, 0.17080805, 0.23066711, 0
2558, 1744884391, -0.29092845, -0.5421282, -0.36965793, 0.6962982, -0.7642542, 0.27240735, 0.5277147, 0
2561, 1744934392, -0.30107817, -0.5306667, -0.39611065, 0.6861936, -0.80125654, 0.1185316, 0.29185104, 0
2563, 1744967726, -0.30972862, -0.52176684, -0.4136302, 0.67879176, -0.7200109, 0.10657075, 0.3755827, 0
2566, 1745017727, -0.3236293, -0.5085605, -0.43809518, 0.6668759, -0.45352086, 0.10305386, -0.13983536, 0
2569, 1745067728, -0.3444365, -0.4943838, -0.46178305, 0.6509416, -0.2756801, 0.46656632, -0.6961088, 0
2572, 1745117729, -0.37076536, -0.47731715, -0.48412883, 0.6327252, -0.25913447, 0.5164741, -1.2291183, 0
2574, 1745151063, -0.38849118, -0.4666909, -0.49619567, 0.62055194, 0.03091672, 0.5783847, -1.3208857, 0
2577, 1745201064, -0.41729802, -0.45132035, -0.51066834, 0.6011744, -0.38804218, 0.17811915, -0.6679821, 0
2580, 1745251065, -0.44856536, -0.43291885, -0.5184287, 0.58533967, 0.031388637, -0.18200251, 0.18556976, 0
2582, 1745284399, -0.47140267, -0.4183228, -0.5199931, 0.57655287, 0.18841706, -0.08482579, -0.72923183, 0
2585, 1745334400, -0.5054486, -0.39654616, -0.5193299, 0.56355107, 0.22183633, -0.020938247, -1.8354969, 0
2588, 1745384401, -0.5376369, -0.37598932, -0.5179437, 0.5489386, 0.3637959, 0.16879357, -1.7089014, 0
2590, 1745417735, -0.55764425, -0.3626727, -0.5184175, 0.53736883, 0.3928893, -0.028575797, -1.2898293, 0
2594, 1745484403, -0.59590834, -0.33547124, -0.5210189, 0.5107956, 0.19795805, -0.18952021, -0.7604475, 0
2599, 1745567738, -0.63842106, -0.30348897, -0.52233404, 0.47697037, 0.057117227, -0.19276674, -0.5891924, 0
2601, 1745601072, -0.6533244, -0.29185468, -0.521736, 0.46454293, 0.24170993, -0.46897286, -0.110458374, 0
2604, 1745651073, -0.67316604, -0.2775039, -0.5186839, 0.44813678, -0.4094734, -0.036326107, -0.45486736, 0
2607, 1745701074, -0.68712556, -0.27097893, -0.5145588, 0.4355213, -0.114983894, -0.43844223, -0.73824215, 0
2609, 1745734408, -0.69312173, -0.27065074, -0.51132244, 0.43000048, -0.13035767, -0.44031549, -0.56065464, 0
2612, 1745784409, -0.6980776, -0.27426383, -0.50638866, 0.42550915, 0.16052599, -0.4912503, -0.5974226, 0
2615, 1745834410, -0.7004291, -0.27765578, -0.50378084, 0.42253008, 0.9463919, -0.50446606, -0.2167244, 0
2617, 1745867744, -0.7020974, -0.27747977, -0.5045381, 0.41895813, 0.32588726, -0.49237502, -0.5665684, 0
2621, 1745934412, -0.70118153, -0.27919304, -0.50821865, 0.41488582, 0.27766222, -0.4974816, 0.08585262, 0
2624, 1745984413, -0.69976383, -0.2810921, -0.5103246, 0.41340923, 0.09539879, -0.10261055, -0.29570866, 0
2628, 1746051081, -0.6951039, -0.28723025, -0.5145652, 0.41179177, 0.18310729, 0.067176595, -0.1621933, 0
2631, 1746101082, -0.6919688, -0.29169595, -0.51832795, 0.4092058, 0.015979277, -0.33016416, 0.20111656, 0
2634, 1746151083, -0.6914724, -0.29373765, -0.5184537, 0.4084245, -0.062411636, -0.35199872, 0.17417622, 0
2636, 1746184417, -0.69128084, -0.29470375, -0.5182483, 0.40831298, 0.07727335, -0.22561733, -0.22135735, 0
2639, 1746234418, -0.69081604, -0.2948278, -0.52020967, 0.40651226, 0.34754553, 0.056207698, -0.36956882, 0
2642, 1746284419, -0.6896528, -0.2939347, -0.5245613, 0.40353128, 0.36115772, 0.14099868, -0.27856827, 0
2644, 1746317753, -0.6885288, -0.29337978, -0.5277636, 0.40167493, 0.12701134, 0.25473392, -0.23060131, 0
2647, 1746367754, -0.68772495, -0.29168218, -0.5319476, 0.39875832, 0.07259522, 0.1460494, -0.028759956, 0
2650, 1746417755, -0.6873812, -0.29068923, -0.5343542, 0.3968537, -0.029190233, -0.03103388, -0.14187813, 0
2653, 1746467756, -0.6868528, -0.29073372, -0.5352855, 0.39648092, -0.075793356, -0.05734024, -0.18978691, 0
2657, 1746534424, -0.6851185, -0.29189482, -0.53725386, 0.39596558, -0.025676833, -0.12280428, -0.066464424, 0
2659, 1746567758, -0.6843998, -0.29222268, -0.5380002, 0.39595366, -0.014066452, -0.13285498, -0.19679737, 0
2662, 1746617759, -0.6827518, -0.2930355, -0.5393598, 0.39634812, 0.18611053, -0.18136758, -0.08942318, 0
2665, 1746667760, -0.68201584, -0.29185593, -0.5415081, 0.3955552, -0.10625828, -0.014615512, -0.07388401, 0
2667, 1746701094, -0.68166625, -0.29136628, -0.5423025, 0.39543062, -0.023805918, -0.14359747, -0.10343361, 0
2670, 1746751095, -0.68089986, -0.29117036, -0.5432356, 0.39561445, 0.12736137, -0.041034073, -0.2237339, 0
2673, 1746801096, -0.68002856, -0.29036826, -0.54513645, 0.39508754, 0.1629254, -0.007888219, -0.19392681, 0
2675, 1746834430, -0.6792463, -0.29001933, -0.54667944, 0.39455724, -0.04015645, 0.06434804, -0.19775486, 0
2678, 1746884431, -0.67777056, -0.29011893, -0.54865193, 0.3942836, -0.055760447, 0.061740313, -0.26436138, 0
2681, 1746934432, -0.67664075, -0.2896214, -0.55045044, 0.39408335, -0.04541493, -0.015300132, -0.14883327, 0
2684, 1746984433, -0.6754597, -0.28955775, -0.55141807, 0.39480287, 0.02268746, 0.016267944, -0.07483387, 0
2686, 1747017767, -0.6748205, -0.28947636, -0.55198157, 0.39516783, -0.087824054, 0.0053696753, -0.11031151, 0
2689, 1747067768, -0.673965, -0.28967917, -0.5523845, 0.3959154, -0.06436939, -0.07759431, -0.13560486, 0
2692, 1747117769, -0.67276585, -0.2901588, -0.5529908, 0.39675656, 0.06519828, -0.11959039, -0.27442074, 0
2694, 1747151103, -0.67198825, -0.28984413, -0.5541688, 0.39666066, 0.11271669, -0.041939076, -0.2298975, 0
2697, 1747201104, -0.6704998, -0.28958234, -0.55632734, 0.39634886, 0.03727112, -0.09181152, -0.1291151, 0
2700, 1747251105, -0.66904044, -0.28961903, -0.557998, 0.39643985, -0.09749434, -0.0071519674, -0.14106369, 0
2702, 1747284439, -0.6681282, -0.29000428, -0.5587704, 0.3966086, -0.026846364, -0.046643578, -0.15224648, 0
2705, 1747334440, -0.6663939, -0.29203394, -0.5592716, 0.39733016, 0.0675645, 0.015104782, -0.23249912, 0
2708, 1747384441, -0.6650504, -0.29357868, -0.5603129, 0.39697528, 0.15065321, 0.21627404, 0.02399826, 0
2711, 1747434442, -0.6638502, -0.29459983, -0.56213945, 0.3956434, 0.11547384, -0.19188163, -0.2838335, 0
2713, 1747467776, -0.66294146, -0.2955811, -0.5625298, 0.39588022, -0.029367702, -0.14149174, -0.21611595, 0
2716, 1747517777, -0.66177225, -0.29614264, -0.563209, 0.39645058, 0.06809803, -0.27355573, -0.12783527, 0
2719, 1747567778, -0.66025555, -0.2961496, -0.5643021, 0.39741904, 0.083604574, -0.17706808, -0.056736946, 0
2721, 1747601112, -0.6594449, -0.29563457, -0.5652585, 0.39778888, -0.07609398, -0.15661977, -0.029751778, 0
2725, 1747667780, -0.65780467, -0.29490423, -0.5665668, 0.3991831, -0.08378026, -0.053722456, -0.1861229, 0
2734, 1747817783, -0.6576128, -0.28832716, -0.5734149, 0.394498, -0.007842176, -0.037242174, -0.1551857, 0
2738, 1747884451, -0.6565508, -0.28856215, -0.5738094, 0.3955202, 0.15227915, -0.019233067, -0.18809128, 0
2740, 1747917785, -0.6560776, -0.28839314, -0.57442015, 0.3955423, 0.11331112, -0.074091636, -0.2585802, 0
2744, 1747984453, -0.654961, -0.28681666, -0.5768018, 0.395073, 0.1874859, -0.06714195, -0.042072296, 0
2747, 1748034454, -0.6541898, -0.28452945, -0.5792799, 0.39437824, 0.03145319, -0.041704837, -0.21026611, 0
2750, 1748084455, -0.6529094, -0.2822832, -0.58242965, 0.39347392, 0.07131952, -0.13739409, -0.16594696, 0
2752, 1748117789, -0.651924, -0.2809301, -0.5843828, 0.39318013, -0.038507596, -0.024624646, -0.16191578, 0
2756, 1748184457, -0.6501088, -0.27856773, -0.58702314, 0.39393252, 0.057681765, -0.022141417, -0.110058784, 0
2761, 1748267792, -0.6483208, -0.2742437, -0.59063315, 0.39451677, 0.028808137, -0.16087356, -0.22152233, 0
2763, 1748301126, -0.64753836, -0.27194077, -0.5925788, 0.39447832, -0.04458424, 0.03423615, -0.29565716, 0
2767, 1748367794, -0.6445837, -0.2688774, -0.59736204, 0.39420295, -0.30450588, 0.16021845, -0.15916348, 0
2771, 1748434462, -0.6416143, -0.26791772, -0.60106766, 0.3940674, -0.32273898, 0.1562598, -0.03704548, 0
2774, 1748484463, -0.6400355, -0.26783168, -0.6032526, 0.39335436, -0.1305072, 0.022935558, 0.04119873, 0
2783, 1748634466, -0.63607717, -0.2719656, -0.60702467, 0.39112926, 0.028096696, 0.012725933, -0.28184223, 0
2789, 1748734468, -0.63169533, -0.27522236, -0.61039215, 0.39071164, 0.02467259, 0.30896845, -0.026162148, 0
2794, 1748817803, -0.6306542, -0.276501, -0.61278963, 0.3877266, -0.14082423, 0.46485788, -0.10939407, 0
2797, 1748867804, -0.631734, -0.27791607, -0.61170053, 0.38667524, 0.050334223, 0.29418707, -0.15029144, 0
2800, 1748917805, -0.634016, -0.27842063, -0.6097957, 0.38558456, 0.0538027, 0.211015, -0.1846981, 0
2804, 1748984473, -0.63768613, -0.27777052, -0.60721576, 0.38406947, 0.07518183, 0.059252724, -0.22973347, 0
2806, 1749017807, -0.6395973, -0.27690792, -0.6061002, 0.38327563, -0.016669149, -0.0033770571, -0.19638062, 0
2810, 1749084475, -0.6426778, -0.27583778, -0.60344344, 0.3830865, 0.02168098, -0.12331881, -0.21966934, 0
2814, 1749151143, -0.6449473, -0.27555668, -0.60129577, 0.38285178, 1.2293212E-6, -0.07691282, -0.12550163, 0
2817, 1749201144, -0.6461792, -0.27634048, -0.5997174, 0.38268504, -0.1082623, 0.040254682, -0.18770123, 0
2821, 1749267812, -0.64779806, -0.27827144, -0.59753084, 0.38196856, -0.04365465, 0.09266814, -0.189991, 0
2824, 1749317813, -0.6494335, -0.27919865, -0.59620565, 0.3805833, -0.05134182, -0.042668175, -0.20836353, 0
2828, 1749384481, -0.6516606, -0.28027773, -0.59373844, 0.37983978, 0.090280235, -0.09200195, -0.20156384, 0
2831, 1749434482, -0.6532719, -0.28066242, -0.5919111, 0.37963963, 0.0062024845, -0.058607556, -0.24657059, 0
2835, 1749501150, -0.65478104, -0.28009433, -0.59080017, 0.3791896, -0.042169407, -0.11540153, -0.23609447, 0
2837, 1749534484, -0.65518713, -0.2797344, -0.5906278, 0.37902227, 0.04853539, -0.19862613, -0.11335659, 0
2840, 1749584485, -0.6556623, -0.27938473, -0.59016544, 0.37917882, 0.07027236, -0.18572205, -0.122571945, 0
2843, 1749634486, -0.6559814, -0.2792656, -0.5894025, 0.37990034, -0.017021742, -0.08181044, -0.16674232, 0
2846, 1749684487, -0.65589935, -0.27932727, -0.5889972, 0.3806246, 0.0178132, -0.04163063, -0.1632452, 0
2848, 1749717821, -0.65588033, -0.2791027, -0.5891816, 0.3805368, -5.034629E-4, -0.11400569, -0.19038486, 0
2851, 1749767822, -0.6555784, -0.27900437, -0.5895864, 0.38050225, -0.06545063, -0.055879135, -0.14549446, 0
2855, 1749834490, -0.65509754, -0.2791097, -0.59014255, 0.38039094, -0.10836221, -0.021124434, -0.11413479, 0
2859, 1749901158, -0.65454936, -0.27909786, -0.59087723, 0.38020283, -0.14913176, -0.035282414, -0.098833084, 0
2862, 1749951159, -0.65406954, -0.27923483, -0.59146476, 0.38001445, -0.029761309, -0.06941128, -0.18002415, 0
2864, 1749984493, -0.6535833, -0.27952754, -0.59194005, 0.37989587, -0.049940504, -0.11123614, -0.14722824, 0
2867, 1750034494, -0.65290165, -0.2799978, -0.59241915, 0.37997472, 0.009479073, -0.029861555, -0.14127064, 0
2870, 1750084495, -0.65233016, -0.28041768, -0.5929091, 0.3798825, 0.12909405, 0.008747179, -0.15154457, 0
2873, 1750134496, -0.6522907, -0.280016, -0.5938258, 0.37881294, 0.03825592, 0.27831185, -0.22996712, 0
2875, 1750167830, -0.6516205, -0.2806953, -0.594311, 0.37870282, 0.09654072, 0.2089104, -0.20322323, 0
2879, 1750234498, -0.6515415, -0.27962506, -0.59665227, 0.37593913, -0.017640201, 0.115669966, -0.3246956, 0
2883, 1750301166, -0.6524521, -0.27733225, -0.59793395, 0.37401676, -0.0222943, -0.029451855, -0.13436604, 0
2886, 1750351167, -0.6530194, -0.27597857, -0.5977677, 0.3742939, -5.8046315E-4, 0.0039762957, -0.12449741, 0
2889, 1750401168, -0.6536316, -0.2747218, -0.59734106, 0.3748304, 3.407455E-4, -0.056586552, -0.20398426, 0
2891, 1750434502, -0.65415835, -0.27369606, -0.59720576, 0.37487766, -0.043810103, -0.06129709, -0.13939476, 0
2894, 1750484503, -0.6544956, -0.27312124, -0.59674793, 0.37543675, 0.042495623, -0.047799364, -0.11154747, 0
2897, 1750534504, -0.6549201, -0.27261862, -0.5966284, 0.3752514, -0.040630966, 0.05496273, -0.13352394, 0
2900, 1750584505, -0.65523267, -0.2724833, -0.5969024, 0.37436742, -0.0418604, 0.038050175, -0.17098045, 0
2902, 1750617839, -0.6554834, -0.27244854, -0.5970919, 0.37365085, -0.026702087, 0.040853698, -0.17214966, 0
2905, 1750667840, -0.65567523, -0.27269107, -0.5971563, 0.37303418, 0.04911999, -0.047667716, -0.17293644, 0
2909, 1750734508, -0.6562369, -0.27235538, -0.59713453, 0.37232608, 0.06910976, -0.014828073, -0.2021389, 0
2912, 1750784509, -0.65632904, -0.2723477, -0.59724367, 0.37199378, 0.15182464, -0.035595108, -0.19773865, 0
2914, 1750817843, -0.6563535, -0.2720637, -0.5975646, 0.37164313, 0.04960099, -0.023951871, -0.16081333, 0
2917, 1750867844, -0.656107, -0.27219516, -0.5976693, 0.37181348, 0.09085109, -0.012349314, -0.14867496, 0
2920, 1750917845, -0.65613735, -0.27189702, -0.59768564, 0.37195158, 0.11058114, -0.056554366, -0.12938404, 0
2923, 1750967846, -0.6562501, -0.27146646, -0.59751755, 0.37233746, 0.06181452, 0.0076910807, -0.19364071, 0
2925, 1751001180, -0.65619355, -0.27135944, -0.5973094, 0.37284875, 0.12178316, -0.035471283, -0.12822723, 0
2928, 1751051181, -0.65605927, -0.27098787, -0.59704334, 0.37378022, 0.075817496, -0.06808965, -0.14361191, 0
2931, 1751101182, -0.6560981, -0.2701375, -0.5969393, 0.37449288, -5.542004E-4, -0.027588427, -0.112672806, 0
2933, 1751134516, -0.6560426, -0.26968235, -0.59690166, 0.37497807, -0.022075815, -0.06400919, -0.18515968, 0
2937, 1751201184, -0.6556306, -0.2690619, -0.5970066, 0.3759758, -0.014402281, -0.031010188, -0.11508083, 0
2940, 1751251185, -0.65534943, -0.26867503, -0.5972142, 0.37641266, -0.11056862, -0.040639795, -0.1465807, 0
2943, 1751301186, -0.6549145, -0.26862696, -0.5974343, 0.3768546, -0.05459829, -0.110406905, -0.14492226, 0
2945, 1751334520, -0.65459305, -0.26863334, -0.59750485, 0.37729657, -0.083929, -0.04852824, -0.1767273, 0
2948, 1751384521, -0.6539744, -0.2687443, -0.5976558, 0.37805042, -0.026658054, -0.007899395, -0.1423645, 0
2951, 1751434522, -0.6535102, -0.26845255, -0.5981512, 0.37827647, -0.003550727, 0.013046898, -0.180336, 0
2954, 1751484523, -0.6530436, -0.26816356, -0.598693, 0.37843037, -0.03399744, 0.082656436, -0.117456436, 0
2956, 1751517857, -0.652938, -0.26776528, -0.5989876, 0.3784284, 0.031423576, 0.09185958, -0.18667507, 0
2959, 1751567858, -0.6527442, -0.26751095, -0.59914005, 0.3787013, 0.066538244, 0.14853956, -0.22648907, 0
2962, 1751617859, -0.6535858, -0.2656292, -0.5996705, 0.37773353, -0.049261026, 0.17318599, -0.19921589, 0
2966, 1751684527, -0.65545756, -0.26316786, -0.5990702, 0.37716505, -0.051504537, 0.02509827, -0.086750984, 0
2968, 1751717861, -0.6565778, -0.26206014, -0.5981181, 0.37749863, 0.049498174, -0.08772995, -0.16114616, 0
2971, 1751767862, -0.65833145, -0.2602359, -0.59660935, 0.3780933, 0.007397273, -0.106356405, -0.18133259, 0
2975, 1751834530, -0.6597891, -0.2584287, -0.59530616, 0.37884557, -0.02558184, -0.15657283, -0.12660503, 0
2978, 1751884531, -0.6606816, -0.2568854, -0.594875, 0.3790173, -0.07289395, -0.10203657, -0.16031551, 0
2981, 1751934532, -0.6612053, -0.2557965, -0.59478414, 0.3789829, -0.12568077, -0.11047117, -0.118658066, 0
2983, 1751967866, -0.6613759, -0.2554162, -0.5947361, 0.3790171, -0.09288349, -0.07564438, -0.08020878, 0
2986, 1752017867, -0.6617354, -0.25517905, -0.5945145, 0.37889692, -0.15408078, -0.022818325, -0.123301506, 0
2989, 1752067868, -0.661776, -0.2555089, -0.5943493, 0.3788631, -0.015016494, -0.02918565, -0.17580605, 0
2991, 1752101202, -0.66165805, -0.2557981, -0.5944453, 0.3787232, 0.011968224, 0.009140562, -0.19948006, 0
2994, 1752151203, -0.66152513, -0.255929, -0.5946901, 0.3784827, 0.0042048376, 0.016240228, -0.15536499, 0
2997, 1752201204, -0.6614021, -0.25611016, -0.5946589, 0.3786239, 0.06299657, 0.035164624, -0.16992855, 0
2999, 1752234538, -0.66150326, -0.25583842, -0.59475315, 0.3784827, 0.009115641, 0.024509089, -0.2007618, 0
3002, 1752284539, -0.66168106, -0.2554433, -0.5947491, 0.37844515, 0.07340299, 0.02688168, -0.14538765, 0
3005, 1752334540, -0.66223246, -0.25448138, -0.5946934, 0.37821645, 0.0082899835, 0.05708029, -0.21084595, 0
3008, 1752384541, -0.66277015, -0.25338694, -0.594622, 0.3781214, 0.045717563, 0.09433565, -0.11965275, 0
3010, 1752417875, -0.6632602, -0.25239074, -0.59464276, 0.3778959, -0.007998635, 0.025508417, -0.11183262, 0
3013, 1752467876, -0.66392666, -0.25147718, -0.5941784, 0.37806517, -0.03009926, -0.002726858, -0.17779827, 0
3016, 1752517877, -0.66473126, -0.25093478, -0.59348, 0.37810844, -0.0744725, -0.006925549, -0.14915562, 0
3020, 1752584545, -0.6657696, -0.2506562, -0.59236836, 0.37820983, -0.083874576, -0.068498224, -0.13202381, 0
3024, 1752651213, -0.66665995, -0.25074577, -0.59123796, 0.3783505, -0.038139917, -0.11282152, -0.18086243, 0
3026, 1752684547, -0.6669805, -0.25079724, -0.59098387, 0.37814862, -0.08393828, -0.11170373, -0.14340878, 0
3029, 1752734548, -0.6671145, -0.25103316, -0.59085846, 0.37795144, -0.016953457, -0.08686697, -0.1642456, 0
3032, 1752784549, -0.66693187, -0.25164735, -0.59105855, 0.37755245, 0.0086579975, -0.06377607, -0.15221214, 0
3035, 1752834550, -0.6667781, -0.25203896, -0.59161305, 0.37669337, 0.015378585, -0.03583248, -0.0632391, 0
3037, 1752867884, -0.666769, -0.25241268, -0.59178966, 0.3761813, -0.025503052, -0.04861943, -0.20500183, 0
3040, 1752917885, -0.6666882, -0.25315946, -0.591795, 0.37581405, 0.14343005, 0.035916746, -0.18146801, 0
3043, 1752967886, -0.66658664, -0.25352234, -0.5921129, 0.37524837, 0.11887313, 0.018285371, -0.21338844, 0
3045, 1753001220, -0.6666504, -0.25338387, -0.5922725, 0.37497693, 0.16145414, -0.055739213, -0.11970806, 0
3049, 1753067888, -0.66701376, -0.25289297, -0.59212464, 0.37489545, 0.08123902, -0.036924116, -0.16392231, 0
3052, 1753117889, -0.66748375, -0.25192666, -0.59221655, 0.37456438, -0.003587271, -0.049346745, -0.14942741, 0
3055, 1753167890, -0.667908, -0.2507558, -0.5924791, 0.3741783, 0.01052813, -0.10003568, -0.16559029, 0
3057, 1753201224, -0.6679529, -0.25050282, -0.59242874, 0.37434748, -0.03737271, -0.0797559, -0.19075203, 0
3060, 1753251225, -0.6678586, -0.25029245, -0.59238195, 0.3747304, -0.050309747, -0.034352377, -0.14710808, 0
3064, 1753317893, -0.6673298, -0.25077397, -0.5922316, 0.37558722, 0.04622326, -0.044268083, -0.22564125, 0
3068, 1753384561, -0.6663834, -0.25139177, -0.59307575, 0.3755225, -0.0647431, -0.015549126, -0.16480446, 0
3071, 1753434562, -0.665678, -0.252326, -0.59325504, 0.37586352, -0.057299446, -0.089890875, -0.036932945, 0
3075, 1753501230, -0.66545737, -0.2532352, -0.592435, 0.3769345, 0.046346642, -0.036625728, -0.15046501, 0
3078, 1753551231, -0.6654322, -0.25331026, -0.5921552, 0.3773679, 0.0451162, -0.031392843, -0.2830372, 0
3082, 1753617899, -0.66515183, -0.25263864, -0.5927328, 0.37740576, 0.032434635, 0.049790863, -0.1296997, 0
3084, 1753651233, -0.6652589, -0.2516253, -0.59326077, 0.3770643, 0.012007452, 0.06259301, -0.10228443, 0
3087, 1753701234, -0.6653608, -0.25079095, -0.5938281, 0.37654704, -0.13708116, 0.10888422, -0.20277596, 0
3090, 1753751235, -0.6656977, -0.25039417, -0.5940441, 0.3758741, -0.03281997, -0.05173297, -0.20245457, 0
3093, 1753801236, -0.6660708, -0.24984992, -0.5938947, 0.37581146, 0.054246705, -0.09173888, -0.09831715, 0
3095, 1753834570, -0.66634077, -0.24948913, -0.5936869, 0.37590075, -0.039987475, -0.07143385, -0.18154049, 0
3098, 1753884571, -0.6671468, -0.247921, -0.5939933, 0.37502366, -0.07028499, -0.025902245, -0.22840023, 0
3101, 1753934572, -0.66767335, -0.24594231, -0.5955881, 0.37285393, -0.030071769, -0.11224731, -0.21688747, 0
3103, 1753967906, -0.6676321, -0.2449317, -0.5968889, 0.37151045, -0.021359904, -0.033869587, -0.090239525, 0
3106, 1754017907, -0.6672565, -0.24447423, -0.5978976, 0.3708642, -0.11932619, 0.023464391, -0.09038544, 0
3110, 1754084575, -0.6668805, -0.24500717, -0.59795964, 0.37108856, 0.02888022, -0.07381493, -0.15793419, 0
3113, 1754134576, -0.6662483, -0.24652217, -0.5975181, 0.37193096, 0.030159274, 0.024555804, -0.24498463, 0
3116, 1754184577, -0.6656137, -0.24748038, -0.5977731, 0.37202105, 0.036878854, -0.06376713, -0.15906715, 0
3120, 1754251245, -0.66461205, -0.24827372, -0.5985764, 0.37199146, 0.059259206, -0.08788909, -0.047169685, 0
3124, 1754317913, -0.66405845, -0.24866812, -0.5990623, 0.3719346, -0.030008737, -0.015515375, -0.19053555, 0
3126, 1754351247, -0.6637566, -0.2489581, -0.59918857, 0.37207597, 0.04877008, -0.058965847, -0.16558933, 0
3129, 1754401248, -0.6633755, -0.24907689, -0.59949476, 0.37218314, 0.14631002, -0.058356103, -0.15088558, 0
3132, 1754451249, -0.66327167, -0.24839051, -0.60016507, 0.37174645, 0.04280821, -0.04805506, -0.18484688, 0
3134, 1754484583, -0.6632607, -0.24787462, -0.60030967, 0.37187654, 0.07012026, -0.06964909, -0.15227604, 0
3137, 1754534584, -0.66332626, -0.24678405, -0.6004051, 0.37233067, -0.015052703, 0.040693663, -0.19652748, 0
3140, 1754584585, -0.6630579, -0.24630456, -0.6004303, 0.37308475, 0.013628144, 0.0042015966, -0.10926151, 0
3143, 1754634586, -0.6630367, -0.24559805, -0.6005119, 0.37345672, -0.06890211, 0.00580709, -0.13345623, 0
3145, 1754667920, -0.66296613, -0.24552625, -0.60044944, 0.3737292, -0.06202887, 0.013017395, -0.19536495, 0
3148, 1754717921, -0.66288865, -0.2452561, -0.60053164, 0.37391213, 0.010284279, -0.050451793, -0.1370678, 0
3151, 1754767922, -0.6627661, -0.24504624, -0.6004866, 0.3743391, 0.042852126, -0.055481058, -0.1327858, 0
3153, 1754801256, -0.6628344, -0.24468228, -0.6005163, 0.3744086, -0.07821243, -0.014124454, -0.15925694, 0
3156, 1754851257, -0.66273373, -0.24435097, -0.6005909, 0.37468365, -0.0014300359, -0.043076534, -0.18884945, 0
3159, 1754901258, -0.66267514, -0.24373622, -0.600922, 0.3746569, -0.01066492, -0.036077898, -0.17940235, 0
3161, 1754934592, -0.6627393, -0.24319267, -0.6011909, 0.3744649, -0.08159765, -0.012073723, -0.15344906, 0
3164, 1754984593, -0.6627864, -0.24252918, -0.6016058, 0.3741454, -0.06783741, -0.031604063, -0.086099625, 0
3168, 1755051261, -0.6630337, -0.2421524, -0.60148335, 0.37414783, -0.027391847, -0.016973797, -0.17921162, 0
3171, 1755101262, -0.6632191, -0.2417926, -0.6015178, 0.37399656, 0.042061675, -0.09261908, -0.20789719, 0
3175, 1755167930, -0.66320395, -0.24121922, -0.60190547, 0.37377024, 0.04912055, -0.051234532, -0.18470478, 0
3178, 1755217931, -0.66302246, -0.24099673, -0.6022601, 0.37366432, 0.12226907, -0.045133747, -0.100419044, 0
3180, 1755251265, -0.66315544, -0.24049392, -0.6025921, 0.37321687, -0.06040158, -0.018362483, -0.16940689, 0
3183, 1755301266, -0.6629892, -0.24045083, -0.60265833, 0.37343267, 0.013281587, 6.504227E-4, -0.09907818, 0
3186, 1755351267, -0.66288173, -0.2405309, -0.60260165, 0.3736636, -0.019564088, 0.02337141, -0.20607471, 0
3188, 1755384601, -0.66280603, -0.24066709, -0.60254073, 0.3738082, -0.010011368, 0.029733928, -0.11180878, 0
