sep=									
DeviceTag:	Xsens_1								
FirmwareVersion:	2.4.0								
AppVersion:	2022.0.1								
SyncStatus:	Synced								
OutputRate:	60Hz								
FilterProfile:	General								
Measurement Mode:	Sensor fusion Mode - Extended (Quaternion)								
StartTime:	2020-11-25 11:23:35.414 +0100								
© Xsens Technologies B. V. 2005-2020									
PacketCounter	SampleTimeFine	Quat_W	Quat_X	Quat_Y	Quat_Z	FreeAcc_X	FreeAcc_Y	FreeAcc_Z	Status
1	2979875757	0	0	-0.707106781	-0.707106781	0.19670838	-0.11237526	-0.17571114	0
2	2979892424	0.001230188	-0.000812397	-0.708105453	-0.706105158	0.261885015	-0.2620035	-0.191818503	0
3	2979909091	0.002292968	-0.001714257	-0.709521969	-0.704677501	0.215586345	-0.206803987	-0.155392196	0
4	2979925758	0.00266639	-0.00308139	-0.711484372	-0.702690105	0.311068496	-0.204645851	0.088309906	0
5	2979942425	0.003549741	-0.004093062	-0.713421544	-0.700714169	0.404825595	-0.042650311	-0.153175739	0
6	2979959092	0.00411454	-0.005193693	-0.715508722	-0.698572376	0.574952784	-0.033082391	-0.26785728	0
7	2979975759	0.004201733	-0.006366672	-0.717834736	-0.696171748	0.701630536	0.084489163	-0.195900126	0
8	2979992426	0.004092732	-0.007677836	-0.720447935	-0.69345445	0.719697528	0.293160645	-0.176794195	0
9	2980009093	0.004540569	-0.008778015	-0.723217244	-0.690549888	0.604276399	0.190958274	-0.071334503	0
10	2980025760	0.005529173	-0.009743819	-0.726039567	-0.687561658	0.575603186	0.050172119	-0.051177019	0
11	2980042427	0.006743761	-0.010634266	-0.728945516	-0.684455893	0.590346473	-0.099092417	0.021976746	0
12	2980059094	0.007934246	-0.011492397	-0.731928381	-0.681238444	0.632725788	-0.136005046	0.05848656	0
13	2980075761	0.009047634	-0.012283965	-0.734964338	-0.677934116	0.567118794	-0.086609349	0.131125805	0
14	2980092428	0.010223842	-0.012926933	-0.737979708	-0.674621611	0.611827251	-0.067469353	0.165690034	0
15	2980109095	0.011432908	-0.013634347	-0.74093089	-0.671345521	0.672703967	-0.010831104	0.126874699	0
16	2980125762	0.012568277	-0.01436884	-0.743806849	-0.668121954	0.751570713	-0.013591192	0.135795166	0
17	2980142429	0.013663555	-0.014954256	-0.746646549	-0.664912482	0.828426622	0.164525248	0.121721707	0
20	2980192430	0.017569447	-0.015632583	-0.755173618	-0.65510285	0.718785888	0.270135998	0.217424994	0
23	2980242431	0.022800968	-0.016075302	-0.762188498	-0.646753736	0.915983193	0.071143539	0.011482601	0
25	2980275765	0.026472423	-0.015950803	-0.765484176	-0.642712034	0.938445101	0.06912277	0.003322891	0
28	2980325766	0.030632749	-0.01550944	-0.768814556	-0.638549349	0.67068839	0.03605969	-0.224759665	0
31	2980375767	0.031875158	-0.014262833	-0.770757937	-0.636170377	0.486031843	-0.153849168	-0.062673159	0
33	2980409101	0.032052672	-0.013763864	-0.771019777	-0.635855082	0.152726771	-0.231063447	-0.192654069	0
36	2980459102	0.032290886	-0.014078692	-0.770175437	-0.636858607	-0.1410744	-0.240327045	-0.232439972	0
39	2980509103	0.030492089	-0.014144127	-0.767983734	-0.63958671	-0.400765644	0.286812107	-0.321088081	0
42	2980559104	0.025688019	-0.011848292	-0.76485894	-0.643576371	-0.486080153	0.503044923	-0.022863001	0
44	2980592438	0.022086247	-0.010467633	-0.762412127	-0.646630014	-0.973390064	0.608685712	-0.204865458	0
47	2980642439	0.01941219	-0.009105717	-0.75784719	-0.652079665	-0.580498759	0.609545054	-0.124410065	0
50	2980692440	0.020992425	-0.008557544	-0.752640342	-0.658041489	-0.656628499	-0.152685508	-0.053052679	0
52	2980725774	0.024068905	-0.008315446	-0.748884058	-0.662211604	-0.62484799	-0.231045455	-0.162296407	0
55	2980775775	0.029471586	-0.007822809	-0.742318304	-0.669353244	-0.691876798	-0.36573098	-0.205484069	0
58	2980825776	0.035019069	-0.007626196	-0.735100032	-0.677010671	-0.722579435	-0.194605561	-0.28049507	0
60	2980859110	0.038770525	-0.00778663	-0.730396068	-0.68187814	-0.710640254	-0.530270388	-0.104247135	0
63	2980909111	0.043205177	-0.007701968	-0.724363582	-0.688019908	-0.648355576	0.354816689	0.121572566	0
66	2980959112	0.048290287	-0.005757446	-0.719199542	-0.693099501	-0.193220451	0.109361806	-0.201682706	0
69	2981009113	0.053691638	-0.002042141	-0.71499971	-0.697056994	-0.001235609	0.58909015	0.139791997	0
71	2981042447	0.055935747	0.001359176	-0.712553822	-0.699382868	0.014115043	0.465916384	-0.331774454	0
74	2981092448	0.06159222	0.007412516	-0.709278411	-0.702193413	-0.412074486	0.082864961	-0.218265666	0
77	2981142449	0.069672004	0.012847773	-0.706088628	-0.704570505	-0.534101634	-0.044021462	-0.091470157	0
79	2981175783	0.074978686	0.015847588	-0.704013354	-0.706039835	-0.531514973	-0.097903264	0.177197499	0
82	2981225784	0.080623101	0.020343584	-0.701803959	-0.707500712	-0.153732785	-0.139132742	0.106615605	0
85	2981275785	0.085352589	0.024650429	-0.701367133	-0.707242135	-0.145813659	-0.117740584	0.17518125	0
87	2981309119	0.088020775	0.026027078	-0.702699292	-0.70554138	-0.222202674	-0.076784252	-0.26928542	0
90	2981359120	0.09110675	0.02741617	-0.706187093	-0.701603666	-0.241867864	-0.060707875	-0.020130038	0
93	2981409121	0.094117615	0.027179352	-0.71065719	-0.69668466	0.074877477	-0.19194713	-0.208496733	0
96	2981459122	0.095969951	0.026248893	-0.714591728	-0.692430087	-0.045246791	0.119814808	-0.004432211	0
100	2981525790	0.096782883	0.026950899	-0.719596703	-0.687086099	0.090292862	0.427901931	-0.027927547	0
102	2981559124	0.097496492	0.027113708	-0.72164993	-0.684821626	0.142128916	0.122448422	-0.190951922	0
105	2981609125	0.098189543	0.026498253	-0.72408171	-0.682174709	-0.100657192	-0.053645964	-0.005714278	0
108	2981659126	0.099155538	0.027060013	-0.726613639	-0.679314768	-0.147434991	0.700313417	0.011600698	0
110	2981692460	0.102013826	0.027678058	-0.728921813	-0.676387533	-0.223892005	0.397891592	0.068367559	0
113	2981742461	0.10758161	0.02933085	-0.731842224	-0.672289266	0.164982303	-0.276315909	-0.414699975	0
116	2981792462	0.10889445	0.031252642	-0.733623233	-0.670046433	0.281764643	-0.278342635	-0.396488747	0
118	2981825796	0.107812363	0.031872852	-0.734897297	-0.668794871	-0.280642587	-0.08301101	-0.173472435	0
121	2981875797	0.10602449	0.032179725	-0.736435362	-0.667372633	0.081929394	0.592267164	0.410310344	0
124	2981925798	0.106814524	0.033856909	-0.737759477	-0.665699122	-0.20801761	0.398538011	0.253416094	0
128	2981992466	0.11046858	0.03662635	-0.741664059	-0.660597931	0.034663421	0.468844814	0.002780454	0
131	2982042467	0.113011634	0.036941881	-0.744118805	-0.657381831	0.014510667	-0.513724584	-0.019461681	0
133	2982075801	0.114532466	0.037743918	-0.744448418	-0.656699524	-0.127665061	-0.474004393	0.253287229	0
136	2982125802	0.114632056	0.03951716	-0.743476317	-0.65767838	-0.386236624	-0.15179173	0.426548471	0
139	2982175803	0.114000572	0.041421962	-0.740744608	-0.660746182	-0.581576141	0.341252347	0.383935867	0
141	2982209137	0.11547506	0.042278923	-0.738069319	-0.66342421	-0.635367565	0.517092293	0.181084436	0
144	2982259138	0.120625816	0.045660894	-0.733699253	-0.667120605	-0.56962605	0.058404882	-0.143512807	0
147	2982309139	0.124524685	0.051161102	-0.729655033	-0.670432456	-0.620069197	-0.356945728	-0.100175753	0
150	2982359140	0.125738979	0.05624109	-0.727423509	-0.672221457	-0.694038812	-0.647334021	-0.038972583	0
152	2982392474	0.12499293	0.059170637	-0.726461671	-0.673148604	-0.824034258	-0.576192444	-0.374847776	0
156	2982459142	0.121756484	0.063699783	-0.723997163	-0.675977665	-0.667509904	-0.05311821	-0.230129924	0
159	2982509143	0.118603311	0.062487836	-0.723396544	-0.677293117	-0.399698724	0.297906914	-0.446658052	0
162	2982559144	0.112710597	0.058882779	-0.724457753	-0.677488084	0.180669646	-0.209450125	-0.569621214	0
164	2982592478	0.107678312	0.056242516	-0.725259051	-0.677673571	0.35434371	-0.027457453	-0.464863507	0
167	2982642479	0.098986717	0.052717271	-0.726638524	-0.677804526	0.74546811	-0.012798857	-0.504901356	0
170	2982692480	0.089311905	0.050668518	-0.726588523	-0.679356463	0.77593249	0.220748832	-0.057821024	0
173	2982742481	0.080450059	0.047980171	-0.725130678	-0.682210518	0.755162096	0.693190206	-0.403090116	0
175	2982775815	0.075224807	0.045375027	-0.723886116	-0.684303461	0.47655996	0.55574091	-0.536569126	0
178	2982825816	0.070457961	0.043130049	-0.722361174	-0.686563769	0.293769573	0.366348294	-0.345160779	0
181	2982875817	0.069495852	0.044108479	-0.721753061	-0.687238887	0.419205988	0.063497854	-0.352405297	0
183	2982909151	0.069436541	0.04558551	-0.721888371	-0.687006337	0.531805349	0.359452514	-0.264395705	0
186	2982959152	0.069650181	0.048620658	-0.723743607	-0.684821199	0.849482468	-0.029649595	0.218105325	0
189	2983009153	0.070456236	0.049934374	-0.726901347	-0.68129062	0.764570959	0.010617559	0.380985861	0
191	2983042487	0.071944709	0.049621257	-0.728736099	-0.679194661	0.627974542	0.11407199	0.210982725	0
194	2983092488	0.075890569	0.049241975	-0.729960679	-0.67747565	0.945661662	0.118422151	0.371032393	0
197	2983142489	0.07918225	0.051012482	-0.729774762	-0.677168144	0.422541529	0.80553483	0.139542948	0
200	2983192490	0.082891497	0.055918558	-0.728056491	-0.678185713	0.249039585	0.042814869	0.253416645	0
202	2983225824	0.085863116	0.058834519	-0.726759702	-0.678959764	-0.141769753	0.2923327	0.099946333	0
205	2983275825	0.089873887	0.061635947	-0.725019398	-0.680051885	-0.359116753	-0.088001213	-0.101737169	0
208	2983325826	0.091758039	0.059927297	-0.724755888	-0.680233845	-0.488900662	-0.370730178	0.104273907	0
210	2983359160	0.09165676	0.057313396	-0.725486365	-0.679693863	-0.699761726	-0.21549749	0.117287628	0
213	2983409161	0.089694107	0.0534087	-0.726573623	-0.679112103	-0.460211958	0.556209	0.250110977	0
216	2983459162	0.088584656	0.050397937	-0.726541709	-0.679521855	-0.245405039	0.45115671	0.197437863	0
218	2983492496	0.089608071	0.049381158	-0.725676548	-0.680386245	-0.044341317	0.061624594	0.210360245	0
221	2983542497	0.090968374	0.049297907	-0.723372651	-0.682661321	-0.183669839	-0.027097607	0.089598334	0
224	2983592498	0.091228251	0.049872396	-0.720414361	-0.685706423	-0.403243904	0.344537241	-0.028670646	0
227	2983642499	0.091736085	0.050177207	-0.717748392	-0.688406845	-0.414612348	0.11439887	-0.040488658	0
229	2983675833	0.09253253	0.050157137	-0.716694146	-0.689399372	-0.301687163	-0.109701366	0.081074934	0
232	2983725834	0.092755092	0.049331337	-0.716526139	-0.689603658	-0.147533239	-0.171357227	0.30985875	0
236	2983792502	0.092212513	0.04629383	-0.717406344	-0.688971604	-0.00132306	-0.071969675	0.222357698	0
239	2983842503	0.092269123	0.043821872	-0.71860348	-0.687877235	-0.045693001	-0.058472115	0.075445315	0
241	2983875837	0.092114851	0.042535868	-0.719441191	-0.687102559	-0.065524472	-0.045981742	0.175870192	0
244	2983925838	0.091509813	0.040846445	-0.72102527	-0.685623864	-0.168267621	0.143575549	0.020115971	0
247	2983975839	0.089078076	0.037071859	-0.722780791	-0.684308923	-0.121078161	0.561794427	-0.000208563	0
249	2984009173	0.086984551	0.034357409	-0.723795598	-0.683646976	0.086930431	0.480313568	0.15931555	0
252	2984059174	0.085150816	0.032455786	-0.725081852	-0.682606965	0.237130503	-0.192663869	0.409158536	0
255	2984109175	0.084535154	0.032623906	-0.725591756	-0.682133485	0.170293624	-0.600275291	0.139254789	0
258	2984159176	0.081336518	0.031576064	-0.726024167	-0.682111598	-0.035448405	-0.590910241	-0.244486052	0
260	2984192510	0.077544372	0.0291769	-0.726390208	-0.68227036	-0.150131742	-0.435038898	-0.561290547	0
264	2984259178	0.065268152	0.018303689	-0.72800875	-0.682208401	-0.325262756	-0.20799097	-0.70339599	0
267	2984309179	0.052280989	0.007413988	-0.72922545	-0.682233079	-0.036792639	0.1923599	-0.432090115	0
270	2984359180	0.03939753	-0.002996836	-0.729005875	-0.683366144	0.805975767	-0.443164633	-0.067791359	0
272	2984392514	0.031994616	-0.009359827	-0.728755751	-0.683961837	1.154011924	0.857055798	0.313415361	0
275	2984442515	0.022285464	-0.020400688	-0.730759083	-0.681966518	0.927926169	1.215888491	0.06857036	0
278	2984492516	0.019282936	-0.029663201	-0.732363769	-0.679993804	0.785408797	0.755406675	0.156438821	0
281	2984542517	0.021941365	-0.034926754	-0.732016568	-0.680037089	0.764257381	-0.128802719	-0.25915965	0
283	2984575851	0.023736892	-0.036833363	-0.731651307	-0.680269232	0.888136617	-0.592376081	-0.066743682	0
286	2984625852	0.02333657	-0.03954994	-0.732307051	-0.679424454	0.889559234	-0.452444374	0.151392567	0
289	2984675853	0.019327715	-0.044213255	-0.736208767	-0.675032057	-0.18560544	0.706068228	0.095451052	0
293	2984742521	0.012869764	-0.055050847	-0.743117243	-0.666768728	-0.605680323	0.969890911	0.454928792	0
295	2984775855	0.011208032	-0.058788373	-0.74585952	-0.663409288	-1.252883416	0.662184677	0.268182701	0
298	2984825856	0.010687605	-0.062850852	-0.747795107	-0.660861576	-1.240589385	0.452353962	0.060127345	0
301	2984875857	0.01081607	-0.062858469	-0.746937389	-0.661828046	-1.456744089	0.225174226	0.052315279	0
303	2984909191	0.010499019	-0.06129639	-0.746645915	-0.662308388	-1.432580695	-0.053953077	0.219874183	0
306	2984959192	0.01219116	-0.057559044	-0.746461122	-0.662822847	-1.562617822	-0.301251895	0.158967442	0
309	2985009193	0.014853593	-0.05322238	-0.746379988	-0.663222182	-1.400749992	-0.394223994	-0.000700577	0
312	2985059194	0.017174473	-0.047014755	-0.744738981	-0.665476146	-1.141135738	0.263865165	-0.264344747	0
314	2985092528	0.017139424	-0.042764895	-0.743204526	-0.667476169	-1.036487052	0.70298013	-0.116849139	0
317	2985142529	0.015180672	-0.038323351	-0.741208597	-0.670007973	-0.256946675	1.007062225	-0.245667459	0
320	2985192530	0.012771748	-0.034341403	-0.739426886	-0.672239117	0.484148295	-0.167566489	-0.007513477	0
322	2985225864	0.010969025	-0.031222927	-0.73812699	-0.673849654	0.656012585	-0.329710644	-0.179153329	0
325	2985275865	0.008792422	-0.026105955	-0.734819482	-0.677703107	1.380375678	0.53558801	-0.120025548	0
328	2985325866	0.01102866	-0.021606539	-0.731521776	-0.681386394	1.518398896	0.576955801	0.251130542	0
330	2985359200	0.015113753	-0.019548972	-0.73035491	-0.682620772	1.405618922	0.34765812	0.064966688	0
333	2985409201	0.021834802	-0.015712321	-0.730957489	-0.681892597	1.199437992	-0.443045306	-0.150221201	0
336	2985459202	0.030021393	-0.009912819	-0.733889923	-0.678532264	0.83851803	-0.804298604	0.084766245	0
339	2985509203	0.035919001	-0.004939404	-0.737791495	-0.674054255	0.328511686	0.130354958	-0.170168887	0
341	2985542537	0.037778053	-0.002962026	-0.740843163	-0.67060827	0.378037839	0.505090467	0.104725073	0
344	2985592538	0.041554535	0.000300657	-0.74432255	-0.666526122	0.144595025	-0.071941773	0.19352385	0
347	2985642539	0.046580161	0.003919652	-0.745787388	-0.664542021	0.173817719	-0.165996726	-0.042598729	0
349	2985675873	0.048731382	0.006983385	-0.746028147	-0.664092229	0.065542618	-0.001702281	-0.065932083	0
352	2985725874	0.050608323	0.013026201	-0.745707754	-0.664220642	0.075125603	0.118591603	-0.007976122	0
355	2985775875	0.052349091	0.019767998	-0.744365949	-0.665423273	0.035811237	0.153968866	-0.138478852	0
357	2985809209	0.053944993	0.024528821	-0.742955412	-0.66671248	-0.045779138	-0.001462262	-0.177815967	0
360	2985859210	0.055872282	0.030922625	-0.740117473	-0.669438724	-0.117626236	-0.032556265	-0.119084887	0
363	2985909211	0.057113651	0.035930676	-0.737442753	-0.672030657	-0.251783176	-0.004097822	-0.010208131	0
366	2985959212	0.05829246	0.038684403	-0.735609046	-0.673783969	-0.344754879	-0.050904902	0.024314624	0
368	2985992546	0.059539301	0.039407214	-0.734614378	-0.674717614	-0.286051678	0.001061702	-0.033852947	0
372	2986059214	0.060908945	0.03917777	-0.732927969	-0.676440533	-0.199163708	0.138763952	-0.071656936	0
375	2986109215	0.061788365	0.038955792	-0.731970238	-0.677409931	-0.096024961	0.067219631	0.081037342	0
378	2986159216	0.06206018	0.038605826	-0.731660938	-0.67773918	-0.186687167	0.05730257	-0.010482233	0
380	2986192550	0.06218376	0.038229559	-0.731443332	-0.677984021	-0.143901675	0.006545759	0.07570308	0
383	2986242551	0.062206212	0.036964669	-0.730864137	-0.678676369	-0.106152966	0.070297053	0.073952742	0
386	2986292552	0.062045719	0.035547988	-0.730519875	-0.679137233	-0.0783534	0.069115102	0.090453157	0
389	2986342553	0.061101095	0.03386115	-0.73028379	-0.679562848	-0.134642138	0.16907203	0.107762034	0
391	2986375887	0.0603325	0.032837541	-0.730096356	-0.679883075	-0.174916305	0.04612658	0.128299977	0
394	2986425888	0.058124488	0.030875729	-0.729735402	-0.680554536	-0.467527358	0.072897445	0.106729872	0
397	2986475889	0.054100759	0.027802113	-0.728399687	-0.682447101	-0.626419891	-0.233077392	-0.012287501	0
401	2986542557	0.046261772	0.022141474	-0.724784376	-0.687064198	0.250068448	0.227230885	0.136326769	0
403	2986575891	0.042454195	0.018591603	-0.722816743	-0.689483828	0.766136909	-0.213955113	0.476594187	0
406	2986625892	0.03905057	0.01216376	-0.720395155	-0.692356784	1.808996293	-0.391298406	1.268800055	0
409	2986675893	0.036436088	0.005494563	-0.721927931	-0.690986457	1.787119295	0.400524386	0.585573272	0
411	2986709227	0.035762771	0.001820968	-0.725413899	-0.687380814	1.579664843	0.125920061	0.101869158	0
414	2986759228	0.038314737	-0.002273362	-0.730501328	-0.681831814	0.270508274	1.132176992	0.036654379	0
417	2986809229	0.039158149	-0.006025402	-0.7352841	-0.676600049	-1.101939165	1.525842095	-0.599201345	0
420	2986859230	0.042010859	-0.006250227	-0.736103785	-0.675534781	-1.863709783	-0.128604314	0.436956085	0
422	2986892564	0.04514406	-0.005979501	-0.733831201	-0.677803827	-1.536844041	-0.856388507	0.101580118	0
425	2986942565	0.047059124	-0.003010638	-0.729162008	-0.682714539	-1.329973547	-1.256954812	-0.083677258	0
429	2987009233	0.047086177	0.000481082	-0.723894968	-0.688301341	-1.370046465	-0.180012698	-0.168416437	0
432	2987059234	0.044660422	0.0024055	-0.721546181	-0.690920233	-1.083840681	1.015848538	-0.198222324	0
434	2987092568	0.042870631	0.003946225	-0.719831586	-0.692812402	0.499872217	1.259465634	-0.733782518	0
437	2987142569	0.042301787	0.009400534	-0.718924552	-0.693736029	1.418549561	0.292479566	0.312273338	0
440	2987192570	0.043687464	0.012408927	-0.719263803	-0.693251041	1.943726671	-0.061293535	0.199899983	0
443	2987242571	0.045290305	0.015231743	-0.719458511	-0.69288977	1.279517753	-0.353047218	-0.347164703	0
445	2987275905	0.047859998	0.017810427	-0.718775583	-0.693364169	1.052232458	-0.173100136	-0.49934388	0
448	2987325906	0.051171795	0.021632731	-0.719253718	-0.692522607	0.270584781	0.516573435	-0.484434488	0
451	2987375907	0.05134906	0.024725456	-0.721050735	-0.690534404	-0.232743255	0.292344681	-0.333284752	0
453	2987409241	0.053340179	0.02601134	-0.721605371	-0.689756424	-0.053445034	-0.045415652	-0.147850336	0
456	2987459242	0.056241059	0.02715882	-0.723399126	-0.687599481	-0.772938636	-0.063341657	-0.232809027	0
459	2987509243	0.056665262	0.030283513	-0.725173129	-0.685562462	-1.058528093	0.001432908	0.047744401	0
461	2987542577	0.056335713	0.034476379	-0.726312826	-0.684183708	-1.605222989	-0.215508349	0.122135552	0
464	2987592578	0.059623949	0.040618583	-0.727145389	-0.68268199	-1.627526676	-0.87429628	-0.292198371	0
467	2987642579	0.066497753	0.043895274	-0.7266039	-0.68242071	-0.457643606	-0.60316515	-0.164870192	0
470	2987692580	0.070293071	0.041803587	-0.727071078	-0.68167367	-0.227004974	1.174252055	-0.203704218	0
472	2987725914	0.070719611	0.040700228	-0.728647625	-0.680010931	0.733346854	0.719214299	0.197884258	0
475	2987775915	0.073119608	0.040648808	-0.732991986	-0.675073289	0.73528786	-0.060219051	0.024472243	0
478	2987825916	0.075249035	0.040993254	-0.736775282	-0.670685709	0.656704635	-0.30096647	-0.003402461	0
480	2987859250	0.075806013	0.040532563	-0.738218054	-0.669062527	0.235818027	0.113590565	-0.190222001	0
483	2987909251	0.07569425	0.038972897	-0.739179168	-0.668106018	0.433254155	0.511841555	-0.008540265	0
486	2987959252	0.075979936	0.039872809	-0.739330612	-0.667852869	0.38691173	0.026621154	-0.11296542	0
488	2987992586	0.075650156	0.041151811	-0.739377545	-0.667760757	0.448771187	-0.031200219	-0.026129051	0
491	2988042587	0.073819944	0.042858873	-0.739544129	-0.667673734	0.226533819	0.108215269	-0.007505269	0
494	2988092588	0.072355787	0.043777202	-0.739193151	-0.668162916	0.176048209	0.162955598	-0.050948161	0
497	2988142589	0.071164699	0.044084516	-0.737930046	-0.669665132	0.083871058	0.120301039	-0.093060872	0
499	2988175923	0.070440992	0.04408277	-0.736775638	-0.671011502	-0.040925403	0.065913875	-0.046687572	0
503	2988242591	0.06935663	0.04306466	-0.733862103	-0.674374901	-0.130414056	-0.007404338	0.022409276	0
506	2988292592	0.068959869	0.041764149	-0.731541928	-0.677013073	-0.337042655	0.112864772	0.039137306	0
511	2988375927	0.068778385	0.040713081	-0.72783962	-0.68107376	-0.523432286	0.025280961	-0.027999891	0
514	2988425928	0.068634014	0.040282705	-0.725575706	-0.683525106	-0.666236444	-0.121625545	-0.10328791	0
518	2988492596	0.065962601	0.037782009	-0.722861649	-0.686798727	-0.729431496	-0.27719815	-0.183105394	0
521	2988542597	0.062151497	0.03498662	-0.720942635	-0.689314764	-0.468880003	-0.159371906	-0.083113168	0
524	2988592598	0.057172916	0.032605881	-0.719292519	-0.691582523	-0.397652028	0.294806089	-0.117563667	0
526	2988625932	0.05370418	0.031350947	-0.718101839	-0.693154187	-0.337805099	0.345135124	-0.020572194	0
529	2988675933	0.050256349	0.030220414	-0.716066816	-0.695564046	-0.34778299	0.139868264	-0.097309272	0
532	2988725934	0.048634192	0.029448028	-0.713610371	-0.698231887	0.612306597	0.220994193	0.11430093	0
534	2988759268	0.047214761	0.027670756	-0.712303265	-0.69973506	0.851556135	0.057362734	0.298488812	0
537	2988809269	0.04405	0.022101863	-0.712543577	-0.699894818	1.066918351	-0.223901792	0.148505376	0
541	2988875937	0.033565421	0.012213483	-0.714804	-0.698412081	1.475704736	-0.639553021	-0.24722928	0
544	2988925938	0.023314858	0.005358275	-0.717342724	-0.696309646	1.187202381	-0.228553471	-0.269184005	0
546	2988959272	0.018134138	0.001011127	-0.719427203	-0.694330347	0.813916434	0.154774247	-0.302738176	0
549	2989009273	0.010310233	-0.006388405	-0.723325477	-0.690400711	0.355266224	1.048219555	-0.600048838	0
552	2989059274	0.004452829	-0.013602155	-0.726747342	-0.686755745	-0.061309175	0.299779732	-0.068299041	0
555	2989109275	0.001749453	-0.020391664	-0.728266238	-0.684988617	-0.279331616	0.018986545	-0.078268929	0
557	2989142609	0.000282126	-0.023666392	-0.729337102	-0.683744992	-0.436237816	0.225911527	-0.062667545	0
560	2989192610	0.00167332	0.027505922	0.731604973	0.681171628	-0.504604387	0.206363362	0.122568648	0
563	2989242611	0.001988879	0.029762031	0.733878638	0.678625383	-0.430525378	0.351110559	0.07494423	0
565	2989275945	0.001642152	0.030869789	0.735313862	0.677021332	-0.395609966	0.325404323	-0.158479751	0
569	2989342613	0.000466425	-0.031441414	-0.736795596	-0.675383943	-0.271863275	0.137832426	0.046677224	0
572	2989392614	0.002555779	-0.029206336	-0.737345563	-0.674879232	-0.266085913	0.176413402	-0.003798996	0
575	2989442615	0.004697616	-0.025226688	-0.736625405	-0.675813998	-0.025105322	0.138784918	-0.061155727	0
578	2989492616	0.006355916	-0.021790521	-0.733801423	-0.678984718	0.228188443	-0.086002192	-0.067571533	0
582	2989559284	0.008136682	-0.020314016	-0.727774558	-0.685467233	0.303035579	-0.185915901	0.002566665	0
584	2989592618	0.00911859	-0.021145024	-0.724029754	-0.689384258	0.247102658	-0.058406092	-0.020378633	0
587	2989642619	0.010558461	-0.024239362	-0.716885382	-0.696689545	0.229931361	-0.064657696	-0.063085694	0
590	2989692620	0.011592818	-0.029256217	-0.708311214	-0.705198486	0.149836178	-0.030179994	-0.112672815	0
592	2989725954	0.012362475	-0.03333562	-0.702149797	-0.711141033	0.152598086	-0.010700601	-0.053906025	0
595	2989775955	0.013220177	-0.040655983	-0.691777523	-0.720844073	0.067337774	-0.064795112	0.009443279	0
598	2989825956	0.013421134	-0.048847321	-0.680347889	-0.731136486	-0.023012355	-0.055350682	0.083063992	0
600	2989859290	0.013387057	-0.053939765	-0.672664731	-0.737857336	0.054612549	0.07606565	0.179079382	0
603	2989909291	0.012836522	-0.059982447	-0.661430569	-0.747493767	0.125419738	0.164382608	0.148237611	0
606	2989959292	0.011122266	-0.065033256	-0.652161081	-0.755203877	0.196385392	0.377209251	-0.242228703	0
609	2990009293	0.010634671	-0.067773638	-0.644241136	-0.761739454	0.387145504	0.208440754	0.059388053	0
611	2990042627	0.010870222	-0.069399131	-0.641121371	-0.764217892	0.37646222	0.288968049	-0.041986826	0
614	2990092628	0.013044552	-0.071555059	-0.639240939	-0.7655591	0.183280533	0.028984454	0.070002807	0
617	2990142629	0.015730289	-0.073258943	-0.640868631	-0.763985002	-0.500144122	0.201722332	0.084511947	0
619	2990175963	0.017230277	-0.073483551	-0.643774814	-0.761483601	-0.792796367	0.363421133	0.363298562	0
622	2990225964	0.017989286	-0.07177407	-0.650725397	-0.75569923	-1.687591717	0.104137539	0.510173697	0
625	2990275965	0.0175841	-0.068154992	-0.656548335	-0.750992664	-1.373681679	0.217686202	-0.165980723	0
627	2990309299	0.016455686	-0.064923066	-0.659264729	-0.74892204	-1.658724502	0.256016355	-0.07428134	0
630	2990359300	0.017042358	-0.061333245	-0.662029772	-0.746769289	-1.815444136	-0.254678166	0.041407839	0
633	2990409301	0.019127129	-0.058074904	-0.663548116	-0.745630845	-2.005872852	-0.420255058	-0.173264971	0
636	2990459302	0.018893502	-0.055890998	-0.66356945	-0.745784699	-1.436824729	0.04746079	-0.027398109	0
638	2990492636	0.01729954	-0.055017066	-0.663470727	-0.745976168	-0.642066081	0.754497881	0.063080888	0
641	2990542637	0.015548949	-0.054001567	-0.664442313	-0.745223774	0.319971168	0.357725639	-0.031824567	0
644	2990592638	0.014831495	-0.052058019	-0.66611986	-0.743877894	1.013586627	0.046097256	-0.222093892	0
646	2990625972	0.014104497	-0.050039841	-0.667450964	-0.74283665	1.244673517	0.572586979	-0.064153537	0
650	2990692640	0.009735645	-0.046656788	-0.670293575	-0.740563897	1.481120905	0.601155067	0.178333792	0
653	2990742641	0.005746912	-0.041786027	-0.672502681	-0.738891769	1.25892223	0.169675438	0.067084671	0
656	2990792642	0.002248759	-0.034375278	-0.675318353	-0.73672139	1.078555785	-0.540266011	0.023536764	0
658	2990825976	0.000850747	-0.028917184	-0.678289166	-0.734225361	0.902148351	-0.545393372	0.105463459	0
661	2990875977	0.000680393	-0.02123119	-0.684083543	-0.729094287	1.099111509	-0.122874433	0.145761738	0
664	2990925978	0.002578587	-0.012999321	-0.691749343	-0.722016076	0.973338983	0.365725542	0.301922543	0
667	2990975979	0.007334024	-0.00354016	-0.699107417	-0.714970278	0.959803993	0.354445206	0.160236087	0
669	2991009313	0.011472412	0.003024832	-0.703639132	-0.710458448	0.97393974	0.290399606	-0.048298442	0
672	2991059314	0.018467273	0.012350362	-0.709263917	-0.704592879	1.111574567	0.169045038	-0.126923733	0
675	2991109315	0.023368211	0.01894084	-0.712762387	-0.700760267	1.509291346	-0.247283396	-0.000938301	0
679	2991175983	0.027456922	0.024418119	-0.714071083	-0.699108262	0.918984381	-0.147163891	-0.084412161	0
681	2991209317	0.030009562	0.025130674	-0.71362197	-0.699436601	0.745686028	-0.447581615	-0.159021611	0
684	2991259318	0.032971579	0.021412158	-0.711348578	-0.70173898	0.659349048	-0.441290829	-0.129543819	0
687	2991309319	0.03523673	0.012540951	-0.707572391	-0.705650344	0.270749032	0.005796863	-0.329572515	0
690	2991359320	0.036073089	-0.000794305	-0.702731663	-0.710539451	-0.559440059	0.427820177	-0.325118049	0
692	2991392654	0.036265558	-0.009882284	-0.698136807	-0.714977026	-0.805982879	0.335615897	0.223028863	0
695	2991442655	0.036285463	-0.020985154	-0.691554971	-0.721106587	-1.381866792	0.150518682	0.367955465	0
698	2991492656	0.036562971	-0.030404919	-0.686132712	-0.725920513	-1.648516242	-0.173805664	0.398235255	0
700	2991525990	0.037569341	-0.035463129	-0.682942326	-0.728643048	-1.643261483	0.091373587	0.310056574	0
703	2991575991	0.041763961	-0.040583206	-0.678371143	-0.732407924	-1.132040833	0.138822993	0.236115687	0
707	2991642659	0.048620847	-0.043865708	-0.674604255	-0.735269278	-0.925047103	0.380119734	-0.025016842	0
710	2991692660	0.052833633	-0.041700223	-0.674104514	-0.735562915	-0.453189052	0.300331118	0.322588892	0
712	2991725994	0.053606612	-0.037365714	-0.674263889	-0.735593871	-0.283665418	-0.057058862	0.184128279	0
715	2991775995	0.051824766	-0.028373808	-0.676317983	-0.734236411	-0.480331059	0.486628765	0.027887285	0
718	2991825996	0.051128035	-0.016815979	-0.679378828	-0.731811147	-0.191958183	0.438688403	-0.071324761	0
721	2991875997	0.052280323	-0.00419108	-0.68427511	-0.727335395	-0.275667542	0.517917427	-0.021029457	0
723	2991909331	0.053874744	0.004768656	-0.688733566	-0.722994362	-0.223256243	0.375632833	-0.304668983	0
726	2991959332	0.057161363	0.019989155	-0.696689734	-0.714812162	-0.097417822	0.220821656	0.098018535	0
729	2992009333	0.060930451	0.035114636	-0.705438402	-0.705273779	-0.13309645	0.208655538	-0.256746639	0
731	2992042667	0.063293891	0.043046716	-0.711126464	-0.698884837	0.125947942	0.192588697	0.078848022	0
734	2992092668	0.066695667	0.05280555	-0.720202718	-0.688528363	0.239745347	-0.28136735	0.184585316	0
737	2992142669	0.06957536	0.060276453	-0.727505206	-0.679898664	0.196702137	-0.396589692	-0.112996264	0
740	2992192670	0.070955124	0.065723117	-0.732409623	-0.67395993	0.204190045	-0.284740605	-0.014723023	0
742	2992226004	0.070932662	0.067777806	-0.733931106	-0.672101078	0.026958407	0.38982716	-0.126613991	0
745	2992276005	0.071733991	0.070546297	-0.734804	-0.670776071	0.071931011	0.291835068	0.135355067	0
748	2992326006	0.076043373	0.074148432	-0.735107732	-0.669579001	0.346258584	-0.073904943	0.181908592	0
750	2992359340	0.078802688	0.076028424	-0.735230054	-0.668914481	0.455039177	-0.277985889	0.157405205	0
753	2992409341	0.081178962	0.077349237	-0.735184822	-0.668528495	0.266030744	-0.232172501	0.154687656	0
756	2992459342	0.08387364	0.076886707	-0.735279049	-0.668145468	0.244835072	-0.094439015	0.020139132	0
758	2992492676	0.085997814	0.075375037	-0.734846969	-0.668522933	0.169770138	0.01631925	-0.138757205	0
761	2992542677	0.088747383	0.072176969	-0.732867961	-0.670685425	0.173446407	-0.07667394	0.029558726	0
764	2992592678	0.090144465	0.067589627	-0.730526183	-0.673525882	0.031772706	0.035202536	-0.055157841	0
766	2992626012	0.091045435	0.064736341	-0.728914013	-0.675428972	0.061345266	0.091388353	-0.181286668	0
769	2992676013	0.090726799	0.061886378	-0.727584557	-0.677170168	0.083964137	0.15102723	0.103950971	0
772	2992726014	0.089763444	0.061529518	-0.726580531	-0.678407971	-0.025393433	0.09571785	0.062705625	0
775	2992776015	0.087896646	0.061675696	-0.725398226	-0.679902715	-0.026438043	0.027062699	0.020068012	0
777	2992809349	0.086628553	0.061870455	-0.724533444	-0.680969037	-0.048543315	0.026669656	0.004941488	0
780	2992859350	0.08504873	0.062147424	-0.723565282	-0.682171308	0.057138394	0.152590622	-0.009066698	0
783	2992909351	0.083366042	0.061358365	-0.722278306	-0.68381233	0.04690192	0.238680161	-0.027066561	0
787	2992976019	0.081760425	0.061884566	-0.719385369	-0.687000891	0.059372826	0.087199076	-0.011682001	0
789	2993009353	0.081160896	0.062903907	-0.718001618	-0.688425511	0.040221012	0.088849155	-0.020952505	0
792	2993059354	0.079886868	0.065211437	-0.716308353	-0.690121656	-0.019955981	0.133473256	-0.067949562	0
795	2993109355	0.078454429	0.067164626	-0.715054577	-0.691397691	-0.040963282	0.1073726	0.009903156	0
798	2993159356	0.077220281	0.068082	-0.71401864	-0.692516607	-0.099565131	0.079205178	-0.078853906	0
800	2993192690	0.076638474	0.06838902	-0.71346409	-0.693122269	-0.097512057	-0.079488127	-0.028262923	0
803	2993242691	0.074892169	0.067656982	-0.713149664	-0.693708334	-0.225070313	-0.017867563	-0.08630553	0
806	2993292692	0.07318439	0.066744667	-0.713486663	-0.693632451	-0.074187625	0.159666833	0.017548005	0
808	2993326026	0.072415007	0.066596999	-0.714147747	-0.693046825	-0.113440476	0.195780275	-0.052285249	0
811	2993376027	0.072430808	0.066998938	-0.715324958	-0.691791244	-0.040213432	0.199327767	0.033968498	0
815	2993442695	0.074735379	0.068301789	-0.71702945	-0.689650822	-0.010455515	0.032106527	-0.004136302	0
818	2993492696	0.076220126	0.069255804	-0.718748128	-0.687601086	0.032984436	0.040050528	-0.065102382	0
821	2993542697	0.076757842	0.070130135	-0.720484921	-0.685632173	0.003768438	0.062419466	-0.013405671	0
823	2993576031	0.077158121	0.070747676	-0.721449029	-0.684509087	-0.0293344	0.066043487	-0.032828651	0
826	2993626032	0.078155038	0.071622584	-0.722497245	-0.68319816	-0.023369033	0.161960714	-0.196177742	0
829	2993676033	0.080351307	0.073224539	-0.722842889	-0.682407498	-0.057007971	0.186681947	-0.059294299	0
831	2993709367	0.082919721	0.074486543	-0.723027905	-0.681767353	-0.102666784	0.140319098	0.011509374	0
834	2993759368	0.088124468	0.07651271	-0.722818919	-0.681111366	-0.071729288	0.364870992	-0.080373547	0
837	2993809369	0.095386673	0.079321257	-0.722330917	-0.680329014	-0.066639665	0.268180561	-0.003124099	0
839	2993842703	0.101312579	0.081728206	-0.721951498	-0.6795898	-0.01537999	0.456873825	-0.121507125	0
843	2993909371	0.113200009	0.08783781	-0.721505982	-0.677421135	-0.021428129	0.144614358	-0.037962862	0
846	2993959372	0.121653122	0.09232199	-0.721323215	-0.675551618	0.009911576	-0.284825523	0.035698645	0
849	2994009373	0.127920329	0.095196607	-0.721561588	-0.673737984	-0.050952987	-0.408811291	0.075648565	0
852	2994059374	0.130962551	0.096694165	-0.72265661	-0.671763703	-0.188596956	0.096416874	0.010626855	0
854	2994092708	0.132827793	0.09798621	-0.723609398	-0.670182751	-0.145463495	0.01443629	0.096232044	0
857	2994142709	0.136027059	0.099965269	-0.724696206	-0.668071099	-0.168268331	0.110737327	-0.024614684	0
860	2994192710	0.139119891	0.101894449	-0.725484806	-0.666284454	-0.098856846	-0.129028845	-0.054838225	0
862	2994226044	0.140452364	0.102868592	-0.725813174	-0.665497124	-0.023514355	-0.080269676	-0.013856313	0
865	2994276045	0.141349915	0.104210454	-0.726237952	-0.66463435	-0.108809124	0.080553091	-0.035680886	0
868	2994326046	0.141803764	0.105642967	-0.72666307	-0.663846397	-0.139843702	0.142548974	0.002491321	0
870	2994359380	0.142145677	0.106826884	-0.726890116	-0.663335046	-0.104922515	0.104386424	-0.016940466	0
873	2994409381	0.142679434	0.108600884	-0.727083827	-0.662719802	-0.062709359	0.082956401	0.004684378	0
876	2994459382	0.143065908	0.110046023	-0.727161973	-0.662312225	0.039908873	0.015736791	0.052445033	0
879	2994509383	0.142970781	0.111086504	-0.7268382	-0.662514434	0.071823504	-0.106236826	0.052511638	0
881	2994542717	0.141681456	0.111000468	-0.726777836	-0.662871963	-0.05184769	0.073549929	-0.056107849	0
884	2994592718	0.14035684	0.110889774	-0.725733283	-0.664315149	-0.028763739	0.151486812	-0.058155718	0
887	2994642719	0.139002784	0.110779727	-0.724765466	-0.665673416	-0.011565913	0.175217399	-0.046628486	0
889	2994676053	0.138167116	0.110772795	-0.723916163	-0.666771794	0.042748245	0.083402921	0.097160947	0
892	2994726054	0.136882601	0.110397232	-0.72272051	-0.668394097	-0.010015918	0.012109576	-0.010765773	0
895	2994776055	0.135410966	0.109719857	-0.7215474	-0.670070722	-0.043679187	0.146597792	0.032875078	0
897	2994809389	0.134668481	0.109319866	-0.720787868	-0.671102389	0.013968702	0.149121512	0.039436584	0
900	2994859390	0.133730406	0.108871432	-0.71972051	-0.672506935	-0.012643738	0.095323383	0.086270966	0
903	2994909391	0.132620561	0.108328023	-0.718541446	-0.674073451	0.008851932	0.064735838	0.106259422	0
906	2994959392	0.131469241	0.107701123	-0.717447228	-0.675563307	-0.034559046	0.102968068	0.073211442	0
908	2994992726	0.13061213	0.107281707	-0.716817323	-0.676464362	-0.043796273	0.084558228	0.050875662	0
911	2995042727	0.129385387	0.106591056	-0.716174669	-0.677489197	-0.069072537	0.087734829	0.007888436	0
914	2995092728	0.128381378	0.105957381	-0.715944931	-0.678022206	-0.050621516	0.121396728	0.01972691	0
916	2995126062	0.127753328	0.105525048	-0.715895211	-0.678260715	-0.044202134	0.148747636	-0.034425331	0
919	2995176063	0.127148161	0.104925968	-0.71592096	-0.678440171	-0.015307081	0.049896642	0.110427304	0
923	2995242731	0.126680347	0.103941583	-0.716086298	-0.678504717	-0.018311191	0.128301302	0.039873785	0
926	2995292732	0.126632314	0.103494126	-0.716529693	-0.678113871	-0.080515588	0.142466202	0.031806268	0
929	2995342733	0.126974107	0.103488516	-0.716842717	-0.67771987	-0.048643753	0.079810781	0.033022901	0
931	2995376067	0.127396782	0.103591656	-0.717060934	-0.677393863	-0.084139197	0.119050645	-0.043075986	0
934	2995426068	0.128232839	0.103856464	-0.717226547	-0.677020128	-0.03850849	0.076363837	-0.003169576	0
937	2995476069	0.128844202	0.103897417	-0.717417949	-0.676694898	-0.077265971	0.097016728	-0.019785425	0
939	2995509403	0.129303231	0.103941078	-0.717583837	-0.676424691	-0.042133884	0.11325007	-0.013900761	0
942	2995559404	0.130075721	0.104113753	-0.717828754	-0.675990024	-0.037406573	0.037413235	0.03239275	0
945	2995609405	0.130564217	0.104339887	-0.718214122	-0.675451441	-0.043193188	0.083036329	0.004717593	0
947	2995642739	0.130785193	0.104628994	-0.718497093	-0.675062912	-0.072759109	0.119157463	-0.04833622	0
951	2995709407	0.131377991	0.105268708	-0.718855253	-0.674466788	-0.054269266	0.083119459	-0.021011421	0
954	2995759408	0.131647144	0.105470494	-0.719117854	-0.67410275	-0.040480759	0.047072032	-0.041631823	0
957	2995809409	0.131655873	0.105261947	-0.719225572	-0.674018716	-0.04818516	0.077667462	-0.081671553	0
960	2995859410	0.131182916	0.104664422	-0.719520662	-0.673889025	-0.139119234	0.108310158	-0.190952749	0
962	2995892744	0.13095749	0.104123505	-0.719486445	-0.674053178	0.013155593	0.115260367	0.053315167	0
965	2995942745	0.130424294	0.103805228	-0.71998277	-0.673675582	-0.029807112	0.117116581	-0.02923043	0
968	2995992746	0.130052585	0.103694751	-0.720245553	-0.673483531	-0.021572714	0.058874811	-0.005819253	0
970	2996026080	0.129800348	0.103397141	-0.720336764	-0.673480399	-0.013356636	0.048592198	0.012325123	0
973	2996076081	0.129567609	0.102917618	-0.720339242	-0.673596003	-0.07301236	0.093624418	0.005021666	0
976	2996126082	0.129524608	0.102263673	-0.720332452	-0.673711122	-0.113084988	0.08588878	-0.029734715	0
980	2996192750	0.129836244	0.101770652	-0.720219634	-0.673846394	-0.065720431	0.093553871	0.015698632	0
982	2996226084	0.129985592	0.101600758	-0.720246105	-0.673814945	-0.050009255	0.101549108	-0.00796699	0
985	2996276085	0.129965767	0.101464225	-0.720231253	-0.673855217	-0.020652553	0.076665731	0.041818966	0
988	2996326086	0.129844979	0.101519114	-0.720059267	-0.674054006	-0.045576897	0.09363464	-0.011565633	0
991	2996376087	0.129650317	0.101616282	-0.71976798	-0.674387857	-0.070097284	0.076113991	-0.019523188	0
993	2996409421	0.129490543	0.101646537	-0.719493513	-0.6747068	-0.098858204	0.090793965	-0.05573074	0
996	2996459422	0.128767719	0.101157013	-0.719440036	-0.67497568	-0.067649383	-0.008403196	-0.004273376	0
999	2996509423	0.128080156	0.100231334	-0.718989938	-0.675723777	-0.045682801	0.10946037	0.048346847	0
1001	2996542757	0.127318818	0.099635185	-0.719161766	-0.675772967	-0.062554223	0.021174399	0.076430605	0
1004	2996592758	0.126174546	0.098773015	-0.719287604	-0.675980191	-0.027630768	0.116190297	0.024865056	0
1007	2996642759	0.125093699	0.097892126	-0.719406675	-0.676182471	-0.042642566	0.110724831	0.052588222	0
1009	2996676093	0.124565221	0.097363792	-0.719424413	-0.676337425	-0.038276432	0.104411528	0.044902301	0
1012	2996726094	0.123816282	0.09659143	-0.719447341	-0.676561267	-0.02090106	0.138891477	0.055526082	0
1015	2996776095	0.123412549	0.096027427	-0.719456922	-0.676705116	-0.042266345	0.095973698	0.046067692	0
1018	2996826096	0.123056191	0.095518363	-0.719519	-0.676776053	-0.064907882	0.102363786	0.008175913	0
1020	2996859430	0.122749615	0.095129352	-0.719601064	-0.676799267	-0.00710039	0.089566237	0.049831894	0
1023	2996909431	0.122299829	0.094672248	-0.719706152	-0.676833046	-0.049531842	0.137718929	0.049599947	0
1026	2996959432	0.122048915	0.094467064	-0.719730981	-0.676880603	-0.037454543	0.100048564	0.043552251	0
1028	2996992766	0.121893498	0.094353646	-0.719719777	-0.676936339	-0.046801288	0.077166298	0.069034132	0
1031	2997042767	0.121421102	0.094037508	-0.719724487	-0.677060208	0.033669234	0.059872407	0.153849451	0
1034	2997092768	0.120814026	0.09353943	-0.719605382	-0.677364334	-0.076463955	0.128187283	-0.028097886	0
1036	2997126102	0.120450521	0.09318601	-0.719564419	-0.677521281	-0.021418465	0.115209252	0.03209049	0
1039	2997176103	0.120037863	0.092834687	-0.719583924	-0.677622025	-0.033269303	0.090023155	0.046963901	0
1042	2997226104	0.119743139	0.092718691	-0.719571471	-0.67770327	-0.024808475	0.084574361	0.046673008	0
1045	2997276105	0.119773941	0.092731396	-0.719512929	-0.677758243	-0.050403426	0.159077605	-0.013484464	0
1047	2997309439	0.119711033	0.092729549	-0.719456616	-0.677829386	-0.082630644	0.151056887	-0.042587293	0
1050	2997359440	0.119592827	0.092510817	-0.71944476	-0.677892721	-0.014737104	0.072405097	0.032226358	0
1053	2997409441	0.119411418	0.091427643	-0.719395514	-0.678123878	0.001089752	0.063546797	-0.043595763	0
1055	2997442775	0.119419724	0.090224355	-0.719403186	-0.678275424	-0.10755943	0.174662357	-0.079868646	0
1059	2997509443	0.11996075	0.087212475	-0.719573297	-0.67839345	-0.019231809	0.061269822	-0.052894901	0
1062	2997559444	0.121499559	0.08487954	-0.719833623	-0.678139275	0.080179407	0.162772591	-0.099592306	0
1065	2997609445	0.124141133	0.083065946	-0.720894936	-0.676756617	0.000425381	0.298046776	0.152265972	0
1068	2997659446	0.126871668	0.081648901	-0.722361438	-0.674856273	0.049137724	0.300789169	0.190689743	0
1070	2997692780	0.129452017	0.081604805	-0.723263312	-0.673404048	-0.182144844	0.229984248	0.229806347	0
1073	2997742781	0.132966186	0.081231948	-0.724420912	-0.671517465	-0.030444145	0.117277244	0.159294057	0
1076	2997792782	0.136525056	0.081810852	-0.72449438	-0.670653253	-0.152733123	0.099087792	0.171542529	0
1078	2997826116	0.139259385	0.082308447	-0.723943245	-0.670625321	-0.191285913	0.050506036	0.069526501	0
1081	2997876117	0.144881725	0.083103831	-0.722507721	-0.670884217	-0.186715065	0.168844151	0.100296974	0
1084	2997926118	0.153287564	0.084987169	-0.719488418	-0.672024196	-0.216100202	0.475788768	-0.19178768	0
1088	2997992786	0.165787359	0.089514792	-0.714495429	-0.67379369	-0.179170388	0.393509314	0.00335512	0
1090	2998026120	0.170022455	0.092111516	-0.713035304	-0.673935077	-0.158771858	0.222916245	0.000900425	0
1093	2998076121	0.172630519	0.094499486	-0.712699383	-0.673296473	0.052921953	-0.138472977	-0.137882943	0
1096	2998126122	0.172752688	0.095455836	-0.713932641	-0.671822057	-0.043568106	-0.117475636	-0.120711718	0
1099	2998176123	0.173500712	0.098133083	-0.715091521	-0.670008595	-0.101719006	-0.094770696	-0.112853426	0
1101	2998209457	0.174237555	0.101085573	-0.716087398	-0.668312667	-0.155804441	-0.175466159	-0.093297076	0
1104	2998259458	0.175921074	0.106904297	-0.718000636	-0.664904755	-0.167722699	-0.218706597	-0.22230514	0
1107	2998309459	0.182116082	0.114795986	-0.718797756	-0.661048712	-0.011939607	-0.060382484	-0.142929865	0
1109	2998342793	0.186263615	0.119995291	-0.720051726	-0.657596007	-0.14388171	-0.13869062	-0.002954082	0
1112	2998392794	0.189548793	0.12757531	-0.723214124	-0.651733939	-0.083431546	-0.041909006	-0.003524193	0
1116	2998459462	0.190353658	0.136235049	-0.727212548	-0.645265377	-0.016436025	0.212431058	0.052476516	0
1119	2998509463	0.192482709	0.140125094	-0.728225957	-0.642652565	0.012734619	0.088521372	0.051089978	0
1122	2998559464	0.195189052	0.142627495	-0.728733996	-0.640706949	-0.041794442	0.017311893	0.074263587	0
1124	2998592798	0.195774395	0.14392232	-0.72966675	-0.639175396	-0.048109806	-0.055634974	0.105819922	0
1127	2998642799	0.195887929	0.1454922	-0.731089173	-0.637156621	-0.049170476	0.116212723	0.086288896	0
1130	2998692800	0.196374889	0.147378802	-0.731862629	-0.635683477	-0.087806933	0.304778369	-0.036597321	0
1132	2998726134	0.197824124	0.148653836	-0.731577691	-0.63526509	-0.020120035	0.18686833	0.063853414	0
1135	2998776135	0.19987981	0.15025691	-0.731096486	-0.634798276	-0.105786022	-0.01847371	-0.007291814	0
1138	2998826136	0.200968905	0.152016166	-0.731799752	-0.633223269	-0.164276337	0.014395727	-0.005664135	0
1140	2998859470	0.201468752	0.153532788	-0.732468	-0.631924563	-0.114691206	0.082371926	0.082586351	0
1143	2998909471	0.202140483	0.155801001	-0.733606706	-0.629830512	-0.062908887	0.012225361	0.141058054	0
1146	2998959472	0.202293115	0.15693443	-0.734307397	-0.628682532	0.058448298	0.039764447	0.035240739	0
1149	2999009473	0.202886511	0.15644099	-0.734539583	-0.628342964	-0.115496378	0.048156949	0.137234822	0
1151	2999042807	0.203165123	0.156132944	-0.734975973	-0.627819047	-0.138063527	0.066794866	0.094431771	0
1154	2999092808	0.203002404	0.157058029	-0.73595808	-0.626489029	-0.143918452	0.10428976	-0.021535237	0
1157	2999142809	0.203364278	0.157926253	-0.736526289	-0.625484847	-0.098841089	0.096426073	-0.074202279	0
1159	2999176143	0.203814592	0.158050089	-0.736849444	-0.624926138	-0.069558416	0.103142308	-0.04072139	0
1162	2999226144	0.204229113	0.158662718	-0.73695728	-0.62450827	-0.049191207	-0.000978592	0.061102618	0
1165	2999276145	0.20387261	0.159129534	-0.737240421	-0.624171701	-0.057649349	-0.003582881	0.003843753	0
1167	2999309479	0.203441154	0.159052919	-0.737332132	-0.624223673	-0.108674047	0.094870279	-0.041250855	0
1170	2999359480	0.203188067	0.159374552	-0.737377403	-0.624170591	-0.202838289	0.197061084	0.087173641	0
1173	2999409481	0.203239904	0.160270099	-0.737121859	-0.624226242	-0.126965835	0.101560813	0.014874612	0
1176	2999459482	0.20364519	0.161084843	-0.736733155	-0.62434331	-0.075971166	0.098309158	0.014143559	0
1178	2999492816	0.203798877	0.16168825	-0.736426419	-0.624499045	-0.032149224	0.101548806	0.041852933	0
1181	2999542817	0.20456931	0.162604372	-0.735624436	-0.624954322	-0.122898124	0.044266124	0.113531364	0
1184	2999592818	0.204986546	0.163195184	-0.735087276	-0.625295566	-0.085659492	0.036101166	0.060929318	0
1186	2999626152	0.204994956	0.163544499	-0.734914475	-0.625404652	-0.10393564	0.045741046	0.068019282	0
1189	2999676153	0.204611018	0.16461773	-0.734736125	-0.62545836	-0.105681778	0.000154488	0.016935301	0
1192	2999726154	0.203677272	0.165681346	-0.734739141	-0.62547874	-0.144181089	0.11850629	-0.038251487	0
1196	2999792822	0.202687163	0.166362956	-0.73480393	-0.625543336	-0.13266572	0.140172221	0.022570892	0
1198	2999826156	0.202321301	0.166827196	-0.734796602	-0.625546746	-0.072085452	0.083889719	-0.001728395	0
1201	2999876157	0.202318708	0.167431509	-0.734474667	-0.625764168	-0.023001232	0.111318224	-0.018272921	0
1204	2999926158	0.201847076	0.16717865	-0.734519279	-0.625931694	-0.00616792	0.084485595	0.012708949	0
1207	2999976159	0.2008263	0.166660224	-0.734490888	-0.626431403	-0.077356512	0.130218978	-0.156860527	0
1209	3000009493	0.199929246	0.165912513	-0.73454963	-0.62684781	-0.072309723	0.062182476	-0.023828047	0
1212	3000059494	0.198668801	0.164779531	-0.734718571	-0.627349213	-0.037727464	0.082301024	0.02256749	0
1215	3000109495	0.197127394	0.163787845	-0.734462589	-0.628394015	-0.030608005	0.049608186	0.123862356	0
1217	3000142829	0.196096866	0.162927564	-0.734238758	-0.62920114	-0.089807813	0.065009246	0.058044163	0
1220	3000192830	0.194653455	0.161620878	-0.734096124	-0.63015205	-0.181201392	0.078611284	0.106746527	0
1224	3000259498	0.192396782	0.162073671	-0.734466567	-0.630297125	-0.156693611	0.119922096	-0.089414796	0
1227	3000309499	0.191001794	0.16308927	-0.734385548	-0.630553782	-0.175030605	0.137586456	-0.02955939	0
1230	3000359500	0.19024415	0.16396032	-0.73414417	-0.630837947	-0.101826112	0.065106969	0.078931878	0
1232	3000392834	0.190166287	0.164330762	-0.733797459	-0.631168339	-0.072494441	0.094751021	0.038943797	0
1235	3000442835	0.190458169	0.164155399	-0.733527869	-0.631439273	-0.088339777	0.013979215	0.043764309	0
1238	3000492836	0.190418381	0.164883121	-0.733825993	-0.630915057	-0.177377558	0.18612566	0.096274884	0
1240	3000526170	0.190790257	0.165856391	-0.734228866	-0.630078334	-0.134798699	0.171592335	0.082519257	0
1243	3000576171	0.192148007	0.16665731	-0.734590329	-0.62903222	0.023340931	0.051708358	0.022306659	0
1246	3000626172	0.194071247	0.165997839	-0.734495219	-0.62872716	-0.081763031	-0.069223742	-0.00408778	0
1248	3000659506	0.195263678	0.165443599	-0.734530647	-0.628462601	-0.104379398	0.071109679	0.017216868	0
1252	3000726174	0.196748884	0.164906256	-0.735195945	-0.627361719	-0.087863409	0.08865351	-0.035643742	0
1255	3000776175	0.197709267	0.164520868	-0.735464047	-0.626846525	-0.062696576	0.114128694	-0.018462112	0
1258	3000826176	0.198890565	0.164358373	-0.735529285	-0.626438775	-0.145126232	0.137550223	-0.03548883	0
1261	3000876177	0.199823063	0.164625577	-0.735611708	-0.625974902	-0.144296994	0.05832684	-0.02182058	0
1263	3000909511	0.200177162	0.165107509	-0.735849472	-0.62545517	-0.080491441	-0.000794515	0.007989845	0
1266	3000959512	0.200436087	0.165757698	-0.735968536	-0.625060057	-0.044457177	0.069737016	-0.002239772	0
1269	3001009513	0.200875404	0.165963593	-0.735837435	-0.625018742	-0.13075747	0.09561939	0.053934983	0
1271	3001042847	0.200883224	0.165935769	-0.736011661	-0.624818442	-0.134870571	0.120803984	-0.027765182	0
1274	3001092848	0.201177378	0.166523304	-0.736064	-0.624505756	-0.12087423	0.092982726	-0.034106529	0
1277	3001142849	0.201384803	0.166548329	-0.736337162	-0.624110085	-0.038593017	0.045513024	0.041966739	0
1279	3001176183	0.201490022	0.166645386	-0.736671064	-0.623656019	-0.126097582	0.063921537	0.060192221	0
1282	3001226184	0.201492035	0.167273499	-0.737205762	-0.62285488	-0.068407339	0.145033586	0.110771349	0
1285	3001276185	0.201633576	0.167937324	-0.737541123	-0.622233113	-0.096517765	0.047658748	-0.007224879	0
1288	3001326186	0.202053288	0.168199626	-0.737664781	-0.62187943	-0.092353672	0.097017201	-0.049358071	0
1290	3001359520	0.20268432	0.168156535	-0.737519533	-0.62185801	-0.106997702	0.078685528	0.043723171	0
1293	3001409521	0.203333671	0.168241688	-0.737657357	-0.621459392	-0.0820944	0.05660625	0.008623454	0
1296	3001459522	0.203244712	0.169475502	-0.737835085	-0.620942049	-0.070980751	0.082920317	0.024095768	0
1298	3001492856	0.203208403	0.170042814	-0.737860438	-0.620768685	-0.052210963	0.067084656	0.019595236	0
1301	3001542857	0.203554707	0.170117285	-0.737805671	-0.620699913	-0.112298082	0.054700646	0.091650086	0
1304	3001592858	0.203780907	0.170451015	-0.737868699	-0.620459166	-0.069877883	0.085354312	0.163552711	0
1306	3001626192	0.203781025	0.171050756	-0.737836166	-0.620332753	-0.093322896	-0.079395901	-0.043357993	0
1309	3001676193	0.203040825	0.171060346	-0.738238018	-0.620094679	-0.035095742	-0.002096469	0.075017981	0
1312	3001726194	0.202228176	0.171293687	-0.738467705	-0.620022327	-0.111001509	0.146876304	-0.06878713	0
1315	3001776195	0.201695752	0.171514907	-0.738225319	-0.620423112	-0.072640863	0.010860044	0.022163675	0
1317	3001809529	0.201291754	0.171392602	-0.738083807	-0.620756393	-0.140426744	0.052467499	-0.083368075	0
1320	3001859530	0.20064447	0.171003236	-0.737797545	-0.621413287	-0.120774682	0.091768729	0.003820338	0
1323	3001909531	0.200015678	0.170932384	-0.737568768	-0.621906875	-0.055404496	0.069034574	0.034667358	0
1325	3001942865	0.199481503	0.170967134	-0.737411389	-0.622255424	-0.10102725	0.048627947	0.048151928	0
1328	3001992866	0.19874432	0.170974354	-0.737129595	-0.622822948	-0.110782103	0.069189559	0.050941618	0
1332	3002059534	0.198202927	0.170689869	-0.736643611	-0.623647945	-0.136363345	0.101844703	0.020027542	0
1335	3002109535	0.198217353	0.170571901	-0.736329237	-0.624046763	-0.107238658	0.113212295	-0.032427594	0
1338	3002159536	0.197844231	0.170000177	-0.736282113	-0.62437669	-0.108021699	0.033529674	-0.134405311	0
1340	3002192870	0.197575185	0.169771127	-0.736311242	-0.624489845	-0.03757879	0.116360785	-0.032914595	0
1343	3002242871	0.197095478	0.169526361	-0.736620419	-0.62434329	-0.19661942	0.085080713	0.060946447	0
1346	3002292872	0.197172849	0.169768315	-0.73656816	-0.62431477	-0.112569706	0.092682889	0.155351889	0
1348	3002326206	0.197538785	0.169910161	-0.736339211	-0.624430566	-0.058157633	0.030937043	0.218328267	0
1351	3002376207	0.197851981	0.169831445	-0.736273162	-0.624430705	-0.101036253	0.029518463	0.117893496	0
1354	3002426208	0.197422818	0.169937178	-0.736804098	-0.623911298	-0.117302484	0.057531585	0.052604486	0
1356	3002459542	0.197144456	0.170104354	-0.737228185	-0.623452625	-0.173578668	0.128326236	-0.105472012	0
1360	3002526210	0.197491934	0.170828423	-0.737879956	-0.622372683	-0.077528271	0.150139104	-0.061467758	0
1363	3002576211	0.198322632	0.170938055	-0.738227707	-0.62166564	-0.005977742	0.112393357	-0.041889354	0
1366	3002626212	0.199256089	0.171065945	-0.738245092	-0.621311225	-0.072572986	0.148623758	-0.018987527	0
1369	3002676213	0.199450579	0.171008551	-0.738670253	-0.620759051	0.022208216	0.03228066	0.321843223	0
1371	3002709547	0.199623158	0.171451046	-0.738538968	-0.620737727	-0.058531346	0.021905609	0.017724244	0
1374	3002759548	0.199080466	0.171094228	-0.738671932	-0.620852246	-0.11167333	-0.050883184	0.088340269	0
1377	3002809549	0.198496896	0.170563189	-0.738870081	-0.620949422	-0.178216985	0.106438984	0.073799429	0
1379	3002842883	0.198011571	0.170300653	-0.73911091	-0.62088982	-0.151701001	0.068853436	-0.014908389	0
1382	3002892884	0.197566096	0.169903545	-0.739392407	-0.620805357	-0.128388636	0.072611667	-0.030304844	0
1385	3002942885	0.19701017	0.169723527	-0.739454722	-0.620957029	-0.122566435	0.100203724	-0.021193789	0
1389	3003009553	0.196277646	0.169856812	-0.739330319	-0.621300594	-0.140740608	0.069199116	0.007222352	0
1392	3003059554	0.196083931	0.169926104	-0.739326029	-0.621347917	-0.15657193	0.003700306	0.046343777	0
1394	3003092888	0.195829593	0.170166598	-0.739488875	-0.621168499	-0.158219485	0.05829872	-0.006624374	0
1397	3003142889	0.195939504	0.170600516	-0.739433804	-0.621080368	-0.120274056	0.193977908	0.106229657	0
1400	3003192890	0.196243554	0.171167683	-0.739296268	-0.620992045	-0.062253709	0.105538593	0.064877948	0
1402	3003226224	0.196258902	0.171424097	-0.739107159	-0.621141553	-0.065349304	-0.009507979	-0.045392883	0
1405	3003276225	0.196414723	0.171406024	-0.738603795	-0.621695798	-0.06727453	-0.001836278	0.03712861	0
1408	3003326226	0.196152152	0.171500392	-0.738505164	-0.621869818	-0.081269148	0.031199685	0.05424157	0
1410	3003359560	0.195962692	0.171790992	-0.738255698	-0.622145484	-0.101407005	0.118988691	0.013093087	0
1413	3003409561	0.195845901	0.171608914	-0.737762474	-0.622817225	-0.123102181	0.046768087	0.023871897	0
1416	3003459562	0.195043779	0.171529475	-0.737498397	-0.623403303	-0.090985793	0.009155753	0.077992366	0
1419	3003509563	0.193879103	0.171736967	-0.737359359	-0.623873772	-0.16942112	0.079279706	-0.016874135	0
1421	3003542897	0.193435996	0.171698594	-0.737172751	-0.624242296	-0.179826919	0.128734969	-0.009726812	0
1424	3003592898	0.192992648	0.171761168	-0.736891129	-0.624694648	-0.085682614	-0.03083792	0.042015576	0
1427	3003642899	0.192143922	0.172003723	-0.736612908	-0.625217447	-0.161054868	0.071558098	-0.008098277	0
1429	3003676233	0.191675246	0.172348735	-0.736088093	-0.625884041	-0.013920964	0.176898546	0.098920133	0
1432	3003726234	0.19081921	0.172894008	-0.734878498	-0.627414763	-0.042933274	-0.042422832	0.103261456	0
1435	3003776235	0.190169376	0.17155399	-0.733631749	-0.629435695	-0.105128848	-0.070651744	0.161765713	0
1437	3003809569	0.190205836	0.170915954	-0.732502924	-0.630911201	-0.102276975	0.139011259	0.107273249	0
1440	3003859570	0.19022017	0.170646078	-0.731368142	-0.632294903	-0.127766035	-0.022600067	0.083528289	0
1443	3003909571	0.190309024	0.170630889	-0.730158296	-0.633669029	-0.110218842	-0.023944425	0.050126234	0
1446	3003959572	0.190641025	0.170879758	-0.728853217	-0.635003225	-0.118845932	0.078432444	0.137410083	0
1448	3003992906	0.190830882	0.171377873	-0.727889344	-0.635916899	-0.246505612	0.099023682	0.016030913	0
1451	3004042907	0.191960196	0.172448481	-0.726445156	-0.636938176	-0.091197782	0.169330728	0.063275315	0
1454	3004092908	0.193458872	0.173488384	-0.725349706	-0.637450586	-0.136738357	0.06198657	0.010043205	0
1456	3004126242	0.194549942	0.174200571	-0.72458946	-0.637788834	0.020308414	0.151958561	-0.006404017	0
1459	3004176243	0.196210608	0.175925482	-0.722986162	-0.63862558	0.016320255	-0.003187731	-0.005291289	0
1462	3004226244	0.197858592	0.176674561	-0.721464812	-0.639630051	-0.004173886	0.059863563	0.047324125	0
1464	3004259578	0.199063029	0.177139794	-0.720606158	-0.640095437	-0.086922069	0.046267341	-0.064356314	0
1468	3004326246	0.200912529	0.178414035	-0.718113902	-0.641961846	-0.127010275	0.097105106	0.008930609	0
1471	3004376247	0.202230879	0.180078676	-0.71478275	-0.644794512	-0.159732499	0.075481576	0.138504326	0
1474	3004426248	0.203726478	0.181296131	-0.712253251	-0.646778587	-0.086271981	0.048595035	0.043022138	0
1477	3004476249	0.204476392	0.183968454	-0.709358633	-0.648964824	-0.165486092	-0.037754037	0.22228825	0
1479	3004509583	0.205249001	0.186780797	-0.707562962	-0.649877247	-0.161995143	0.14800203	-0.091812746	0
1482	3004559584	0.206589811	0.190496884	-0.706109388	-0.649954706	-0.244718724	0.017412724	-0.0306787	0
1485	3004609585	0.207386034	0.193682609	-0.706197428	-0.648662681	-0.212657661	0.006239271	-0.141943241	0
1487	3004642919	0.208954413	0.195950014	-0.705889212	-0.647813295	-0.062430375	0.259529201	0.067609564	0
1490	3004692920	0.210007696	0.198367849	-0.706600915	-0.645958289	-0.121877271	0.013276075	-0.024799887	0
1493	3004742921	0.211381525	0.199509673	-0.708104614	-0.643507262	-0.07983262	-0.026398301	-0.19180041	0
1497	3004809589	0.211640766	0.200121269	-0.70988741	-0.641264009	0.004834003	0.125679248	-0.004641274	0
1500	3004859590	0.211634385	0.199971869	-0.710502005	-0.640631751	-0.129673123	0.306085967	-0.111070794	0
1502	3004892924	0.211437812	0.200569701	-0.710692313	-0.640298589	-0.016937758	0.101127901	-0.145414431	0
1505	3004942925	0.212200714	0.199969154	-0.711101925	-0.639779061	-0.293331821	0.270307177	-0.095462199	0
1508	3004992926	0.213625521	0.199537914	-0.711233468	-0.639293134	-0.043826142	-0.035759315	-0.024960692	0
1510	3005026260	0.213866398	0.199310234	-0.71117212	-0.639351867	-0.132443925	-0.083957935	-0.021252931	0
1513	3005076261	0.213667309	0.199738756	-0.710675381	-0.639836865	-0.085326365	0.071949079	0.28464537	0
1516	3005126262	0.213267351	0.199864136	-0.710087897	-0.640582971	-0.205172252	-0.002266883	0.189361753	0
1518	3005159596	0.213404747	0.199798347	-0.709486876	-0.641223368	-0.144854849	0.063577098	0.254327386	0
1521	3005209597	0.213771569	0.199281376	-0.709088873	-0.641702127	-0.107324434	0.035161415	-0.010106821	0
1525	3005276265	0.214794699	0.199476049	-0.708111194	-0.642379234	-0.272382712	0.117140655	-0.106231975	0
1528	3005326266	0.215694522	0.19987873	-0.707495885	-0.642630484	-0.217234537	0.055654781	-0.111247981	0
1531	3005376267	0.214855896	0.19888354	-0.709662205	-0.640829022	-0.81904994	-0.345204223	-1.005701729	0
1533	3005409601	0.214049998	0.197427291	-0.712277231	-0.638644039	-0.887713058	-0.174443055	-0.339425158	0
1536	3005459602	0.210646707	0.191358151	-0.717550474	-0.635713253	-0.443054266	0.211508932	-0.484995861	0
1539	3005509603	0.204638188	0.183324678	-0.724667277	-0.631959344	0.241864782	0.155132298	-0.108476868	0
1541	3005542937	0.2015926	0.179156373	-0.730262297	-0.627678576	0.231260885	0.211923351	0.129865972	0
1544	3005592938	0.199023759	0.175089632	-0.738641728	-0.619791547	0.26144431	0.899273551	0.362536824	0
1547	3005642939	0.198653187	0.17388067	-0.744723203	-0.612935375	-0.07270624	0.489276302	0.534272328	0
1549	3005676273	0.198976116	0.173873523	-0.748819306	-0.607820821	0.044845907	0.251814075	0.959381971	0
1552	3005726274	0.201384612	0.176822234	-0.754034206	-0.599675371	0.302656611	-0.109166184	0.692020934	0
1555	3005776275	0.205945726	0.18223184	-0.75692426	-0.59282677	0.578648318	-0.050075612	0.307940338	0
1558	3005826276	0.210491059	0.186958106	-0.756903037	-0.589777901	0.017183203	-0.157473607	0.278143237	0
1560	3005859610	0.212413661	0.189227346	-0.756276225	-0.589168669	-0.031060313	-0.122889717	-0.153558434	0
1563	3005909611	0.214988755	0.19313714	-0.754252678	-0.589559817	-0.203259844	-0.136426591	0.164507504	0
1566	3005959612	0.216738456	0.1947717	-0.752904668	-0.590104218	-0.061862941	-0.082494111	-0.094030622	0
1568	3005992946	0.217157923	0.195277035	-0.752480567	-0.590323905	-0.202789469	-0.142763628	-0.027192703	0
1571	3006042947	0.2162483	0.196805677	-0.752231069	-0.590468134	-0.16183546	-0.001493975	-0.097992243	0
1574	3006092948	0.215415593	0.19854037	-0.75159036	-0.591007424	-0.283264068	0.184303534	-0.04769799	0
1576	3006126282	0.215493333	0.198664519	-0.750914483	-0.591795972	-0.248161153	0.23419034	0.063469087	0
1579	3006176283	0.215688916	0.198099199	-0.749919543	-0.593174238	-0.229022334	-0.107979716	-0.0062415	0
1582	3006226284	0.215635643	0.198531495	-0.749238663	-0.593909034	-0.115867911	-0.060938321	-0.087080326	0
1585	3006276285	0.214736626	0.199072842	-0.748975234	-0.594385635	-0.081765695	-0.031671662	-0.09309754	0
1587	3006309619	0.214043886	0.199437006	-0.748633152	-0.594944114	-0.083125997	0.079310294	-0.124936545	0
1590	3006359620	0.212981677	0.199245563	-0.748415032	-0.595663455	-0.091399311	0.040865808	-0.029488901	0
1593	3006409621	0.211831296	0.199248921	-0.748061015	-0.596516628	-0.187855125	0.034173412	-0.027946349	0
1595	3006442955	0.211023428	0.199312086	-0.748033382	-0.596816441	-0.147292239	0.043847896	-0.059429694	0
1598	3006492956	0.21037885	0.19970186	-0.748025648	-0.596923393	-0.151377587	0.123702468	-0.047768712	0
1601	3006542957	0.210146881	0.199792652	-0.748173489	-0.596789422	-0.145521595	0.072045335	0.026294861	0
1605	3006609625	0.209551485	0.200140469	-0.748737041	-0.596175151	-0.100572494	0.004318339	-0.008008427	0
1608	3006659626	0.208876526	0.199373039	-0.748990799	-0.596350377	-0.156253062	-0.029174446	0.006867637	0
1610	3006692960	0.209253082	0.198458921	-0.748968727	-0.596550962	-0.131102834	0.081147618	0.084994065	0
1613	3006742961	0.209712044	0.197383042	-0.74873079	-0.597045223	-0.204632882	0.243413362	0.074809143	0
1616	3006792962	0.209969917	0.196745835	-0.748202426	-0.597826765	-0.206986143	0.253485183	0.043484719	0
1618	3006826296	0.210533946	0.196145806	-0.747709245	-0.598442282	-0.132763816	0.211157726	0.027902012	0
1621	3006876297	0.211141149	0.195205629	-0.747020971	-0.599394567	-0.113907788	0.100620939	0.034654562	0
1624	3006926298	0.212697842	0.195706929	-0.746258095	-0.599630954	-0.109189185	0.182876482	0.018587495	0
1626	3006959632	0.213470714	0.19612892	-0.746138431	-0.599367285	-0.183834732	0.042164155	-0.042533623	0
1629	3007009633	0.21500536	0.197133476	-0.745549093	-0.599222528	-0.142426726	-0.0613187	-0.156907874	0
1633	3007076301	0.215401955	0.199788118	-0.744794993	-0.599138651	-0.147382424	-0.044321969	0.032844213	0
1636	3007126302	0.215779021	0.201488325	-0.74358151	-0.599940336	-0.023400334	0.071159367	0.037805618	0
1639	3007176303	0.216265757	0.201729696	-0.741883937	-0.601782749	-0.115811649	-0.08646723	-0.048026858	0
1641	3007209637	0.216179277	0.202190559	-0.740858738	-0.60292108	-0.270841285	-0.078362733	-0.14339159	0
1644	3007259638	0.215180445	0.202806468	-0.739736521	-0.60444751	-0.124648303	0.108346208	-0.03186598	0
1647	3007309639	0.215060517	0.203940518	-0.738194683	-0.605991625	-0.269578719	0.190711075	-0.037978233	0
1649	3007342973	0.215636608	0.204702209	-0.73710705	-0.606853405	-0.155816088	0.207090351	0.09678688	0
1652	3007392974	0.216895917	0.205903401	-0.735391477	-0.608078389	-0.022897864	-0.090094862	0.189116484	0
1655	3007442975	0.217691327	0.206188307	-0.734220329	-0.609111957	-0.040981207	-0.17626669	0.09049821	0
1657	3007476309	0.21780621	0.206298489	-0.733636814	-0.609736347	-0.065633501	-0.076458955	0.110901231	0
1662	3007559644	0.217235918	0.206223517	-0.732800978	-0.61096902	-0.095787606	0.132434919	-0.074146995	0
1664	3007592978	0.21744903	0.205909666	-0.732542166	-0.611309336	-0.204827344	0.07001774	-0.044616363	0
1667	3007642979	0.217571835	0.204735505	-0.732671013	-0.611505565	-0.126819772	-0.049905566	-0.024659	0
1670	3007692980	0.218235078	0.203368909	-0.733298935	-0.610972348	-0.150737021	0.045851948	0.152489262	0
1672	3007726314	0.218914699	0.202781795	-0.733832999	-0.610282744	-0.191210429	0.155178677	-0.019902341	0
1675	3007776315	0.220139573	0.201790856	-0.734613104	-0.609231159	-0.134210526	0.034984399	0.068013161	0
1678	3007826316	0.221441227	0.20093328	-0.735509404	-0.607960128	-0.041417831	-0.044069146	0.134932668	0
1680	3007859650	0.221807987	0.200271522	-0.736045519	-0.607395693	-0.143399188	-0.029204466	-0.141751306	0
1683	3007909651	0.222345746	0.198569491	-0.736815743	-0.606823769	-0.166210511	0.024013924	-0.123963448	0
1686	3007959652	0.223142071	0.19725528	-0.737266027	-0.606413042	-0.123165955	0.106671745	-0.017485057	0
1688	3007992986	0.223823235	0.196609261	-0.737386544	-0.606225242	-0.117382092	0.04715469	0.051864435	0
1691	3008042987	0.224577707	0.196070484	-0.737576561	-0.605889459	-0.019497313	0.048270394	0.097085999	0
1694	3008092988	0.224504873	0.195906262	-0.737374599	-0.606215307	-0.027444132	0.083809586	0.045055143	0
1697	3008142989	0.224439832	0.195970238	-0.737035797	-0.606630581	-0.149119466	0.150107203	0.034287159	0
1699	3008176323	0.224320791	0.196391796	-0.736596771	-0.607071366	-0.062259521	0.153762389	0.054125981	0
1702	3008226324	0.224341962	0.196965204	-0.735867556	-0.60776174	-0.085720612	0.113762402	0.050948158	0
1705	3008276325	0.22425462	0.197741798	-0.734759052	-0.608881912	-0.074083625	0.061502636	-0.000701054	0
1707	3008309659	0.224109314	0.198032146	-0.734237233	-0.609470237	-0.052525186	-0.063675345	0.181343494	0
1710	3008359660	0.223148759	0.199156765	-0.733447407	-0.610406516	-0.19449776	0.072726632	0.006391944	0
1713	3008409661	0.222427479	0.199885092	-0.732544191	-0.61151531	-0.114378901	0.129375868	0.120527266	0
1716	3008459662	0.222178579	0.200542312	-0.731741468	-0.612351112	-0.190200631	0.083581207	0.058579835	0
1718	3008492996	0.222217276	0.201057519	-0.731495999	-0.612461395	-0.124572184	0.037770049	0.091582989	0
1721	3008542997	0.222273224	0.201839214	-0.731300473	-0.612417475	-0.134180984	-0.024628617	0.074875184	0
1724	3008592998	0.222566151	0.20262248	-0.731091831	-0.612301539	-0.137889253	0.067365594	0.024911692	0
1726	3008626332	0.222835766	0.203237687	-0.730912966	-0.612213117	-0.158659281	0.061965325	0.024623926	0
1729	3008676333	0.223432274	0.204041073	-0.730826641	-0.611831414	-0.132784203	0.042046169	0.050754179	0
1732	3008726334	0.223899206	0.204670878	-0.730919798	-0.61133888	-0.104603683	0.018692918	-0.004320518	0
1734	3008759668	0.224069878	0.204776865	-0.731179232	-0.610930484	-0.137523411	-0.035875751	0.13029676	0
1737	3008809669	0.224073534	0.20518752	-0.731704122	-0.610162446	-0.192196256	0.064763097	0.120100705	0
1741	3008876337	0.224575498	0.205082962	-0.732790376	-0.608707721	-0.210253404	0.055088025	0.047304187	0
1744	3008926338	0.224580249	0.205176691	-0.734135798	-0.607050959	-0.051574371	0.021434363	-0.009297864	0
1747	3008976339	0.224214392	0.205478305	-0.735392258	-0.605561557	-0.124634204	0.096346925	0.009380576	0
1749	3009009673	0.224229132	0.205506904	-0.736021773	-0.604781083	-0.129242276	0.113975828	0.069524122	0
1752	3009059674	0.224757468	0.205348441	-0.736867355	-0.603607985	-0.215730672	0.05706527	0.055299325	0
1755	3009109675	0.225389946	0.2051506	-0.737859852	-0.602225409	-0.15907418	0.058921566	0.039896391	0
1757	3009143009	0.2259712	0.205008704	-0.738536927	-0.601225129	-0.086810414	0.044612044	0.105825272	0
1760	3009193010	0.226726143	0.204778464	-0.73947993	-0.599858708	-0.111907285	0.052970862	-0.042212517	0
1763	3009243011	0.227700245	0.204195373	-0.740149161	-0.598862311	-0.130753154	0.109868184	0.035452453	0
1765	3009276345	0.228372798	0.203787204	-0.740603087	-0.598183674	-0.131262457	0.037091947	-0.023722096	0
1770	3009359680	0.22877901	0.203866716	-0.741905863	-0.596384287	-0.120869959	0.054251173	0.019066447	0
1772	3009393014	0.228922014	0.203862586	-0.742269902	-0.59587763	-0.162655189	0.073343738	-0.012675567	0
1775	3009443015	0.228993749	0.203655068	-0.742764087	-0.595304953	-0.103558844	0.028613756	0.01264925	0
1778	3009493016	0.22903483	0.203003621	-0.743054615	-0.59514907	-0.045943112	0.047617789	0.011747934	0
1780	3009526350	0.228776162	0.202456544	-0.743480529	-0.594902949	-0.075287847	-0.001406765	0.037998617	0
1783	3009576351	0.228302808	0.201901279	-0.74385958	-0.594799653	-0.062697848	0.160339622	-0.01225706	0
1786	3009626352	0.228514805	0.200813387	-0.743799549	-0.59516149	-0.110607319	0.076855235	-0.007400087	0
1788	3009659686	0.228489217	0.200028691	-0.743868921	-0.595348829	-0.095959643	0.0284795	-0.006609105	0
1791	3009709687	0.228416949	0.199127012	-0.743824713	-0.59573394	-0.119789507	0.129685204	0.017788493	0
1794	3009759688	0.228957699	0.198365753	-0.743258552	-0.596486484	-0.149777686	0.084122461	0.075405187	0
1798	3009826356	0.229163009	0.197677011	-0.742776456	-0.597236345	-0.132107672	-0.017840648	0.051255246	0
1801	3009876357	0.22911983	0.197256013	-0.742390341	-0.597871851	-0.108245447	0.108978374	0.08410199	0
1803	3009909691	0.229273377	0.19664959	-0.741909177	-0.598609581	-0.116075911	0.068341633	0.037839227	0
1806	3009959692	0.229343705	0.195699496	-0.741301889	-0.599645464	-0.099149647	-0.006539696	0.059722627	0
1809	3010009693	0.229266338	0.194965944	-0.740915576	-0.600390987	-0.155603508	0.039230231	0.110322367	0
1811	3010043027	0.229141176	0.194513687	-0.740615728	-0.600955149	-0.098789926	0.038159685	-0.06100998	0
1814	3010093028	0.229090015	0.193703968	-0.73996473	-0.602037155	-0.097327239	0.018707433	0.058371477	0
1817	3010143029	0.229016279	0.193138635	-0.739410984	-0.602926536	-0.127224706	0.047552479	0.011386821	0
1819	3010176363	0.228787834	0.192918923	-0.739091846	-0.603474655	-0.149701109	0.015542117	0.034896976	0
1822	3010226364	0.227917833	0.192800957	-0.738827505	-0.604164853	-0.165060266	-0.009685442	-0.017489025	0
1825	3010276365	0.227225523	0.192703397	-0.738537874	-0.604810525	-0.146673994	0.152384373	0.074181972	0
1828	3010326366	0.22703004	0.192570684	-0.738080972	-0.605483585	-0.149426838	0.056270017	0.086646947	0
1830	3010359700	0.227061549	0.192654319	-0.737702798	-0.60590589	-0.0436606	0.079333344	0.083005753	0
1833	3010409701	0.227829571	0.193151019	-0.736748157	-0.606620576	-0.066420565	0.186154327	0.22478271	0
1836	3010459702	0.229576781	0.193911278	-0.73565507	-0.607045744	-0.147473876	0.06300284	0.21368175	0
1838	3010493036	0.230280074	0.194714008	-0.735195554	-0.607079105	-0.166725918	-0.114815607	0.077998545	0
1841	3010543037	0.230321557	0.195590218	-0.734803543	-0.607256288	-0.026182079	-0.023957831	-0.142234367	0
1844	3010593038	0.230525484	0.195355931	-0.734479967	-0.607645652	-0.122179407	0.110689057	-0.066144863	0
1846	3010626372	0.230655265	0.195062911	-0.73409629	-0.608153966	-0.162139497	0.12542498	-0.075018499	0
1849	3010676373	0.231234504	0.195031107	-0.733490853	-0.608674494	-0.089923838	0.080192625	0.080852509	0
1852	3010726374	0.231597832	0.195179971	-0.732996082	-0.609084532	-0.091607784	-0.016013175	-0.02225733	0
1855	3010776375	0.231257875	0.195489252	-0.732608102	-0.609581099	-0.19660957	0.047087915	-0.050275364	0
1857	3010809709	0.231153609	0.195827641	-0.732317935	-0.609860629	-0.227518464	0.031478089	-0.259183313	0
1860	3010859710	0.23133185	0.196671611	-0.731787114	-0.610158564	-0.274874106	0.104277102	-0.097608924	0
1863	3010909711	0.231658139	0.197222032	-0.731256416	-0.610493268	-0.189957348	0.092861697	-0.057906878	0
1865	3010943045	0.232034308	0.197669386	-0.730723669	-0.610843526	-0.159342692	0.027061392	0.073228376	0
1868	3010993046	0.232766158	0.198623426	-0.729952479	-0.611177576	-0.112006387	0.031305099	0.095247668	0
1871	3011043047	0.233456667	0.200043446	-0.729285491	-0.611247313	-0.078923704	0.001809044	0.104095536	0
1873	3011076381	0.233933393	0.200933703	-0.728866036	-0.611273356	-0.089750857	0.03938098	0.027996814	0
1877	3011143049	0.235256691	0.202109829	-0.727675901	-0.611795463	-0.153919811	0.03202989	-0.010059242	0
1880	3011193050	0.235475332	0.202010452	-0.727235264	-0.612267928	-0.221247607	-0.040611535	-0.256653412	0
1883	3011243051	0.23498248	0.20177589	-0.726952545	-0.61287007	-0.060126468	0.081176698	-0.002209142	0
1886	3011293052	0.234406864	0.201315473	-0.727086378	-0.613083111	-0.217073448	0.023907046	0.016773354	0
1888	3011326386	0.23393427	0.201496911	-0.727183728	-0.613088556	-0.157304563	0.053570466	-0.035308586	0
1891	3011376387	0.232997755	0.201537585	-0.727334414	-0.613253046	-0.086999091	0.016706162	-0.167649741	0
1894	3011426388	0.2319299	0.201087145	-0.727364932	-0.613769287	-0.144763208	0.080484493	0.032244072	0
1896	3011459722	0.231250238	0.20067398	-0.727330803	-0.614201258	-0.146294031	0.131624699	-0.03350823	0
1899	3011509723	0.230391577	0.200178959	-0.726892299	-0.615203781	-0.109772154	0.021720262	0.071273123	0
1902	3011559724	0.230065357	0.199849756	-0.72631192	-0.616117685	-0.089347702	0.039158712	-0.066178588	0
1906	3011626392	0.231970047	0.201397978	-0.724913222	-0.616546489	-0.182335008	0.021282488	0.004195241	0
1909	3011676393	0.2327371	0.202295841	-0.723714696	-0.617370937	-0.005205519	-0.018865525	0.137720007	0
1911	3011709727	0.232554373	0.202038532	-0.723035764	-0.618318833	0.014421465	-0.144882804	0.149266461	0
1914	3011759728	0.230942784	0.200448487	-0.721933391	-0.620723783	-0.051427779	-0.039668148	0.019710577	0
1917	3011809729	0.229174253	0.198821273	-0.720682512	-0.623350608	-0.112611284	0.143673032	0.160222521	0
1919	3011843063	0.228019871	0.197515671	-0.720115817	-0.624842147	-0.178727791	0.069399484	0.098988456	0
1922	3011893064	0.226230999	0.196074475	-0.71931828	-0.626861666	-0.078193124	0.021546275	-0.012947074	0
1925	3011943065	0.224210583	0.195330265	-0.718691134	-0.628536996	-0.077801144	0.002681893	0.060272184	0
1927	3011976399	0.222745281	0.194496069	-0.718048096	-0.630049801	-0.121891052	0.165860288	0.139518663	0
1930	3012026400	0.219767333	0.192363942	-0.716558564	-0.633436862	0.014877406	0.032344902	0.363231089	0
1934	3012093068	0.219154944	0.193014742	-0.712174203	-0.638376318	-0.218298364	0.141679285	0.255318767	0
1937	3012143069	0.222285565	0.196324561	-0.708446355	-0.640429197	-0.227628845	0.093749034	0.260841771	0
1940	3012193070	0.224219579	0.19981072	-0.705042542	-0.642429974	0.004197764	-0.262823495	0.326975334	0
1942	3012226404	0.224638326	0.201200363	-0.702789386	-0.644316005	0.210426535	-0.295470415	0.350737706	0
1945	3012276405	0.225795328	0.203138862	-0.69953215	-0.646842983	-0.477391428	0.252376645	-0.161883892	0
1948	3012326406	0.228463617	0.205779882	-0.696747013	-0.648076088	-0.43293426	0.345856641	0.265747318	0
1950	3012359740	0.229320999	0.206913009	-0.69545003	-0.648805165	-0.172561446	0.411515244	0.040470647	0
1953	3012409741	0.231083229	0.211148532	-0.693314398	-0.649100905	-0.219330022	0.0128149	0.056140694	0
1956	3012459742	0.232703389	0.21416133	-0.691146478	-0.6498466	0.076935005	-0.124270153	-0.18223664	0
1959	3012509743	0.232579257	0.215122854	-0.689094289	-0.651750035	0.110750642	0.007054815	-0.209347221	0
1961	3012543077	0.231020312	0.214109407	-0.688437973	-0.653329882	-0.22271365	0.041655743	-0.1070788	0
1964	3012593078	0.227639815	0.210799423	-0.687928438	-0.656123603	0.049456006	0.029341552	-0.219911821	0
1967	3012643079	0.220871984	0.206360593	-0.688714847	-0.659016489	-0.324862432	0.034048698	-0.155103844	0
1969	3012676413	0.216400264	0.200499208	-0.689619004	-0.661359677	-0.268912211	0.178933649	-0.089970649	0
1972	3012726414	0.209383894	0.190487802	-0.691819774	-0.664272672	-0.225899321	0.101502642	0.190144068	0
1975	3012776415	0.203253374	0.180215588	-0.694607097	-0.66613166	-0.020223926	-0.024712511	-0.169291918	0
1977	3012809749	0.19744958	0.172940644	-0.697562132	-0.666717534	-0.162298779	0.447177063	-0.14506518	0
1980	3012859750	0.194460675	0.162465823	-0.700596223	-0.667049349	-0.108124086	0.072881786	-0.147300288	0
1983	3012909751	0.194012739	0.16012577	-0.700461967	-0.667886089	-0.165799045	0.126586132	-0.024070115	0
1985	3012943085	0.194164285	0.16261099	-0.699028915	-0.668742456	0.070529233	0.238716185	0.125461116	0
1988	3012993086	0.194827417	0.1668294	-0.697064121	-0.669560931	-0.121668408	-0.02481773	0.070707032	0
1991	3013043087	0.195348934	0.169170146	-0.695398382	-0.670553015	-0.002198394	0.151092213	0.089745753	0
1994	3013093088	0.196191876	0.171372691	-0.694034887	-0.671159984	-0.055823553	0.072394268	0.076764133	0
1996	3013126422	0.196752894	0.1728777	-0.693367866	-0.67129919	-0.05649329	0.025515897	0.004559081	0
1999	3013176423	0.197299397	0.175723705	-0.692012402	-0.671798305	-0.168956525	0.179150816	-0.043251993	0
2002	3013226424	0.199157536	0.178719976	-0.689657984	-0.672879864	0.064516455	0.051836436	0.055897031	0
2004	3013259758	0.199935278	0.180613666	-0.688184772	-0.673651473	-0.07126433	0.133189483	-0.101805778	0
2007	3013309759	0.201322316	0.183603269	-0.685428661	-0.675238266	-0.038196736	-0.003311442	0.016694188	0
2010	3013359760	0.201170939	0.185657402	-0.683440415	-0.676735385	-0.136854152	0.004625242	0.100941249	0
2014	3013426428	0.202173717	0.186053029	-0.680945521	-0.678839639	-0.126301323	0.072251656	0.088019664	0
2017	3013476429	0.203185563	0.184981825	-0.680920646	-0.678855231	-0.041495909	0.307565032	-0.19952531	0
2019	3013509763	0.203712627	0.185583348	-0.680671591	-0.67878286	-0.179402869	-0.142506445	0.17443208	0
2022	3013559764	0.203291142	0.185628582	-0.680437544	-0.679131423	-0.029500319	0.057966095	0.000731194	0
2025	3013609765	0.202596952	0.185810328	-0.680477434	-0.679249187	-0.133620115	0.19559486	-0.064739314	0
2027	3013643099	0.202384143	0.186288619	-0.679990077	-0.679669556	-0.104779643	0.102530915	0.036455483	0
2030	3013693100	0.202081892	0.187400347	-0.679329211	-0.68011458	-0.141102523	0.059801254	-0.118772143	0
2033	3013743101	0.201173825	0.188995087	-0.678843949	-0.680426955	-0.145853798	-0.0361812	0.071937966	0
2035	3013776435	0.200464442	0.189696223	-0.678617786	-0.680666769	-0.146808139	0.139141863	-0.178979401	0
2038	3013826436	0.198982223	0.190612308	-0.67886609	-0.680598159	-0.165561809	-0.033701812	0.024417088	0
2042	3013893104	0.197832651	0.189029184	-0.679324456	-0.680917391	-0.079073874	0.005022509	0.071006382	0
2045	3013943105	0.196786248	0.187390402	-0.679491045	-0.681507102	-0.089583461	-0.004326806	-0.058856848	0
2048	3013993106	0.195759625	0.185228545	-0.680481887	-0.681405134	-0.015803313	0.159399542	-0.089805057	0
2050	3014026440	0.195102589	0.184150478	-0.681208338	-0.681159879	-0.117390199	0.11699076	-0.025896367	0
2053	3014076441	0.194399487	0.181872464	-0.682454753	-0.68072517	0.0246073	0.130126366	-0.097669926	0
2056	3014126442	0.193412474	0.18005679	-0.68318591	-0.680755595	-0.14268071	0.124682911	0.014929634	0
2058	3014159776	0.192766441	0.178664093	-0.683734072	-0.680755434	-0.106492342	0.118612652	0.034415383	0
2061	3014209777	0.191686406	0.176534222	-0.684503658	-0.680842664	-0.081147942	0.044870498	-0.08642676	0
2064	3014259778	0.190382815	0.174382899	-0.685010263	-0.681253204	-0.06906879	0.125367746	0.003063162	0
2067	3014309779	0.189857175	0.172471976	-0.685083171	-0.681812818	-0.0689352	0.098407306	0.025778307	0
2071	3014376447	0.187556994	0.171022768	-0.685421627	-0.682474014	-0.165980984	0.102847983	-0.019772021	0
2073	3014409781	0.18596367	0.170912588	-0.685238064	-0.683121655	-0.243955559	0.097161853	-0.038754653	0
2076	3014459782	0.183160591	0.16991711	-0.685594164	-0.683769709	-0.293897093	0.171726542	-0.063723585	0
2079	3014509783	0.182570893	0.169227542	-0.684561231	-0.685131979	-0.034002447	0.058229531	0.207199506	0
2081	3014543117	0.181673262	0.16910173	-0.684474198	-0.685488514	-0.050246025	0.05350282	0.006632501	0
2084	3014593118	0.180958501	0.169108043	-0.684242493	-0.685907211	-0.028046389	0.062759866	0.055053458	0
2087	3014643119	0.180362481	0.169346105	-0.684041352	-0.68620602	-0.172098067	0.070242471	0.066520279	0
2089	3014676453	0.180268071	0.169639971	-0.68390667	-0.686292481	-0.088623169	0.106196713	0.084167056	0
2092	3014726454	0.179566679	0.170664809	-0.683694849	-0.686433306	-0.083877262	0.055025278	-0.003318537	0
2095	3014776455	0.178874116	0.171301432	-0.683607941	-0.686542098	-0.163409927	0.105361063	0.080830282	0
2098	3014826456	0.179342275	0.17154317	-0.683364904	-0.686601556	-0.027552321	0.10174853	-0.017708894	0
2100	3014859790	0.179390751	0.171926677	-0.683355709	-0.686502113	-0.132273003	0.138735048	0.049967304	0
2103	3014909791	0.18048769	0.172479908	-0.682846333	-0.686582669	-0.050886302	0.131902813	0.04796613	0
2106	3014959792	0.18161906	0.173687022	-0.682404368	-0.686419416	-0.051322328	-0.039722248	-0.016352542	0
2108	3014993126	0.181290907	0.174405234	-0.682381669	-0.686346618	-0.108239541	0.038430092	0.008094577	0
2111	3015043127	0.181361468	0.175037465	-0.682197515	-0.686350096	-0.116195786	0.016530425	-0.051379017	0
2114	3015093128	0.181248157	0.175752974	-0.682147626	-0.686246759	-0.205988473	0.130047322	0.151027508	0
2116	3015126462	0.18221202	0.176453891	-0.681827529	-0.686129743	0.017688919	0.088393711	0.07228765	0
2119	3015176463	0.183216867	0.177112846	-0.681328877	-0.686187716	-0.056925215	-0.034921391	0.086419695	0
2122	3015226464	0.183277829	0.177158404	-0.681592816	-0.685897493	-0.183728038	0.051953254	0.014878794	0
2125	3015276465	0.183197472	0.177000161	-0.682210542	-0.685345464	-0.238012405	0.087212176	0.06072027	0
2127	3015309799	0.183908185	0.176444518	-0.682379868	-0.685129789	0.0349355	0.079683085	0.089732294	0
2130	3015359800	0.184730158	0.175885539	-0.682689617	-0.684743698	-0.09902085	0.097540347	0.1021741	0
2133	3015409801	0.185278433	0.175540089	-0.682937992	-0.684436467	-0.127015815	0.077930831	0.077491888	0
2135	3015443135	0.185530025	0.175775714	-0.683064509	-0.684181544	-0.139040145	0.086008702	0.083587786	0
2138	3015493136	0.185678191	0.176786525	-0.683168187	-0.683777276	-0.097968179	0.107970466	0.102414506	0
2141	3015543137	0.186267197	0.178032413	-0.682880368	-0.683581301	-0.080537063	0.183266396	-0.02327451	0
2143	3015576471	0.186604255	0.179255966	-0.682680037	-0.683369679	-0.14130324	0.002783454	0.099631839	0
2146	3015626472	0.186673214	0.180865896	-0.68201218	-0.683593465	-0.01720423	0.131690021	-0.16779728	0
2150	3015693140	0.186633227	0.182759974	-0.681759337	-0.683352791	-0.025095462	0.098606876	0.030366934	0
2153	3015743141	0.186647323	0.184182316	-0.681588909	-0.683137037	-0.06248458	0.066642618	-0.010480648	0
2156	3015793142	0.187101552	0.185232974	-0.680501465	-0.683812482	-0.192099095	0.086189744	0.058541282	0
2158	3015826476	0.187720624	0.185905018	-0.679592182	-0.684364492	-0.066754602	-0.024359921	-0.033401271	0
2161	3015876477	0.188192268	0.186686631	-0.678193032	-0.685409355	0.052448091	0.138947401	0.002983555	0
2164	3015926478	0.188526716	0.187347267	-0.677018894	-0.686297381	-0.109502561	0.071152292	0.001324775	0
2166	3015959812	0.188961313	0.187777506	-0.676314121	-0.686755007	-0.061650774	0.088210201	0.016046783	0
2169	3016009813	0.189049254	0.188729854	-0.675343473	-0.687424625	-0.061338078	0.025159172	-0.019464549	0
2172	3016059814	0.188543156	0.189689894	-0.674595143	-0.688033876	-0.100174024	0.047891039	0.021946555	0
2174	3016093148	0.187823968	0.190389985	-0.674068487	-0.688553183	-0.05017839	0.027223582	-0.082315042	0
2179	3016176483	0.18545361	0.190488009	-0.672780841	-0.690425388	-0.183309678	0.030796659	0.13922988	0
2181	3016209817	0.186410721	0.189248554	-0.672034923	-0.691234469	-0.047439644	-0.016712697	-0.065933112	0
2184	3016259818	0.186481208	0.188019347	-0.672552284	-0.69104769	-0.10049879	0.029525379	0.013833838	0
2187	3016309819	0.186175204	0.187419519	-0.673342308	-0.690523608	-0.088711628	0.008720066	0.063654566	0
2189	3016343153	0.185954594	0.187098744	-0.673914255	-0.690111966	0.002447447	0.121795405	0.036628655	0
2192	3016393154	0.185832483	0.18683892	-0.67475024	-0.689398013	-0.154516998	0.186096853	-0.03715448	0
2195	3016443155	0.186392121	0.186397871	-0.675113344	-0.689010729	-0.048990944	0.029315611	-0.06396531	0
2197	3016476489	0.186253298	0.186483892	-0.675280211	-0.688861454	-0.230733275	0.136624732	-0.048098303	0
2200	3016526490	0.186701959	0.186531567	-0.675327786	-0.68868043	-0.089781292	0.049220921	0.028432507	0
2203	3016576491	0.187082976	0.186556162	-0.675298665	-0.688598919	-0.018685875	0.074732174	0.068157583	0
2207	3016643159	0.189118756	0.186098058	-0.675135621	-0.688326595	-0.052864684	0.153427666	0.265201446	0
2210	3016693160	0.190650123	0.186452247	-0.674994524	-0.68794657	-0.202030974	-0.009519448	0.118525297	0
2212	3016726494	0.191308235	0.186906064	-0.674765027	-0.68786586	-0.037674394	-0.005948268	0.048177475	0
2215	3016776495	0.191531739	0.187427772	-0.675041869	-0.687389917	-0.101264134	0.043199657	0.078323312	0
2218	3016826496	0.190920017	0.188553659	-0.67497278	-0.687320021	-0.233068098	0.140200465	0.07390279	0
2220	3016859830	0.190929679	0.18918441	-0.675573965	-0.686552936	-0.065348082	0.116255575	-0.049514345	0
2223	3016909831	0.190293923	0.189863391	-0.676502823	-0.685626754	-0.09825888	0.023807677	-0.078935504	0
2226	3016959832	0.189765921	0.189399899	-0.677555343	-0.684861541	-0.074295193	0.092580617	-0.120828259	0
2228	3016993166	0.18957256	0.188950669	-0.67815519	-0.684445343	-0.111041542	0.129742709	-0.007944772	0
2231	3017043167	0.189269293	0.188069547	-0.679184807	-0.683750669	-0.062202157	-0.004043801	-0.127862725	0
2234	3017093168	0.187293484	0.187667162	-0.68010586	-0.683489727	-0.130741143	0.070903065	-0.07292143	0
2237	3017143169	0.185566201	0.187032437	-0.680644268	-0.683598883	-0.069314633	0.117537762	0.014967492	0
2239	3017176503	0.184750595	0.186822577	-0.680952637	-0.683570076	-0.170218663	0.077159018	0.018203601	0
2242	3017226504	0.18419322	0.186380032	-0.681250478	-0.683544532	-0.032134544	0.09898565	-0.001177571	0
2245	3017276505	0.183633678	0.18587518	-0.681456376	-0.683627309	-0.120577925	0.054561307	0.016202426	0
2247	3017309839	0.183188954	0.185445383	-0.681398903	-0.683920574	-0.087976974	0.040494468	0.068056842	0
2250	3017359840	0.182387946	0.183976575	-0.681430747	-0.684499375	0.003500837	-0.047093157	-0.085526662	0
2253	3017409841	0.179588399	0.180708635	-0.682596238	-0.684948737	-0.249242523	0.275912009	-0.038835092	0
2256	3017459842	0.17778535	0.177433391	-0.683428151	-0.685445638	-0.168508185	-0.032327513	0.059592526	0
2258	3017493176	0.176788926	0.175254264	-0.683901024	-0.685792249	0.15134055	0.163321135	-0.101809646	0
2261	3017543177	0.174428486	0.172868247	-0.686271046	-0.684633715	-0.201116651	-0.112061584	-0.104857835	0
2264	3017593178	0.171403477	0.169020618	-0.688050746	-0.684572166	-0.033248445	0.117991067	-0.025221965	0
2266	3017626512	0.169867889	0.167342628	-0.692987737	-0.680374413	-0.103685559	-0.051027588	0.131576779	0
2269	3017676513	0.172748214	0.164914463	-0.698799207	-0.674270674	0.036651078	-0.106290684	0.205281055	0
2272	3017726514	0.180146267	0.166786757	-0.69915802	-0.67149651	-0.172069086	0.091920426	-0.017362259	0
2274	3017759848	0.185494634	0.168190605	-0.698907921	-0.669948789	-0.15739229	0.036470396	-0.020429677	0
2277	3017809849	0.191878957	0.171032294	-0.69906171	-0.667265424	-0.064857184	0.074528868	-0.136979356	0
2280	3017859850	0.196914835	0.174161676	-0.699301147	-0.664733152	-0.20100063	0.057984272	-0.132926484	0
2282	3017893184	0.199986083	0.17551996	-0.699819507	-0.66291098	-0.159376843	0.149755705	0.030138184	0
2287	3017976519	0.202956165	0.176521518	-0.701512928	-0.659945877	-0.190686686	0.109420455	-0.045750552	0
2289	3018009853	0.202476769	0.176141483	-0.702527635	-0.659114753	-0.118133317	0.010360888	-0.055112663	0
2292	3018059854	0.200863262	0.173563295	-0.703685624	-0.659057111	-0.0926773	-0.049230337	-0.158068396	0
2295	3018109855	0.197988185	0.169265867	-0.705715951	-0.658873843	-0.009894088	-0.076754578	-0.080228986	0
2297	3018143189	0.195128614	0.166092087	-0.707281558	-0.658855857	-0.191616147	0.045475061	-0.014949587	0
2300	3018193190	0.190895207	0.161018101	-0.709737004	-0.658715095	-0.02763001	0.100893497	-0.110927498	0
2303	3018243191	0.186620921	0.155468021	-0.712302678	-0.658503775	-0.086580014	0.076841085	-0.042091883	0
2305	3018276525	0.183601057	0.151523254	-0.713917441	-0.658523532	-0.01720333	-0.008923051	-0.020251022	0
2308	3018326526	0.179138021	0.145605424	-0.716206085	-0.658602667	-0.148317263	0.06808352	-0.104355249	0
2311	3018376527	0.174718618	0.139885788	-0.718854914	-0.658143589	-0.238637057	0.024544421	0.090290588	0
2315	3018443195	0.170538219	0.132371273	-0.722780856	-0.656492495	0.110061736	0.1048274	-0.010579162	0
2318	3018493196	0.167815871	0.127034828	-0.725243204	-0.655532059	-0.128792225	0.071513577	0.001958978	0
2320	3018526530	0.166224425	0.122853866	-0.72635499	-0.655503468	0.007079714	0.171907834	-0.044609513	0
2323	3018576531	0.163142758	0.116969914	-0.727514512	-0.656067919	-0.011697359	0.104910932	-0.063688746	0
2326	3018626532	0.159449647	0.111918785	-0.7279759	-0.657343962	0.163085769	0.283281317	0.048691423	0
2328	3018659866	0.156559087	0.107624628	-0.728913947	-0.657716237	-0.391608679	-0.002383809	0.053551797	0
2331	3018709867	0.153946379	0.100586246	-0.730471757	-0.657718733	-0.031210928	0.200491522	0.083019088	0
2334	3018759868	0.152184271	0.094069462	-0.731277404	-0.658197723	0.100865219	0.395232251	0.131478815	0
2336	3018793202	0.150853326	0.090412563	-0.73108764	-0.659226596	0.103278783	0.062736442	0.106026771	0
2339	3018843203	0.14917113	0.08506792	-0.730561858	-0.660901502	-0.088751859	0.161695708	0.13505922	0
2343	3018909871	0.149989451	0.079984009	-0.729796945	-0.662194942	-0.311996648	0.175328085	0.092713077	0
2346	3018959872	0.152445907	0.076519733	-0.72883521	-0.663101963	-0.144961389	0.04316025	0.172000536	0
2349	3019009873	0.155566072	0.073475402	-0.727137524	-0.664583768	0.037171246	0.108089065	0.072219664	0
2351	3019043207	0.157178587	0.071493986	-0.726204195	-0.665440432	-0.093137859	0.157893427	0.115995744	0
2354	3019093208	0.158890901	0.069426296	-0.725156282	-0.666394806	0.0145761	0.082498647	0.140658609	0
2357	3019143209	0.160656203	0.068091498	-0.724199617	-0.667149194	-0.031697347	-0.001873966	0.166147385	0
2359	3019176543	0.161328816	0.067335041	-0.723857897	-0.667434454	-0.027153474	0.045192305	0.141175064	0
2362	3019226544	0.16063644	0.066614702	-0.723785515	-0.667752158	-0.209377097	0.052848881	0.054150692	0
2365	3019276545	0.158095455	0.065835936	-0.724215387	-0.667969707	-0.200504576	-0.085692306	0.072556365	0
2368	3019326546	0.153689205	0.065218245	-0.724491953	-0.668758267	-0.158132139	-0.087448164	0.085027099	0
2370	3019359880	0.149551139	0.064465483	-0.725277944	-0.668917456	-0.142761792	0.093883784	0.107614125	0
2373	3019409881	0.143898766	0.062904386	-0.726863981	-0.668584278	-0.151077241	0.12869642	0.190821859	0
2376	3019459882	0.139384021	0.060530585	-0.727730939	-0.668816734	0.038050207	0.357054557	0.213489962	0
2378	3019493216	0.13705065	0.059299959	-0.728048024	-0.669064054	0.124766909	0.195641193	0.182277943	0
2381	3019543217	0.134582286	0.057449683	-0.728552074	-0.669177867	-0.043773819	0.244874095	0.233119154	0
2384	3019593218	0.133432172	0.056346378	-0.728495783	-0.669563168	0.095908314	0.213921202	0.071864897	0
2386	3019626552	0.133059666	0.055939954	-0.728192262	-0.670001401	0.021000704	0.149989367	0.078660788	0
2389	3019676553	0.13294731	0.055683735	-0.727912246	-0.670349235	0.059496217	0.121515949	0.134420176	0
2392	3019726554	0.133108027	0.055529647	-0.727419735	-0.670864547	0.044932876	0.133195318	-0.026762567	0
2395	3019776555	0.133487526	0.055343069	-0.726681208	-0.671604532	-0.072379421	0.064264345	-0.02000831	0
2397	3019809889	0.133858948	0.055390432	-0.726086224	-0.672169977	-0.078337967	0.10796938	-0.040321727	0
2400	3019859890	0.133794835	0.055427552	-0.725600846	-0.672703605	-0.236482738	0.233755318	-0.125968691	0
2403	3019909891	0.134452869	0.055749275	-0.724831373	-0.673375025	-0.085544311	0.059265292	0.040415517	0
2405	3019943225	0.134617721	0.055696013	-0.724819404	-0.673359381	-0.104760581	-0.054499478	0.047047876	0
2408	3019993226	0.134677417	0.055510236	-0.725107144	-0.673052923	-0.077850092	0.033011098	0.013252144	0
2411	3020043227	0.134810017	0.055196451	-0.725811985	-0.67229203	-0.098871978	0.082080682	0.003368631	0
2413	3020076561	0.135217467	0.055289281	-0.726397888	-0.671569387	-0.049417096	0.084912471	-0.036947921	0
2416	3020126562	0.136047122	0.055581723	-0.727297746	-0.670402746	-0.040575944	0.067146887	0.019306715	0
2419	3020176563	0.137371837	0.055924252	-0.727918918	-0.669429239	-0.032635862	0.053573449	-0.07674308	0
2423	3020243231	0.138941555	0.055899887	-0.728546384	-0.668423977	-0.045083926	0.091379995	-0.091355612	0
2426	3020293232	0.13916686	0.055793319	-0.7290204	-0.667868959	-0.03493854	0.054329496	-0.065709229	0
2428	3020326566	0.139374794	0.055882822	-0.729257731	-0.66755894	-0.033115076	0.23975293	-0.014823712	0
2431	3020376567	0.139783276	0.056497112	-0.729024786	-0.667676249	-0.084995903	0.103082082	-0.103858916	0
2434	3020426568	0.139990362	0.056952728	-0.72894316	-0.667683275	-0.072454804	0.06944683	0.057826979	0
2436	3020459902	0.140212217	0.057050318	-0.728572306	-0.668033076	-0.098901624	0.047338861	-0.061356536	0
2439	3020509903	0.140014754	0.056835298	-0.728731452	-0.667919223	-0.099095477	0.051623657	0.044804313	0
2442	3020559904	0.140209359	0.056937581	-0.728832064	-0.667759889	-0.016123035	0.02099618	0.113069803	0
2445	3020609905	0.140191622	0.056991794	-0.72881909	-0.667773148	-0.072290281	0.101874911	0.007766961	0
2447	3020643239	0.140185225	0.057293705	-0.728624641	-0.667960827	-0.092785907	0.09035596	-0.015265751	0
2451	3020709907	0.140387674	0.058037965	-0.727915312	-0.668627097	-0.081708646	0.119563171	0.002032353	0
2454	3020759908	0.14060508	0.058802181	-0.727337086	-0.66914369	-0.092947819	0.070360571	0.022481194	0
2457	3020809909	0.140885565	0.05929231	-0.726897715	-0.669518777	-0.068443152	0.03527483	-0.055482034	0
2459	3020843243	0.140911923	0.059582754	-0.72662693	-0.66978133	-0.036826956	0.058626262	-0.018942291	0
2462	3020893244	0.140818272	0.060050363	-0.726313115	-0.670099565	-0.07806877	0.106888992	0.003968019	0
2465	3020943245	0.140748561	0.060598569	-0.725923736	-0.670486678	-0.084382152	0.135289625	-0.003873949	0
2467	3020976579	0.140623215	0.060885114	-0.725790926	-0.670630783	0.023346919	0.072603792	0.216070198	0
2470	3021026580	0.140762119	0.061392402	-0.72553941	-0.670827521	-0.053366697	0.041234147	0.037844673	0
2473	3021076581	0.140950198	0.061896516	-0.725784149	-0.670476869	-0.11385408	0.157111348	0.071080819	0
2476	3021126582	0.14153172	0.062963136	-0.726099858	-0.669912988	-0.1115552	0.164304925	0.047728471	0
2480	3021193250	0.143698537	0.064578242	-0.726819708	-0.668515888	-0.095650428	0.083431082	0.035897775	0
2482	3021226584	0.144736478	0.065356214	-0.72726154	-0.667735404	-0.127036035	0.04891568	0.047907307	0
2485	3021276585	0.146708527	0.066085016	-0.728084053	-0.666335494	-0.173489744	0.138351935	0.117710983	0
2488	3021326586	0.150188132	0.066121464	-0.728952755	-0.664604663	-0.028932247	0.121004692	0.036158934	0
2490	3021359920	0.152869545	0.065890803	-0.729412758	-0.663510613	-0.004816312	0.009324469	-0.085200155	0
2493	3021409921	0.155490768	0.065793437	-0.729963758	-0.662304127	0.02743683	0.005457969	-0.08721373	0
2496	3021459922	0.155769888	0.066403889	-0.730868675	-0.661178679	0.024988204	0.009360008	-0.026429839	0
2499	3021509923	0.155270632	0.066883727	-0.731366408	-0.660697188	-0.06003571	0.148189064	-0.080711721	0
2501	3021543257	0.154577177	0.066738332	-0.731754926	-0.660444259	-0.045795313	0.140016737	-0.04613416	0
2504	3021593258	0.154506424	0.066950962	-0.731222839	-0.66102836	-0.029291886	0.033238968	0.033774798	0
2507	3021643259	0.154152123	0.066888626	-0.73097187	-0.66139486	-0.072884361	0.147430362	0.010025139	0
2509	3021676593	0.153971151	0.066956095	-0.730825791	-0.661591588	-0.025169649	0.097579547	0.084061052	0
2512	3021726594	0.154042689	0.067103181	-0.730539043	-0.661876664	-0.066035959	0.211260302	0.035419937	0
2515	3021776595	0.154709871	0.06799691	-0.729945903	-0.66228412	0.040193511	0.140577964	0.008884838	0
2517	3021809929	0.155218689	0.06844208	-0.729429834	-0.662687677	0.003148729	0.077207524	-0.00186396	0
2520	3021859930	0.155541287	0.068992517	-0.728695885	-0.663362079	-0.020415555	0.021661926	0.042702971	0
2523	3021909931	0.155346129	0.068922069	-0.728169476	-0.663992879	-0.090801824	0.110176184	-0.055263856	0
2525	3021943265	0.155225251	0.069026291	-0.727916942	-0.66428715	-0.086254702	0.182545995	-0.028412962	0
2528	3021993266	0.155259503	0.069573273	-0.727578507	-0.664592779	-0.114879429	0.078549901	0.063989401	0
2531	3022043267	0.155375927	0.070281554	-0.727089902	-0.665025638	-0.126214987	0.12687178	-0.104406177	0
2534	3022093268	0.155061352	0.070520285	-0.726662231	-0.665541035	-0.173046692	0.133390341	-0.145218596	0
2536	3022126602	0.155088631	0.07056535	-0.726225179	-0.666006784	-0.083572909	0.148315495	0.158265752	0
2539	3022176603	0.15529742	0.070906263	-0.726388213	-0.665744078	-0.111974144	0.097414003	0.047712524	0
2542	3022226604	0.15587074	0.071351039	-0.72642502	-0.665522375	-0.036230458	0.035196491	0.028580761	0
2544	3022259938	0.156121321	0.071528348	-0.726406038	-0.665465323	-0.056550759	0.118631056	0.034746858	0
2547	3022309939	0.15626356	0.07193751	-0.726385119	-0.665410665	-0.005443806	0.070794521	0.020724607	0
2550	3022359940	0.156254115	0.072161844	-0.726060102	-0.66574323	-0.06142027	0.11025466	0.037242408	0
2553	3022409941	0.156162851	0.072522325	-0.725792452	-0.666017262	-0.063289067	0.057504747	0.028841538	0
2555	3022443275	0.156038668	0.072619567	-0.725793495	-0.666034635	-0.07397204	0.086800843	0.019839813	0
2559	3022509943	0.155872185	0.072738126	-0.72598416	-0.665852857	-0.025194795	0.100861761	0.055250227	0
2562	3022559944	0.155943684	0.072850927	-0.726026987	-0.665777083	-0.07739891	0.067363426	0.027692451	0
2565	3022609945	0.155551528	0.072602829	-0.72632816	-0.665567394	-0.085774245	0.098000358	0.075524389	0
2567	3022643279	0.155622335	0.072559444	-0.726086706	-0.665818977	-0.082668177	0.104618778	-0.038407944	0
2570	3022693280	0.155555135	0.072506171	-0.726348635	-0.665554743	-0.075108185	0.088996868	0.086488486	0
2573	3022743281	0.15572923	0.072633154	-0.726658349	-0.665161992	-0.036828762	0.073105596	0.006540408	0
2575	3022776615	0.155873885	0.072586688	-0.726795668	-0.664983129	-0.047408528	0.078150557	0.025834747	0
2578	3022826616	0.156217093	0.072750843	-0.726994086	-0.664667687	-0.071884768	0.08782197	-0.003990466	0
2581	3022876617	0.156511328	0.072824742	-0.727200178	-0.664364856	-0.058135323	0.101724536	-0.000845021	0
2584	3022926618	0.156858415	0.073006109	-0.727356215	-0.664092224	-0.074098373	0.062441967	-0.026078162	0
2588	3022993286	0.157121791	0.073066651	-0.727449605	-0.663920989	-0.100343477	0.102663492	-0.006800101	0
2590	3023026620	0.15735252	0.072970847	-0.72749748	-0.663824416	-0.083607913	0.118398793	0.021937367	0
2593	3023076621	0.15790885	0.072875466	-0.727477767	-0.663724386	-0.041676417	0.143097115	-0.009811442	0
2596	3023126622	0.158508803	0.073166296	-0.72725762	-0.663790634	0.026960048	0.075218187	0.019589403	0
2598	3023159956	0.158218321	0.073129761	-0.727401165	-0.663706672	-0.030491734	0.070086725	-0.007142242	0
2601	3023209957	0.158152946	0.073186524	-0.727091702	-0.664054995	0.000929209	0.099660662	0.09691345	0
2604	3023259958	0.15801378	0.073321035	-0.727072094	-0.664094754	-0.067657681	0.123849856	0.016264992	0
2606	3023293292	0.158054834	0.073514119	-0.726998498	-0.664144207	-0.05547123	0.078996299	0.026046196	0
2609	3023343293	0.158287251	0.073615324	-0.726744675	-0.664355407	-0.079740577	0.134550615	0.026691017	0
2612	3023393294	0.158548579	0.073660973	-0.726540601	-0.664511222	-0.079536291	0.090496926	-0.002583753	0
2616	3023459962	0.158588357	0.073372701	-0.726474051	-0.664606374	-0.052414854	0.088980157	0.031049784	0
2619	3023509963	0.158615441	0.073178737	-0.726373932	-0.664730716	-0.085395924	0.080199655	0.021758556	0
2621	3023543297	0.158558072	0.073054873	-0.726263409	-0.664878774	-0.059873224	0.099919733	0.015343427	0
2624	3023593298	0.158372296	0.072958856	-0.726173816	-0.665031435	-0.080123744	0.13318866	0.015788868	0
2627	3023643299	0.15843572	0.073167061	-0.726179704	-0.664987023	-0.083555407	0.11273074	0.005569276	0
2629	3023676633	0.1585118	0.073295432	-0.72621994	-0.664910812	-0.083313412	0.085950911	-0.017952661	0
2632	3023726634	0.158664988	0.073328088	-0.726181232	-0.664912951	-0.107412125	0.096191305	-0.043099111	0
2635	3023776635	0.158166747	0.072823832	-0.726420556	-0.66482565	-0.19565192	0.132404491	-0.141028032	0
2638	3023826636	0.157924907	0.072472229	-0.726492468	-0.664842984	-0.047569413	0.106298692	0.070107036	0
2640	3023859970	0.15779979	0.072452107	-0.72667564	-0.664674682	-0.050770225	0.109301572	0.021758312	0
2643	3023909971	0.15788168	0.072649135	-0.726869577	-0.664421626	-0.039889467	0.052911845	-0.001769704	0
2646	3023959972	0.157910989	0.072716884	-0.726976551	-0.664290199	-0.048489112	0.105759918	0.049991258	0
2648	3023993306	0.15795068	0.072794746	-0.727055474	-0.664185852	-0.040300578	0.078184872	0.013820043	0
2651	3024043307	0.157885917	0.072539171	-0.727154292	-0.66412103	-0.093558346	0.120279436	0.042497674	0
2654	3024093308	0.158084117	0.072618442	-0.727279988	-0.663927551	-0.01461311	0.082256442	0.075230572	0
2656	3024126642	0.15837164	0.072746904	-0.727394975	-0.663718963	-0.030646261	0.062784461	0.068730758	0
2659	3024176643	0.158559725	0.072904232	-0.727695542	-0.663327208	-0.00199696	0.088092861	0.038430556	0
2662	3024226644	0.158596474	0.073060076	-0.728118524	-0.662836932	-0.044111684	0.121097915	-0.004938089	0
2665	3024276645	0.158993813	0.073329012	-0.728403488	-0.662398809	-0.057215097	0.189601432	0.023319377	0
2667	3024309979	0.159517864	0.073712753	-0.728446008	-0.66218343	-0.05272066	0.227997614	0.18730715	0
2670	3024359980	0.16133821	0.074969416	-0.728245036	-0.661822284	-0.103675378	0.252294422	0.118177199	0
2673	3024409981	0.163604524	0.07658451	-0.728105098	-0.661234707	-0.092826001	0.197320285	0.057801211	0
2675	3024443315	0.165760974	0.077772882	-0.727515372	-0.661208032	-0.018815818	0.026947099	0.024535776	0
2678	3024493316	0.168270541	0.078882568	-0.727409259	-0.660559108	0.011361392	-0.017422414	-0.018873919	0
2681	3024543317	0.170193793	0.079395856	-0.727383453	-0.660033093	-0.075613169	-0.028895879	-0.125912834	0
2683	3024576651	0.171056353	0.079218685	-0.727289969	-0.65993441	-0.067256252	0.030282266	-0.184916547	0
2686	3024626652	0.170658485	0.079143283	-0.727682224	-0.659613981	-0.118564078	-0.042004093	-0.151843752	0
2689	3024676653	0.169079061	0.078106686	-0.729410055	-0.658234448	-0.156481459	-0.098433627	-0.009638687	0
2692	3024726654	0.166726064	0.075877175	-0.732027505	-0.656186563	-0.103446694	0.102132703	-0.097359289	0
2696	3024793322	0.165477271	0.070960813	-0.735768832	-0.65285991	-0.169560668	0.287802156	0.043468049	0
2698	3024826656	0.166492888	0.068362497	-0.737253551	-0.65120188	0.035395729	0.37457134	0.040499208	0
2701	3024876657	0.168979888	0.065248429	-0.738465157	-0.649505698	0.16593779	0.235138512	-0.118569789	0
2704	3024926658	0.170935931	0.063042072	-0.7387905	-0.64884143	0.052523475	0.211856009	-0.099836744	0
2706	3024959992	0.172305355	0.062239653	-0.738879122	-0.648455653	-0.026776994	0.129793224	-0.059422217	0
2710	3025026660	0.176096636	0.061746941	-0.739120508	-0.647207976	-0.284064545	0.134282353	0.037503239	0
2713	3025076661	0.180156516	0.060588253	-0.739904788	-0.645301168	-0.068745252	-0.017228158	0.135934508	0
2716	3025126662	0.184820679	0.059587314	-0.739615938	-0.644405875	0.028496459	0.193627946	0.006532415	0
2719	3025176663	0.189038035	0.059238523	-0.738915748	-0.644017807	-0.061822771	-0.062057476	-0.028215694	0
2723	3025243331	0.193561841	0.060674599	-0.737933426	-0.64366658	1.112740887	0.966101935	1.514230802	0
2727	3025309999	0.201777043	0.068528902	-0.735865685	-0.642721953	-0.230190735	-0.014954318	0.022439777	0
2729	3025343333	0.199374533	0.068609713	-0.734656894	-0.644842423	-0.059706736	-0.118881903	-0.26121198	0
2732	3025393334	0.195651992	0.067800048	-0.733375888	-0.647520856	-0.110072001	0.055594125	0.050869451	0
2735	3025443335	0.186112454	0.061048387	-0.734888045	-0.649287926	-0.012739267	-0.509073693	-0.438064531	0
2737	3025476669	0.181807286	0.060612212	-0.735550027	-0.649798759	-0.225530812	0.439236577	0.221182591	0
2740	3025526670	0.18138676	0.064072177	-0.733975152	-0.651363245	-0.015177259	-0.050949775	-0.086141736	0
2743	3025576671	0.185408693	0.068155117	-0.733277211	-0.650602051	-0.105015458	0.044413872	-0.03035869	0
2746	3025626672	0.185824513	0.071012981	-0.73342427	-0.650011729	-0.17430396	0.182398372	0.080667029	0
2748	3025660006	0.184149784	0.073966736	-0.732474964	-0.651228229	-0.041864914	0.129467932	-0.000615745	0
2751	3025710007	0.181183585	0.076129913	-0.731627139	-0.652762189	0.010868289	0.048065779	0.062540024	0
2755	3025776675	0.173125068	0.07771957	-0.732717336	-0.653538587	-0.025358486	0.01065718	-0.016723579	0
2758	3025826676	0.169150309	0.079810152	-0.732635982	-0.654418085	-0.03498917	0.325641079	0.217161414	0
2760	3025860010	0.162779436	0.087245224	-0.733465964	-0.654155032	-0.155888102	0.101242499	0.078104064	0
2763	3025910011	0.151687409	0.100947023	-0.735005828	-0.653121016	0.01645706	-0.204601773	-0.207141373	0
2766	3025960012	0.144206085	0.113455324	-0.735507183	-0.652197576	-0.513345764	0.608196483	0.508780228	0
2768	3025993346	0.140404821	0.120147473	-0.735018918	-0.652378925	0.218574145	-0.203324237	-0.190028611	0
2771	3026043347	0.14587956	0.117965065	-0.734263703	-0.652426404	-0.775319522	0.751050678	0.454382023	0
2774	3026093348	0.155782981	0.113455364	-0.732970163	-0.652391204	0.070807576	-0.393074647	-0.256722292	0
2777	3026143349	0.162952143	0.109179848	-0.734476698	-0.649669408	0.205704298	-0.619324644	-0.424719439	0
2779	3026176683	0.161479644	0.109466594	-0.735064984	-0.649323385	-0.514186325	0.412102199	0.1590308	0
2782	3026226684	0.157208178	0.110097862	-0.7351975	-0.650114363	0.492863824	-0.559459588	-0.369590127	0
2785	3026276685	0.145390919	0.115747426	-0.736193259	-0.650756099	-0.235728203	-0.012548876	0.071498964	0
2787	3026310019	0.134830841	0.120283478	-0.736343652	-0.652035702	-0.0571577	0.100229492	-0.004518441	0
2790	3026360020	0.12522367	0.127604737	-0.735865147	-0.653099188	-0.061730789	-0.0299302	0.022589673	0
2793	3026410021	0.125053514	0.126524056	-0.734089589	-0.65533637	0.18505233	-0.097569751	-0.277723294	0
2796	3026460022	0.130215612	0.123142071	-0.733656863	-0.655459787	0.084900875	-0.288501237	-0.240846507	0
2798	3026493356	0.131702052	0.12216868	-0.734245758	-0.654685077	0.269098496	-0.432838494	-0.391789433	0
2801	3026543357	0.138212562	0.122130133	-0.736510431	-0.650794824	-0.533680875	0.706809334	0.36538905	0
2804	3026593358	0.141184561	0.11918597	-0.733996048	-0.653537624	0.049908496	0.11575649	-0.081697725	0
2806	3026626692	0.142297048	0.117289948	-0.73314401	-0.654594897	-0.018230937	0.082952805	0.037912575	0
2809	3026676693	0.144276824	0.116474385	-0.732425119	-0.655111716	-0.217563664	-0.010307432	-0.084671104	0
2812	3026726694	0.141774099	0.111012624	-0.732216561	-0.656837279	0.103410931	0.368098206	0.135095715	0
2814	3026760028	0.138810405	0.107315171	-0.732567451	-0.65769298	-0.079185083	0.186547015	-0.04722679	0
2817	3026810029	0.135155165	0.103737665	-0.732811113	-0.658755987	0.026828171	-0.144072074	-0.039233785	0
2820	3026860030	0.12959439	0.099836064	-0.733400847	-0.659819105	-0.116246477	0.062316788	-0.031840587	0
2822	3026893364	0.125838679	0.097229617	-0.733953242	-0.660320882	-0.107427652	0.21683886	-0.002697624	0
2825	3026943365	0.121105227	0.094022204	-0.734507204	-0.661054095	0.066346595	0.205733578	-0.079644526	0
2828	3026993366	0.116887148	0.091941536	-0.734472068	-0.662144191	-0.155360236	0.073355865	-0.094290001	0
2831	3027043367	0.111320567	0.090474565	-0.733698404	-0.664160174	-0.203467101	0.061104036	-0.09307482	0
2835	3027110035	0.105235812	0.089716427	-0.731509674	-0.667660081	-0.224292499	0.087051742	0.01461282	0
2837	3027143369	0.103092245	0.089752874	-0.730882175	-0.668676048	-0.371167398	0.118975011	0.210486271	0
2840	3027193370	0.101333465	0.090360518	-0.730850183	-0.668897986	0.019662009	0.171285999	0.2199969	0
2843	3027243371	0.10187238	0.090619345	-0.731133423	-0.668471443	0.046544337	0.087232648	0.038638228	0
2845	3027276705	0.10171469	0.091733422	-0.731438526	-0.668009569	0.008452508	-0.038899407	0.065418086	0
2848	3027326706	0.099589428	0.094576907	-0.732799803	-0.666439497	-0.050895605	0.091985959	0.095420263	0
2851	3027376707	0.098020007	0.096623586	-0.734900387	-0.664061279	-0.090953976	0.023178753	0.015961366	0
2854	3027426708	0.098102923	0.096448998	-0.737118934	-0.661610976	-0.115753877	0.111274711	-0.118920259	0
2856	3027460042	0.098869748	0.095359629	-0.738531469	-0.66007771	-0.120763782	0.302775753	-0.061524244	0
2859	3027510043	0.102240445	0.093989757	-0.740623774	-0.657411015	0.202811605	0.211791185	0.069629629	0
2863	3027576711	0.107143292	0.093542577	-0.74240735	-0.654676582	0.152057401	-0.021105273	-0.094136811	0
2866	3027626712	0.108791892	0.093958356	-0.742805961	-0.653892542	0.033937747	-0.132841745	-0.255608694	0
2868	3027660046	0.108420536	0.093855236	-0.743058056	-0.653682574	0.082585644	-0.023232624	-0.072566258	0
2871	3027710047	0.107751747	0.093697326	-0.74271113	-0.654209866	-0.017928417	0.147704407	-0.064953516	0
2874	3027760048	0.106415881	0.092926539	-0.742648616	-0.654609312	-0.184097127	0.31893809	-0.075054281	0
2876	3027793382	0.105294168	0.092069316	-0.742251274	-0.655362057	-0.159144109	0.432419784	-0.053179032	0
2879	3027843383	0.103983543	0.090909035	-0.741384728	-0.656712765	-0.070211873	0.272057784	0.028779839	0
2882	3027893384	0.102625548	0.089965672	-0.740407385	-0.658157336	0.062592374	0.027301358	0.119879944	0
2885	3027943385	0.101285911	0.089769793	-0.739033513	-0.659933342	-0.003223606	0.072296604	0.026313231	0
2887	3027976719	0.100683704	0.09010323	-0.737696769	-0.661473867	-0.031478535	0.073050305	0.049733407	0
2891	3028043387	0.100056662	0.091523408	-0.734238919	-0.665210748	-0.1027534	0.054853993	0.050481768	0
2894	3028093388	0.099931327	0.093079752	-0.731443364	-0.668087191	-0.098997185	-0.036234398	0.013048194	0
2897	3028143389	0.09974046	0.094376386	-0.728648298	-0.670981816	-0.131925393	-0.020424648	-0.064790257	0
2899	3028176723	0.099576648	0.095288137	-0.727026891	-0.672634047	-0.10697453	0.009339927	0.023836136	0
2902	3028226724	0.099284269	0.096637595	-0.724939407	-0.674734515	-0.073223096	0.073931552	-0.008681485	0
2905	3028276725	0.098349118	0.097198812	-0.723519481	-0.676313096	-0.048132112	0.041710759	0.014179145	0
2908	3028326726	0.097777551	0.097380275	-0.721853814	-0.678147259	-0.055731163	0.113925274	0.039027952	0
2910	3028360060	0.097470508	0.09741349	-0.72096107	-0.679135662	0.005095922	0.101544646	0.095647054	0
2913	3028410061	0.097379845	0.097837911	-0.719305693	-0.680840825	-0.010903077	0.105885162	0.0612698	0
2916	3028460062	0.09759788	0.09883709	-0.717514747	-0.682552907	-0.013647512	0.051693109	0.020771071	0
2918	3028493396	0.097687026	0.099706216	-0.716181929	-0.683812371	-0.034322666	0.069526298	0.036695232	0
2921	3028543397	0.097417747	0.100859297	-0.714391507	-0.685552302	-0.052280009	0.078561102	-0.064868712	0
2924	3028593398	0.096923692	0.102108034	-0.713012285	-0.686872062	-0.073373052	0.006486534	-0.038464473	0
2926	3028626732	0.096399598	0.102636289	-0.712372035	-0.687531085	-0.11982271	-0.022345894	-0.063683172	0
2929	3028676733	0.095123788	0.102565538	-0.71171653	-0.688397673	-0.099841136	-0.025134418	-0.042149487	0
2932	3028726734	0.093164022	0.101791564	-0.711524548	-0.68897878	-0.044474122	0.025833216	0.009881265	0
2935	3028776735	0.090890194	0.100715667	-0.711541688	-0.689422768	0.01797977	0.021922515	0.032742265	0
2937	3028810069	0.089288172	0.099807309	-0.711505045	-0.689801923	-0.023163421	0.039330259	0.038414394	0
2940	3028860070	0.086240633	0.097612803	-0.711654577	-0.690349228	-0.045025356	0.120216987	0.258482423	0
2943	3028910071	0.084137554	0.094963657	-0.711468121	-0.691169942	-0.074192905	0.242360359	-0.085136349	0
2945	3028943405	0.083082623	0.093574604	-0.712005374	-0.69093373	-0.073663977	0.158299861	0.009081816	0
2948	3028993406	0.082713701	0.092697741	-0.712664504	-0.690416452	0.008364155	0.141788329	0.058029877	0
2951	3029043407	0.083119303	0.091818603	-0.713122506	-0.690012186	0.008687928	0.098228311	-0.008950086	0
2953	3029076741	0.083561944	0.091432897	-0.71334854	-0.689776258	0.015347174	0.095365577	-0.058190366	0
2956	3029126742	0.083684734	0.090681317	-0.713836179	-0.689355985	0.052899063	0.049145152	-0.068533897	0
2959	3029176743	0.083849265	0.090081724	-0.714395983	-0.688834496	-0.028266548	0.126948936	-0.086304695	0
2962	3029226744	0.083823644	0.089361738	-0.715130588	-0.688168816	-0.032451696	0.041646902	0.011361854	0
2964	3029260078	0.083587733	0.088868475	-0.715611456	-0.687761389	0.024723223	0.085869851	0.049810647	0
2967	3029310079	0.083642641	0.088404818	-0.716321682	-0.687074774	-0.026611958	0.088724424	-0.01663874	0
2971	3029376747	0.08408736	0.087913224	-0.717031514	-0.686342763	-0.085657304	0.10153603	-0.070816534	0
2974	3029426748	0.083562553	0.087566303	-0.718017326	-0.685419989	-0.081337976	0.112095875	0.048770202	0
2976	3029460082	0.0835704	0.087606123	-0.718396516	-0.685016497	-0.031133969	0.163469123	-0.045328936	0
2979	3029510083	0.08351022	0.087835337	-0.719513535	-0.68382108	-0.031655081	0.037895761	0.08629806	0
2982	3029560084	0.083860165	0.0880602	-0.720734703	-0.682461985	-0.025798139	0.061559039	0.019333744	0
2984	3029593418	0.084261934	0.088072318	-0.721653416	-0.681439316	-0.056873891	0.040556927	-0.003904876	0
2987	3029643419	0.085010503	0.08818537	-0.722975147	-0.679929034	0.003077065	0.079589384	-0.059077924	0
2990	3029693420	0.085607082	0.088311643	-0.724229776	-0.678501078	0.003130067	0.080021319	0.014222452	0
2993	3029743421	0.086227532	0.088549888	-0.725186276	-0.677368876	0.03194095	0.096614598	-0.05486958	0
2995	3029776755	0.086536518	0.088593614	-0.725675761	-0.6767993	0.044367168	0.061671215	0.013150018	0
2999	3029843423	0.087151085	0.088806332	-0.726686439	-0.675607093	-0.045670761	0.125727467	-0.033967086	0
3002	3029893424	0.087883139	0.089097133	-0.727411023	-0.674693603	-0.040622074	0.078661863	-0.0290583	0
3005	3029943425	0.088587604	0.08903128	-0.728205704	-0.67375227	-0.06052519	-0.015584401	-0.093273201	0
3007	3029976759	0.088345599	0.088471712	-0.729089088	-0.67290186	-0.065543856	0.02365643	-0.040247685	0
3010	3030026760	0.088234756	0.087641789	-0.729895666	-0.672150178	-0.021739818	0.145519577	-0.031343724	0
3013	3030076761	0.087809127	0.087117978	-0.730818014	-0.671271216	0.013775108	0.058099975	-0.048230027	0
3016	3030126762	0.086951093	0.087171265	-0.731178993	-0.67098283	0.015772111	0.23508251	0.081489697	0
3018	3030160096	0.086853843	0.087762601	-0.731138996	-0.670961925	0.025942249	0.139088863	0.036842169	0
3021	3030210097	0.086857307	0.088942397	-0.730640716	-0.671348793	-0.043245894	0.052083013	-0.030130582	0
3024	3030260098	0.08624062	0.089483956	-0.730095539	-0.671949166	-0.127643466	0.112624575	-0.023351895	0
3028	3030326766	0.086110531	0.089719346	-0.729590229	-0.672483095	-0.105859117	0.080952589	0.020357017	0
3030	3030360100	0.086417917	0.089741508	-0.729504668	-0.672533527	-0.100718634	0.086154187	0.000481901	0
3033	3030410101	0.086884402	0.089843078	-0.729524257	-0.672438607	-0.008205948	0.082954951	0.007456214	0
3036	3030460102	0.08710509	0.089790125	-0.729585741	-0.672350417	0.058160599	0.117715632	-0.058803573	0
3039	3030510103	0.08717267	0.090154316	-0.729434747	-0.672456746	0.158072452	0.015792502	0.106827152	0
3041	3030543437	0.087087661	0.090392811	-0.729477721	-0.672389123	-0.03044054	0.158835381	-0.101575114	0
3044	3030593438	0.087141663	0.090439827	-0.729165517	-0.672714365	-0.074312006	0.107186513	0.008835983	0
3047	3030643439	0.08723559	0.090411743	-0.7291366	-0.672737309	-0.062152608	0.078104603	-0.063928759	0
3049	3030676773	0.087241486	0.090575301	-0.729111267	-0.672742	-0.031280584	0.091634599	0.016104372	0
3052	3030726774	0.087377775	0.090673326	-0.728990412	-0.67284207	0.042950234	0.046300658	0.017557163	0
3055	3030776775	0.087259815	0.090934697	-0.728862041	-0.672961165	-0.0083153	0.049403571	-0.048809333	0
3057	3030810109	0.087216667	0.091142489	-0.728839987	-0.672962534	-0.054929067	0.12653009	-0.03928457	0
3060	3030860110	0.087379967	0.091284383	-0.72858611	-0.673196987	-0.029070356	0.123376773	-0.074596839	0
3063	3030910111	0.087423481	0.091068409	-0.728217462	-0.673619335	-0.019546834	0.139717473	-0.153481217	0
3065	3030943445	0.087429335	0.090924468	-0.727968839	-0.673906687	-0.024056758	0.054381655	0.000899121	0
3068	3030993446	0.087416277	0.090761126	-0.727702099	-0.674218413	-0.039383427	0.118127086	-0.024321096	0
3071	3031043447	0.087550767	0.090620179	-0.727649051	-0.674277172	-0.057966908	0.058751419	0.013572923	0
3074	3031093448	0.087571568	0.090324366	-0.728182087	-0.673738508	-0.104115088	0.084903023	-0.180444705	0
3076	3031126782	0.087636801	0.090063102	-0.728369838	-0.673562029	0.021814818	0.094598047	0.015718059	0
3079	3031176783	0.087724181	0.089975776	-0.728868218	-0.673022993	-0.044562925	0.080807391	-0.023093362	0
3082	3031226784	0.087710705	0.090007798	-0.729023208	-0.672852577	-0.01942262	0.103262733	0.045467555	0
3084	3031260118	0.088071187	0.090258454	-0.728906797	-0.67289803	-0.033152916	0.136583288	0.039319542	0
3087	3031310119	0.088994116	0.090796718	-0.728517795	-0.673125416	-0.051625815	0.123841332	-0.006820508	0
3090	3031360120	0.089903989	0.091357248	-0.728156526	-0.673319537	-0.030643681	0.087017519	-0.047818437	0
3092	3031393454	0.090603038	0.09176725	-0.727820663	-0.673533179	0.003579583	0.117680505	0.024567038	0
3095	3031443455	0.091770426	0.092342525	-0.727293354	-0.673866029	0.00722361	0.05815157	-0.073803054	0
3098	3031493456	0.092295657	0.092539126	-0.726938737	-0.674149905	-0.040380874	0.060009328	-0.018657836	0
3101	3031543457	0.092419165	0.092432442	-0.726575547	-0.67453904	-0.037422991	0.057925139	0.068908343	0
3103	3031576791	0.092691461	0.092214179	-0.725997505	-0.675153658	-0.021741147	-0.056074067	0.095073875	0
3107	3031643459	0.092284162	0.091353085	-0.724857928	-0.676549504	-0.123589512	0.091462702	-0.225207665	0
3110	3031693460	0.091414785	0.090622729	-0.723971367	-0.677714038	-0.013583959	0.14036535	0.051085043	0
3113	3031743461	0.090242936	0.090107486	-0.723389052	-0.678561075	-0.019016481	0.196400347	-0.003700837	0
3115	3031776795	0.089504354	0.089903156	-0.723046748	-0.679050656	-0.027320527	0.056934608	0.012737365	0
3118	3031826796	0.088558216	0.089091686	-0.722611011	-0.679745129	-0.09603172	0.150921603	-0.075623597	0
3121	3031876797	0.088058663	0.088532306	-0.722009064	-0.68052231	-0.011594466	0.159461738	0.027652787	0
3124	3031926798	0.08772128	0.08801251	-0.721403549	-0.68127505	-0.033653136	0.082528107	0.004759219	0
3126	3031960132	0.087435489	0.08772658	-0.72093787	-0.681841382	-0.030290278	0.060046559	0.002522976	0
3129	3032010133	0.086987645	0.087543751	-0.720224951	-0.682675077	-0.034766233	0.087434423	0.028874389	0
3132	3032060134	0.086473308	0.08749737	-0.719501198	-0.683509036	-0.056577229	-0.007491098	0.049815842	0
3136	3032126802	0.085507043	0.087219572	-0.718727026	-0.684479915	-0.109840236	0.076626605	-0.07145984	0
3138	3032160136	0.084947127	0.086991357	-0.718436995	-0.684883037	0.021462709	0.01704992	0.119913726	0
3141	3032210137	0.083797013	0.08662951	-0.717635203	-0.68591042	-0.082705746	0.076472469	-0.147787615	0
3144	3032260138	0.08245684	0.086567347	-0.717063106	-0.686678576	-0.030819515	-0.027965532	-0.007668374	0
3146	3032293472	0.081659404	0.086552315	-0.71645142	-0.68741385	0.026414465	0.025109194	-0.135870201	0
3149	3032343473	0.080264372	0.086119679	-0.71524967	-0.688882385	0.042182552	0.189526695	-0.109190031	0
3152	3032393474	0.079191518	0.086136972	-0.71403945	-0.690258494	-0.001516981	0.137414203	-0.082703454	0
3155	3032443475	0.07848337	0.085867764	-0.713041491	-0.691403587	-0.01940366	0.060969286	0.015970862	0
3157	3032476809	0.078214313	0.085660986	-0.71242901	-0.692090762	-0.011702835	0.016072505	-0.037612631	0
3160	3032526810	0.07784292	0.085224257	-0.711706478	-0.69292943	-0.070003969	0.053807155	-0.006610368	0
