sep=									
DeviceTag:	Xsens_3								
FirmwareVersion:	2.4.0								
AppVersion:	2022.0.1								
SyncStatus:	Synced								
OutputRate:	60Hz								
FilterProfile:	General								
Measurement Mode:	Sensor fusion Mode - Extended (Quaternion)								
StartTime:	2020-11-25 11:23:35.412 +0100								
© Xsens Technologies B. V. 2005-2020									
PacketCounter	SampleTimeFine	Quat_W	Quat_X	Quat_Y	Quat_Z	FreeAcc_X	FreeAcc_Y	FreeAcc_Z	Status
1	2979875757	1.96E-17	-1.59E-16	0.707106781	0.707106781	2.0359073	2.8917952	5.66903	0
2	2979892424	0.021757855	0.000470866	0.701539796	0.712297893	1.530038794	2.932554877	4.993761402	0
3	2979909091	0.039198921	-0.00185037	0.696131971	0.716840498	1.21041413	2.583046666	3.559031016	0
4	2979925758	0.053920907	-0.006958225	0.691002275	0.720805088	1.601982152	2.270352306	2.130906718	0
5	2979942425	0.067455029	-0.013813505	0.686131159	0.724212012	2.171497946	1.802209234	0.896283631	0
6	2979959092	0.081092818	-0.021286084	0.681972824	0.726556209	2.331993929	1.352143549	-0.405424293	0
7	2979975759	0.094960087	-0.02869405	0.679606622	0.726838409	2.199256532	0.739687736	-1.336911257	0
8	2979992426	0.108537865	-0.035632359	0.679242069	0.72496902	2.583990069	0.219960603	-1.864349461	0
9	2980009093	0.121698737	-0.041828127	0.679554849	0.722249979	3.146382189	-0.00221496	-2.150952272	0
10	2980025760	0.134393781	-0.047331939	0.679690945	0.719526385	3.138064318	-0.073639599	-2.479642498	0
11	2980042427	0.146312242	-0.052522295	0.680004662	0.716538761	2.458044657	-0.214716593	-3.19258648	0
12	2980059094	0.157430735	-0.057357193	0.681775123	0.712115438	1.727230421	-0.438476409	-3.910912532	0
13	2980075761	0.16774117	-0.06204402	0.68522677	0.706029542	1.545188285	-0.566860461	-4.278320067	0
14	2980092428	0.177366788	-0.066297437	0.68975245	0.698847072	1.452056588	-0.540827961	-3.8493071	0
15	2980109095	0.185989192	-0.070173996	0.694502452	0.691483894	1.291980793	-0.619145726	-3.51446027	0
16	2980125762	0.192832312	-0.07395918	0.698569574	0.685088527	1.035368998	-0.635437789	-3.351216629	0
17	2980142429	0.197425202	-0.077742926	0.701865192	0.679973954	0.71929868	-0.557944157	-3.223860579	0
20	2980192430	0.197845003	-0.089728698	0.708878237	0.671042294	0.225598043	0.060749053	-2.686130424	0
23	2980242431	0.180897195	-0.098831285	0.71479484	0.668264109	-0.923494141	0.031920905	-1.913831174	0
25	2980275765	0.172041122	-0.096346053	0.72302752	0.66208043	-1.671981498	-0.700156519	0.948424697	0
28	2980325766	0.168944375	-0.08503263	0.711419145	0.676838275	-0.943684095	0.625582485	0.809831138	0
31	2980375767	0.164962157	-0.074047951	0.708861745	0.68177666	-0.691633276	0.767974219	-1.202806194	0
33	2980409101	0.16064192	-0.065634257	0.717416102	0.674685449	0.289042561	0.139647848	-0.995598577	0
36	2980459102	0.156009557	-0.056985192	0.728583575	0.66451462	1.721719287	-0.609843603	0.369579781	0
39	2980509103	0.154231707	-0.056921326	0.727668053	0.665936745	0.681733201	-0.593309624	0.343008812	0
42	2980559104	0.161201808	-0.057998597	0.725819	0.666210867	-1.088693106	0.514613942	-0.570602484	0
44	2980592438	0.170115021	-0.057627955	0.72555366	0.664313018	-1.292981463	1.561602952	-0.508113238	0
48	2980659106	0.178447998	-0.055571484	0.726279681	0.661502794	-2.531896332	1.224528454	-0.912900755	0
51	2980709107	0.177923885	-0.045733214	0.726663281	0.66197586	-1.162950913	0.30572874	-0.677745647	0
54	2980759108	0.171597891	-0.03637084	0.721314051	0.670027884	-0.013461243	-0.359864893	-0.888282855	0
56	2980792442	0.166828346	-0.030760992	0.715548622	0.677652001	0.038689039	-0.382126459	-0.940692548	0
59	2980842443	0.159849735	-0.023903787	0.70901254	0.686423986	-0.214915628	0.189071811	-0.360046944	0
62	2980892444	0.150385057	-0.019522537	0.704748333	0.693060598	-0.404887443	-0.43029373	-0.080306941	0
65	2980942445	0.155835194	-0.00275366	0.699515446	0.697413759	-2.207026352	0.281914098	-0.252886425	0
67	2980975779	0.159191875	0.018860166	0.711595074	0.684057521	-2.365064725	2.644461136	0.009439081	0
70	2981025780	0.150453801	0.05052938	0.742583701	0.65067648	-1.302039303	3.064045147	1.496335521	0
73	2981075781	0.128044833	0.075947715	0.759749864	0.632942816	1.990330461	2.473416989	2.14557217	0
77	2981142449	0.086096905	0.085093445	0.766623637	0.630582768	1.991120376	-0.094157747	-1.119030586	0
79	2981175783	0.061380668	0.078759171	0.772781336	0.62676823	3.36848656	-1.485675555	-1.135204839	0
82	2981225784	0.023929962	0.068892105	0.765995746	0.638695352	0.445068579	-1.084594472	-1.586022788	0
85	2981275785	0.004288311	-0.057785329	-0.760466432	-0.646786883	0.135227932	-2.39696327	0.74774559	0
87	2981309119	0.014469421	-0.05035124	-0.755779425	-0.65272724	0.776704245	-0.087555346	-0.245747955	0
90	2981359120	0.032526339	-0.040304211	-0.756402614	-0.652052677	0.120281432	-2.301768585	0.429855698	0
93	2981409121	0.035522107	-0.039743653	-0.763127381	-0.644045979	-0.736250237	-0.589211924	0.777044937	0
96	2981459122	0.028674263	-0.04488487	-0.777003808	-0.627238565	0.171957083	-0.445890984	0.89046198	0
98	2981492456	0.020936068	-0.048358104	-0.780505843	-0.622923594	0.466916086	-0.495223081	0.925342559	0
101	2981542457	1.35E-05	0.059232512	0.784984112	0.616677755	0.339428994	-0.379192656	0.743197233	0
104	2981592458	0.025641263	0.066213112	0.777032941	0.62544237	0.159567749	1.262174834	0.235732725	0
106	2981625792	0.039288047	0.068270813	0.774650458	0.62746491	-1.006627062	0.870555712	-0.479923638	0
109	2981675793	0.05374915	0.074835211	0.775174074	0.6249927	0.866994657	-0.825667673	-1.027027455	0
112	2981725794	0.068521002	0.082221908	0.770592958	0.628276152	1.691858057	-1.375289799	-0.171501449	0
114	2981759128	0.085156919	0.080691673	0.774017428	0.622201072	0.760762651	-2.374670791	-0.077298816	0
117	2981809129	0.120161694	0.076783857	0.789697384	0.596693764	1.902137997	-2.062898393	-0.981292135	0
120	2981859130	0.156880108	0.077966653	0.814551698	0.553005755	-0.703926616	0.823631457	-2.288939057	0
123	2981909131	0.178089941	0.085164695	0.861931101	0.467017906	-2.052175081	3.300492433	-1.484999122	0
125	2981942465	0.174931405	0.090587072	0.895242047	0.399668191	-4.169609873	3.235119364	-2.299713668	0
128	2981992466	0.158381035	0.117536932	0.930716383	0.308005734	-2.788732665	2.648970116	-0.684235309	0
131	2982042467	0.143953303	0.154934702	0.945145058	0.248944782	-0.430100005	1.58222855	-1.247110794	0
133	2982075801	0.130186685	0.178391939	0.950738367	0.217541491	0.184549106	-0.122583954	-0.62296555	0
136	2982125802	0.109340005	0.203942907	0.955128221	0.184884111	1.046139069	-2.445704547	0.207080017	0
139	2982175803	0.094730323	0.20825328	0.955985275	0.183708713	2.059546741	-3.963223626	0.88719861	0
141	2982209137	0.089925246	0.198140793	0.955936804	0.197074869	2.17375533	-3.514336509	1.022350084	0
144	2982259138	0.084173878	0.166591523	0.958191948	0.216864506	1.880353106	-1.011882348	0.514773027	0
148	2982325806	0.075516994	0.105912759	0.963446467	0.234202	-0.462434002	0.083986642	-0.18218544	0
152	2982392474	0.065105223	0.040019073	0.960477104	0.267663064	-6.158938774	4.879526203	2.006525985	0
155	2982442475	0.076750098	0.037346332	0.950625347	0.298372458	0.008230935	0.080486462	-0.092863746	0
159	2982509143	0.094120548	0.049262801	0.933242657	0.343180189	-0.282133608	0.818644774	-0.177559599	0
162	2982559144	0.102450618	0.055831515	0.934057739	0.337524595	2.57996755	-1.030024747	-0.011512357	0
164	2982592478	0.105268848	0.05325456	0.933241562	0.339326699	0.946529653	-0.249068778	-0.131463272	0
168	2982659146	0.102773622	0.031068375	0.935335136	0.337076435	1.079484204	-1.319156228	-0.593546528	0
171	2982709147	0.100459319	0.007440418	0.93228616	0.347411975	-1.089267229	0.015256831	-0.404386321	0
174	2982759148	0.109957332	0.003954242	0.925425996	0.362602364	-0.84254028	0.323057525	-0.755070646	0
177	2982809149	0.119804361	0.007504672	0.919169338	0.375124409	1.048263413	-0.321760546	-0.453516927	0
179	2982842483	0.124703893	0.007235043	0.91653872	0.379938637	1.703623107	-0.945436466	-0.078034063	0
182	2982892484	0.125366354	0.001516333	0.916124429	0.380784726	1.007313014	-1.276266922	-0.005819076	0
185	2982942485	0.125167372	-0.006545779	0.918408654	0.375254349	-0.42022921	0.152521158	-0.32165874	0
189	2983009153	0.122254593	-0.007430047	0.922010235	0.367281547	-0.023779078	0.137437686	-0.435426224	0
191	2983042487	0.118055041	-0.004370376	0.923274084	0.365525476	0.517491485	-0.245725864	-0.368721287	0
194	2983092488	0.109688173	-0.002881305	0.925862368	0.361578591	1.027803961	-0.960401001	-0.123730411	0
197	2983142489	0.098551536	-0.005925512	0.927032117	0.361751208	0.208012705	-0.313895854	-0.290324695	0
199	2983175823	0.090545634	-0.008353847	0.927693964	0.362098896	-0.08555593	0.213910193	-0.522723869	0
202	2983225824	0.078883755	-0.010277833	0.926588349	0.367567342	-0.3073543	0.351309275	-0.079124179	0
205	2983275825	0.071777229	-0.009128022	0.922376384	0.379455551	0.296573424	0.898555993	0.257873862	0
208	2983325826	0.067913613	-0.008858836	0.916734386	0.393582682	-0.252850284	0.685031075	0.684914017	0
210	2983359160	0.064551901	-0.008551568	0.915261201	0.397563652	-0.545807783	0.491504313	0.438152302	0
213	2983409161	0.060692659	-0.00685549	0.915778752	0.397012192	-0.896071522	0.697122517	-0.199542197	0
217	2983475829	0.05675815	-0.006855978	0.918049645	0.392321752	0.100807076	0.256585775	-0.329751763	0
220	2983525830	0.053575089	-0.007320189	0.916490552	0.396385158	-0.359383333	-0.552659048	0.243758468	0
222	2983559164	0.053510682	-0.007069218	0.914577871	0.400791655	-0.399235884	-0.474892673	0.194787347	0
225	2983609165	0.056894659	-0.006561228	0.912743844	0.404497989	-0.119032954	0.570069143	0.008079365	0
228	2983659166	0.061098571	-0.00585235	0.911434765	0.406840735	-0.172424479	0.713037487	-0.172752169	0
231	2983709167	0.062335641	-0.005565327	0.910340028	0.409101856	-0.276366074	0.125099754	0.234671139	0
233	2983742501	0.063055158	-0.004815433	0.910496661	0.408652284	0.022517043	0.22382136	0.268381507	0
236	2983792502	0.065164018	-0.003149403	0.910638428	0.408021304	0.197804203	0.197314413	0.229061591	0
239	2983842503	0.067671314	-0.002056688	0.910179102	0.408644546	0.10063939	0.056297308	0.246989261	0
241	2983875837	0.069166172	-0.001238772	0.910098354	0.4085774	-0.125348228	-0.016516176	0.194354349	0
244	2983925838	0.071330334	8.99E-05	0.910764572	0.406718416	-0.194390855	-0.075529967	-0.241710157	0
247	2983975839	0.07239666	0.000937786	0.91178186	0.40424211	0.085437403	-0.020411029	-0.368898287	0
252	2984059174	0.074573465	0.001454024	0.910194435	0.407409836	0.120724789	0.096591242	0.059282327	0
258	2984159176	0.0788007	0.000714155	0.905372507	0.417241612	0.172352483	0.397620485	0.395573941	0
260	2984192510	0.081292526	0.000479343	0.904048086	0.419628828	0.165039472	0.485340583	0.199736779	0
263	2984242511	0.086783293	0.000143418	0.901116374	0.42480339	0.047153246	0.20237916	0.00728481	0
266	2984292512	0.095618863	-0.002180173	0.898339379	0.428764083	-0.035916859	0.038593969	-0.37134181	0
271	2984375847	0.117475137	-0.006043363	0.892370097	0.435704809	-0.232647766	-0.469235286	-0.151551424	0
275	2984442515	0.13385358	-0.006072293	0.883864102	0.448141268	0.904850395	0.538648192	-1.384684847	0
278	2984492516	0.140688585	-0.001225444	0.882032972	0.449692179	0.002705915	0.219338856	-0.798886217	0
281	2984542517	0.141319033	0.005098606	0.886048592	0.441498389	0.266827238	-0.869217746	-0.079687745	0
283	2984575851	0.141087607	0.008745525	0.887170959	0.439255611	1.201716057	-1.467807948	0.191924037	0
286	2984625852	0.142248578	0.010145013	0.882854369	0.447471322	1.729536387	-0.624340577	0.523004852	0
289	2984675853	0.145771296	0.009776215	0.875343983	0.460899193	0.750105163	0.902580298	0.674300938	0
291	2984709187	0.151818576	0.013157147	0.870889464	0.467257478	-0.492895105	2.019139561	0.146452538	0
294	2984759188	0.160217396	0.019765545	0.87258094	0.461023006	-2.134285361	2.025689512	-0.326389507	0
297	2984809189	0.16438448	0.027280018	0.885015432	0.434719713	-0.609778848	-0.714535257	-0.275237573	0
299	2984842523	0.166608375	0.031208871	0.889555595	0.424215156	-1.626738767	-0.872926004	-1.032091872	0
302	2984892524	0.1666063	0.03538452	0.895745615	0.410645918	-2.023823875	-0.545222288	-0.687780677	0
306	2984959192	0.162211734	0.030050511	0.89538635	0.413603197	-1.367344251	-0.729866717	0.052440808	0
309	2985009193	0.160643567	0.023810936	0.891215925	0.423510164	-1.606647322	-0.046658523	0.329201222	0
312	2985059194	0.158643439	0.018364229	0.89201017	0.42286271	-1.079308278	0.285039017	-0.051478445	0
314	2985092528	0.157567127	0.01518321	0.892315185	0.422747774	-0.764546898	0.705345999	-0.515751819	0
318	2985159196	0.160808549	0.009027623	0.890344392	0.425847362	0.541255533	1.473076101	-0.840982595	0
321	2985209197	0.162478347	0.003370745	0.887038133	0.432149019	-0.492146064	0.286586505	0.319568128	0
325	2985275865	0.162558069	0.0008782	0.885413981	0.435449406	0.487993191	-0.182218884	-0.52043431	0
328	2985325866	0.165435251	0.004207074	0.881415562	0.442402628	2.063013085	-0.309753065	-0.373793939	0
330	2985359200	0.167737687	0.008089682	0.878748291	0.446766232	1.705508887	0.050182056	-0.315065844	0
333	2985409201	0.169468725	0.015173162	0.88026031	0.442935563	1.656517315	-0.262516007	0.337616715	0
337	2985475869	0.164667846	0.01690563	0.886132451	0.432860231	1.332373938	-1.098962347	0.389453434	0
340	2985525870	0.157653661	0.014664242	0.891660077	0.424113888	1.036899265	-1.047200614	-0.710009543	0
343	2985575871	0.153883328	0.010982098	0.895970774	0.416456105	-0.68206618	0.2997418	-1.122238629	0
345	2985609205	0.150489419	0.009340661	0.899442544	0.410205798	-1.227895423	0.26139651	-0.161583896	0
348	2985659206	0.143034953	0.006981729	0.900511655	0.410574009	-1.099021963	-0.095036862	-0.196342153	0
351	2985709207	0.133898728	0.005416666	0.901211547	0.412140192	0.327879542	-0.646552933	-0.373946913	0
353	2985742541	0.128329435	0.00391677	0.90125099	0.413839182	0.21481719	-0.40509941	-0.348437285	0
356	2985792542	0.120972163	0.000917989	0.901824985	0.414821155	0.433069481	0.055111477	-0.103446555	0
360	2985859210	0.114883844	-0.002387408	0.901069728	0.418173826	-0.656261355	0.735722388	0.23665531	0
363	2985909211	0.113137699	-0.002607572	0.900520657	0.41982807	-0.108132703	0.560518931	0.068478355	0
368	2985992546	0.111985052	-0.002049491	0.899843772	0.421587873	-0.013607326	0.407239974	-0.034122827	0
371	2986042547	0.110477093	-0.002448683	0.899911666	0.421838606	-0.170771713	0.208582995	0.017782291	0
374	2986092548	0.109953781	-0.001942458	0.899672573	0.42248746	-0.26350648	0.281116188	-0.025570981	0
376	2986125882	0.109924429	-0.001287015	0.899455222	0.422960125	-0.156055224	0.262327887	-0.026509233	0
379	2986175883	0.109805153	-0.000411757	0.899059088	0.423834184	-0.128213637	0.156767857	0.034346296	0
382	2986225884	0.110249276	0.000515532	0.898897028	0.424062453	-0.045952524	0.094723335	-0.084999565	0
384	2986259218	0.110897864	0.00093761	0.898616589	0.424486762	0.066739585	0.211744873	-0.042870131	0
387	2986309219	0.111829234	0.001431945	0.897981759	0.425583051	-0.160094374	0.200730841	0.022035794	0
390	2986359220	0.112752297	0.001719343	0.897566072	0.426214864	-0.041048356	0.228898085	0.054113252	0
393	2986409221	0.114651994	0.002377676	0.897224391	0.426424272	-0.30392716	0.305590191	0.04067259	0
395	2986442555	0.116793528	0.002473889	0.896591344	0.4271734	-0.442651233	0.556254364	0.012659725	0
398	2986492556	0.121559271	0.001596597	0.894436315	0.430353892	-0.521082248	0.551249605	0.290798801	0
401	2986542557	0.128688549	-0.0017855	0.889635072	0.438161508	0.30203898	0.332072683	0.054309756	0
403	2986575891	0.133952678	-0.004265412	0.885309934	0.445269365	0.731630109	0.210656245	0.160097276	0
406	2986625892	0.13955309	-0.006796532	0.880136163	0.453694916	1.25635426	-0.302498222	1.097699605	0
409	2986675893	0.139409243	-0.006454604	0.876689512	0.460368223	2.352433659	-0.431120286	0.531106461	0
411	2986709227	0.138547955	-0.002057515	0.876612386	0.460815533	1.472462578	0.158922096	0.069316049	0
414	2986759228	0.135748957	0.006692368	0.883761987	0.447763536	0.607185201	0.071664823	-0.153591318	0
417	2986809229	0.13726668	0.016244808	0.889907211	0.434694285	-0.213709918	1.145144001	-2.041665428	0
420	2986859230	0.14498594	0.022205857	0.893399017	0.42464594	-2.85187752	0.880529023	9.19E-05	0
422	2986892564	0.148220983	0.02101489	0.893774509	0.422795507	-2.042963483	-0.801048681	0.457870268	0
425	2986942565	0.149290724	0.018359084	0.888088186	0.434366893	-2.479313759	-1.086199597	-0.467448666	0
428	2986992566	0.146757651	0.018706594	0.887306674	0.436805588	-0.990020082	-0.897313955	-0.148244805	0
430	2987025900	0.145699664	0.015884679	0.883685183	0.444544466	-0.163967726	-0.04986775	0.233197161	0
433	2987075901	0.143135839	0.007259277	0.878122811	0.456464416	0.275680591	1.16053549	-0.361623797	0
436	2987125902	0.142515513	-0.000874555	0.873694403	0.465130793	0.438289938	0.966044408	-0.108034923	0
438	2987159236	0.140873642	-0.000872114	0.874230922	0.464622591	0.218766272	0.171796218	-0.104444604	0
441	2987209237	0.140142453	0.004074411	0.876696785	0.460158928	1.51971984	-0.658137907	0.015486841	0
444	2987259238	0.138380782	0.007335276	0.878192523	0.457793453	1.223987813	-1.118515763	0.212003344	0
448	2987325906	0.13521213	0.01038915	0.87839281	0.458296647	1.259265578	-0.550789318	-0.53336936	0
451	2987375907	0.13541631	0.011841414	0.879352428	0.456356781	0.403736587	0.85671362	-1.091461057	0
453	2987409241	0.135003695	0.010286934	0.880994333	0.453340011	-0.558982135	0.632232904	-0.125779275	0
456	2987459242	0.131165807	0.008402822	0.881561536	0.453402892	-0.912253865	-0.065112854	0.175297276	0
459	2987509243	0.128870436	0.011217292	0.881649706	0.453828579	-1.296545838	-0.043235047	-0.144615513	0
461	2987542577	0.130105542	0.011449529	0.883295333	0.450256383	-0.550867511	-0.347759738	-0.069164497	0
464	2987592578	0.134428524	0.008222993	0.880449313	0.45461012	-1.724073656	0.215934505	-0.405261964	0
467	2987642579	0.133545412	0.009530477	0.882461912	0.450927675	-2.125134527	0.107959856	-0.287259188	0
470	2987692580	0.132467307	0.008189343	0.881712664	0.452734056	1.503864488	1.453723969	-0.341546885	0
472	2987725914	0.128737017	0.007256317	0.88194998	0.453363385	1.431739233	1.204873675	-0.779866109	0
476	2987792582	0.120278251	0.005507996	0.88578547	0.448204089	-0.416451176	-0.71185801	0.420120307	0
479	2987842583	0.117128068	0.009343649	0.890090109	0.440378598	0.04069601	-0.668343945	0.147069479	0
482	2987892584	0.118709227	0.014049723	0.893753373	0.432337407	1.003919762	-0.061964864	-0.554826777	0
484	2987925918	0.121333859	0.014548498	0.893221615	0.432691093	0.652450638	0.307444072	-0.580031052	0
487	2987975919	0.123190341	0.014485844	0.894312535	0.429906257	0.20690145	-0.336605834	0.112160416	0
490	2988025920	0.123162486	0.014217718	0.894909306	0.428679592	-0.031427407	-0.313092592	-0.294470439	0
492	2988059254	0.122899017	0.014276779	0.895974468	0.42652287	0.241581024	-0.138539606	-0.561891366	0
495	2988109255	0.122603031	0.014438377	0.89633615	0.425842149	-0.114800306	0.162876569	-0.487039095	0
498	2988159256	0.12218466	0.014903382	0.895457115	0.427791249	-0.175841659	0.351867025	-0.194228619	0
501	2988209257	0.122544809	0.015189559	0.892629593	0.433548679	-0.045025364	0.367593387	0.032135682	0
506	2988292592	0.123993243	0.014857683	0.888936753	0.440677176	-0.167136475	0.038312695	-0.088117518	0
509	2988342593	0.1249176	0.014931829	0.887696481	0.442908107	-0.40696162	0.083882559	-0.049161039	0
511	2988375927	0.125278983	0.01532056	0.88687633	0.444433157	-0.537261902	0.21368941	-0.165899591	0
514	2988425928	0.125311605	0.015979437	0.885794819	0.446552569	-0.656661697	0.172910549	-0.17003324	0
517	2988475929	0.125395858	0.01578052	0.884489045	0.449116893	-0.522865549	-0.01705126	0.031698153	0
519	2988509263	0.125374067	0.015235069	0.883295653	0.451484247	-0.478910172	-0.035589683	0.003872726	0
522	2988559264	0.125510756	0.014182877	0.881446455	0.455080259	-0.658071285	0.183958589	-0.012064584	0
525	2988609265	0.1265399	0.012694606	0.879312049	0.458951872	-0.248602792	0.462339785	-0.1377219	0
528	2988659266	0.12878192	0.011644485	0.876816775	0.463111182	-0.311346963	0.387335349	-0.108981658	0
530	2988692600	0.130782881	0.011160555	0.875166665	0.465676486	0.030236951	0.358767201	-0.045083853	0
533	2988742601	0.133420353	0.009467723	0.873352037	0.468364806	1.226347586	0.125491065	0.127214015	0
536	2988792602	0.13535832	0.007564173	0.870361727	0.473382903	1.643927097	0.501166692	0.167338921	0
538	2988825936	0.135614216	0.005630943	0.870719921	0.47267737	1.547204242	0.252040257	0.424269334	0
541	2988875937	0.135153418	-0.000131081	0.872295892	0.469929158	1.164296287	-0.216818626	0.745630091	0
544	2988925938	0.137404747	-0.005488194	0.874431927	0.465251138	0.623169624	-1.398949051	0.299464231	0
546	2988959272	0.141406268	-0.004143482	0.874973781	0.463042095	0.43357726	-0.931682884	-0.201727775	0
549	2989009273	0.15243128	0.005384849	0.876403595	0.456784901	0.188981258	0.049006009	-1.203279145	0
552	2989059274	0.166365646	0.014732362	0.879101769	0.446414055	0.367306229	0.520912798	-0.930613871	0
555	2989109275	0.177325179	0.017436337	0.877530465	0.445187643	-0.583818154	0.079503515	-0.245948398	0
557	2989142609	0.18169261	0.017200997	0.875061951	0.448283953	-0.47484126	-0.276774567	-0.464959265	0
560	2989192610	0.183797504	0.018084167	0.874119308	0.449229203	-0.654772513	-0.256092912	-0.637487528	0
563	2989242611	0.182207354	0.019562407	0.877304943	0.44356942	-0.10202288	-0.016185675	-0.505199529	0
565	2989275945	0.179471144	0.019208378	0.878823322	0.441690746	-0.426244163	0.171822339	-0.482107419	0
568	2989325946	0.174643096	0.016069987	0.880839664	0.439730635	-0.481516961	-0.317643666	-0.329127142	0
572	2989392614	0.169192301	0.01301576	0.881772498	0.440092965	-0.757040869	-0.063874608	-0.158401297	0
575	2989442615	0.165574608	0.012126603	0.882522867	0.439990208	-0.279252499	0.308004295	-0.373422162	0
578	2989492616	0.161833002	0.009868983	0.881837438	0.442804037	-0.05974949	0.158562647	-0.477565904	0
580	2989525950	0.159808927	0.008071884	0.879801949	0.447598573	-0.135793898	0.092421328	-0.410835334	0
583	2989575951	0.158620835	0.006608268	0.875312789	0.456752978	-0.102900641	0.31861958	-0.221369819	0
587	2989642619	0.160124534	0.006415419	0.865706061	0.474206698	-0.399353072	0.739786145	-0.317161914	0
590	2989692620	0.161792395	0.007826248	0.858447505	0.486651675	-0.097911355	0.483562639	-0.334805324	0
592	2989725954	0.163436019	0.010002209	0.852934559	0.495672534	-0.144457313	0.468657205	-0.407715329	0
595	2989775955	0.166048962	0.013012322	0.844133495	0.509604811	0.024543313	0.19566412	-0.251060028	0
598	2989825956	0.169047152	0.015478205	0.833774368	0.525360627	0.114063599	-0.145729661	-0.093800261	0
600	2989859290	0.171033191	0.016487772	0.826486836	0.536092632	0.212003421	-0.295546162	-0.065489696	0
603	2989909291	0.1742507	0.017624046	0.815763429	0.551231453	0.345477473	-0.377622069	0.085173451	0
606	2989959292	0.177155581	0.018616105	0.805777333	0.564793972	0.596956683	-0.22549765	0.2371243	0
609	2990009293	0.17907654	0.019423872	0.798419752	0.57452607	0.80199972	-0.272418584	0.382616719	0
611	2990042627	0.179710699	0.020233511	0.794993855	0.579033195	0.824977901	-0.02316221	0.377034943	0
615	2990109295	0.178988029	0.023409078	0.793419356	0.581292547	0.568116956	-0.054547136	0.514319766	0
618	2990159296	0.177419374	0.026023029	0.796327061	0.577674977	-0.035373076	-0.248135427	0.664483426	0
621	2990209297	0.176309124	0.027775617	0.800539572	0.572083911	-0.680669099	0.179855621	0.634695401	0
623	2990242631	0.175373147	0.028415789	0.80457122	0.566658587	-1.52324819	-0.019923428	0.52384651	0
626	2990292632	0.175475801	0.029396357	0.811116388	0.557166315	-2.339296058	0.835867737	-0.665605791	0
629	2990342633	0.174536826	0.033744522	0.819010257	0.545545968	-1.92125795	0.602258708	-1.03869083	0
632	2990392634	0.17395311	0.032675864	0.81985613	0.544525968	-1.883588199	0.101362901	-0.298571242	0
634	2990425968	0.172410284	0.029143533	0.818611484	0.547083711	-1.162917019	-0.375676676	0.03636242	0
637	2990475969	0.169181219	0.022212451	0.815627616	0.55284348	-1.325639975	0.400713945	-0.345990152	0
640	2990525970	0.165568603	0.016493901	0.81608637	0.553460048	0.242907005	1.563055469	0.002061679	0
644	2990592638	0.161296344	0.011903158	0.818314194	0.551546629	0.452282784	0.039661703	0.274162008	0
646	2990625972	0.160986797	0.011421425	0.821026035	0.547603007	1.342282167	-0.663815853	0.33678379	0
649	2990675973	0.165475918	0.012125699	0.821588021	0.54540243	1.929597085	-0.397671852	-0.250812265	0
652	2990725974	0.173762535	0.012721646	0.820657202	0.544211813	1.408612743	0.008608534	-0.188624737	0
654	2990759308	0.178817341	0.011386294	0.820036854	0.543538654	1.133273541	-0.122794473	0.031944915	0
657	2990809309	0.182167135	0.0077993	0.820974997	0.541067797	0.960493403	-0.949529053	0.151361583	0
660	2990859310	0.180788174	0.005149198	0.824488486	0.536197593	1.008362442	-0.941728954	0.030994108	0
663	2990909311	0.176336479	0.004757679	0.832193671	0.525677186	1.379605879	-0.326736948	-0.269400935	0
665	2990942645	0.172308379	0.00552313	0.838568048	0.516800684	1.167680554	0.369227025	-0.409698668	0
668	2990992646	0.164634095	0.006665492	0.850266367	0.499898281	0.260009555	0.179162446	-0.278845018	0
671	2991042647	0.156515237	0.009467214	0.861688469	0.482603703	0.477740242	0.14422151	-0.578222967	0
673	2991075981	0.151396594	0.0133663	0.868436228	0.471931067	0.475000474	0.200495531	-0.544184284	0
676	2991125982	0.145801249	0.019811068	0.875090969	0.461048059	0.632837433	0.485893676	-0.498088443	0
679	2991175983	0.142316016	0.025308475	0.878315963	0.455704621	0.787860075	-0.036915774	-0.071253827	0
681	2991209317	0.14122165	0.029233529	0.878459741	0.455533017	0.461393347	0.157720945	-0.142390369	0
684	2991259318	0.140589128	0.035895484	0.879768126	0.452718738	0.21848057	0.508974152	-0.29260456	0
687	2991309319	0.14159846	0.0467104	0.882803557	0.445450215	0.345235976	0.602608383	-0.583858048	0
690	2991359320	0.145108139	0.057082655	0.881801324	0.44509732	-0.523456938	1.248768295	-0.472454901	0
692	2991392654	0.147809617	0.06328583	0.880609605	0.445728555	-0.944991001	0.668962613	0.07439177	0
695	2991442655	0.152933806	0.070565143	0.874830932	0.454205517	-0.959076927	0.150126099	0.430108721	0
698	2991492656	0.158340813	0.076100568	0.86717421	0.465989035	-1.332319278	-0.405690973	0.321989133	0
700	2991525990	0.161491295	0.079330006	0.863709366	0.470779611	-0.940778549	-0.241841953	0.491963354	0
703	2991575991	0.164379859	0.080977818	0.859562546	0.477047256	-0.629849081	-0.492369819	0.298849675	0
706	2991625992	0.166905655	0.078279268	0.856509953	0.482084597	0.302081654	-0.650351772	0.055823688	0
710	2991692660	0.170303016	0.075564698	0.856338911	0.48163319	-1.177152169	0.246140507	0.131480448	0
713	2991742661	0.171048153	0.07763289	0.858844138	0.476552631	-1.781691602	0.897087823	-0.027703327	0
717	2991809329	0.166488197	0.090367918	0.86396691	0.46655814	-0.825100585	0.393024408	-0.063977302	0
719	2991842663	0.162239394	0.100515784	0.869756007	0.455081799	-0.340122819	0.192374873	0.271707785	0
722	2991892664	0.155711324	0.116545591	0.882435481	0.428344173	0.991349635	0.218698604	0.393348756	0
726	2991959332	0.146585801	0.136685963	0.907705772	0.368645877	1.173257538	-0.895718784	0.129584954	0
729	2992009333	0.142819956	0.143300587	0.923452417	0.326041463	0.797613885	-0.806827673	0.00550127	0
731	2992042667	0.141588222	0.143386937	0.931668397	0.302302762	1.017976217	-1.082112385	-0.547986593	0
735	2992109335	0.139537912	0.133992673	0.943826392	0.267893404	0.667857761	-0.720968466	-0.527436654	0
738	2992159336	0.136948702	0.118838718	0.949820934	0.254877629	0.487354052	-0.230988933	-0.459967608	0
741	2992209337	0.133576765	0.095946315	0.950763743	0.26267824	-0.017719957	0.557991753	-0.483525582	0
744	2992259338	0.129246375	0.071165349	0.949508807	0.276882453	-0.981361133	0.13451537	-0.552090216	0
746	2992292672	0.127431288	0.059248895	0.948736847	0.283106394	-1.519749945	0.380011649	-0.508710789	0
750	2992359340	0.126853428	0.047321918	0.943670221	0.301919457	-1.688899744	1.921056928	0.376500265	0
753	2992409341	0.127260192	0.051349048	0.941750389	0.307041242	-1.14781057	0.29537976	-0.03523956	0
757	2992476009	0.127422777	0.064420071	0.943846446	0.297938545	0.959716016	-0.321021996	-0.517725432	0
760	2992526010	0.12609479	0.070932982	0.94240868	0.301553471	0.707947624	0.331398353	-0.386775573	0
764	2992592678	0.121319176	0.07079243	0.940987411	0.307916844	0.734478955	-0.84991535	0.087694478	0
766	2992626012	0.119389869	0.069844474	0.94031461	0.310928034	0.09940854	-0.719024365	0.28372308	0
769	2992676013	0.118391921	0.066628635	0.939942326	0.313133201	0.686513033	-0.251584628	0.061830295	0
772	2992726014	0.117718065	0.05844013	0.937730338	0.321541634	0.45994986	0.084478714	-0.070589164	0
775	2992776015	0.116448739	0.045303742	0.935919955	0.329303962	-0.075547563	-0.147649807	-0.048515639	0
777	2992809349	0.114010061	0.039318032	0.936248509	0.329991708	-1.340481286	0.127827793	-0.22118067	0
780	2992859350	0.111864218	0.03880269	0.935519347	0.332842755	-0.997515966	-0.042352923	-0.166795237	0
783	2992909351	0.111335761	0.040282475	0.933402683	0.33873456	0.991792316	-0.189577926	-0.272622767	0
787	2992976019	0.110369089	0.037112968	0.930182496	0.348140512	0.245746161	-0.273866687	0.027769672	0
789	2993009353	0.109905061	0.034049285	0.928796806	0.352275484	-0.311943067	0.051881648	0.182238045	0
792	2993059354	0.109106289	0.031801198	0.927750206	0.355477224	-0.30079865	0.293952221	-0.006325062	0
795	2993109355	0.109043729	0.032243366	0.926668714	0.358266555	0.096088949	0.284873308	-0.260244857	0
798	2993159356	0.109255948	0.032596552	0.925316018	0.361650204	0.150037716	0.064953028	-0.155401388	0
800	2993192690	0.10937037	0.032294572	0.924755041	0.363074781	0.063558163	-0.107725215	-0.099386722	0
803	2993242691	0.109614718	0.031397809	0.923913825	0.365215054	0.094343143	0.075409142	-0.083847858	0
806	2993292692	0.110232734	0.030239803	0.923436482	0.36633231	0.022211655	0.277238021	-0.003929415	0
808	2993326026	0.110558391	0.029343813	0.923291537	0.366672224	0.174623445	0.300596155	-0.026786341	0
811	2993376027	0.110102467	0.02871165	0.924643535	0.363438332	-0.217490511	0.197676381	0.012289579	0
814	2993426028	0.111420054	0.030460549	0.929278124	0.350855947	-0.026367076	-0.121420565	-0.152138292	0
816	2993459362	0.113679562	0.032634404	0.931870157	0.342972249	-0.14401891	-0.088958328	-0.016829331	0
819	2993509363	0.116421131	0.034007738	0.934927416	0.33346712	0.339230079	-0.105324494	-0.470914475	0
822	2993559364	0.114719094	0.032776084	0.935768949	0.33181581	-0.31175402	-0.211902414	-0.546804966	0
825	2993609365	0.112036663	0.031623311	0.936424061	0.330995062	-0.325607956	-0.302531819	-0.187636353	0
827	2993642699	0.110373496	0.03233128	0.937315673	0.328955483	-0.54815689	0.035989966	-0.261098102	0
830	2993692700	0.107705287	0.035595883	0.93938876	0.323544837	-0.570977698	0.447806313	-0.319000973	0
833	2993742701	0.103829279	0.04113597	0.94317406	0.312969657	-0.455979167	-0.011706475	-0.312590468	0
837	2993809369	0.098320484	0.051473414	0.946450854	0.303173796	-0.151395238	-0.082947635	-0.312478212	0
839	2993842703	0.09553384	0.056528659	0.948209076	0.297619461	0.234262191	-0.188290611	-0.152247285	0
843	2993909371	0.090666939	0.063233799	0.949910305	0.292320724	0.580977927	-0.302963244	-0.178461124	0
846	2993959372	0.087616533	0.064875783	0.951277322	0.288419716	0.45158178	-0.182118261	-0.096922081	0
849	2994009373	0.084102171	0.062948582	0.951805686	0.288149678	0.29593107	0.1926931	0.178558146	0
852	2994059374	0.079064362	0.058150476	0.952060676	0.289737499	0.147428027	0.088709424	0.0597894	0
854	2994092708	0.076169683	0.054829401	0.951765801	0.292119454	-0.349818153	0.253451568	0.066744873	0
857	2994142709	0.074402146	0.050977426	0.951413579	0.294410978	-0.300308954	0.254624846	0.063897474	0
860	2994192710	0.075154308	0.049153531	0.950305674	0.298085366	-0.397402604	0.407898115	0.020196349	0
862	2994226044	0.076226987	0.048985079	0.950105892	0.298477307	-0.127296628	0.184175902	0.03338862	0
865	2994276045	0.07731501	0.04862346	0.949986362	0.298637004	-0.091223411	0.073942628	-0.069073611	0
869	2994342713	0.078632423	0.046615657	0.950274149	0.297696093	0.102256211	-0.058152434	-0.161765905	0
872	2994392714	0.078386004	0.043943858	0.951325772	0.294794586	-0.163732764	-0.062047839	-0.163820718	0
874	2994426048	0.077988832	0.041893494	0.95215274	0.292519805	-0.306994099	-0.013765491	-0.275189737	0
877	2994476049	0.077567231	0.040038236	0.952557303	0.291573059	-0.433327319	0.168187706	-0.201504753	0
880	2994526050	0.076445393	0.039529136	0.952092956	0.293449404	-0.035477887	0.054871262	-0.194887031	0
883	2994576051	0.075272296	0.038827272	0.951425289	0.29600075	0.082421337	0.052424963	-0.095633514	0
885	2994609385	0.075040598	0.038166306	0.950983851	0.297560006	0.046403569	-0.060411441	-0.106651376	0
888	2994659386	0.075700005	0.037232455	0.949930545	0.300857464	-0.115021207	0.164988425	-0.187052604	0
891	2994709387	0.076489458	0.037036956	0.948493449	0.305184869	-0.065812443	0.073970197	-0.129084581	0
893	2994742721	0.076508228	0.037023374	0.947443692	0.308425373	-0.003820504	0.03291461	-0.14532881	0
899	2994842723	0.076513258	0.036907759	0.945179541	0.315308061	0.093459476	0.038110557	-0.099630588	0
901	2994876057	0.076462432	0.036818357	0.94433656	0.317846451	0.062992114	0.106279944	-0.099393719	0
904	2994926058	0.076479351	0.036491672	0.942663074	0.322808915	-0.049442679	0.074551234	0.029994487	0
907	2994976059	0.076878979	0.036010559	0.941392785	0.326454417	0.069811402	0.090796186	-0.032033455	0
910	2995026060	0.07686503	0.035328208	0.940444624	0.329253086	0.078810966	0.103449907	-0.045780092	0
912	2995059394	0.076700304	0.034849172	0.940147411	0.330190013	0.047327701	0.161913677	-0.066169821	0
915	2995109395	0.076474097	0.034211554	0.940111921	0.330410137	-0.048582474	0.114059324	-0.040498019	0
918	2995159396	0.077035694	0.034246448	0.940225997	0.329951145	0.019963825	0.088806599	-0.13417066	0
920	2995192730	0.077357549	0.034346926	0.939925258	0.330721345	-0.016304565	0.103524269	-0.125130695	0
923	2995242731	0.077636146	0.034645914	0.939600977	0.33154531	0.01071416	0.052509508	-0.117695419	0
927	2995309399	0.077942684	0.03514878	0.938957413	0.333239372	-0.058243409	0.102031712	-0.041070422	0
930	2995359400	0.078074027	0.035476261	0.938860671	0.33344643	0.001073002	-0.033841473	-0.167226489	0
933	2995409401	0.078212108	0.035695183	0.938694481	0.333858339	-0.045839508	0.056239729	-0.100714123	0
935	2995442735	0.078276531	0.035850597	0.938652941	0.333943372	-0.075787136	0.024885926	-0.159663267	0
938	2995492736	0.078248289	0.035933816	0.938404227	0.334639319	-0.012577932	0.051285246	-0.14631108	0
942	2995559404	0.078306034	0.036162887	0.938212241	0.335139079	-0.075552042	0.013865705	-0.097786867	0
945	2995609405	0.078391188	0.036204552	0.938296731	0.334878033	-0.154925132	0.040201972	-0.061189892	0
947	2995642739	0.07847016	0.03607181	0.938542394	0.334184729	-0.025295817	-0.034545739	-0.125894108	0
950	2995692740	0.078775081	0.035796346	0.938927926	0.333057741	-0.037497882	0.006717989	-0.207639387	0
953	2995742741	0.078808712	0.035615689	0.939072034	0.332662629	-0.025632373	0.074899527	-0.148746515	0
956	2995792742	0.078650468	0.035673417	0.939214605	0.332291193	-0.044025575	0.050062028	-0.116505726	0
958	2995826076	0.078673378	0.035611397	0.939138984	0.332506084	-0.046988031	-0.061122861	-0.153194163	0
961	2995876077	0.078824168	0.03570251	0.9388659	0.333231006	-0.031346616	0.020284272	-0.092656827	0
964	2995926078	0.079189028	0.035802514	0.938757803	0.333438248	-0.048851259	0.078285859	-0.075448007	0
966	2995959412	0.079330084	0.03585534	0.938692252	0.333583555	-0.07488941	0.032130417	-0.098442335	0
969	2996009413	0.079747022	0.036181746	0.938623923	0.333641161	-0.051187488	-0.001371078	-0.11403375	0
972	2996059414	0.080173129	0.036526615	0.938684776	0.333330117	-0.036751027	0.020706319	-0.184258475	0
974	2996092748	0.080370486	0.036838638	0.938716232	0.333159624	-0.01739333	-0.024654897	-0.177180362	0
977	2996142749	0.08034803	0.037138515	0.938554524	0.333587065	-0.08883385	0.045587643	-0.108769256	0
980	2996192750	0.080453491	0.037604371	0.938555393	0.333507004	-0.067075414	0.013154189	-0.125309009	0
983	2996242751	0.080527548	0.038059737	0.938618476	0.333259849	-0.024108228	0.04847692	-0.120375393	0
985	2996276085	0.080374198	0.038188318	0.938753919	0.332900466	-0.009572028	0.017826611	-0.128931199	0
988	2996326086	0.080333127	0.038188531	0.938761482	0.332889028	-0.077693186	0.048316802	-0.082882601	0
991	2996376087	0.080457554	0.038042404	0.938819622	0.332711699	-0.104335463	0.058322242	-0.150699074	0
993	2996409421	0.080593022	0.038028499	0.938836664	0.332632404	-0.02233308	0.079596479	-0.15834391	0
997	2996476089	0.080879995	0.038244518	0.938770567	0.332724519	-0.025469969	0.051889426	-0.126023344	0
1000	2996526090	0.081235937	0.038388624	0.938495182	0.333397406	-0.022495932	0.054388265	-0.108484863	0
1003	2996576091	0.08187434	0.03837278	0.938023637	0.334568048	-0.004415203	0.139560811	-0.017993739	0
1005	2996609425	0.082210291	0.038394104	0.937819153	0.335056109	-0.001125838	0.029788404	-0.076703556	0
1009	2996676093	0.08282927	0.038301968	0.937304328	0.336352299	0.017845949	0.09336091	-0.098491742	0
1014	2996759428	0.083483751	0.038635748	0.937235704	0.33634354	-0.063586767	0.031976363	-0.087684746	0
1016	2996792762	0.083749558	0.038731759	0.937398289	0.335812908	-0.05551654	-0.005709876	-0.119619726	0
1019	2996842763	0.084041914	0.038951139	0.937400348	0.335708732	0.023025891	0.017711729	-0.129453322	0
1022	2996892764	0.08416169	0.038832811	0.937121356	0.336470484	0.00067679	0.014821551	-0.118703304	0
1024	2996926098	0.08423556	0.038775891	0.936963739	0.336897242	-0.006173774	0.090577923	-0.109913734	0
1027	2996976099	0.084263909	0.038622467	0.936925796	0.337013281	-0.042539689	0.05909512	-0.064602036	0
1030	2997026100	0.084251925	0.03850933	0.936976536	0.336888135	-0.014843894	0.049507467	-0.092646052	0
1032	2997059434	0.084196018	0.03830929	0.936911464	0.337105825	-0.036906737	0.044848628	-0.139655694	0
1035	2997109435	0.083979138	0.03808408	0.936919527	0.337163029	-0.010142483	0.083176455	-0.109804763	0
1039	2997176103	0.083761828	0.037999835	0.936691897	0.337858341	-0.002187647	0.094311383	-0.093085813	0
1042	2997226104	0.083701716	0.038046947	0.936695289	0.337858533	-0.001484635	0.016115131	-0.088474052	0
1045	2997276105	0.083717589	0.037943351	0.936543473	0.338286846	-0.005139717	0.062828508	-0.087952986	0
1047	2997309439	0.08385298	0.038057508	0.936257105	0.339032353	-0.003552055	0.117732712	-0.204471553	0
1050	2997359440	0.083827603	0.038974202	0.935390743	0.341318185	-0.254440494	0.136779684	-0.071438112	0
1053	2997409441	0.083965678	0.041812502	0.93336745	0.346448672	-0.500071447	0.203903228	-0.262401371	0
1055	2997442775	0.083375617	0.046575737	0.932716885	0.347733259	-1.319306635	0.589657907	-0.226454078	0
1058	2997492776	0.080278153	0.059285703	0.933065609	0.345585291	-1.303881553	0.583860251	-0.675982351	0
1061	2997542777	0.074733029	0.078430105	0.932029915	0.345809095	-2.186326923	1.78045674	-0.71627927	0
1064	2997592778	0.061942245	0.106313013	0.9301531	0.345942066	-2.464435111	1.876663143	-0.910704573	0
1068	2997659446	0.038732397	0.164540358	0.920162763	0.353166762	-2.266592784	2.891079312	-1.715510855	0
1070	2997692780	0.025863468	0.199679494	0.912897321	0.355074164	-1.412743158	3.089046875	-2.080296425	0
1073	2997742781	0.006085882	0.257557978	0.896488224	0.360465968	0.461942244	1.667325233	-1.771345372	0
1076	2997792782	0.008437844	-0.318431998	-0.871003744	-0.374008481	1.367551799	0.632544714	-2.052138391	0
1078	2997826116	0.018591703	-0.358543184	-0.851971554	-0.381111014	1.493331815	-0.211471446	-1.953053542	0
1081	2997876117	0.031589174	-0.413552608	-0.82345704	-0.387162585	1.477389706	-1.165104364	-1.873535312	0
1084	2997926118	0.042662471	-0.46135879	-0.795211623	-0.391109263	1.115008517	-1.928187901	-1.081429594	0
1086	2997959452	0.048189476	-0.489671024	-0.776813536	-0.393015005	0.438877234	-2.052056325	-0.903729046	0
1089	2998009453	0.055016504	-0.527905617	-0.74894346	-0.396702076	-0.136664466	-1.709500675	-0.957629511	0
1092	2998059454	0.064757108	-0.559697601	-0.727467583	-0.391581446	-0.399104139	-2.116427021	0.162859359	0
1095	2998109455	0.068940969	-0.5869231	-0.706969375	-0.388539213	-0.90542705	-1.872639814	0.707099769	0
1097	2998142789	0.071508458	-0.602154986	-0.695953855	-0.384635079	-0.940246311	-1.323831558	0.346916663	0
1100	2998192790	0.07706618	-0.620886242	-0.683865433	-0.375352032	-0.711869232	-1.264588769	0.882511434	0
1103	2998242791	0.084257037	-0.634433384	-0.675181475	-0.366776511	-0.881721901	-2.120426502	1.499825304	0
1105	2998276125	0.087166755	-0.640756627	-0.669653586	-0.365235509	-0.866308073	-2.101124892	1.72915414	0
1108	2998326126	0.090136365	-0.644670761	-0.666516971	-0.363359566	-0.381843864	-0.690347503	1.248541712	0
1111	2998376127	0.093588389	-0.64497849	-0.668137229	-0.358938162	-0.172827272	0.075513562	0.904772361	0
1113	2998409461	0.098179634	-0.644160737	-0.672582251	-0.350786004	-0.216943508	-0.370659905	0.141324371	0
1116	2998459462	0.103869057	-0.643318	-0.676581393	-0.342915132	-0.13127338	-0.225634693	0.168716058	0
1119	2998509463	0.106209217	-0.64283299	-0.677854583	-0.340585545	-0.23984204	-0.512798047	0.448290509	0
1122	2998559464	0.103522499	-0.642468886	-0.67864117	-0.340533383	0.037514999	0.504818511	-0.403706693	0
1124	2998592798	0.103248472	-0.6422957	-0.679204554	-0.339819306	0.027186544	0.212919514	-0.121593985	0
1127	2998642799	0.103238218	-0.643716661	-0.678783762	-0.33796943	0.081064373	0.148556698	-0.150128783	0
1130	2998692800	0.103514296	-0.64636462	-0.676379927	-0.337650356	0.400207027	0.180752913	-0.260269403	0
1132	2998726134	0.105819932	-0.647219867	-0.677892218	-0.3322209	-0.006526053	-0.390178269	0.547111558	0
1135	2998776135	0.106697502	-0.648623972	-0.67968514	-0.325469961	-0.184147068	-0.093513427	0.219800259	0
1138	2998826136	0.107185298	-0.64913995	-0.681859837	-0.319680779	-0.261915983	-0.30216481	0.261228478	0
1140	2998859470	0.105283076	-0.649552439	-0.682687255	-0.317703028	-0.413836953	-0.246506188	0.301640141	0
1143	2998909471	0.10377383	-0.649594623	-0.684105555	-0.315051437	-0.536244129	0.051419906	-0.059043924	0
1147	2998976139	0.104644201	-0.648333007	-0.686536412	-0.312060346	-0.903642318	-0.304073788	0.135696995	0
1150	2999026140	0.106104072	-0.646144846	-0.688687652	-0.311364869	-0.367678579	0.624410894	-0.66898669	0
1153	2999076141	0.112557873	-0.642792277	-0.692014643	-0.308649554	-0.431524275	-0.157565717	0.121109979	0
1155	2999109475	0.112153531	-0.642485801	-0.690514259	-0.312767708	-0.255723044	0.195526334	-0.236244116	0
1158	2999159476	0.115037708	-0.640958492	-0.689877081	-0.316240652	0.074525855	-0.06557954	-0.095914036	0
1161	2999209477	0.116096443	-0.640301383	-0.688304954	-0.320580793	0.043729562	0.037678376	0.176065194	0
1163	2999242811	0.115894604	-0.640410954	-0.687258995	-0.322672162	0.47320139	0.375997418	-0.246751709	0
1166	2999292812	0.1166651	-0.64075566	-0.686781435	-0.322726972	0.139857035	-0.224009645	0.166736466	0
1169	2999342813	0.116568656	-0.641832928	-0.685902006	-0.322491364	0.092427681	0.101315753	-0.152899335	0
1171	2999376147	0.117399445	-0.642365542	-0.686095864	-0.320712249	0.123155968	0.262126747	-0.128376734	0
1176	2999459482	0.117651006	-0.644794125	-0.685204927	-0.317636563	-0.106772794	-0.056803495	-0.030449274	0
1178	2999492816	0.11823389	-0.645571021	-0.685280087	-0.315673892	-0.023411207	-0.085552717	0.086914022	0
1181	2999542817	0.118592274	-0.646552732	-0.685906566	-0.312149996	-0.407519228	-0.469259795	0.24139069	0
1184	2999592818	0.118576116	-0.647075621	-0.685896883	-0.311092128	-0.325189535	-0.161225692	0.179035905	0
1186	2999626152	0.119517366	-0.646609961	-0.686972743	-0.309321205	-0.278348271	-0.145264375	0.214352029	0
1189	2999676153	0.119447591	-0.645921742	-0.688254983	-0.307932548	-0.211259151	-0.031756261	0.150291621	0
1192	2999726154	0.118518532	-0.645203686	-0.689218343	-0.307642059	-0.034629224	0.072811032	0.072335477	0
1194	2999759488	0.117464405	-0.644974259	-0.689627575	-0.307610351	0.144019259	0.085597017	-0.072330701	0
1197	2999809489	0.116211518	-0.645306453	-0.689921633	-0.306728878	-0.149567359	-0.077778652	-0.080755451	0
1200	2999859490	0.115208782	-0.645410038	-0.690729568	-0.305066359	-0.159901946	-0.044631819	0.105301881	0
1204	2999926158	0.11342666	-0.645038401	-0.692533842	-0.302418141	-0.207133164	-0.117162111	0.12388168	0
1207	2999976159	0.109559403	-0.64523929	-0.692751556	-0.302916288	-0.076062906	-0.021211432	0.153779652	0
1209	3000009493	0.105722273	-0.645716742	-0.692649822	-0.303494505	0.060858667	0.200436074	-0.301002462	0
1212	3000059494	0.104106157	-0.645602503	-0.693853098	-0.301541366	-0.443920633	-0.220483638	0.239405855	0
1215	3000109495	0.100709662	-0.64541398	-0.694973427	-0.300516713	-0.629250545	0.058332203	-0.165161529	0
1217	3000142829	0.100269861	-0.64459475	-0.696166821	-0.299658672	-0.724188487	0.054310239	-0.254625487	0
1220	3000192830	0.101363801	-0.642850802	-0.697578075	-0.299754991	-0.351826564	0.169740734	-0.035837217	0
1223	3000242831	0.102463708	-0.641969748	-0.69731558	-0.301872512	-0.182556886	-0.157788591	0.065801918	0
1225	3000276165	0.103243805	-0.641674339	-0.69688306	-0.303230539	0.227559254	0.334605562	-0.166117399	0
1228	3000326166	0.103390204	-0.641290361	-0.69652701	-0.304806927	0.062235096	-0.217672499	0.210837478	0
1231	3000376167	0.102575518	-0.640835288	-0.69683538	-0.305333996	-0.275906226	-0.164841898	0.105982115	0
1234	3000426168	0.102821446	-0.639177461	-0.698876705	-0.304058014	-0.18151353	0.219625393	-0.346029441	0
1236	3000459502	0.102716596	-0.63818554	-0.699338968	-0.305112316	-0.182207017	-0.430660148	0.254626557	0
1239	3000509503	0.097549267	-0.639637092	-0.695282803	-0.312938261	0.294202906	0.668449225	-0.894200148	0
1242	3000559504	0.101779577	-0.640092906	-0.695342304	-0.310517422	0.074404513	-0.045221492	-0.165539896	0
1244	3000592838	0.10414423	-0.640669043	-0.695220557	-0.308813106	-0.146110642	-0.006482192	-0.027921597	0
1247	3000642839	0.104355458	-0.642620089	-0.693170287	-0.309296479	0.100848865	-0.007190796	0.033162262	0
1250	3000692840	0.105289902	-0.644688586	-0.691344834	-0.3087604	-0.007361001	-0.035427066	0.022890147	0
1252	3000726174	0.106972806	-0.645754832	-0.690800514	-0.307167976	-0.189868502	-0.089244431	0.033020821	0
1255	3000776175	0.109079782	-0.646886781	-0.69055849	-0.304578505	-0.181528375	-0.078111116	0.290087232	0
1258	3000826176	0.108454566	-0.648111644	-0.689590061	-0.304391937	-0.18938044	-0.190289561	0.187245812	0
1261	3000876177	0.108473709	-0.648759263	-0.689474523	-0.303265155	-0.311460976	-0.128019008	0.088322886	0
1263	3000909511	0.108826096	-0.649051524	-0.689569291	-0.302296531	-0.054520439	0.100705158	0.07073626	0
1266	3000959512	0.108736699	-0.649667445	-0.689296547	-0.301626941	-0.319762245	-0.180241243	0.169260002	0
1269	3001009513	0.107105902	-0.65039659	-0.688619961	-0.302183968	-0.219706924	0.226217056	-0.170141299	0
1271	3001042847	0.107861391	-0.650459018	-0.688671153	-0.301663768	-0.235022545	-0.257971984	0.0093477	0
1274	3001092848	0.108249105	-0.650731155	-0.688409948	-0.301534141	-0.253430345	-0.041724704	-0.040849533	0
1277	3001142849	0.108167044	-0.650960341	-0.688158375	-0.301643129	-0.052872319	0.094826159	-0.192886416	0
1279	3001176183	0.109020326	-0.65083096	-0.688269461	-0.301361542	-0.292780995	-0.128388501	0.058697506	0
1284	3001259518	0.110181241	-0.651671543	-0.686521847	-0.303104022	-0.012450378	0.083542684	-0.091099445	0
1286	3001292852	0.110698393	-0.651952786	-0.686111635	-0.3032396	-0.06362816	-0.03214495	0.016832484	0
1289	3001342853	0.113125642	-0.651858376	-0.686743248	-0.301109547	-0.095312227	-0.371666478	0.348370181	0
1292	3001392854	0.112932114	-0.651635283	-0.686779737	-0.301581479	-0.329955608	-0.126738505	0.250199408	0
1294	3001426188	0.112551308	-0.651313581	-0.68727378	-0.30129317	0.011301563	0.058171032	0.015622031	0
1297	3001476189	0.112458898	-0.650995825	-0.687734784	-0.300962288	0.030324575	-0.178411231	0.117488459	0
1300	3001526190	0.109908365	-0.651617378	-0.687108515	-0.301988133	-0.20245954	0.11585828	-0.256982504	0
1302	3001559524	0.110301503	-0.651566766	-0.68772153	-0.300555194	-0.042086398	0.103425664	-0.089536397	0
1305	3001609525	0.111139433	-0.6514977	-0.688284816	-0.299103303	-0.476454279	-0.239011172	0.279510961	0
1308	3001659526	0.109286542	-0.651877151	-0.68733381	-0.301139279	-0.409253677	0.166770821	-0.003653491	0
1312	3001726194	0.111188563	-0.650776331	-0.688228414	-0.30078052	-0.295842091	-0.133475899	0.185763755	0
1315	3001776195	0.110083002	-0.650584775	-0.687410583	-0.303459839	-0.03516468	0.151718194	-0.134490626	0
1317	3001809529	0.110915581	-0.650132934	-0.687739416	-0.303379958	-0.099324536	0.111450731	-0.148929531	0
1320	3001859530	0.111569112	-0.649318523	-0.688506757	-0.303143916	-0.011880836	-0.104568235	0.109209075	0
1323	3001909531	0.111342092	-0.649102686	-0.688268967	-0.304227663	-0.189783307	0.119712286	-0.108166814	0
1325	3001942865	0.110955742	-0.64918182	-0.687773108	-0.305319405	-0.040458882	0.06890055	-0.123137699	0
1328	3001992866	0.111530304	-0.649458517	-0.687158349	-0.305905263	-0.222675279	0.007744072	-0.148021511	0
1331	3002042867	0.111729142	-0.650347277	-0.685677814	-0.307263655	-0.253844182	0.069879284	-0.160339544	0
1333	3002076201	0.111976223	-0.651007669	-0.684248802	-0.308956174	0.091602353	-0.140144278	0.02706797	0
1336	3002126202	0.111511279	-0.652202084	-0.682510753	-0.310446047	-0.048138988	-0.046747725	-0.046479145	0
1340	3002192870	0.111794874	-0.653004368	-0.681990671	-0.309799817	0.134964273	-0.324625302	0.453098855	0
1343	3002242871	0.108557045	-0.654741282	-0.680256298	-0.31109579	0.242837421	-0.072351665	0.008362232	0
1346	3002292872	0.107409552	-0.655541027	-0.68130284	-0.307498926	-0.058844315	-0.198911131	0.193271699	0
1348	3002326206	0.106693836	-0.655364878	-0.682642215	-0.305144077	-0.526903949	-0.297296664	0.167004299	0
1351	3002376207	0.105168338	-0.654325867	-0.684652615	-0.30339426	-0.40458677	0.041757047	0.143353284	0
1354	3002426208	0.104322828	-0.653472425	-0.685320507	-0.304017006	-0.093933224	0.256771106	-0.194816285	0
1356	3002459542	0.104153142	-0.653028014	-0.685975727	-0.303552035	0.080197567	-0.089478111	-0.215271374	0
1359	3002509543	0.10356897	-0.653554953	-0.685485	-0.30372637	0.200078472	0.121346754	-0.149361301	0
1362	3002559544	0.102637432	-0.654882255	-0.685641349	-0.300816773	0.310957011	0.079744378	-0.244536962	0
1365	3002609545	0.102074302	-0.656239039	-0.685719322	-0.297859317	-0.176363457	-0.411320754	0.355176145	0
1367	3002642879	0.099208498	-0.657641452	-0.685115049	-0.297124157	-0.183656551	-0.048230868	0.061752588	0
1370	3002692880	0.098495118	-0.658187172	-0.686268983	-0.293467614	-0.392448604	0.040664494	0.134972071	0
1373	3002742881	0.096048419	-0.658088125	-0.687259653	-0.292179553	-0.417428769	-0.252845322	0.169696545	0
1375	3002776215	0.094542766	-0.657944413	-0.687321841	-0.292847233	-0.292977707	0.335727632	-0.297289207	0
1378	3002826216	0.094172852	-0.657067889	-0.688096737	-0.293114557	-0.167329071	-0.177309282	0.010206831	0
1381	3002876217	0.094066612	-0.656027896	-0.689043808	-0.293253308	-0.163018371	0.061536672	-0.025038047	0
1383	3002909551	0.093771694	-0.655331799	-0.689741927	-0.293262984	0.046188335	0.044709511	0.208783263	0
1386	3002959552	0.093479861	-0.654738874	-0.690755438	-0.292293427	-0.118264415	0.135458466	-0.317829259	0
1389	3003009553	0.094127885	-0.653656871	-0.692303417	-0.29084122	-0.224999662	-0.169911571	0.085864642	0
1392	3003059554	0.092989674	-0.653626897	-0.691817164	-0.292427448	0.031270382	0.268134492	-0.296989324	0
1394	3003092888	0.094163287	-0.653026596	-0.692596134	-0.291547828	-0.264615711	-0.13365486	0.10682865	0
1397	3003142889	0.093081805	-0.65298261	-0.692152548	-0.293043238	0.273211139	0.252462486	-0.006375922	0
1400	3003192890	0.094551385	-0.652495348	-0.69345966	-0.290557318	-0.168473044	-0.176182403	0.271975128	0
1402	3003226224	0.094488915	-0.652434104	-0.693920886	-0.28961248	-0.054836486	-0.00094865	-0.059150595	0
1405	3003276225	0.093158377	-0.652290526	-0.693991742	-0.290196568	-0.217894685	-0.076485988	0.131124735	0
1408	3003326226	0.092883738	-0.651954097	-0.69449647	-0.289832915	-0.053054198	0.193993434	-0.206744129	0
1410	3003359560	0.093863623	-0.651370242	-0.695619283	-0.288132333	-0.360690145	-0.152765428	0.171744929	0
1413	3003409561	0.092950071	-0.651024247	-0.695482944	-0.289536161	-0.122502328	-0.022080359	0.04205887	0
1416	3003459562	0.093069054	-0.650309024	-0.695772278	-0.290408783	-0.361107803	0.12692911	0.001817713	0
1420	3003526230	0.094218199	-0.649147255	-0.696375206	-0.29119125	-0.272269493	0.104678836	-0.138311834	0
1423	3003576231	0.095674956	-0.648200218	-0.696417142	-0.292721614	-0.143581716	0.070944643	-0.005035676	0
1425	3003609565	0.096263376	-0.647658563	-0.696320431	-0.293955107	-0.339372299	0.1901532	-0.173161348	0
1428	3003659566	0.099467118	-0.646266912	-0.697265281	-0.293711591	-0.234980807	0.285564039	-0.179042502	0
1431	3003709567	0.101970111	-0.645341693	-0.696727023	-0.296154776	-0.629995091	-0.023555809	-0.192988755	0
1433	3003742901	0.104214548	-0.644684397	-0.695536783	-0.299582942	-0.610055153	0.140804543	-0.446537668	0
1436	3003792902	0.113863888	-0.641585951	-0.695373174	-0.303081889	-0.735451483	-0.272933746	0.079238612	0
1439	3003842903	0.126116989	-0.637264671	-0.694388631	-0.309536222	-0.605999977	-0.176935122	-0.020676334	0
1441	3003876237	0.136182713	-0.633367494	-0.694062466	-0.313970028	-0.387487767	0.099450216	-0.047757628	0
1444	3003926238	0.153472948	-0.626747276	-0.694207397	-0.318920046	-0.064987024	-0.086189691	-0.056818706	0
1448	3003992906	0.178449029	-0.618046442	-0.693536458	-0.324317316	0.05328976	-0.059311582	-0.297256406	0
1451	3004042907	0.20070526	-0.611095498	-0.691947233	-0.327854721	-0.333754156	-0.119934049	-0.113970437	0
1454	3004092908	0.223097463	-0.603422009	-0.691971427	-0.327543807	-0.073225569	0.21531228	-0.550542575	0
1456	3004126242	0.242880722	-0.595420169	-0.694816468	-0.322046353	0.222950228	-0.076948655	-0.211097501	0
1459	3004176243	0.278913212	-0.579701724	-0.700504342	-0.308944976	-0.538894687	-0.824271571	0.125681729	0
1462	3004226244	0.311057823	-0.564832735	-0.701169699	-0.304250004	0.235397852	-0.268360011	-0.131749158	0
1464	3004259578	0.339650841	-0.549911761	-0.703384957	-0.295776881	0.534919545	0.014296945	-0.504843973	0
1467	3004309579	0.390961001	-0.520518427	-0.704897817	-0.281654275	0.254184724	0.010775407	-0.013526212	0
1470	3004359580	0.450577132	-0.48561751	-0.701699719	-0.262246803	-0.592158471	-0.087159993	-0.777143008	0
1473	3004409581	0.509997422	-0.449561747	-0.689923175	-0.248601846	-0.558166541	0.177673938	-0.047373807	0
1477	3004476249	0.588850237	-0.404648945	-0.659522411	-0.233548324	-0.512551602	-0.042800081	-0.391987283	0
1479	3004509583	0.629672346	-0.380246261	-0.638909109	-0.225212494	-0.893650932	-0.15649024	-0.829277909	0
1482	3004559584	0.692031265	-0.335441026	-0.604127865	-0.208809889	-0.23302225	0.100576494	-0.551558182	0
1485	3004609585	0.74932602	-0.287886188	-0.562978723	-0.196690152	0.089491563	-0.43348121	-1.165173884	0
1487	3004642919	0.782407374	-0.258231131	-0.532656177	-0.193475531	0.770107484	-0.017118242	-0.488560613	0
1490	3004692920	0.828033182	-0.208923168	-0.485422689	-0.187288474	0.208864667	-0.371131703	-0.922270079	0
1493	3004742921	0.866890613	-0.159936765	-0.436481742	-0.180012736	1.130321089	0.252583551	-0.303677267	0
1495	3004776255	0.888887486	-0.12799299	-0.40356623	-0.175017511	0.631750648	-0.116284958	-0.482580351	0
1498	3004826256	0.914861671	-0.085979588	-0.356270363	-0.169431586	1.020692283	0.057627011	0.599193036	0
1501	3004876257	0.934038937	-0.049024461	-0.314045276	-0.162921546	1.263879511	0.266040609	0.591425707	0
1504	3004926258	0.947091382	-0.023391012	-0.278001244	-0.158701237	1.25895189	-0.015280097	1.036583838	0
1506	3004959592	0.953127963	-0.007345863	-0.259780697	-0.154942293	0.902425486	0.361226517	0.008806309	0
1509	3005009593	0.960407624	0.009352992	-0.234854296	-0.149576662	1.563157624	0.638495852	-0.233765015	0
1512	3005059594	0.965494022	0.015821563	-0.214787971	-0.146414138	1.479653723	-0.205114471	-0.026734587	0
1514	3005092928	0.967841458	0.016760972	-0.205156218	-0.144612961	1.183079251	0.050862803	0.559260108	0
1517	3005142929	0.969402849	0.011467443	-0.196183944	-0.147100217	0.737711673	-0.155021681	0.592349142	0
1520	3005192930	0.968770723	0.005637023	-0.197936972	-0.149239624	0.437069012	-0.376399513	-0.003690738	0
1522	3005226264	0.967281162	-0.001469616	-0.203320284	-0.15174273	0.675421409	-0.122522417	-0.207201852	0
1525	3005276265	0.963777615	-0.010214479	-0.216159381	-0.155895782	0.344789629	-0.391943493	-0.008135353	0
1528	3005326266	0.959212356	-0.024845196	-0.230747136	-0.161400532	2.21382209	1.005477867	1.117607828	0
1531	3005376267	0.948914273	-0.077473506	-0.240219842	-0.189351489	4.308711795	3.186740529	0.10619466	0
1533	3005409601	0.935050212	-0.128021907	-0.246392382	-0.220413899	3.88873732	3.498566894	1.0486082	0
1536	3005459602	0.902783015	-0.210012037	-0.263319343	-0.267470926	0.562257999	0.565858745	-1.522099692	0
1539	3005509603	0.861185236	-0.310569765	-0.279798618	-0.289169748	-0.828647969	1.031643734	-1.479975934	0
1541	3005542937	0.836016517	-0.362029447	-0.290416377	-0.292693338	-1.48047722	2.644770679	-2.775258976	0
1544	3005592938	0.815832065	-0.393800303	-0.314368672	-0.283745838	-1.472862375	-1.462236001	-1.011340531	0
1547	3005642939	0.791907629	-0.437617641	-0.328950875	-0.270489242	-2.871585797	-2.798053115	-0.487626618	0
1549	3005676273	0.773976333	-0.466374746	-0.337238977	-0.264055117	-1.087955196	-0.910282231	-0.559083634	0
1552	3005726274	0.757707459	-0.483152432	-0.351146442	-0.262943551	-2.55557638	-1.005607509	1.334259416	0
1556	3005792942	0.741083782	-0.493731663	-0.371550974	-0.262628534	-0.876491131	-0.860657162	1.81025905	0
1559	3005842943	0.732696061	-0.497125301	-0.381560035	-0.265395663	-0.794952176	-0.228945271	1.144245442	0
1562	3005892944	0.731665587	-0.492913681	-0.388172107	-0.26650326	-0.485595772	0.90565877	0.807449101	0
1564	3005926278	0.732048061	-0.490107239	-0.390166101	-0.267714297	-0.976200213	-0.327275274	1.080552383	0
1567	3005976279	0.734582966	-0.48751507	-0.389972795	-0.26577837	-0.057765187	0.639964652	-0.260286441	0
1570	3006026280	0.742196563	-0.480527341	-0.38657365	-0.262294775	0.433697468	0.100529838	0.28251009	0
1572	3006059614	0.747153851	-0.478427277	-0.381926201	-0.258845205	0.422868001	0.323099176	0.051167758	0
1575	3006109615	0.750329819	-0.478138358	-0.375587023	-0.259467265	0.484409352	0.460559857	-0.007777936	0
1578	3006159616	0.752144094	-0.476519311	-0.374344023	-0.258988728	-0.057811557	-0.524881405	0.539258505	0
1581	3006209617	0.751132283	-0.478050213	-0.375278332	-0.257748834	0.435688568	-0.379292239	0.085338871	0
1585	3006276285	0.751476639	-0.477039816	-0.378889913	-0.253294903	0.274856332	-0.558725813	0.077617604	0
1587	3006309619	0.751550399	-0.476725054	-0.380181955	-0.251727833	0.096686801	-0.301128213	-0.115227636	0
1590	3006359620	0.751606203	-0.474695563	-0.383132275	-0.250922092	0.170129018	-0.025010127	0.182649109	0
1593	3006409621	0.750963456	-0.474730105	-0.384968409	-0.249969076	-0.098387347	0.021876453	0.05609801	0
1595	3006442955	0.750945046	-0.474932034	-0.385374096	-0.249013869	0.002212943	0.317912491	-0.131698003	0
1598	3006492956	0.751320672	-0.473990551	-0.385246563	-0.24987055	-0.053127427	0.014623788	-0.106635393	0
1601	3006542957	0.750877846	-0.474453302	-0.383019689	-0.253717249	0.178926704	-0.026646292	-0.08068511	0
1603	3006576291	0.75065286	-0.475854893	-0.38009083	-0.256151062	0.103892356	-0.02270452	-0.13038278	0
1606	3006626292	0.751346793	-0.47960727	-0.374908748	-0.254751434	-0.019060409	-0.054588512	-0.253774001	0
1609	3006676293	0.754251375	-0.48261905	-0.366248426	-0.253072729	0.13185654	-0.350277041	-0.348095062	0
1613	3006742961	0.763122087	-0.48080239	-0.349478558	-0.253650311	-0.044621441	0.344392478	0.319143718	0
1616	3006792962	0.769200799	-0.480135484	-0.3347446	-0.256410024	-0.107383259	0.673126354	0.204119073	0
1618	3006826296	0.774107751	-0.477994295	-0.324087433	-0.259318298	0.070906077	0.682348745	0.627023845	0
1621	3006876297	0.780457663	-0.476473269	-0.306702106	-0.264183418	0.016340665	0.660248622	0.199682559	0
1624	3006926298	0.786317066	-0.473100986	-0.291857838	-0.269629248	-0.062458229	-0.767992142	0.559562504	0
1626	3006959632	0.787597954	-0.473859299	-0.283318171	-0.273637792	-0.032186281	-1.002425264	-0.514960655	0
1629	3007009633	0.790460991	-0.472416399	-0.271319814	-0.279963793	0.47970618	-1.531337387	-0.609932808	0
1632	3007059634	0.792448122	-0.471469555	-0.259020236	-0.287490782	0.648867629	-1.426156892	-0.605716573	0
1635	3007109635	0.79306851	-0.469661107	-0.249552078	-0.296958823	0.193237679	-1.352297483	-0.374463341	0
1637	3007142969	0.794290738	-0.465224765	-0.246549631	-0.303119483	0.025450749	-1.028379113	0.139934636	0
1640	3007192970	0.795295012	-0.46076087	-0.243824867	-0.309442563	0.241363843	-0.204261669	0.422851922	0
1643	3007242971	0.797524918	-0.456034224	-0.240596277	-0.313209551	0.331711457	0.545594145	0.304180489	0
1645	3007276305	0.798392398	-0.455033029	-0.237885006	-0.31452384	0.424153779	0.487222991	0.589199102	0
1648	3007326306	0.798341403	-0.455399342	-0.234071291	-0.31697488	0.287738582	0.414460525	0.09487919	0
1651	3007376307	0.797597492	-0.455105549	-0.232330249	-0.320530552	0.054204672	-0.36342679	0.295737572	0
1653	3007409641	0.797429101	-0.453952439	-0.233274146	-0.321896232	-0.090300467	-0.542135022	0.448833258	0
1656	3007459642	0.797200565	-0.453477316	-0.235598624	-0.321438753	-0.019808226	-0.232017699	0.072019392	0
1659	3007509643	0.800126245	-0.44823876	-0.239046808	-0.318961801	0.133975117	-0.020021907	0.306645587	0
1662	3007559644	0.800284364	-0.448834442	-0.240358887	-0.316733619	0.422898066	0.5213635	-0.025322389	0
1664	3007592978	0.799896566	-0.449168833	-0.241459056	-0.316402225	0.249620067	0.299157404	-0.161628875	0
1667	3007642979	0.798859955	-0.451182428	-0.241756968	-0.315928406	0.249530423	0.342334529	-0.185040916	0
1670	3007692980	0.797374116	-0.453762917	-0.240409425	-0.317012686	-0.020966772	-0.071502681	0.289521266	0
1672	3007726314	0.795841169	-0.456183343	-0.239394267	-0.318157157	0.007902089	-0.046579733	0.107917522	0
1675	3007776315	0.794042784	-0.458721755	-0.237550426	-0.320375098	0.128585486	-0.004762608	0.172205503	0
1678	3007826316	0.793011732	-0.460649409	-0.236376269	-0.321030799	0.184983807	-0.773738364	-0.123205938	0
1680	3007859650	0.792236184	-0.463499206	-0.234333902	-0.320340346	0.319467112	-0.419839784	-0.830525167	0
1683	3007909651	0.792319014	-0.464066412	-0.232823696	-0.320415467	0.39942148	-0.778944013	-0.591295675	0
1686	3007959652	0.7901736	-0.46595875	-0.231961621	-0.323576778	0.215663077	-0.647911328	-0.577158041	0
1689	3008009653	0.786997414	-0.467655228	-0.23239737	-0.328519588	0.128937546	-0.716858823	-0.134381677	0
1693	3008076321	0.783664034	-0.469779157	-0.232892599	-0.333075461	-0.154587556	-0.06018492	0.499528905	0
1695	3008109655	0.78321203	-0.469762711	-0.233213841	-0.333935946	-0.082513127	0.103189575	0.418031802	0
1698	3008159656	0.783261623	-0.469409694	-0.234121593	-0.333680759	0.25377199	0.093383283	0.170637885	0
1701	3008209657	0.783174063	-0.469605596	-0.234411588	-0.333406926	0.159968812	-0.350128698	-0.057155681	0
1703	3008242991	0.782485539	-0.469814628	-0.235340891	-0.334073736	0.167189479	-0.386713057	-0.112611394	0
1706	3008292992	0.781856881	-0.468665365	-0.238030809	-0.335252036	0.236094669	-0.513475763	-0.035341425	0
1709	3008342993	0.781765529	-0.468891898	-0.238159284	-0.335057012	0.119010817	-0.031781832	-0.226901079	0
1711	3008376327	0.783364691	-0.466796997	-0.238761496	-0.333816225	0.181342925	-0.022840737	0.077544003	0
1714	3008426328	0.784932199	-0.466677939	-0.238056732	-0.33079017	0.137727654	0.155199203	-0.026690745	0
1717	3008476329	0.787271196	-0.464502804	-0.237931377	-0.328374587	0.163274569	-0.159269449	0.041972848	0
1721	3008542997	0.787907014	-0.464029352	-0.238547885	-0.327069113	0.190984259	-0.140840831	-0.444926495	0
1724	3008592998	0.789472953	-0.462443161	-0.239213926	-0.325046885	0.368039814	-0.377492193	-0.012753725	0
1726	3008626332	0.789823489	-0.463713413	-0.239252941	-0.322345711	0.139274301	-0.089782254	-0.146502719	0
1729	3008676333	0.791441329	-0.463171571	-0.239538516	-0.318926351	0.093134758	-0.215328623	-0.218312839	0
1732	3008726334	0.792506216	-0.462024887	-0.240532833	-0.317192145	0.214653626	-0.246555248	0.120060176	0
1734	3008759668	0.792822729	-0.462195986	-0.241030073	-0.315771271	0.054826844	0.030590381	-0.108209561	0
1737	3008809669	0.794975678	-0.460008567	-0.241171385	-0.313436043	0.185703221	-0.091510854	0.204665843	0
1740	3008859670	0.795989224	-0.460322101	-0.24081823	-0.310662676	0.049482182	-0.090817376	-0.303125975	0
1743	3008909671	0.798464304	-0.457269941	-0.241473132	-0.308301287	0.31155218	-0.3330604	0.080018659	0
1745	3008943005	0.798995257	-0.457431071	-0.242533671	-0.305844427	0.251717074	-0.36400296	0.222489384	0
1749	3009009673	0.799976332	-0.459437696	-0.243581095	-0.29937121	0.148720753	0.032188683	0.125845364	0
1752	3009059674	0.800329279	-0.461033451	-0.245301621	-0.294530673	0.160711335	-0.01614079	-0.011574131	0
1755	3009109675	0.800341737	-0.46145257	-0.247877064	-0.291670346	0.177539995	-0.07087396	0.138241166	0
1757	3009143009	0.799108723	-0.462487855	-0.250127746	-0.291489867	0.162467893	-0.126812074	0.30032503	0
1760	3009193010	0.79706721	-0.464595789	-0.253725048	-0.290616957	-0.001921646	-0.010691277	0.052231015	0
1763	3009243011	0.796098143	-0.465527356	-0.256782435	-0.289093079	0.116557213	-0.377915343	0.014960365	0
1765	3009276345	0.794738329	-0.466671818	-0.259263658	-0.288774579	0.147578011	-0.604069544	0.105523837	0
1768	3009326346	0.792894365	-0.468783062	-0.261500195	-0.28840703	0.087230368	-0.185532359	-0.104179783	0
1771	3009376347	0.792858822	-0.468804983	-0.262481481	-0.287576508	0.019429308	-0.249788455	0.078349357	0
1774	3009426348	0.792872156	-0.469564287	-0.262103251	-0.286644398	-0.042543872	0.042167955	0.038022171	0
1776	3009459682	0.793292657	-0.468265252	-0.262269958	-0.287452402	0.036544732	-0.165116221	0.191130859	0
1779	3009509683	0.792247298	-0.468635278	-0.262646178	-0.289382411	0.082292592	0.125737594	0.23826857	0
1782	3009559684	0.792833558	-0.467817338	-0.261875509	-0.289798389	-0.01973277	0.089013469	-0.012973723	0
1784	3009593018	0.793607548	-0.467331473	-0.26122241	-0.289052255	0.223368514	-0.292067187	0.169336097	0
1787	3009643019	0.792984495	-0.468811385	-0.260251483	-0.289241494	0.116271438	0.145621992	-0.240131921	0
1790	3009693020	0.792812059	-0.468240462	-0.259977946	-0.290880349	0.192922046	-0.38013893	0.049239185	0
1792	3009726354	0.792060251	-0.469406274	-0.259600665	-0.291386005	-0.038640561	-0.333204101	-0.168863803	0
1795	3009776355	0.792415944	-0.468685636	-0.259399123	-0.29175819	0.187375695	-0.46067258	0.113451697	0
1798	3009826356	0.792357032	-0.469156868	-0.258572406	-0.291894635	0.041534848	0.065553991	-0.011773757	0
1801	3009876357	0.792396994	-0.468480921	-0.258099772	-0.293286786	0.170736565	-0.225783137	0.108351631	0
1803	3009909691	0.791895892	-0.468693439	-0.257936431	-0.294442106	0.114338598	-0.16900011	-0.06664451	0
1806	3009959692	0.792222812	-0.467557004	-0.257701993	-0.295572575	0.145619353	-0.182521423	0.049002783	0
1809	3010009693	0.792386185	-0.468154145	-0.256823171	-0.294953706	0.134307314	-0.132595761	-0.03462467	0
1811	3010043027	0.79271687	-0.467575837	-0.25666919	-0.295116465	0.090492031	-0.28050963	-0.241709858	0
1814	3010093028	0.793576742	-0.465803834	-0.256912011	-0.295396277	0.14742332	-0.438720281	0.044438414	0
1817	3010143029	0.79380065	-0.464893196	-0.257120696	-0.296046944	0.137354918	-0.265215777	-0.136897292	0
1819	3010176363	0.794683085	-0.463032825	-0.257482985	-0.29628012	0.21996772	-0.238026906	0.223198446	0
1822	3010226364	0.795033719	-0.463016848	-0.256356757	-0.296341014	0.142816798	0.141469859	-0.237393441	0
1825	3010276365	0.796223488	-0.461595748	-0.255407111	-0.296183609	0.284433107	-0.307208959	0.115317021	0
1829	3010343033	0.795701139	-0.461402123	-0.255169288	-0.298087928	0.148104182	-0.380365358	-0.176489213	0
1832	3010393034	0.795374527	-0.45973907	-0.256383768	-0.300477474	0.135647896	-0.482018595	-0.027743994	0
1834	3010426368	0.795566246	-0.458600327	-0.257390613	-0.300849068	0.098237999	-0.189712463	-0.116658562	0
1837	3010476369	0.797605022	-0.4559462	-0.257549955	-0.299344805	0.25667736	0.010737549	-0.150063052	0
1840	3010526370	0.799340219	-0.454423159	-0.257067487	-0.297440943	0.293843374	0.236628752	-0.212035794	0
1842	3010559704	0.799536911	-0.454037569	-0.256576497	-0.297924681	0.275763475	0.341349707	0.063175885	0
1845	3010609705	0.798827756	-0.453979986	-0.256102197	-0.300313259	0.053003613	-0.237079838	0.387731329	0
1848	3010659706	0.797604907	-0.455323167	-0.256123496	-0.301509504	0.014813704	-0.418795623	-0.005907198	0
1850	3010693040	0.798316953	-0.45385866	-0.256559996	-0.301461984	-0.059267612	-0.759091334	0.173782845	0
1853	3010743041	0.79937456	-0.451659934	-0.2580698	-0.300671906	0.147688176	-0.41186762	-0.046639373	0
1857	3010809709	0.801364492	-0.446249138	-0.260647631	-0.30122993	-0.030836934	-0.071067959	-0.145637533	0
1860	3010859710	0.802589689	-0.442382979	-0.262670059	-0.301913119	0.166824856	0.172093401	0.142818446	0
1863	3010909711	0.802116874	-0.441121751	-0.264363726	-0.303532439	0.113331151	0.200417002	-0.030295888	0
1865	3010943045	0.802028895	-0.440093549	-0.265164315	-0.304557392	0.234671169	0.145445765	-0.107829143	0
1868	3010993046	0.802314411	-0.439545924	-0.265165873	-0.304594857	0.124989527	-0.250572726	-0.135805861	0
1871	3011043047	0.803582179	-0.438305813	-0.264466748	-0.303646232	0.119792842	-0.099121064	-0.13463222	0
1873	3011076381	0.804749447	-0.436977713	-0.263814085	-0.303036194	0.145035989	-0.406430426	-0.156190883	0
1876	3011126382	0.805920441	-0.435729245	-0.262843052	-0.302565362	0.164348848	-0.164091661	-0.132688598	0
1879	3011176383	0.806728942	-0.433410914	-0.262443363	-0.304083664	0.092546461	-0.075293538	0.035760338	0
1882	3011226384	0.806122627	-0.432478146	-0.262717795	-0.3067708	0.112070498	0.04716819	0.039254558	0
1886	3011293052	0.805588947	-0.43208378	-0.262739353	-0.308703882	0.127545946	-0.132261559	-0.145346456	0
1888	3011326386	0.805925056	-0.431816462	-0.262464466	-0.308434354	0.205416577	-0.272596598	-0.217235023	0
1891	3011376387	0.806698939	-0.431979251	-0.261236476	-0.307223456	0.28348177	-0.082025876	-0.036712438	0
1894	3011426388	0.807626629	-0.431708951	-0.25950081	-0.306636495	0.026525788	-0.333119431	0.139572823	0
1896	3011459722	0.807998126	-0.431685575	-0.259286282	-0.30587124	0.095709448	-0.374412053	0.242368097	0
1899	3011509723	0.808366373	-0.431844414	-0.259038158	-0.304882668	0.028029749	-0.219689798	-0.034817532	0
1902	3011559724	0.809493713	-0.43057778	-0.259403872	-0.303368316	0.073547708	-0.31808847	-0.130175283	0
1905	3011609725	0.809987191	-0.428863705	-0.260634694	-0.303424173	0.01145763	-0.297599477	0.072989272	0
1907	3011643059	0.810074386	-0.427948536	-0.261362331	-0.303857322	0.062013185	-0.047309806	0.086370146	0
1910	3011693060	0.810956087	-0.425772031	-0.262059134	-0.303962847	-0.095610201	0.158569264	0.386472766	0
1913	3011743061	0.811931381	-0.424489754	-0.261317609	-0.303791027	0.019443378	0.081055088	0.098182853	0
1915	3011776395	0.812903486	-0.423472216	-0.26018205	-0.303586076	0.054886022	-0.272355345	-0.217920828	0
1918	3011826396	0.814755725	-0.420645372	-0.258736678	-0.303785963	0.049584598	-0.458543199	-0.291953286	0
1921	3011876397	0.816006157	-0.416699538	-0.258997347	-0.305640018	0.161827543	-0.579558164	-0.194413848	0
1923	3011909731	0.81694117	-0.413710969	-0.25944845	-0.306817309	0.197231069	-0.300453467	-0.128349078	0
1926	3011959732	0.818764486	-0.408942845	-0.259736819	-0.308102664	0.074664246	-0.083082286	0.134593304	0
1930	3012026400	0.824065869	-0.399960516	-0.259425759	-0.306015203	-0.518546638	-0.245430199	0.346392004	0
1933	3012076401	0.832625835	-0.388002323	-0.258081861	-0.299302806	-0.663171477	-0.702032216	0.385109981	0
1936	3012126402	0.84546554	-0.370692129	-0.25524548	-0.28744584	-0.622962927	-0.997322186	0.174022966	0
1938	3012159736	0.85619697	-0.355757652	-0.251719125	-0.277490042	-1.035003695	-0.943366565	-0.167029586	0
1941	3012209737	0.874371618	-0.326638604	-0.246861481	-0.260462866	-0.511424672	-0.779845971	0.028574092	0
1944	3012259738	0.892683013	-0.292810278	-0.241949271	-0.242569019	-0.770165464	-0.328268143	-0.333220385	0
1946	3012293072	0.90492457	-0.266321446	-0.239964221	-0.22935035	-0.665182354	-0.141674448	0.039797903	0
1949	3012343073	0.921292099	-0.226129089	-0.236579732	-0.21003936	-0.582970633	0.349826848	-0.051091713	0
1952	3012393074	0.936420774	-0.181072612	-0.234119915	-0.188458772	-0.423258228	0.389468685	-0.263753591	0
1954	3012426408	0.945509237	-0.148701296	-0.233210433	-0.171793777	-0.283381248	0.217651194	-0.578740113	0
1957	3012476409	0.955925987	-0.103244656	-0.232000338	-0.147383484	0.34533521	0.552650256	-1.203669358	0
1960	3012526410	0.961517123	-0.062215066	-0.232554905	-0.13240968	1.114469603	0.61294158	-0.322665861	0
1963	3012576411	0.963516277	-0.026473862	-0.234322711	-0.126603259	0.522046063	0.62129945	-0.066990822	0
1967	3012643079	0.963537696	0.012193602	-0.235433303	-0.126560595	0.218603243	0.378756997	0.981564968	0
1969	3012676413	0.963214728	0.030043881	-0.234801664	-0.127212152	-0.341512834	0.433154643	0.73624337	0
1972	3012726414	0.96249674	0.055819371	-0.23383862	-0.125712861	-0.291977378	-0.166969077	0.137290232	0
1975	3012776415	0.962068978	0.081520834	-0.232223376	-0.117685761	0.324603536	0.752373801	-0.041172551	0
1979	3012843083	0.960589715	0.11445215	-0.23036918	-0.105347741	0.255882634	0.327157702	-0.124793168	0
1981	3012876417	0.959508786	0.12864987	-0.229424266	-0.100779994	0.832130799	0.581968485	-0.029232306	0
1984	3012926418	0.957509702	0.147555698	-0.227450047	-0.098330887	0.152967685	0.156729454	-0.142714592	0
1987	3012976419	0.955374169	0.161679455	-0.22621927	-0.099723581	0.155004499	0.314458867	-0.027249321	0
1990	3013026420	0.952863131	0.176486905	-0.225349034	-0.100608343	0.170479507	0.221315878	-0.212532121	0
1992	3013059754	0.951307464	0.185238236	-0.224937831	-0.100518046	0.433825635	0.346467063	0.150685041	0
1996	3013126422	0.948179398	0.202382796	-0.222468315	-0.102493321	-0.06853895	0.064482018	-0.006017081	0
1999	3013176423	0.945803975	0.215524177	-0.219585656	-0.103857162	-0.095919951	0.082939952	-0.334544738	0
2002	3013226424	0.942832599	0.227684095	-0.218727091	-0.106700994	0.718029541	0.098880842	-0.321976746	0
2004	3013259758	0.940920855	0.235372537	-0.217736102	-0.10889767	-0.016469614	0.048644911	-0.158385431	0
2007	3013309759	0.937574579	0.247094793	-0.218641201	-0.10997317	0.282670615	-0.57871816	0.649572442	0
2010	3013359760	0.935111606	0.255364141	-0.219114841	-0.111104121	0.084708206	-0.352855383	0.451512955	0
2013	3013409761	0.933161992	0.261571878	-0.219317385	-0.112644285	0.39555139	-0.032355785	0.377856547	0
2015	3013443095	0.931905392	0.266083202	-0.219167335	-0.112772998	0.338332047	0.101450457	-0.010789777	0
2018	3013493096	0.931075699	0.268864962	-0.219151985	-0.113057871	0.123287387	0.180194829	-0.354730342	0
2021	3013543097	0.93029794	0.272347407	-0.21854384	-0.112299697	0.279168398	0.253148023	-0.227560419	0
2025	3013609765	0.929329131	0.275517901	-0.218948961	-0.111797157	0.269414886	0.174295888	-0.119483239	0
2027	3013643099	0.928503303	0.278557446	-0.219232586	-0.110564188	-0.125253966	0.055259307	-0.157046308	0
2030	3013693100	0.927367512	0.280941172	-0.221306149	-0.109932455	0.472508293	-0.008806555	0.245501245	0
2033	3013743101	0.926303919	0.283822929	-0.221534417	-0.111031962	0.056152663	-0.036767739	0.148744307	0
2035	3013776435	0.926388482	0.283036391	-0.221467334	-0.112458885	0.660008798	-0.194497729	0.482366373	0
2038	3013826436	0.927436397	0.280305392	-0.219833085	-0.113859702	0.184811859	0.158560025	0.082408192	0
2041	3013876437	0.929237667	0.276224478	-0.21716958	-0.114257471	0.414204547	0.33360939	-0.197096933	0
2044	3013926438	0.931196222	0.271570532	-0.213903086	-0.115622278	-0.150867576	0.109018172	-0.413057046	0
2046	3013959772	0.931954876	0.270122733	-0.212391811	-0.115687234	0.008478114	-0.044466751	-0.365453546	0
2049	3014009773	0.932756322	0.268524369	-0.21150739	-0.114564088	-0.173411079	-0.209858728	-0.305483419	0
2052	3014059774	0.933033446	0.266962239	-0.212114342	-0.114835782	-0.09210436	-0.140131145	-0.229359496	0
2054	3014093108	0.933052541	0.266392488	-0.212502417	-0.115285389	0.007811547	-0.171050313	-0.117252486	0
2057	3014143109	0.932840425	0.26526473	-0.213997842	-0.116825884	-0.064357978	-0.044281627	-0.107116612	0
2060	3014193110	0.932312547	0.265912652	-0.214361267	-0.118882395	-0.056053498	-0.08902084	-0.201142387	0
2062	3014226444	0.932170883	0.265309264	-0.214383177	-0.121277755	0.182225917	0.045387842	-0.1644812	0
2066	3014293112	0.931420862	0.266244594	-0.213387395	-0.126628642	0.096375121	0.129806861	-0.35672211	0
2069	3014343113	0.930665883	0.266609497	-0.213664652	-0.130873247	0.31178782	-0.029389094	0.054106426	0
2072	3014393114	0.930177295	0.266616097	-0.213202167	-0.135021823	0.276901583	-0.159342349	-0.068027112	0
2075	3014443115	0.930115214	0.264910574	-0.211985569	-0.140606528	0.295305366	0.160311693	0.130236955	0
2077	3014476449	0.929647582	0.265340334	-0.211373892	-0.143773984	-0.269553704	0.098513997	-0.575128521	0
2080	3014526450	0.929322153	0.264483023	-0.212662635	-0.145546109	0.233651181	0.24093336	-0.051841257	0
2083	3014576451	0.928645762	0.266603512	-0.214580764	-0.143159743	-0.023315449	-0.191045299	-0.118242639	0
2085	3014609785	0.928683536	0.266182505	-0.215620487	-0.142132225	0.232382588	0.100541082	0.122260986	0
2088	3014659786	0.928028732	0.268737726	-0.216059205	-0.14092951	-0.082189694	0.155167858	-0.291009294	0
2091	3014709787	0.927647569	0.269897097	-0.216815193	-0.140059693	0.195320988	0.072359079	0.015454606	0
2094	3014759788	0.927514968	0.271069653	-0.216714784	-0.138823375	-0.023111331	0.063149513	-0.003222167	0
2096	3014793122	0.927439903	0.27198674	-0.216468594	-0.137912247	0.001319542	0.059811851	-0.095057269	0
2099	3014843123	0.927345024	0.273654181	-0.215996344	-0.135978584	0.072412941	0.051198372	-0.199274987	0
2102	3014893124	0.927202861	0.274989241	-0.216037581	-0.134177254	0.044177812	0.283806546	-0.233557949	0
2106	3014959792	0.926231478	0.279496768	-0.217105489	-0.129776778	0.227334019	0.184233936	-0.040896439	0
2108	3014993126	0.92558418	0.282318727	-0.217118483	-0.128256099	0.344977081	0.027086652	0.077315622	0
2111	3015043127	0.92472974	0.284970797	-0.217692836	-0.127578925	0.312816055	0.08348943	0.021434044	0
2114	3015093128	0.923890659	0.28773504	-0.218424752	-0.126195187	0.043140792	0.121612816	-0.17130105	0
2116	3015126462	0.923274308	0.289397203	-0.219853682	-0.124411289	-0.063506399	0.057525725	-0.326234251	0
2121	3015209797	0.921939422	0.292815135	-0.222777722	-0.12106645	0.127013387	0.069045773	0.079249064	0
2123	3015243131	0.921748552	0.292676779	-0.223586479	-0.121363078	0.401794861	0.175766184	0.224843503	0
2126	3015293132	0.921721523	0.292654229	-0.223904619	-0.121035769	0.122088599	0.094996843	-0.0310485	0
2129	3015343133	0.922365808	0.29108177	-0.223807494	-0.120095485	0.07177295	0.097123943	-0.002692668	0
2131	3015376467	0.92291647	0.289766283	-0.223701807	-0.11924006	0.189790948	0.112414997	-0.106875627	0
2135	3015443135	0.923934887	0.28704244	-0.223604617	-0.118118317	0.092436061	0.061215812	-0.113469352	0
2138	3015493136	0.924457474	0.285708719	-0.223403263	-0.117643058	-0.131010819	0.140866577	-0.171729107	0
2141	3015543137	0.924644787	0.285216873	-0.223809879	-0.116586841	0.154239283	0.030881331	-0.076856365	0
2143	3015576471	0.92478284	0.284946377	-0.223697754	-0.116368277	-0.047155984	0.081333399	-0.216153267	0
2146	3015626472	0.925235989	0.283478628	-0.223783232	-0.116186478	0.194631747	0.065860691	-0.053645628	0
2149	3015676473	0.925680679	0.28300473	-0.223098447	-0.115111622	0.004888864	-0.06608951	-0.090950436	0
2152	3015726474	0.926238873	0.281783729	-0.222769726	-0.114250293	-0.035176742	0.084461937	-0.249470882	0
2154	3015759808	0.926492166	0.281544545	-0.22247577	-0.113355488	0.215420193	0.284279111	-0.091765765	0
2157	3015809809	0.926612321	0.282170189	-0.221963951	-0.111810537	-0.040068421	-0.019783008	-0.279187735	0
2160	3015859810	0.926697646	0.281907527	-0.222235656	-0.111224687	0.168554733	0.073002855	-0.176151974	0
2164	3015926478	0.926750485	0.282570456	-0.221501016	-0.110565704	-0.010002461	0.003391523	-0.148770014	0
2166	3015959812	0.926923461	0.28192138	-0.22140971	-0.110954827	0.16200325	0.173527161	-0.234266491	0
2169	3016009813	0.926885709	0.282097354	-0.220752254	-0.112126744	0.189097297	0.190348734	-0.240719084	0
2172	3016059814	0.927037284	0.281140665	-0.221600678	-0.111601706	0.245574883	-0.11991074	0.109411562	0
2174	3016093148	0.927325661	0.280337821	-0.221827085	-0.110772599	0.470751347	-0.226956757	0.407558851	0
2177	3016143149	0.928815639	0.275013181	-0.221650133	-0.111984276	0.284975983	-0.101366893	0.418838543	0
2180	3016193150	0.93048815	0.270037845	-0.220403974	-0.112665227	-0.259861948	0.239524786	-0.268221257	0
2183	3016243151	0.932038056	0.26619655	-0.218791527	-0.112137088	-0.043401951	0.36877586	-0.586265244	0
2185	3016276485	0.93254599	0.265018193	-0.218000906	-0.112244995	0.040328205	0.144510965	-0.440167855	0
2188	3016326486	0.933229883	0.26396556	-0.216566626	-0.111817107	-0.201655414	-0.09067104	-0.201684281	0
2191	3016376487	0.933565477	0.263105078	-0.216726748	-0.110728202	0.175240226	0.010531984	0.041680541	0
2195	3016443155	0.93393745	0.262008107	-0.217130315	-0.109393865	0.198598121	-0.08644513	-0.012301878	0
2197	3016476489	0.934252026	0.261056885	-0.216787264	-0.109661918	-0.042748205	0.217271449	-0.283270177	0
2200	3016526490	0.934210265	0.261303255	-0.2161895	-0.110606918	0.086831744	-0.036051286	-0.113353928	0
2203	3016576491	0.934238107	0.261339322	-0.215571163	-0.111489874	0.149649293	0.147185707	-0.250427472	0
2206	3016626492	0.93412054	0.261445422	-0.215819499	-0.111745481	0.065156444	0.130907522	-0.120168315	0
2208	3016659826	0.933904204	0.261465103	-0.216793603	-0.111621998	0.201524503	0.157932738	-0.042829002	0
2211	3016709827	0.933714177	0.261151336	-0.218290459	-0.111027433	0.020369618	0.170195082	-0.158038906	0
2214	3016759828	0.933511058	0.260946696	-0.219628316	-0.110577255	0.144956948	0.088743681	-0.149376419	0
2216	3016793162	0.933344689	0.261315222	-0.220132155	-0.110108499	0.033755208	0.029740871	-0.258876877	0
2219	3016843163	0.933069903	0.261828233	-0.22103542	-0.109406925	0.110717019	-0.002631661	-0.124102342	0
2222	3016893164	0.932515475	0.262648895	-0.222686448	-0.108817241	0.164187688	0.005775889	-0.141001445	0
2224	3016926498	0.932030518	0.263485986	-0.223988152	-0.108275378	0.107893504	-0.084738461	-0.354910414	0
2227	3016976499	0.931190673	0.264568268	-0.226618838	-0.107384656	0.11758307	0.081043036	-0.269312177	0
2230	3017026500	0.929901572	0.266295971	-0.230075806	-0.106932902	0.149828775	-0.098883389	-0.099214322	0
2233	3017076501	0.92872079	0.267522766	-0.233181669	-0.107403789	0.146836473	0.034987778	-0.154776108	0
2235	3017109835	0.927959271	0.268274132	-0.234901839	-0.108359157	0.165499548	0.10251079	-0.05330428	0
2238	3017159836	0.92710527	0.269176781	-0.236556342	-0.109821564	-0.058748781	-0.090774794	-0.031535198	0
2241	3017209837	0.926536879	0.269738654	-0.237791733	-0.110569259	0.134782134	0.051027945	0.046236852	0
2245	3017276505	0.926469237	0.26891867	-0.239073484	-0.11036925	0.200453573	0.168067862	0.043602696	0
2247	3017309839	0.926628243	0.26749999	-0.239703492	-0.111112965	0.367376999	0.100485166	-0.012361903	0
2250	3017359840	0.927045954	0.263873297	-0.240770638	-0.113956929	0.459619253	0.181746175	0.14980816	0
2253	3017409841	0.927731646	0.25737498	-0.243035464	-0.118346427	0.423082967	0.003821913	0.181860088	0
2256	3017459842	0.928356748	0.2502426	-0.246746232	-0.121031762	-0.067198615	-0.043781871	-0.110267169	0
2258	3017493176	0.928684654	0.245221748	-0.250546023	-0.120986771	0.445771182	0.082267083	-0.08382517	0
2261	3017543177	0.929500647	0.236250509	-0.256156257	-0.120823078	0.251799239	0.065492642	0.142929532	0
2264	3017593178	0.930745853	0.224963191	-0.260747413	-0.122941068	0.42373491	-0.033073436	0.318036953	0
2266	3017626512	0.931726598	0.216358083	-0.263567657	-0.124927241	0.065543408	0.146789799	0.218765898	0
2269	3017676513	0.933606517	0.20028019	-0.268361355	-0.127471174	0.892282523	0.241710477	0.477783439	0
2273	3017743181	0.935869915	0.168780425	-0.277338905	-0.13690801	0.652596574	-0.119092829	0.048845716	0
2276	3017793182	0.93549616	0.134249693	-0.291224946	-0.148364363	1.511703978	0.392072941	-0.269653139	0
2278	3017826516	0.9334402	0.106129629	-0.303800671	-0.15852775	1.725592494	0.270466249	-0.194503004	0
2281	3017876517	0.924632187	0.060943027	-0.330693992	-0.178837215	0.681579089	-0.266542656	-0.734355048	0
2284	3017926518	0.909805265	0.013656862	-0.362930475	-0.200871454	0.921286601	0.450596954	-0.425298289	0
2287	3017976519	0.889158541	-0.027123076	-0.397972025	-0.224231341	0.13638256	-0.573824749	-0.748407628	0
2289	3018009853	0.872010671	-0.054686312	-0.424347914	-0.237772254	0.462425835	-0.451466372	-1.46774987	0
2292	3018059854	0.841807593	-0.101941239	-0.461922846	-0.259990856	0.671929848	-0.101488352	-0.694899336	0
2295	3018109855	0.805900369	-0.137689286	-0.503963816	-0.278543943	0.79970489	-0.4016131	-1.040930723	0
2297	3018143189	0.778250432	-0.156860995	-0.535331649	-0.28834167	0.225270035	-0.425653308	-0.608184961	0
2301	3018209857	0.712393125	-0.173970613	-0.617373201	-0.28474654	1.002572209	-0.168372839	-1.859107194	0
2304	3018259858	0.657699155	-0.177009815	-0.681213631	-0.268416347	1.517675468	-1.33891314	-1.741751948	0
2307	3018309859	0.600441852	-0.176275927	-0.738409374	-0.251292613	1.103305985	1.950906525	-1.310220298	0
2309	3018343193	0.566781629	-0.16009	-0.776409573	-0.224316632	0.950609351	-0.365854636	-1.723801771	0
2312	3018393194	0.509335195	-0.145941031	-0.825872018	-0.192910043	-0.472460496	-0.672229067	-1.695365128	0
2315	3018443195	0.443948811	-0.136126969	-0.868029348	-0.175795199	-1.030208446	0.357954196	-0.60617313	0
2318	3018493196	0.378754909	-0.124109814	-0.902322562	-0.164181201	-0.552203618	-0.245147145	-1.317256162	0
2320	3018526530	0.335945534	-0.121186721	-0.91952517	-0.16409704	0.492309247	-0.4758117	-1.534874751	0
2323	3018576531	0.278120612	-0.121826509	-0.93643434	-0.175778138	0.150543257	1.92708665	-1.04229597	0
2326	3018626532	0.236214863	-0.119089513	-0.947770837	-0.178187168	-0.423947757	0.667896945	-0.779707268	0
2330	3018693200	0.189520349	-0.116966795	-0.95865252	-0.177161372	-0.48044138	0.271907058	-0.733413567	0
2332	3018726534	0.16547542	-0.117308713	-0.96374214	-0.173371392	-0.054369579	-0.033778916	-0.822095104	0
2335	3018776535	0.129650659	-0.116181355	-0.968041266	-0.180523424	0.005564188	0.480821907	-1.010383929	0
2338	3018826536	0.100370025	-0.110891127	-0.969459569	-0.194363472	-0.141560377	0.160208096	-0.959438202	0
2341	3018876537	0.074181642	-0.104283271	-0.9702494	-0.205519307	-0.589590574	0.064354893	-1.089599805	0
2343	3018909871	0.059660229	-0.100139876	-0.970935245	-0.209039262	-0.710206664	0.049550075	-1.022036622	0
2346	3018959872	0.040019397	-0.09375269	-0.970677015	-0.217703958	-0.743104853	-0.358807324	-1.00654377	0
2349	3019009873	0.025521126	-0.087269829	-0.969248793	-0.228668812	-0.774913656	-0.190841442	-0.062242977	0
2351	3019043207	0.016655966	-0.083323139	-0.968271636	-0.235010367	-0.181593045	-0.298105272	0.057186585	0
2354	3019093208	0.0040404	-0.079508789	-0.966407444	-0.244374057	-0.706238003	-0.583874147	0.220238637	0
2357	3019143209	0.011000999	0.076805334	0.964026745	0.254228938	-0.375942399	-0.997928961	0.00666817	0
2359	3019176543	0.022719286	0.074758855	0.960686088	0.266415444	-0.21524119	-0.478122092	-0.220620037	0
2362	3019226544	0.038284998	0.07086466	0.95592565	0.282344844	0.574620444	-0.160157074	-0.479120842	0
2365	3019276545	0.048157095	0.058961857	0.946612235	0.313256556	0.534202958	0.863687787	0.188718886	0
2368	3019326546	0.047386216	0.045592794	0.944190923	0.322768253	0.46085199	-0.152090514	0.034011623	0
2370	3019359880	0.045370382	0.035431364	0.94198353	0.330685917	-0.093894609	-0.371814267	-0.390352207	0
2373	3019409881	0.043876745	0.019222925	0.934641495	0.352350091	-0.514058327	0.898994776	0.115344216	0
2376	3019459882	0.047198436	0.013173472	0.930508539	0.362977447	-0.880811966	1.358677197	0.327639388	0
2378	3019493216	0.049158053	0.011886773	0.928070942	0.368953273	-0.387573034	0.763263422	0.03082419	0
2382	3019559884	0.052563076	0.010776641	0.924658623	0.376997901	0.796030708	-0.429284342	-0.151108962	0
2385	3019609885	0.055719798	0.010386133	0.923003491	0.380594256	0.54781282	-0.345570787	-0.080746834	0
2388	3019659886	0.058419111	0.00999236	0.921270444	0.384380188	-0.574219437	0.246102696	-0.081604291	0
2391	3019709887	0.0600465	0.011289342	0.920472124	0.38600264	0.082528664	0.242395572	-0.040371834	0
2393	3019743221	0.060750798	0.012340792	0.919874254	0.387283362	0.045718287	0.127026484	-0.153669385	0
2396	3019793222	0.06069439	0.013589003	0.918808984	0.389771192	0.266218173	-0.009118066	-0.18319575	0
2399	3019843223	0.06028496	0.012961246	0.918014559	0.391723115	-0.002350245	-0.016732738	-0.048731515	0
2401	3019876557	0.0601567	0.012461058	0.917476933	0.393016501	0.022563693	-0.014924864	-0.040659666	0
2404	3019926558	0.060489765	0.012448626	0.916738073	0.394686364	0.157608603	0.056145621	-0.12098962	0
2407	3019976559	0.061256344	0.01302245	0.915956737	0.396360103	0.072440617	0.295163472	-0.057095427	0
2411	3020043227	0.060451234	0.013262523	0.915632623	0.397223681	0.056016861	-0.040177761	-0.015680091	0
2413	3020076561	0.059624616	0.013657853	0.915805724	0.39693607	0.035106383	-0.058855839	-0.104944698	0
2416	3020126562	0.056932656	0.013711896	0.916020719	0.39683334	0.152334748	-0.034709531	-0.323887283	0
2419	3020176563	0.053520688	0.013454459	0.916003675	0.397355987	0.001849891	0.02965861	-0.088474535	0
2422	3020226564	0.050298156	0.013329987	0.915750797	0.398362754	0.080681705	-0.071105837	0.10618359	0
2424	3020259898	0.049897982	0.013895386	0.916092469	0.397607468	0.260966512	0.059088413	-0.158155196	0
2427	3020309899	0.047037169	0.014121349	0.913321399	0.404267379	-0.512497178	-0.098246029	0.176745871	0
2430	3020359900	0.052727091	0.015644735	0.913018197	0.404194097	0.55938113	0.208081272	-0.013144795	0
2432	3020393234	0.054264818	0.017367987	0.911807293	0.406646213	-0.111830669	0.133447021	-0.452992321	0
2435	3020443235	0.054389592	0.01777514	0.910944605	0.408540993	0.137504892	0.087732088	-0.20485125	0
2439	3020509903	0.052884296	0.017681197	0.909580361	0.411769588	0.177089275	-0.030796154	-0.141425195	0
2442	3020559904	0.052256568	0.017877041	0.909312004	0.41243344	0.063134233	0.172141077	0.154040955	0
2444	3020593238	0.052191226	0.01787496	0.909891343	0.411162141	0.02124564	0.207829818	0.129356479	0
2447	3020643239	0.051944038	0.018256191	0.910900447	0.408936308	0.01748954	-0.041133152	-0.125174906	0
2450	3020693240	0.052149046	0.018373601	0.911327687	0.407951879	0.11342577	0.030970531	-0.149472953	0
2453	3020743241	0.051801341	0.017964768	0.910946777	0.408864107	0.03623061	-0.006860198	-0.19326796	0
2455	3020776575	0.051571785	0.017625132	0.910422609	0.410073627	0.058437789	0.02907519	-0.055561111	0
2458	3020826576	0.051222195	0.017169015	0.910079629	0.410897288	-0.032565018	0.163390501	0.024546874	0
2461	3020876577	0.050772593	0.017085722	0.910611314	0.409777083	0.123564698	0.023983858	-0.113193269	0
2463	3020909911	0.050708958	0.017122959	0.910850916	0.409250552	0.108332834	0.126840975	-0.058753329	0
2466	3020959912	0.050684352	0.01720381	0.911433105	0.407951983	0.125358424	0.043042767	-0.146603477	0
2469	3021009913	0.050821379	0.01744985	0.91156343	0.407633173	-0.05198404	0.125927022	-0.063416184	0
2472	3021059914	0.050469248	0.019004409	0.913259076	0.403793942	0.125796143	0.035618932	-0.08889022	0
2474	3021093248	0.049595598	0.021008029	0.915522719	0.398644064	-0.239814686	0.392095049	0.115007875	0
2477	3021143249	0.048869811	0.026164581	0.921861996	0.383533072	0.303482252	0.016700887	-0.072281659	0
2480	3021193250	0.048547884	0.03136842	0.927514256	0.369291795	-0.044307552	0.232774455	-0.16746075	0
2482	3021226584	0.049038965	0.034816472	0.931312516	0.359221367	0.456747998	-0.171208123	-0.17823873	0
2485	3021276585	0.053084017	0.039800396	0.934448155	0.349863774	0.621441571	-0.380831146	-0.483064402	0
2488	3021326586	0.058789141	0.042238331	0.936304065	0.343648743	0.206472797	-0.023675181	-0.122375872	0
2492	3021393254	0.061205293	0.042279679	0.938662385	0.336718381	-0.627690927	0.694038663	0.413991158	0
2496	3021459922	0.058339311	0.043033293	0.939244213	0.335507034	-0.009364647	0.039889379	0.068354261	0
2499	3021509923	0.05758302	0.042972858	0.940154445	0.3330873	0.471063632	-0.36002756	-0.230378983	0
2501	3021543257	0.058267004	0.041847314	0.940313286	0.332663015	0.129482247	0.03173358	-0.080696821	0
2504	3021593258	0.058816229	0.039792985	0.939859555	0.33409757	-0.163144313	0.284864842	-0.142223744	0
2507	3021643259	0.059029407	0.039547459	0.938884328	0.33682005	0.033561042	0.126505995	-0.165739684	0
2511	3021709927	0.059414063	0.03980265	0.937747389	0.339875791	0.127501253	-0.142673339	-0.124751326	0
2513	3021743261	0.059841945	0.039852692	0.937344537	0.340904567	0.258863255	-0.089455562	-0.192861796	0
2516	3021793262	0.060194943	0.039260557	0.936449318	0.343362568	0.018561705	0.1008222	-0.093210918	0
2520	3021859930	0.061028683	0.038876577	0.935024985	0.347120136	-0.037432531	0.1536496	-0.17507062	0
2524	3021926598	0.061567731	0.039000886	0.933167457	0.351975627	0.032561934	0.070510478	-0.020945666	0
2527	3021976599	0.061958876	0.038499379	0.931934233	0.355214696	0.171298248	-0.10806205	-0.053018935	0
2530	3022026600	0.062730215	0.037316113	0.930614507	0.358648948	-0.02536946	0.158609415	-0.013377573	0
2532	3022059934	0.063176862	0.036667084	0.930176844	0.359771104	0.100222063	0.210076228	-0.10185512	0
2535	3022109935	0.063500866	0.036474061	0.929549589	0.361351415	-0.05406383	0.084587272	-0.148081707	0
2538	3022159936	0.064048866	0.036985858	0.929183718	0.362142801	0.062002777	0.079342181	-0.070186751	0
2540	3022193270	0.064021678	0.037072809	0.928985481	0.362646945	0.052461879	0.040897139	-0.000321102	0
2543	3022243271	0.063835276	0.037156242	0.928933401	0.362804641	0.048343598	-0.001101229	-0.084074908	0
2546	3022293272	0.063570566	0.036798306	0.928383133	0.364293049	0.144211814	0.108211479	-0.059561226	0
2548	3022326606	0.063544995	0.036437991	0.92789898	0.365565028	0.05423362	0.095192088	-0.061807288	0
2552	3022393274	0.063973626	0.035829598	0.926913718	0.36804154	-0.019381141	0.075249342	-0.039505779	0
2555	3022443275	0.064245048	0.035609554	0.926534417	0.368969521	0.112803472	0.093744108	-0.024949241	0
2558	3022493276	0.064152301	0.03516216	0.92626772	0.369697465	0.113755859	0.107625461	-0.057236642	0
2561	3022543277	0.064236037	0.034867711	0.926008913	0.370358565	0.029116892	0.133626568	-0.051926824	0
2563	3022576611	0.064195076	0.034832268	0.925961091	0.370488547	0.032109057	0.06547207	-0.082899743	0
2566	3022626612	0.064034704	0.034606907	0.925858886	0.370792721	0.118159778	0.086969183	-0.016442816	0
2569	3022676613	0.06383203	0.0344945	0.925968372	0.370564671	0.087240347	0.023172462	-0.148803964	0
2571	3022709947	0.06383813	0.034348808	0.925929672	0.37067384	0.006846915	0.171578624	-0.02009031	0
2574	3022759948	0.063560375	0.034390215	0.92619027	0.370066177	0.029060459	0.025598878	-0.118542131	0
2577	3022809949	0.063125756	0.03464102	0.926166852	0.370175771	0.101845437	0.028988545	-0.124977893	0
2581	3022876617	0.062782748	0.034383646	0.926093257	0.370442129	0.099578545	0.11819891	-0.100686755	0
2584	3022926618	0.0618974	0.033589059	0.925688593	0.371673399	0.040401028	0.18761935	-0.157047196	0
2586	3022959952	0.060124282	0.032635901	0.92527384	0.373079468	0.0268622	0.158732143	-0.189403057	0
2589	3023009953	0.055459786	0.031460346	0.925004291	0.374568445	0.185886141	-0.146894238	-0.245799953	0
2592	3023059954	0.052017093	0.030086799	0.924553383	0.37628453	0.125431222	-0.182277419	0.037101376	0
2594	3023093288	0.051707689	0.029708364	0.924000693	0.377712121	-0.114176039	0.119250041	0.187469437	0
2597	3023143289	0.052764499	0.029996694	0.924376922	0.376621046	-0.023237656	0.234624015	0.026549071	0
2600	3023193290	0.053607172	0.030695191	0.925198377	0.374422274	0.017059436	0.000749174	-0.123119791	0
2602	3023226624	0.053957086	0.03100117	0.925391696	0.373868654	0.132454589	-0.094109916	-0.242373619	0
2605	3023276625	0.054323451	0.030982646	0.924725205	0.375462825	0.02692341	0.080360985	-0.042168443	0
2608	3023326626	0.054217704	0.030890105	0.924315138	0.376494047	0.100092479	0.153590667	-0.084245693	0
2611	3023376627	0.053880772	0.030980292	0.924391292	0.376348008	0.027829031	0.066327213	-0.060203273	0
2613	3023409961	0.053769218	0.031038368	0.924495638	0.376102787	0.047845456	0.00931271	-0.065200547	0
2616	3023459962	0.053781869	0.031228473	0.924507957	0.376054957	0.118155086	0.043910665	-0.138613144	0
2619	3023509963	0.053905421	0.031212794	0.924271155	0.376620232	0.035554928	0.088322515	-0.076417348	0
2621	3023543297	0.053935118	0.031259508	0.924211366	0.376758805	0.083626995	0.046474034	-0.104713391	0
2624	3023593298	0.054035455	0.031123856	0.923786423	0.3777964	0.013605152	0.01224152	-0.088109853	0
2627	3023643299	0.054084436	0.031140259	0.923461815	0.378580815	0.11591106	0.115774521	-0.106516526	0
2629	3023676633	0.053920039	0.031008415	0.92321726	0.379211022	0.027445333	0.077177325	-0.030787955	0
2632	3023726634	0.053906051	0.030967012	0.923065039	0.379586769	0.057378565	0.066123056	-0.069171949	0
2635	3023776635	0.054081726	0.030901731	0.9226758	0.38051231	0.085453645	0.091854234	-0.076988731	0
2638	3023826636	0.054148164	0.030849192	0.922097828	0.381905615	0.034951631	0.087722811	-0.102429459	0
2640	3023859970	0.054374505	0.030783104	0.921608041	0.383059306	0.072766698	0.08775278	-0.026345587	0
2643	3023909971	0.054822492	0.030865992	0.921228539	0.383900722	-0.024169928	0.009343444	-0.055555316	0
2647	3023976639	0.055287058	0.030783115	0.921041597	0.384289107	0.115043124	0.107486738	-0.088033096	0
2650	3024026640	0.055510919	0.030889944	0.921307001	0.383611469	0.109174011	0.059037213	-0.103606466	0
2652	3024059974	0.055449798	0.030798095	0.921296839	0.383652097	0.072904354	0.076270298	-0.085587779	0
2655	3024109975	0.055414563	0.030781205	0.921387446	0.383440892	0.017351132	0.044545612	-0.085709218	0
2658	3024159976	0.05520901	0.030636287	0.921287531	0.383722123	0.084992317	0.110692455	-0.004645399	0
2662	3024226644	0.054729846	0.030569246	0.921168899	0.384080753	0.080532066	0.106201697	-0.129180326	0
2665	3024276645	0.054520292	0.030523165	0.921021913	0.384466528	0.059334183	0.140620967	-0.09461047	0
2667	3024309979	0.054305025	0.030709351	0.921028	0.384467583	0.112823197	0.020776507	-0.112557223	0
2670	3024359980	0.053815876	0.030929779	0.920761852	0.38515557	-0.031374826	0.143580268	-0.174358503	0
2673	3024409981	0.052547408	0.031608508	0.920185094	0.386651089	0.040775933	0.178845316	-0.215368291	0
2675	3024443315	0.05093563	0.032185932	0.919709426	0.387948707	-0.013421693	0.211343082	-0.157298248	0
2678	3024493316	0.046888693	0.033041746	0.918429909	0.391402856	0.01440958	0.124888284	-0.034405265	0
2681	3024543317	0.041818208	0.033561692	0.916112329	0.397319835	0.060535869	0.122893653	-0.038055021	0
2683	3024576651	0.037293618	0.034271267	0.91403357	0.402464034	0.244069202	0.421348558	-0.262011562	0
2686	3024626652	0.020339185	0.034152278	0.911614535	0.409119639	-0.37978427	0.777147892	-0.546481684	0
2690	3024693320	0.029841764	-0.029307083	-0.905812425	-0.421609316	-0.790788622	1.941753656	-1.452801177	0
2693	3024743321	0.100875188	-0.023715823	-0.896300533	-0.431169469	-1.338179405	2.08051349	-2.460503743	0
2696	3024793322	0.19822414	-0.017621259	-0.876777889	-0.437786722	-0.44048181	0.956438866	-2.666950232	0
2698	3024826656	0.27290077	-0.015971686	-0.851905157	-0.446685211	-0.721190047	0.447500309	-1.976320929	0
2701	3024876657	0.396624355	-0.010183892	-0.800171052	-0.449790725	-0.164351475	-0.413449084	0.346859092	0
2704	3024926658	0.517001819	0.009257334	-0.732903181	-0.442127072	1.78548668	0.077733048	0.141154466	0
2706	3024959992	0.589827748	0.023532388	-0.676667682	-0.440079881	1.210412246	-1.455487152	-0.056859459	0
2709	3025009993	0.675689028	0.044227062	-0.587037902	-0.443705765	1.035332697	-0.077192352	-0.515229576	0
2712	3025059994	0.738036594	0.072369299	-0.496386934	-0.451292235	0.958064421	-0.321031497	-0.533329172	0
2715	3025109995	0.779014832	0.114048313	-0.409872701	-0.460579247	0.646041509	0.344280717	-1.544516197	0
2719	3025176663	0.809387814	0.177408283	-0.307591901	-0.467765849	1.205518101	0.688848862	-1.31818427	0
2721	3025209997	0.813789279	0.206702481	-0.269630904	-0.471508503	1.180112402	0.390812605	-1.120056099	0
2724	3025259998	0.812655213	0.236007233	-0.233493591	-0.47892884	1.306780729	0.168107515	-0.697644636	0
2727	3025309999	0.810851162	0.250160223	-0.223237634	-0.479692834	0.690912603	0.192357802	-0.500301791	0
2729	3025343333	0.811258392	0.252254332	-0.220566323	-0.479143059	0.678023948	0.603061028	-0.329299666	0
2732	3025393334	0.812904586	0.25967368	-0.215792867	-0.474540991	0.452224271	0.530299666	-0.073096391	0
2735	3025443335	0.81796629	0.27151706	-0.208189219	-0.46245744	0.313944415	-0.027708106	-0.131721068	0
2737	3025476669	0.821417304	0.274028877	-0.202682651	-0.457276209	0.414472431	-0.720340487	-0.028852172	0
2740	3025526670	0.82248229	0.274077484	-0.205706723	-0.453970438	0.478057275	0.178444151	0.303049839	0
2743	3025576671	0.822873354	0.276495785	-0.205206799	-0.45201736	0.110671411	0.266387267	0.028066248	0
2746	3025626672	0.820068283	0.281950985	-0.206807265	-0.4530148	0.012364891	-0.058870716	-0.242114425	0
2748	3025660006	0.817696989	0.28291346	-0.211832189	-0.454377301	0.21165966	-0.243548683	-0.176976683	0
2751	3025710007	0.815248703	0.282755997	-0.216416853	-0.456708162	0.14432447	0.359644801	0.135355972	0
2755	3025776675	0.81092929	0.286748088	-0.221475127	-0.459475776	0.098558959	-0.196683476	0.107583851	0
2758	3025826676	0.808842464	0.288570121	-0.225226862	-0.460189106	0.171508534	0.01481015	0.126178689	0
2760	3025860010	0.80740854	0.290075238	-0.227148792	-0.460815833	0.198898262	0.051514635	0.118596392	0
2763	3025910011	0.805729053	0.292951663	-0.228569987	-0.461232888	0.144417107	0.008600892	0.134149551	0
2766	3025960012	0.804853787	0.296195916	-0.228066907	-0.460938008	0.122626476	-0.103143572	-0.069259894	0
2768	3025993346	0.803576976	0.297844781	-0.229815377	-0.461234672	0.322223251	0.139164953	0.020508974	0
2771	3026043347	0.802359786	0.299920612	-0.230064766	-0.461883756	0.03824912	0.2025656	0.118711444	0
2774	3026093348	0.798943847	0.303635198	-0.231817296	-0.464494496	0.20312647	0.105315678	-0.287726585	0
2777	3026143349	0.793968005	0.305961197	-0.237470388	-0.468626042	0.280391493	0.257640251	0.127970605	0
2779	3026176683	0.791877427	0.308212869	-0.239956837	-0.469420583	0.127454161	0.031259243	0.079851772	0
2782	3026226684	0.789557179	0.309292688	-0.244540326	-0.470252616	0.251917716	-0.046054577	0.053506788	0
2785	3026276685	0.790462792	0.307350589	-0.247649996	-0.468373429	0.069161273	-0.18811843	0.164336754	0
2787	3026310019	0.792578436	0.304491938	-0.249426756	-0.465714909	0.064541155	-0.086865381	0.125309423	0
2790	3026360020	0.79431995	0.301095428	-0.250157299	-0.464562897	0.054891432	0.113071854	0.020545133	0
2793	3026410021	0.794102899	0.29976662	-0.250743925	-0.465476147	0.209302198	0.043325084	-0.215554143	0
2795	3026443355	0.793356782	0.299331849	-0.251258295	-0.466749108	0.237122329	-0.075821262	-0.184456836	0
2800	3026526690	0.79579497	0.287955459	-0.258691456	-0.465693838	0.235822545	0.131718407	0.16264289	0
2802	3026560024	0.801244162	0.27966492	-0.259330279	-0.461024003	-0.015831561	0.063788416	-0.138562325	0
2805	3026610025	0.806535045	0.27036619	-0.262704819	-0.455400397	0.308832144	0.215112582	-0.189065368	0
2808	3026660026	0.810683025	0.261583012	-0.264953709	-0.451848307	0.206373933	-0.022134404	-0.026516254	0
2810	3026693360	0.813696336	0.252806801	-0.270302268	-0.448245109	0.667531502	0.005779824	-0.076495843	0
2813	3026743361	0.818292419	0.230264933	-0.28880702	-0.440415807	1.302440723	0.08773143	-0.131067813	0
2816	3026793362	0.816236708	0.188670736	-0.333827761	-0.432111116	1.635405489	-0.143865703	-0.614864279	0
2818	3026826696	0.804114352	0.155929459	-0.379639745	-0.430069502	1.484310925	-0.67660975	-1.306704141	0
2821	3026876697	0.768651536	0.104270336	-0.456003801	-0.436306138	1.570778152	-1.076718424	-1.065104367	0
2824	3026926698	0.704571218	0.055524971	-0.543464611	-0.452926698	1.601226618	-1.719204586	-0.646763825	0
2828	3026993366	0.575881792	0.007873108	-0.66627185	-0.473687659	0.145131351	-0.641885224	0.489658134	0
2831	3027043367	0.471261527	-0.010334261	-0.746230494	-0.470048749	2.373967173	2.962663856	-0.859606977	0
2835	3027110035	0.331653239	-0.028452748	-0.826332715	-0.454280546	1.052208258	4.189851387	-1.084984499	0
2837	3027143369	0.272488132	-0.022385551	-0.86344268	-0.423929056	-1.387306016	1.565458706	0.128122094	0
2840	3027193370	0.183606745	-0.025916243	-0.905979315	-0.380550119	2.748321837	-0.988521164	-1.670883309	0
2843	3027243371	0.085006192	-0.041731517	-0.923967913	-0.370561363	0.094116743	1.487398924	-1.723280021	0
2845	3027276705	0.031539626	-0.047385927	-0.931350443	-0.359647298	0.278994176	2.112944035	-1.822061838	0
2848	3027326706	0.02351622	0.047641821	0.934660813	0.351548586	0.212349476	1.426631933	-1.607959116	0
2851	3027376707	0.055339425	0.038501762	0.931252149	0.358084622	-1.063600294	0.725413142	-1.918280464	0
2854	3027426708	0.069381396	0.025347917	0.927682332	0.365990705	-0.73462129	-0.49791725	-1.392783611	0
2858	3027493376	0.072464442	0.019369429	0.927626515	0.365899957	-0.764584602	-1.003884457	-0.826044463	0
2860	3027526710	0.072283118	0.021618878	0.924448017	0.373769501	-1.359265604	0.03584532	-0.73929095	0
2863	3027576711	0.067149078	0.024584457	0.92457727	0.374223834	1.137532061	-0.866224393	-0.072389508	0
2866	3027626712	0.065033687	0.022753023	0.922590079	0.379579327	0.479284516	-0.242211688	0.519021519	0
2868	3027660046	0.065975677	0.02180137	0.921752427	0.381502784	-0.571691952	0.177100803	0.594421196	0
2871	3027710047	0.070360028	0.024201356	0.922040282	0.37987561	-0.472939821	0.531728616	-0.337255194	0
2874	3027760048	0.072402502	0.027425563	0.921972311	0.379437444	0.391333611	0.222008592	-0.719443831	0
2876	3027793382	0.072480364	0.028589485	0.921731688	0.379920958	0.341377686	0.274143525	-0.606937455	0
2879	3027843383	0.074137415	0.030040364	0.921508229	0.380031319	0.07477052	0.244910935	-0.035072149	0
2882	3027893384	0.073836849	0.029992595	0.92191474	0.37910655	0.173254241	-0.023799492	-0.018873937	0
2885	3027943385	0.073246344	0.029612604	0.921001312	0.381463826	-0.271509555	-0.174043263	-0.151098559	0
2887	3027976719	0.071865209	0.029178436	0.919246244	0.385966778	-0.189087995	-0.204594474	-0.277285051	0
2890	3028026720	0.069481231	0.028716184	0.916646787	0.39256389	0.161833761	-0.13893948	-0.222206393	0
2893	3028076721	0.065936562	0.026639222	0.913283722	0.401068029	-0.270900762	0.089162261	0.048109135	0
2895	3028110055	0.064411345	0.025326343	0.911396399	0.405667794	-0.077853555	0.162046225	0.383041575	0
2898	3028160056	0.06352131	0.02443309	0.910056091	0.408859363	-0.025025179	0.105291808	0.148845739	0
2901	3028210057	0.062962932	0.024006855	0.909804549	0.409530246	0.004910407	0.172375664	-0.049189496	0
2903	3028243391	0.062964246	0.024176592	0.90954316	0.410100277	0.183940042	0.240133426	-0.028886521	0
2906	3028293392	0.061984274	0.024146781	0.908560609	0.412422722	0.159094565	0.136305566	-0.100868813	0
2909	3028343393	0.060792749	0.023708196	0.907540312	0.414864732	0.311675375	0.050926751	-0.094245722	0
2912	3028393394	0.060468367	0.022867404	0.906713631	0.416762583	-0.007615452	0.129228322	-0.011908069	0
2914	3028426728	0.060392497	0.022276807	0.906414674	0.417455302	0.052626912	0.043320146	-0.013619205	0
2917	3028476729	0.059850064	0.021693433	0.906143423	0.418152438	-0.093854823	-0.043234537	-0.141101904	0
2920	3028526730	0.059401825	0.021470826	0.905516795	0.419582842	0.045670003	0.0342345	-0.055361205	0
2922	3028560064	0.058897361	0.021035361	0.904783016	0.421255633	-0.001291729	-0.002077624	-0.094113133	0
2925	3028610065	0.058551241	0.02072101	0.904175409	0.422621843	0.297321315	0.067416568	-0.028759759	0
2928	3028660066	0.058548615	0.020384398	0.903272546	0.424564769	0.066190361	0.190007295	0.11895691	0
2931	3028710067	0.059794955	0.01980582	0.903086958	0.424813181	0.158437039	0.26184143	0.1214833	0
2933	3028743401	0.060599548	0.019398229	0.902624117	0.425700725	-0.007925568	0.120136579	-0.004714404	0
2937	3028810069	0.063225061	0.0188284	0.901085028	0.428595212	0.089882861	0.102482015	-0.033564495	0
2940	3028860070	0.06553243	0.018397527	0.898663804	0.433324819	0.034825081	0.102741202	-0.318663964	0
2943	3028910071	0.067483127	0.018030087	0.897284874	0.435890809	0.148850065	0.056438291	-0.102723678	0
2945	3028943405	0.068290423	0.018045449	0.897109576	0.436125198	0.316864486	0.269654042	0.090094107	0
2948	3028993406	0.068536325	0.017832439	0.896393664	0.437565052	0.054874982	0.127482773	0.081052409	0
2951	3029043407	0.069075431	0.017882749	0.89624487	0.437782965	0.020295941	0.073908351	-0.033259553	0
2953	3029076741	0.069450658	0.018072486	0.896211251	0.437784632	0.161129711	0.067778517	-0.078295298	0
2956	3029126742	0.069920375	0.018186371	0.895879892	0.438382955	-0.083604988	0.002713401	-0.12435845	0
2959	3029176743	0.070538599	0.01829378	0.895273694	0.43951639	0.124205384	0.01862232	-0.125246859	0
2962	3029226744	0.071242474	0.018744465	0.894888505	0.44016783	-0.054611805	0.169508342	-0.104993831	0
2966	3029293412	0.071563118	0.01912671	0.894720027	0.440441782	-0.05165247	0.041377171	-0.040945093	0
2968	3029326746	0.072016871	0.01957867	0.894937048	0.439906723	0.050549221	0.007512528	-0.045196965	0
2971	3029376747	0.072968285	0.019972946	0.894760728	0.440090843	0.033186529	0.06707713	-0.105012575	0
2974	3029426748	0.073544472	0.019858572	0.894564875	0.440398152	0.101444491	-0.004049447	-0.048916215	0
2976	3029460082	0.073613917	0.019635371	0.894470684	0.440587834	-0.012103269	0.043955231	-0.068938499	0
2979	3029510083	0.073709292	0.019576038	0.894611234	0.440289062	0.093454558	0.116141312	-0.116950903	0
2982	3029560084	0.073100061	0.019379108	0.895288037	0.439021824	0.067244098	0.118700485	-0.021029772	0
2984	3029593418	0.072423302	0.019392202	0.896057143	0.437561886	0.09278832	0.037864929	-0.064534968	0
2987	3029643419	0.071551671	0.019560707	0.897376761	0.434985845	-0.046549765	0.076719746	-0.109826174	0
2990	3029693420	0.070823884	0.019643877	0.898216734	0.433364505	0.043207452	0.069137902	-0.155752264	0
2995	3029776755	0.070005788	0.019722111	0.89910744	0.431643417	0.060920775	0.067786302	-0.084863092	0
2998	3029826756	0.069777473	0.019823382	0.899208427	0.431465344	0.052779754	0.045786184	-0.069050045	0
3001	3029876757	0.069160855	0.019894545	0.899109094	0.431768248	-0.098707018	0.165157879	-0.140434033	0
3003	3029910091	0.068694222	0.020249358	0.899727669	0.430535933	0.110249725	0.086942566	-0.02003809	0
3006	3029960092	0.068008165	0.020756807	0.900427454	0.429155502	-0.105437712	0.077765135	-0.048381549	0
3009	3030010093	0.067429012	0.0213168	0.901778945	0.426372674	0.154411657	0.039123221	0.032120316	0
3011	3030043427	0.066958093	0.021717791	0.902583018	0.424722082	-0.265187422	0.216335378	-0.088728318	0
3014	3030093428	0.06571243	0.023654052	0.906572261	0.416232024	-0.376860083	0.046279841	0.018617226	0
3017	3030143429	0.068486828	0.028762062	0.909539025	0.408926717	0.350149363	-0.063447807	0.226766365	0
3020	3030193430	0.07365515	0.034499329	0.909184226	0.408373307	-0.079929836	0.383545142	-0.008076748	0
3022	3030226764	0.076874391	0.037730134	0.909965243	0.405746253	0.561359104	0.094932122	-0.095279783	0
3025	3030276765	0.081044671	0.040739466	0.910400954	0.403660948	0.189356758	-0.129164642	-0.365205261	0
3028	3030326766	0.083794192	0.041253251	0.910911372	0.401891994	0.258887263	-0.503637435	-0.512318359	0
3030	3030360100	0.085461815	0.040092055	0.911406563	0.400533372	0.672998625	-0.452439376	-0.575385071	0
3033	3030410101	0.085753989	0.034763	0.912033755	0.399540006	0.374829008	-0.283656021	-0.540237263	0
3036	3030460102	0.082747957	0.026082186	0.911273031	0.402559261	-0.192844167	0.20763709	0.239566907	0
3040	3030526770	0.0817748	0.023534483	0.907159572	0.412092856	-0.997234145	0.785406407	0.234068724	0
3043	3030576771	0.081197346	0.024768859	0.907150359	0.412154971	0.660746615	-0.058821049	-0.088944732	0
3047	3030643439	0.080873821	0.024856745	0.906809595	0.412962379	0.283259223	-0.305561675	-0.177518355	0
3049	3030676773	0.080628562	0.02411962	0.906110558	0.414585257	-0.069792605	0.074244833	-0.033854656	0
3052	3030726774	0.080218653	0.023543749	0.90521106	0.41665765	-0.268011524	0.407907392	0.073196832	0
3055	3030776775	0.079160737	0.023927323	0.904335169	0.418734956	-0.064378254	0.085325474	-0.067055127	0
3057	3030810109	0.078295796	0.024241665	0.904226503	0.419113995	0.073811508	-0.065570259	-0.139912381	0
3061	3030876777	0.077730625	0.024837458	0.903539824	0.42066238	0.139122719	0.023608309	-0.182806846	0
3064	3030926778	0.078020675	0.024745947	0.903289993	0.42115033	0.050585679	0.113737902	-0.123470917	0
3067	3030976779	0.078419136	0.024563729	0.902487574	0.422804023	-0.129719875	0.202166196	0.03433438	0
3070	3031026780	0.07873787	0.025026677	0.901847401	0.424081689	0.042676101	0.084775524	-0.126494285	0
3072	3031060114	0.078625258	0.025302736	0.901673664	0.424455467	0.16779898	-0.013179969	-0.116920649	0
3075	3031110115	0.07791423	0.025479584	0.901772226	0.424366605	0.123150593	-2.65E-05	-0.039308199	0
3079	3031176783	0.077298399	0.025599511	0.902261229	0.423431573	0.071795051	0.08674014	-0.034652621	0
3082	3031226784	0.077455091	0.025727993	0.902324138	0.423261066	-0.001888864	0.095465849	-0.114987952	0
3084	3031260118	0.07767355	0.025867687	0.902419876	0.423008333	-0.018494135	0.118154807	-0.118415469	0
3087	3031310119	0.077765871	0.025999634	0.902534807	0.422737993	0.171962064	0.053089742	-0.127296577	0
3090	3031360120	0.077046645	0.025475327	0.901466829	0.42517335	0.176488141	-0.05902827	-0.081791888	0
3092	3031393454	0.076182007	0.024821549	0.900558073	0.427288367	-0.377904646	0.020282148	-0.176455743	0
3097	3031476789	0.076052993	0.025488338	0.900059647	0.428321047	-0.03369606	0.202350567	-0.080616908	0
3099	3031510123	0.075552525	0.025373837	0.89985114	0.428854183	0.004446491	0.086802215	-0.103912779	0
3102	3031560124	0.075301606	0.025504787	0.899379762	0.429878143	0.028950035	0.021397166	-0.041325053	0
3105	3031610125	0.075153641	0.025594801	0.899207042	0.430259842	0.102027979	0.072082512	0.042644639	0
3109	3031676793	0.074570804	0.024770237	0.898263277	0.432375664	0.004555797	-0.002421107	-0.180146628	0
3111	3031710127	0.074654939	0.024269757	0.897847935	0.433251318	-0.096237196	0.061434128	-0.126742966	0
3114	3031760128	0.074963039	0.023744708	0.896392571	0.436230546	-0.006556379	0.172961751	-0.082922499	0
3117	3031810129	0.074824628	0.023510412	0.895808153	0.437465758	0.173555883	0.094459419	-0.007588813	0
3119	3031843463	0.074899751	0.023394026	0.895253354	0.438593411	0.101342292	0.11744102	0.031940823	0
3122	3031893464	0.075182973	0.023165051	0.894557133	0.439975496	0.081680571	0.141430485	-0.147419041	0
3125	3031943465	0.075521956	0.023088023	0.893730222	0.44159899	0.045605039	0.058409309	-0.079089707	0
3128	3031993466	0.075926256	0.022832089	0.892909697	0.443199924	-0.082437104	0.067699988	-0.044330313	0
3130	3032026800	0.076342781	0.022662627	0.892546677	0.44386779	0.142760701	0.023486305	-0.019408674	0
3133	3032076801	0.076781708	0.022460304	0.891911051	0.445078399	-0.095939462	0.061352571	0.018028373	0
3137	3032143469	0.07679627	0.021870198	0.891763185	0.445401448	-0.038716432	0.106051776	-0.116277349	0
3140	3032193470	0.077065307	0.021328285	0.891699055	0.445509638	0.099524878	0.095525245	-0.071241953	0
3142	3032226804	0.077281018	0.02080232	0.891296106	0.446302766	-0.046275711	0.039574299	-0.128456731	0
3146	3032293472	0.078192592	0.019574154	0.890647279	0.447493235	0.079059312	-0.003580421	-0.054867386	0
3149	3032343473	0.078910744	0.018862988	0.889523978	0.449626929	0.016762474	0.093491392	-0.130634006	0
3152	3032393474	0.080038343	0.018422316	0.888550349	0.451367655	0.182256686	0.110586876	-0.139998125	0
3155	3032443475	0.081092098	0.018039785	0.887734769	0.452797547	0.005437732	0.14354306	-0.006286844	0
3157	3032476809	0.081660727	0.018007918	0.887542937	0.453072593	0.133279006	0.090313974	0.005965048	0
3160	3032526810	0.082197481	0.018287024	0.887703261	0.452650063	-0.094227002	0.048624276	-0.017585762	0
3163	3032576811	0.083229035	0.018807475	0.888683023	0.450512699	0.157755332	0.093037718	0.014630622	0
3165	3032610145	0.084146274	0.018760632	0.889413591	0.448899663	0.004468565	0.11190871	0.014351085	0
3168	3032660146	0.085876941	0.018571996	0.890608718	0.446202133	0.194544571	-0.020533987	-0.111612856	0
3171	3032710147	0.086569392	0.018394771	0.891155485	0.44498233	0.047297826	0.027440766	-0.033061856	0
3173	3032743481	0.086807144	0.018215496	0.891318505	0.444616732	-0.079676416	0.139428374	-0.138473825	0
3176	3032793482	0.086715716	0.018102632	0.891598965	0.444076531	-0.011953848	0.096465722	-0.160591706	0
3179	3032843483	0.086786769	0.01809717	0.891865798	0.443526716	0.142638333	0.125980505	-0.014985505	0
3182	3032893484	0.086503638	0.017933941	0.891873333	0.443573504	-0.01337781	0.056995122	-0.125499875	0
3184	3032926818	0.086440511	0.017961051	0.892037377	0.443254731	0.07985659	0.052433042	-0.099257421	0
3187	3032976819	0.08647828	0.018242149	0.892224227	0.442859639	0.084101454	0.066735376	-0.159032916	0
3190	3033026820	0.086077141	0.018579331	0.892138841	0.443095727	-0.100086536	0.099212093	-0.160856412	0
3192	3033060154	0.085725988	0.018909667	0.892469765	0.442482992	0.141801682	-0.025242597	-0.149680701	0
3195	3033110155	0.085128196	0.019379345	0.892730606	0.44205169	-0.075962975	0.065377877	-0.075456122	0
3198	3033160156	0.084528458	0.019848803	0.893212103	0.44117242	0.060366362	-0.017934283	-0.103932265	0
3200	3033193490	0.084133154	0.020074511	0.893212731	0.441236495	0.122282513	0.031995111	-0.218748419	0
3203	3033243491	0.083732758	0.020129712	0.892977054	0.441786827	-0.009477419	0.02492134	-0.158826476	0
3206	3033293492	0.083405297	0.020141369	0.892503773	0.442803452	0.073390118	0.066259483	-0.132410518	0
3209	3033343493	0.082964672	0.02000692	0.891533062	0.444843102	0.060645273	0.085316403	-0.055185834	0
3211	3033376827	0.082559878	0.01997065	0.891141674	0.44570344	0.080116213	0.005718078	-0.046634243	0
3214	3033426828	0.082100301	0.019886623	0.890822989	0.446428566	0.10764929	0.072669458	0.014589138	0
3218	3033493496	0.08143042	0.019641631	0.890587847	0.447030848	0.043879336	0.069341596	-0.093271871	0
3222	3033560164	0.081076507	0.019434748	0.890030085	0.448213496	0.095029151	0.162229037	-0.101370175	0
3225	3033610165	0.081121717	0.019227885	0.889684058	0.448900693	0.141953075	0.125938946	0.031545966	0
3227	3033643499	0.081231271	0.019205025	0.889570711	0.449106444	0.107329495	0.066752614	0.067108805	0
3230	3033693500	0.081459056	0.019095427	0.889497282	0.449215284	0.090690437	0.025712894	-0.078344297	0
3233	3033743501	0.081249888	0.018906429	0.889608392	0.449041102	0.016745071	0.056532963	-0.14570861	0
3236	3033793502	0.080857179	0.018707108	0.889789364	0.448761683	0.011474591	0.093040267	-0.063164538	0
3238	3033826836	0.080508537	0.018783208	0.89004242	0.448319146	0.07769591	0.136622317	-0.09188837	0
3241	3033876837	0.080099679	0.018916965	0.890245566	0.447983284	0.065961226	0.08172838	-0.046894346	0
