"sep=,",,,,,,,,,
"DeviceTag:,Xsens_2,,,,,,,,,,,,,,,,,",,,,,,,,,
"FirmwareVersion:,2.4.0,,,,,,,,,,,,,,,,,",,,,,,,,,
"AppVersion:,2022.0.1,,,,,,,,,,,,,,,,,",,,,,,,,,
"SyncStatus:,Synced,,,,,,,,,,,,,,,,,",,,,,,,,,
"OutputRate:,60Hz,,,,,,,,,,,,,,,,,",,,,,,,,,
"FilterProfile:,General,,,,,,,,,,,,,,,,,",,,,,,,,,
"Measurement Mode:,Sensor fusion Mode - Extended (Quaternion),,,,,,,,,,,,,,,,,",,,,,,,,,
"StartTime:,2020-11-25 11:23:35.415 +0100,,,,,,,,,,,,,,,,,",,,,,,,,,
"© Xsens Technologies B. V. 2005-2020,,,,,,,,,,,,,,,,,,,",,,,,,,,,
PacketCounter,SampleTimeFine,Quat_W,Quat_X,Quat_Y,Quat_Z,FreeAcc_X,FreeAcc_Y,FreeAcc_Z,Status
1,2979875757,2.94392336003208e-17,3.52115323038339e-17,0.707106781186548,0.707106781186548,-1.925223,-0.10415077,4.822245,0
2,2979892424,0.0130767951227764,0.00386726989823455,0.704318426667342,0.709753193377593,-0.89879608369263,0.127578523674161,5.70983415861364,0
3,2979909091,0.0258269111980545,0.00877532459077853,0.700717526238972,0.712917185062775,-0.447686607194231,0.356341788585361,4.31659595381299,0
4,2979925758,0.0389245765155032,0.0143624191661905,0.696537641551321,0.716319699687861,-0.227714818479901,0.830205512444573,2.2728890871462,0
5,2979942425,0.0531937468011134,0.0197952642781833,0.693499905596769,0.718217553218165,0.442447561474562,1.14064091673304,0.772337203993097,0
6,2979959092,0.0683305791190663,0.0246375065380357,0.6916919010506,0.718530611212805,1.90787591656229,0.822979112719604,0.10622301497358,0
7,2979975759,0.0833289112327373,0.0287564993912081,0.689674772778994,0.718733653092558,3.11523482475295,0.0722342934391434,-0.0798588208245932,0
8,2979992426,0.0976568514460728,0.0321739852188178,0.686644386829897,0.719685667549225,3.54635549385097,-0.441806828118751,-0.388326794920433,0
9,2980009093,0.111379167076476,0.0347525135719488,0.683054082912108,0.720988254938235,3.43783013154268,-0.52546341521381,-0.888086096543055,0
10,2980025760,0.124802922694612,0.0364513555348085,0.679513470839095,0.72205053293711,2.83038025072727,-0.531303576788795,-1.53999590606543,0
11,2980042427,0.137907987640033,0.0371175537517688,0.676843981374006,0.722139805734557,2.1379607147633,-0.48264790255246,-1.93089479289471,0
12,2980059094,0.150276632654918,0.037009606052449,0.675783725348321,0.720668841627059,1.65717570670505,-0.373766570543345,-2.30063986475198,0
13,2980075761,0.161785875249127,0.0362860040624384,0.676498408606563,0.717536451779172,1.36639569256627,-0.326420404121116,-2.54731787203688,0
14,2980092428,0.172216239931683,0.0350201984733644,0.678709508613172,0.713069810972772,1.39423372254855,-0.2847284255167,-2.50430939298097,0
15,2980109095,0.181297992643276,0.0331866654007766,0.681760047384791,0.707978051137874,1.32087193346658,-0.507054454135801,-2.16013641712695,0
16,2980125762,0.188898779342864,0.0307420602695792,0.684816648115742,0.703134649520757,1.13026801115347,-0.549372948129047,-1.79576813937707,0
17,2980142429,0.194834202703454,0.0277983533635179,0.687690350032557,0.698819624423417,0.789127578688185,-0.558742975274489,-1.72267490974203,0
18,2980159096,0.199036899461059,0.0244455378451723,0.690065276935558,0.695411131561927,0.756647187810447,-0.29047080605063,-1.64504391299033,0
19,2980175763,0.201310843160607,0.0207064612266884,0.691874492243481,0.693076383865631,0.821166379855455,0.0222987731371979,-1.41796610169766,0
20,2980192430,0.201857508080919,0.0165886568220507,0.693203366306792,0.691698963304943,0.651369805007046,0.120811503580703,-1.35946776764643,0
21,2980209097,0.201148078901332,0.0123345305978689,0.694343540250815,0.690850459811093,0.174328008022478,0.0605084298294842,-1.28856646743598,0
22,2980225764,0.199598620095167,0.0082389292527914,0.695733767311429,0.689961619166979,0.0245336409718598,0.106772775263428,-1.04835410880779,0
23,2980242431,0.197519264251352,0.0044153500835442,0.697874034979933,0.688431896583875,0.248521358780556,0.129334215302466,-0.858890343439503,0
24,2980259098,0.195163606543394,0.00133214536423784,0.70066383268674,0.686279524417297,0.311933266185865,-0.0533570314620586,-1.01410128816911,0
25,2980275765,0.1925022713085,-0.000509523542379049,0.703593830853333,0.684030947481149,-0.143788593477442,-0.43211231763923,-0.872691046993485,0
26,2980292432,0.189985660185927,-0.00129950699733895,0.705762719017188,0.682497431973737,-0.0986972281368495,-0.359845216615814,0.117322158107271,0
27,2980309099,0.187232719916603,-0.00166825601223691,0.706507781560613,0.68248654207157,0.211828077102694,-0.140433464577934,0.869106788334231,0
28,2980325766,0.184240983967061,-0.0014280244663857,0.705520337046162,0.684320301165502,-0.334839386722299,0.12405366468137,0.763290601816557,0
29,2980342433,0.181688482939692,-0.000230923918391308,0.704046904485563,0.686518170280667,-0.827029607095875,0.547303194782858,0.169426952015398,0
30,2980359100,0.179815042291701,0.00166276014399988,0.703540914630708,0.687527430169099,-0.678714041689863,0.776373175778715,-0.139413876338974,0
31,2980375767,0.178559288057246,0.00406999339998308,0.704437028061292,0.686926844211513,-0.249756054541292,0.547986576719921,-0.325529908969741,0
32,2980392434,0.177458153957912,0.00724457156577564,0.7065982039006,0.684963574229407,-0.0907260003384831,0.304965717006225,-0.673800258401518,0
33,2980409101,0.176343873346958,0.0107607252961936,0.709842103111409,0.681843995188389,0.0123575801887686,0.0555803848446359,-0.850498666066678,0
34,2980425768,0.175349791158888,0.0139918909383297,0.71366825803131,0.678037089846168,0.351186502336184,-0.162366891289297,-0.623385231786116,0
35,2980442435,0.174483165561991,0.0164446541429704,0.71741084175727,0.674245417051322,0.689730605814283,-0.509649696385676,-0.305813913031069,0
36,2980459102,0.173706960251324,0.0179671877080415,0.720393420520138,0.671220077021989,0.903678752035797,-0.835343510669085,-0.087535157751108,0
37,2980475769,0.17309555921164,0.0184562637662309,0.722185331842376,0.669436808205762,0.938569354952272,-0.982447763415792,-0.158918709845138,0
38,2980492436,0.172688339910933,0.0178793956478605,0.722595389273936,0.669115063251548,0.8202991795601,-1.00700810691442,-0.382941390133102,0
39,2980509103,0.172720176819326,0.0164014359349106,0.721702069347748,0.670108093159567,0.537749650990023,-0.790674593946513,-0.518804789983636,0
40,2980525770,0.173316779311775,0.0144608416865243,0.720064106396373,0.671758781666681,0.0570368985994787,-0.265408230670205,-0.664932544332411,0
41,2980542437,0.174069642780171,0.0124233733809697,0.718275641352599,0.673517276909607,-0.353956501541027,0.299559099393621,-0.986776596027489,0
42,2980559104,0.174765535988771,0.0103811678877896,0.71671723673894,0.675030104028806,-0.572979871870428,0.756741013292108,-1.12432179120106,0
43,2980575771,0.175334495190512,0.00844932527013994,0.715197906632257,0.676519310919951,-0.636321269671292,1.17317990706392,-0.853030835085374,0
44,2980592438,0.175495547202244,0.00668162629810604,0.713379155404474,0.67841495370945,-0.838674945245988,1.51515780182973,-0.394680194403643,0
45,2980609105,0.175236716470388,0.00522724984534663,0.711354484881513,0.680617047904832,-1.19781137150581,1.55095578222056,-0.143857942403577,0
46,2980625772,0.174747919741174,0.00435582733053322,0.709509365732516,0.682671700931159,-1.52412583037403,1.54504285551877,-0.262253426061997,0
47,2980642439,0.173953178481487,0.00425034068117453,0.708243711155904,0.68418789225504,-1.68684845613528,1.52606913298609,-0.374675318767889,0
48,2980659106,0.17266065945791,0.0051637286479162,0.707683329320788,0.685088270213011,-1.5583781177268,1.30411729210873,-0.404628213686754,0
49,2980675773,0.17092251665389,0.00715945976635142,0.707702829449994,0.68548591570143,-1.48326078431368,0.883063405728867,-0.538059360322804,0
50,2980692440,0.168811979422932,0.00988773047079254,0.708092855710098,0.685572210698309,-1.36002699436677,0.458626284029023,-0.642840718209784,0
51,2980709107,0.166301134052038,0.0130301434722812,0.708739602953459,0.68546504169029,-1.05881295452349,0.0819319923422698,-0.730505468586871,0
52,2980725774,0.163296285848376,0.0163201029049955,0.709478817589687,0.685352306963971,-0.753396297822859,-0.259004797133649,-0.917654104989929,0
53,2980742441,0.159799098414743,0.0194519663544436,0.710008495620342,0.685546355323781,-0.310394611970785,-0.390162934682842,-0.986736982471806,0
54,2980759108,0.15597155410105,0.0221959946959031,0.71006575668204,0.686284804813806,0.119494579886225,-0.340222919223319,-0.935065898501209,0
55,2980775775,0.151950710193064,0.0244241144457158,0.709545522670151,0.687647871780396,0.20097417650886,-0.394677800127455,-0.931324486888422,0
56,2980792442,0.147881068447801,0.0261664799893035,0.708428925837997,0.689619432698738,0.0449409478871257,-0.417835595936547,-0.882107125600259,0
57,2980809109,0.143741231753735,0.0274612951452576,0.706892123599207,0.692017240505082,-0.00155678875825203,-0.312158670473976,-0.820693543386127,0
58,2980825776,0.139457428128962,0.0284916370211224,0.705094000965801,0.694681439338602,-0.0481614667383664,-0.0370053953920409,-0.539628071051323,0
59,2980842443,0.135265233541734,0.0295081418233019,0.703224918615869,0.697357368928399,-0.450177217010417,0.044062934133611,-0.18388600291602,0
60,2980859110,0.131575098092881,0.0305904335214421,0.701516906240924,0.699732984213965,-0.850835769141906,-0.199000928706245,-0.0421966536974062,0
61,2980875777,0.128554673319523,0.0319630522073378,0.699838761028629,0.701910085283874,-0.69169818798768,-0.122770358140043,-0.164046426756576,0
62,2980892444,0.124607970242999,0.032271712633105,0.698024871453653,0.704409447088664,0.563212630919415,-0.073085727820441,-0.423128401886751,0
63,2980909111,0.119091451747457,0.0300417393451595,0.69337901648929,0.710028351201658,1.42553058898571,-0.211949793350321,-0.49124498545032,0
64,2980925778,0.113647897569654,0.0282769172152014,0.689742478346861,0.714520737903899,1.0337745678447,-0.945646556377961,-0.760676352398516,0
65,2980942445,0.109617351262855,0.0287071501082725,0.688053723265798,0.716757985469886,-1.14024405669604,-0.268254087049848,0.0145946267987952,0
66,2980959112,0.106519689386261,0.0310626660136291,0.689605368180866,0.715634755115563,-2.56855954103576,1.09505699399433,1.15119277546052,0
67,2980975779,0.103418577753587,0.0345239118797262,0.694902590774994,0.710790466043368,-3.08045480419044,1.71959814104706,1.48032906504013,0
68,2980992446,0.100610808997676,0.0388993338889493,0.702719910466745,0.703241803627627,-3.03388879531225,1.47316832536991,1.46932047998862,0
69,2981009113,0.0988429768670633,0.0445576152758854,0.71195456066842,0.693805007468539,-2.3861007759835,1.29751862871562,1.67783972559453,0
70,2981025780,0.0977582251212089,0.0520034001632124,0.72206672303412,0.682904549171685,-1.67339194079686,1.6261509065125,1.87768189534457,0
71,2981042447,0.0966901235507943,0.0615037266513451,0.732593420285914,0.670950961076528,-1.66804930693997,1.89859496079362,1.81837372475055,0
72,2981059114,0.0952282695680633,0.0728874162152777,0.741913294228567,0.659684519357132,-1.2081298506624,2.18291552185834,1.86741302193491,0
73,2981075781,0.0933564388751916,0.0845760201521053,0.748965723657513,0.650524263130862,-0.557949399369156,1.89064093162671,1.59968832024817,0
74,2981092448,0.0907909298104457,0.0958885219403184,0.754148985569522,0.64328975274655,0.289347613878357,1.05318406465179,1.22948750712835,0
75,2981109115,0.0878918543020069,0.107226884775019,0.757315236140813,0.638162244447119,0.270805212167139,0.538182130673691,0.576180946166808,0
76,2981125782,0.0850244883825661,0.118303772066015,0.758946223823217,0.634646108657979,-0.0626510282791903,0.336970010041432,0.0700583307806226,0
77,2981142449,0.0823933694757079,0.128644054197576,0.760491976446253,0.631121219534664,0.148152964483571,-0.0558680054505523,-0.193566123026486,0
78,2981159116,0.0801028504811716,0.137755104776098,0.762101614939585,0.627541387447389,1.06561271340432,-0.546715743259808,-0.594085534163995,0
79,2981175783,0.0777447239160656,0.145027450006634,0.762770361594738,0.625383220210153,1.80168442050256,-1.2675205999491,-0.933658362361403,0
80,2981192450,0.0757843108582289,0.150771666646582,0.761943832251545,0.625272931813128,2.00319408814173,-2.05226964123316,-1.05466525480137,0
81,2981209117,0.0742901455950038,0.155297983407311,0.760013676314153,0.626691887958143,1.78758224794791,-2.28215159971353,-1.04549863185476,0
82,2981225784,0.0726768739046803,0.159049465878904,0.757503240985915,0.628975499760454,0.609299478397401,-1.63816260694327,-1.27059983493049,0
83,2981242451,0.0705072608895459,0.162616380188612,0.755389634527816,0.6308495376111,-0.438493707274854,-0.974674399520402,-1.2018647659979,0
84,2981259118,0.0679309211744643,0.165660404056623,0.754178552925907,0.631788517450872,-0.825180629908318,-0.725505922914832,-0.970160182465173,0
85,2981275785,0.0655781243852677,0.167694145235691,0.753668866674604,0.632108711110042,-0.214962211490154,-1.2948184362005,-0.456795278535245,0
86,2981292452,0.0640359255436967,0.169006305768387,0.753210277210461,0.632463870236731,0.400622878036288,-1.39882805313435,0.349208500184343,0
87,2981309119,0.0629130048735343,0.170240154990424,0.752049627516244,0.633625757998598,0.617162170945468,-0.864442881278415,0.664850706757131,0
88,2981325786,0.0619522742698004,0.170591967966998,0.75121159534167,0.634619126092312,0.769442807594292,-0.442688999519253,0.259378951904791,0
89,2981342453,0.0613890411718632,0.168928200777139,0.750422397565297,0.636050999400637,1.1408067932018,-0.753154604062702,-0.81238934537648,0
90,2981359120,0.0610392074486018,0.166574225152564,0.748968230462058,0.638415094141268,1.04792098445692,-1.33808415019111,-0.636213482047855,0
91,2981375787,0.0610856517769054,0.164293069889377,0.746809864804931,0.641522685618643,0.47875356016902,-1.0684651690764,0.0879604680620225,0
92,2981392454,0.0616967030440246,0.162572584395638,0.744936610221529,0.6440753980615,-0.271012382075443,-0.469724666918975,0.339782439223597,0
93,2981409121,0.0627695133449927,0.161549452400572,0.744961473037426,0.644200408501435,-0.804834543620493,0.19388961786813,0.249852575457712,0
94,2981425788,0.0637810249287436,0.161101066474072,0.747714327679957,0.641016155351849,-0.906346164893397,0.368995155754263,0.191372615810926,0
95,2981442455,0.0654174504958864,0.160488855810035,0.751825193253986,0.636178247914852,-0.356794218430658,0.0660268381673153,0.0577663580173493,0
96,2981459122,0.0671966253433433,0.159857655713697,0.755573403690643,0.631695318240942,-0.234281197889039,-0.161201068377558,0.124253226538304,0
97,2981475789,0.0686800423675187,0.15966268420904,0.757963775007008,0.628714398458223,-0.236224938962525,-0.169383192030154,0.0829891683071481,0
98,2981492456,0.070485537103127,0.159013235973487,0.759041599824924,0.627377421955671,0.565666998856069,-0.532433393644278,-0.464472256675914,0
99,2981509123,0.0731495609618115,0.156729883531069,0.757923665061248,0.628996504981989,1.47435669376027,-1.12635829346043,-1.12277299388056,0
100,2981525790,0.0757285474573245,0.154524948940049,0.754338419197344,0.633530406987645,1.05983894152771,-0.416021076090681,-1.01497758685541,0
101,2981542457,0.0773140014136399,0.15352439100249,0.750227589271409,0.638444493161885,-0.619560963373867,0.476578254693257,-0.593520923052945,0
102,2981559124,0.0787047078423027,0.153589248431802,0.74727356444365,0.641714992510923,-1.33903570883785,0.891234217730595,0.343444580777815,0
103,2981575791,0.0804571276536484,0.154791126064903,0.746135426883042,0.642532709401899,-1.2621257274436,1.04998030963319,0.896418759542172,0
104,2981592458,0.0824290204842567,0.15638206006163,0.745815380280568,0.642269045190439,-0.664740026155719,0.879388750263552,0.798242398814373,0
105,2981609125,0.0846164321416523,0.157748602956721,0.745758341423482,0.641716396762711,0.132085793959554,0.501153442822866,0.419496801803462,0
106,2981625792,0.0867720457624306,0.15851957120485,0.745737266499734,0.641262884449691,0.627959958475176,-0.124556854587477,0.0435515088621435,0
107,2981642459,0.0894509745494692,0.159853750126703,0.745643935411626,0.640671853062426,0.576882277629973,-0.229260210682865,0.196911124600103,0
108,2981659126,0.0923996778281516,0.160869369766437,0.74563353723644,0.640010916747892,0.640382456382597,-0.416625097641262,-0.312293769488453,0
109,2981675793,0.0950718794302651,0.161464717483276,0.746500817367599,0.63845674279402,0.486238346097744,-0.361718575990662,-0.715860430042863,0
110,2981692460,0.0976173702508157,0.161777239666987,0.747955178475512,0.636287690233521,0.261254103048015,-0.424326886189414,-0.964841056677073,0
111,2981709127,0.1005433806944,0.161059779765875,0.749830226383339,0.633802341067165,0.513772921953596,-1.08363342970028,-0.918988091744832,0
112,2981725794,0.1045361254588,0.159174026887292,0.752134852815042,0.630895388174173,0.691468510571315,-1.31734740528458,-0.357938820923611,0
113,2981742461,0.109578175717298,0.156404732511661,0.75481234728251,0.627525699429348,0.601642182384625,-1.78608405671988,-0.171249669047589,0
114,2981759128,0.115132745119431,0.152559232348096,0.758004713721627,0.62361765979037,0.723955877476201,-2.24394144710882,0.0375257123515808,0
115,2981775795,0.121057337141554,0.147373700371722,0.761565825176642,0.619389705666765,1.12540040732574,-2.7146063561728,-0.164762489793797,0
116,2981792462,0.12747762972793,0.140629238923332,0.765248440359346,0.615116001747947,1.49729768597504,-2.83108942494595,-0.637221310416344,0
117,2981809129,0.134019592700361,0.132818761547674,0.768854727555611,0.610950352540007,1.97315650949158,-2.05122497904199,-0.93113501357987,0
118,2981825796,0.140637295941511,0.124066575136426,0.772600844893777,0.606561266809545,2.2573509302816,-0.946795344924221,-0.879043836925358,0
119,2981842463,0.14848097720667,0.113641009784866,0.776164102645101,0.602169748549323,1.88574823626235,-0.363346269013383,-0.623324631418255,0
120,2981859130,0.156607818588925,0.101855774167905,0.780054368885561,0.597172147716239,0.707594776170016,0.459616697096285,-0.917867123448177,0
121,2981875797,0.163869741199578,0.0905822132897076,0.785832500600392,0.589413989955156,-0.88657959225644,1.66956079515907,-1.09803252147591,0
122,2981892464,0.170401464697338,0.0812035546198934,0.794550584040497,0.577112374626468,-2.69987394592616,2.78937898078292,-1.07070286289243,0
123,2981909131,0.176484484734166,0.0730373856944158,0.804550385873411,0.562332146982535,-2.91646165684227,3.02747761215212,-0.551603276898463,0
124,2981925798,0.181045924526274,0.0646030557070772,0.814555348812328,0.547310151675411,-1.80182493759817,2.39570642073055,-0.411830626460607,0
125,2981942465,0.182702239764535,0.0573861975064479,0.823584138353871,0.533887519026888,-1.23869245052802,1.11059432486808,-1.0586400376134,0
126,2981959132,0.182818372503311,0.0539342541310651,0.832175449111964,0.520723113373956,-2.53707937029103,0.891230256792736,-2.0997671197473,0
127,2981975799,0.181493696333743,0.0531957185383988,0.840456887397079,0.507801609043445,-3.23580593980342,2.11788270624378,-2.45238363693283,0
128,2981992466,0.177735118282788,0.0530957462004562,0.848152091383217,0.496214771391073,-2.93236705224621,2.23934062707123,-1.70489753073778,0
129,2982009133,0.17265087258023,0.0540241325299767,0.85556853827424,0.485052106084438,-2.43810339911372,1.78740859173375,-0.912852370626525,0
130,2982025800,0.167854718318348,0.0569251448325578,0.863079341709738,0.472946478301663,-1.8597364438099,1.87776173215951,-0.283506785635722,0
131,2982042467,0.163187678266603,0.061574207380758,0.87103867838345,0.459205857331329,-1.29065880682553,1.63315292484398,-0.269363571582516,0
132,2982059134,0.158521047429953,0.0670745122398295,0.879161668105692,0.444349916915843,-0.916321111621501,1.07210317244932,-0.214061731037451,0
133,2982075801,0.154027568356355,0.072698790774539,0.886731042730259,0.429765577803359,-0.505301314684259,0.322977847161192,-0.138302409181949,0
134,2982092468,0.149653463966257,0.0779316144526538,0.893438335717103,0.416291297606322,0.047286699240975,-0.359041243279184,-0.031306868714808,0
135,2982109135,0.145282829542071,0.0823216526908437,0.898901733473955,0.405082360139289,0.37912077700063,-0.616448266808165,0.118882557994886,0
136,2982125802,0.14107901677399,0.0857864072942883,0.902775666667778,0.397156768823311,0.852811111006553,-0.730394300321886,0.314093874583107,0
137,2982142469,0.13711244316752,0.0879038601439589,0.904991272608186,0.393018938224917,1.34724257374038,-0.931982431674998,0.192778036914935,0
138,2982159136,0.133582919808952,0.0881199667118313,0.905570860437603,0.392850979034443,1.70851947278714,-1.05754722574463,0.154697532811693,0
139,2982175803,0.130705271580932,0.0865785924017783,0.904731549063632,0.396082192792863,1.83644010093267,-1.37745008253617,0.363974676149005,0
140,2982192470,0.128732963118052,0.0836282909501983,0.902716945685461,0.401915723917227,1.60169702742465,-1.33092454407883,0.695421271088656,0
141,2982209137,0.127599722736894,0.0793107984739756,0.89969729548972,0.409844951770022,1.4661959442708,-1.05694770085909,0.80968757640359,0
142,2982225804,0.127294356740526,0.0732907172841707,0.895917701258619,0.419232739744238,1.67302738148232,-0.839713065754943,0.866467498362274,0
143,2982242471,0.128058130175464,0.0653426519838794,0.891783862560243,0.429013980663579,1.76507706710751,-0.625070765200313,1.13579593194746,0
144,2982259138,0.129993292413028,0.0563692693088863,0.888063201701692,0.437341970531691,0.894286333698458,-0.454100113400654,1.18971658089144,0
145,2982275805,0.132990123033263,0.0474986662743558,0.885203635883721,0.443251651881858,-0.451814877611877,-0.517999444739035,0.757071150312496,0
146,2982292472,0.137003684026383,0.0384948824295181,0.882704798300729,0.447862002905812,-1.00805412898774,-0.399918924582452,0.399197221803536,0
147,2982309139,0.141450524787517,0.0292944409493727,0.879830184420854,0.452805069923876,-1.23861266300335,-0.278185767466569,0.0726830376245117,0
148,2982325806,0.146305945841798,0.020122457949799,0.876076061687943,0.45899933663867,-1.95650294275327,0.278218422650646,-0.320863782204861,0
149,2982342473,0.150495260982554,0.0116282851095184,0.871468434898211,0.466646254011824,-2.51320011331058,0.76228319982224,-0.499292193963118,0
150,2982359140,0.153450908463151,0.00363222708756643,0.86591056186216,0.476065672437927,-1.85515182493012,0.579655298579456,-0.578250094812515,0
151,2982375807,0.156632436298861,-0.00437626071310313,0.860497479479587,0.484758925704862,-2.15838778062017,0.193051001180468,-0.354235920387968,0
152,2982392474,0.159679622412565,-0.00979281377396481,0.85646226954639,0.490794152194191,-3.32691455381889,0.5512852569586,-1.45511207246148,0
153,2982409141,0.160292475270257,-0.0111037847630024,0.8542148793065,0.494469380555614,-4.93422163548595,1.69199169368093,-2.51065288474661,0
154,2982425808,0.157912651184924,-0.00851621931350173,0.852777255400166,0.497756990183475,-3.98665143725525,1.98502866850297,-1.04762465658942,0
155,2982442475,0.153986401364078,-0.00549179813511702,0.851128637988133,0.501834703806593,-0.458317942216545,1.06872590872722,-0.549918078379183,0
156,2982459142,0.149646244428535,-0.00425107898298386,0.848055965828929,0.508319789775963,1.83416769079425,-0.193797702144402,-1.22673644968854,0
157,2982475809,0.145869278640355,-0.00380930054790282,0.843267167397406,0.517308541557004,0.892325688005657,-0.379967458413468,-1.20467740794711,0
158,2982492476,0.142808763885973,-0.0029403361118188,0.838384255406179,0.526031226894313,-0.497700828936598,0.0321728896656931,-0.546302152964309,0
159,2982509143,0.141057268630687,-0.00253723134835011,0.834952705497008,0.531930812236669,-0.213532634807429,0.407632609037313,-0.0309721132260767,0
160,2982525810,0.14054697185537,-0.00266396279815697,0.83341623397467,0.534468738984774,0.305842822006735,0.303239480413975,0.60091553442652,0
161,2982542477,0.140828958096531,-0.002514319183565,0.832949287287268,0.535122759344172,0.603790755952054,0.154843123464809,0.623879695938052,0
162,2982559144,0.141973456128775,-0.00266691140799504,0.83251513069654,0.535495081676494,0.852748083917697,-0.0865476405037583,0.653171849493985,0
163,2982575811,0.143759646492898,-0.00318273564626472,0.831780370259173,0.536157113060673,0.901347142575391,-0.338130077900343,0.609187198008462,0
164,2982592478,0.146084504662294,-0.0036548927182171,0.830803327780772,0.537039840053963,0.158597866988099,-0.456990716527452,0.151946940605222,0
165,2982609145,0.149287429389209,-0.00394171770597966,0.829944126297299,0.537485323997317,-0.204444208227573,-0.251905643498793,0.268202688748252,0
166,2982625812,0.152977008825364,-0.00408469562848837,0.829486953855664,0.537152439644202,0.498509699790913,-0.0861404350413801,0.401237472052551,0
167,2982642479,0.156856750383022,-0.00430667479045654,0.828949004583053,0.536862142651438,0.592208955882302,-0.43662683321548,0.0295393250089314,0
168,2982659146,0.160775133481698,-0.0044699328541432,0.827923187388572,0.537284442300881,0.568043482498886,-0.715206031643998,-0.425780499880093,0
169,2982675813,0.164064381545714,-0.00452640384547867,0.826130444890833,0.539046267402645,0.79852572924633,-0.805477726371266,-0.916727546442947,0
170,2982692480,0.166452549210231,-0.00548701930228783,0.822851145526935,0.543304181638245,1.54517249676503,-0.889139636727224,-1.50765653717524,0
171,2982709147,0.168816947284846,-0.00795040101880005,0.818267114712483,0.549432942599161,1.81199564484909,-0.670657972206206,-1.46003324140484,0
172,2982725814,0.170716645242547,-0.00938063697500502,0.813389684539778,0.556026125079886,0.392246988721798,0.0854040041058948,-1.4222054551284,0
173,2982742481,0.171806262960655,-0.00889069440854558,0.809217134237697,0.561757236906262,-1.24427367451228,1.13523480958203,-1.24482870632788,0
174,2982759148,0.172321543641903,-0.00793954928556883,0.806469087106989,0.565552703728693,-0.594721290300646,1.22817058541582,-0.858034779008407,0
175,2982775815,0.172256232233803,-0.00712448463168047,0.804592617295576,0.568249727117226,0.686847486583159,0.459923712592112,-0.681886220389777,0
176,2982792482,0.172186979104634,-0.00667837568716283,0.802451443443303,0.571295654141323,1.2654980999473,-0.0176803632514986,-0.324349241034663,0
177,2982809149,0.172485013053392,-0.00618719390587954,0.799944022037097,0.574717496262864,1.07391330237194,-0.241132920038429,0.0721794343832165,0
178,2982825816,0.173005380258167,-0.00577676968510181,0.797575849858867,0.577848190319602,0.625311374398159,-0.381505154913044,0.302448956892762,0
179,2982842483,0.173706809174523,-0.00585557460173935,0.795581312315552,0.580380937132462,0.712702750291595,-0.524309407739642,0.615977925103355,0
180,2982859150,0.174704338809221,-0.00669444836960824,0.793990885716588,0.582247414559522,1.16598610841993,-0.830404916923247,0.736888815145335,0
181,2982875817,0.176125595880928,-0.00822525932280295,0.792909053539684,0.583272965599695,1.16262729669743,-1.10659371336682,0.558712167746985,0
182,2982892484,0.177825123958033,-0.00973588464928166,0.792501008738171,0.583288598369955,0.687099571350584,-1.03723067802087,0.158837926858591,0
183,2982909151,0.179506622431146,-0.0111157774361337,0.792677794979937,0.582508133283217,0.511782066073684,-0.772340179276189,-0.222795600133701,0
184,2982925818,0.180880155097585,-0.0125181907847354,0.792939009563276,0.581698711967081,0.624848021070109,-0.242230632777807,-0.0543081915894667,0
185,2982942485,0.181733478426469,-0.0138332840638439,0.793024948630267,0.581285656042697,0.52982365471667,0.20984325190373,-0.0742857455795922,0
186,2982959152,0.181965362724243,-0.01505554605893,0.792897159237547,0.581357060827966,0.0809845201411922,0.373850924373325,-0.170415009045502,0
187,2982975819,0.181686524678975,-0.0158415129516536,0.792840715030067,0.581500347212357,-0.0521079706785237,0.439374639744443,0.0789315594969605,0
188,2982992486,0.180892765465643,-0.0160103861544915,0.793146487999356,0.5813261765237,0.0116158464010298,0.401570459019718,0.104435514200554,0
189,2983009153,0.179518691027245,-0.0158130783597404,0.7938016767575,0.580863051072828,0.332055134851124,0.219281682983614,-0.0148805487455676,0
190,2983025820,0.177906572857589,-0.0153401901073814,0.794659811166175,0.580197995876302,0.463442150545299,0.0632895022947662,-0.0349298473799597,0
191,2983042487,0.176223427016706,-0.0147603452323726,0.795851021459186,0.579092900683025,0.450965690927356,-0.0344391884956679,-0.0854670933362528,0
192,2983059154,0.174641941532458,-0.0141188230083746,0.797579801772022,0.577206471637259,0.476910280771504,-0.213625280492281,-0.141793406735224,0
193,2983075821,0.173171566628886,-0.0134883795213898,0.799709196184776,0.574712861929055,0.552287552506885,-0.448693502983549,-0.141407306335644,0
194,2983092488,0.171743363931982,-0.0130167502243135,0.80185899999809,0.57215113849488,0.720795188250434,-0.648717278845107,0.0147305418542839,0
195,2983109155,0.170080932804692,-0.0129017816721925,0.803515879007831,0.570322937035012,0.896701064054333,-0.737070968350946,0.133621322174474,0
196,2983125822,0.168017878371757,-0.0131998496422867,0.804378054440901,0.56971194655786,0.963084626348221,-0.630071358047576,0.0796523873050665,0
197,2983142489,0.165649063141861,-0.0138615105817601,0.804407976476919,0.570347309790205,0.713698609817496,-0.292665861988824,-0.0805593824896437,0
198,2983159156,0.163004091965895,-0.01474657768016,0.803959299452964,0.571718155450915,0.212203245427193,0.171104031953131,-0.209594892744345,0
199,2983175823,0.160318131753985,-0.0155157279665997,0.803763185691465,0.572732136468425,-0.227460315911549,0.51582373275257,-0.277836541442171,0
200,2983192490,0.157526384507478,-0.0159224569903752,0.804257685939205,0.572801438681072,-0.626204946342236,0.599780623241015,-0.378048280893741,0
201,2983209157,0.154615400731792,-0.0159881802792047,0.805436124300614,0.571936277586509,-0.542197717082622,0.618139908202317,-0.465167636855348,0
202,2983225824,0.151559565389608,-0.0159663323657764,0.806832256256459,0.570785848312491,-0.140306673605762,0.40704488178595,-0.303490424043929,0
203,2983242491,0.14844900418986,-0.0159733728968759,0.807770294827397,0.570276157057084,0.248181375788142,0.25541551239702,-0.103165036720513,0
204,2983259158,0.145259350383204,-0.0159870532832809,0.807882083450394,0.570938415674947,0.425714196987035,0.453024253707667,0.106672161359006,0
205,2983275825,0.142153809580994,-0.0158959316373189,0.80715103510097,0.572753716980016,0.155827110342894,0.573059853449094,0.306065341652812,0
206,2983292492,0.139392428706934,-0.0157272913876359,0.80584531373943,0.575270139542278,-0.213007325299205,0.653125352396046,0.405488235775041,0
207,2983309159,0.137124985876656,-0.0154648288654943,0.804433246671147,0.577792981063811,-0.527572132200309,0.449226417323888,0.554896455329695,0
208,2983325826,0.135445043001424,-0.0150753416535609,0.80326266196929,0.579824516803473,-0.595756738507776,0.129116757774781,0.666333224030238,0
209,2983342493,0.134295670840732,-0.0147311411206558,0.802433880082559,0.581246534931925,-0.535588841087528,0.0447135686904535,0.652804911858205,0
210,2983359160,0.133552865045875,-0.0144516597285346,0.8020708628626,0.581925349779483,-0.508499227179877,0.0587872803010452,0.401973139293401,0
211,2983375827,0.133134724405074,-0.0140163857423163,0.802226215616358,0.581817656200088,-0.696142489847016,0.114339555037956,0.016628901861124,0
212,2983392494,0.132905081470514,-0.0133198661430504,0.802888680497173,0.580972105367165,-0.773253620815462,0.287084467716572,-0.0981212294289255,0
213,2983409161,0.13274076962626,-0.0123223075994176,0.803945291425633,0.579568820080072,-0.728459812013286,0.579420752237351,-0.16074899556299,0
214,2983425828,0.132446245391491,-0.0110897796636729,0.805064749382806,0.578105317541629,-0.52020586904642,0.936882641800828,-0.255653493947206,0
215,2983442495,0.132127762381889,-0.00988699421479273,0.805924987637833,0.577000360532219,-0.304207561915566,1.07613603680816,-0.25550648064981,0
216,2983459162,0.131932531680133,-0.0089070869018555,0.806368551510552,0.576441003071578,-0.104612531741019,0.810761792692627,-0.19803708710004,0
217,2983475829,0.131764552449766,-0.0080955498015713,0.80639363293803,0.576456306712077,-0.0291367318878395,0.388880347712752,-0.189472742076413,0
218,2983492496,0.131608561025684,-0.00732516065140868,0.806105548530288,0.576904995051061,-0.125175209794096,-0.0613238062347574,-0.189767846501314,0
219,2983509163,0.131393921391723,-0.00654201200298529,0.80568567237265,0.57754951028781,-0.307288766897486,-0.361470803933812,-0.17617273143143,0
220,2983525830,0.130948679439583,-0.00576616950513837,0.805305611432301,0.578188608360555,-0.380741809810271,-0.525977135714549,-0.282365821101992,0
221,2983542497,0.130301427851255,-0.00504463156730224,0.804970103883096,0.578808449702242,-0.298713559193728,-0.574327572905257,-0.342394248264364,0
222,2983559164,0.12957727091584,-0.00440899901479933,0.804504973267173,0.579622324947958,-0.136864495265287,-0.528124721065789,-0.368919470447667,0
223,2983575831,0.128879539541521,-0.00392806685577583,0.803707369801832,0.580886476262414,-0.00303645567036501,-0.280767934782457,-0.155951166564393,0
224,2983592498,0.128233877357582,-0.00370477867609161,0.802602818805675,0.582555630440551,0.115241322930602,0.196908469289654,-0.139096910357434,0
225,2983609165,0.127696075038261,-0.0036634332395204,0.80130199212145,0.58446164039988,-0.0646173038529258,0.573738028488582,-0.0684747926011556,0
226,2983625832,0.127396194023131,-0.00348027280751572,0.80000792570462,0.586298060937777,-0.381350247522559,0.812087372779493,0.0727922056898485,0
227,2983642499,0.127378610837632,-0.00309278548502696,0.799059299475432,0.587596256030321,-0.515217640177684,0.910315730868054,0.209855364486537,0
228,2983659166,0.127470536824268,-0.0024903183623827,0.798554879396174,0.588264536708401,-0.497096669698463,0.629674315554335,0.221585168957215,0
229,2983675833,0.12764761603633,-0.00181537400151189,0.79829777193479,0.588577486709631,-0.369219268306807,0.238455294377007,0.232334670891548,0
230,2983692500,0.127884861168387,-0.00122078130951194,0.798089918581042,0.588809352707854,-0.145380981982042,-0.0342939266396259,0.325816740849844,0
231,2983709167,0.128034592577047,-0.000753717111228827,0.797860001999588,0.589089120781705,0.0351387813015724,-0.105993020127247,0.264007604628905,0
232,2983725834,0.128122883851173,-0.000269208250186617,0.797633968195515,0.589376371210496,-0.00507947170388845,-0.0309788421038109,0.175200506285819,0
233,2983742501,0.128310227172592,0.000299063591416811,0.797462460633295,0.589567655188593,-0.170427128068219,0.0817736840796058,0.189215436822339,0
234,2983759168,0.128640713964769,0.000884413192628567,0.797444465915689,0.589519387555982,-0.156235142538673,0.132525859404723,0.287424627224316,0
235,2983775835,0.129086710447342,0.00146195665833169,0.797620930858597,0.589181919719945,-0.0908912632528088,0.127204587225806,0.277810048837068,0
236,2983792502,0.129677994784414,0.00212613484990198,0.797833072282208,0.588762673742168,-0.136423044373571,0.0644951689012368,0.189414436529486,0
237,2983809169,0.130406197729977,0.00282957612984603,0.79795031390717,0.588439898059253,-0.132350526563275,0.083502429558756,0.247354294579478,0
238,2983825836,0.131162051200342,0.00342968720565748,0.797928487430314,0.588298293825302,0.0117569619158417,0.0100121250035997,0.293871020650395,0
239,2983842503,0.131909175447705,0.00391541923985366,0.797816166334037,0.588280548429865,0.0943012934256886,-0.144949199990572,0.27159510853029,0
240,2983859170,0.132679224993736,0.00439818549947762,0.797678635194611,0.588290467518756,-0.013761930999792,-0.198026089751725,0.200885799758794,0
241,2983875837,0.13354254178325,0.00495815651556091,0.79762493076519,0.588163477308699,-0.205219312421516,-0.168224597673398,0.0523925146514731,0
242,2983892504,0.134489770669084,0.0055292386900823,0.797780041220281,0.587732026467379,-0.245470101099983,-0.115903840682007,0.0051135193621024,0
243,2983909171,0.13537708861033,0.00606608874339229,0.798200881503663,0.58695110461905,-0.196151770679689,-0.0462680944514391,-0.0841630312332588,0
244,2983925838,0.136085984888803,0.00650879951458416,0.798789366138561,0.585981048148897,-0.0558680984056662,0.0206874681739493,-0.17954619386041,0
245,2983942505,0.136728379605834,0.00680191840054729,0.799353481678001,0.585058198340724,0.0323299854035542,0.107101502949877,-0.197186401592479,0
246,2983959172,0.137281151588362,0.00697723707769597,0.799763070710281,0.58436652394657,0.109800407643261,0.119721865621917,-0.235755764191359,0
247,2983975839,0.137763993555066,0.00702882736585848,0.800010220968611,0.583913798442352,0.17683577058497,0.116843609196675,-0.265395328916687,0
248,2983992506,0.138139987179411,0.00699314181692535,0.800105830297115,0.583694355150164,0.116591710850204,0.123731814859599,-0.271833201007111,0
249,2984009173,0.138370152010351,0.00692522244426751,0.800092245360787,0.583659268101059,0.0685782983607692,0.155654289308045,-0.244138196361665,0
250,2984025840,0.138492706826457,0.00685064940434959,0.799966431258309,0.583803517990827,0.0158116270418409,0.150919596998738,-0.186900201442404,0
251,2984042507,0.13858065265344,0.00675939358534089,0.799677405476304,0.584179561846519,-0.0404312904938664,0.0968281963285681,-0.0448724878640222,0
252,2984059174,0.138611438494916,0.00663870881212126,0.799233238938706,0.584781178253219,0.0258432387139138,0.0407629853465639,0.111304136222198,0
253,2984075841,0.138647454587873,0.00647147526943055,0.798625358070115,0.585604423473321,0.0373954368877667,-0.0498838469881782,0.275497672281672,0
254,2984092508,0.138769994617282,0.00634381425111765,0.797894512359777,0.586572239166516,-0.0860219067978535,-0.0956275577316365,0.416368286161723,0
255,2984109175,0.139076555920818,0.00631973953133909,0.797146143671025,0.587516636458809,-0.180379971712633,-0.104799237083184,0.462127083945571,0
256,2984125842,0.139649489568628,0.00635967840579628,0.796467354667121,0.588300371836832,-0.146738064066701,-0.0486224104320239,0.462195162894447,0
257,2984142509,0.140476338051269,0.00652724473574148,0.795811529376585,0.588988797206845,-0.060407069086782,-0.0230384797474883,0.351505069510977,0
258,2984159176,0.14159457335827,0.00683380077711819,0.79505946129575,0.589732760635306,-0.00907775484191216,0.0751068501857309,0.254531030700368,0
259,2984175843,0.143063286512573,0.00724770748270971,0.794096008706408,0.590670716850783,0.0356018001915001,0.186213029527409,0.197381923442846,0
260,2984192510,0.144953690600187,0.00775794591539121,0.792964775953556,0.591722152664142,0.0168890304007806,0.216426663321541,0.123702021311647,0
261,2984209177,0.147301459958795,0.00846041821617802,0.791768029906792,0.592734416104829,-0.12294002965785,0.119637141713781,0.0416713194111759,0
262,2984225844,0.150097201136548,0.00936234757733963,0.790527671426027,0.593674302432369,-0.23409040107021,0.0363756223992966,-0.0685952540804156,0
263,2984242511,0.153152680816684,0.0104172177046997,0.789223141567859,0.594611277010212,-0.158984414053074,0.0156337462350028,-0.248538523325689,0
264,2984259178,0.156602024474115,0.011655797306315,0.787644763264997,0.595781566701244,-0.0405076273410689,0.0112955075933397,-0.43249000974745,0
265,2984275845,0.160692141608225,0.0129465951880759,0.785724376355595,0.597199820578514,-0.0613903647875964,0.0700729165972184,-0.441448192995564,0
266,2984292512,0.16529108674781,0.0143779073754309,0.783693225768352,0.598579201364386,0.025762830512451,0.0473087515745747,-0.554756222819777,0
267,2984309179,0.170188197334837,0.0158980891268227,0.781580589411616,0.59992917124026,-0.0425543926036807,-0.023230775556054,-0.815975095107262,0
268,2984325846,0.175253821929542,0.0173315840430767,0.779503354085387,0.601132460497084,0.117065687874928,-0.0168720763305258,-0.840570657029868,0
269,2984342513,0.180112165774093,0.0188053428786602,0.777330319828704,0.602464555550272,0.382248190978685,-0.304950387385054,-0.612623951958114,0
270,2984359180,0.184830090220414,0.0204483246667803,0.774612362473201,0.604479438584244,0.407365967109425,-0.640969879490707,-0.397092888647078,0
271,2984375847,0.189254087647611,0.0223048984470167,0.771439606771655,0.607096627332036,0.438587617497633,-0.84887471072608,-0.170615942779203,0
272,2984392514,0.193018569518313,0.024446266065024,0.767975819393221,0.610212547170158,0.883904554860186,-0.605568681457479,0.0435646472743193,0
273,2984409181,0.195669115199066,0.0262049991692144,0.764074548307509,0.614179924781355,1.70278090909847,0.0155197627531529,0.210980426476427,0
274,2984425848,0.197262670942588,0.0270547127857996,0.759641971378688,0.619111909503099,2.1126602197128,0.504152208310598,0.0628723621094218,0
275,2984442515,0.198508309324274,0.0273263962288021,0.755032353745016,0.624318719883223,1.68528233217645,0.875052061595598,-0.078908703383772,0
276,2984459182,0.199979570907483,0.0277332901495468,0.751352381000247,0.628258414509825,0.705118138952491,1.13164614791819,-0.240248134760916,0
277,2984475849,0.201695625596461,0.0287857836668886,0.749743355360958,0.629583318049349,-0.180430955148219,1.15855414649751,-0.311797144005587,0
278,2984492516,0.203311081386778,0.030463893348349,0.750574606661499,0.627992289142419,-0.399230558161211,0.742208201581468,-0.165507626083238,0
279,2984509183,0.204614079790361,0.0326950848288391,0.753158828820283,0.624352375145349,-0.0873488447329189,0.00749750246352342,-0.00918351429972863,0
280,2984525850,0.205685655909027,0.0353158926836963,0.756416691350454,0.619903208350835,0.280720016319139,-0.658874917935372,-0.0330220494998051,0
281,2984542517,0.206530211711973,0.0380354878328111,0.759497024699727,0.615680796182396,0.585022508726253,-1.10583404219495,-0.0888785515191293,0
282,2984559184,0.207133532603657,0.040536348746027,0.761849970159299,0.612402749071023,0.88345431085482,-1.37946199420933,-0.0854172705721327,0
283,2984575851,0.207492230993118,0.0426280521082529,0.76316376490629,0.610500525130824,1.0627182801121,-1.51128573695581,0.0105701403882193,0
284,2984592518,0.207626252356008,0.0440860465360623,0.763224355415804,0.610275628821559,1.28304968051752,-1.41727450774028,0.213967935171909,0
285,2984609185,0.207739668921815,0.0448140216718118,0.762012103157589,0.61169721926718,1.41376980344514,-1.15876278064837,0.502971049093686,0
286,2984625852,0.208029595309292,0.0449383554547515,0.759799384344449,0.614336330713291,1.35268339114296,-0.875741775542345,0.784934304993821,0
287,2984642519,0.208414405259943,0.0446594373706611,0.756960234764092,0.61772176043893,1.16031374753584,-0.561521828461889,0.967451155127593,0
288,2984659186,0.208965364798334,0.0441451898712883,0.753955862546132,0.621236859706704,0.973787175595912,-0.188565652163151,1.00756328364883,0
289,2984675853,0.209779705155868,0.0437393731949159,0.75135903487827,0.624130549840358,0.749231488208137,0.404834377650414,0.73233942699408,0
290,2984692520,0.211091873235465,0.0438455562632405,0.749582721138713,0.625814295474457,0.0531180753731811,1.39921315141242,0.122149033507358,0
291,2984709187,0.213031602928293,0.0446025795822047,0.748894416289381,0.625927551158281,-1.26600863382514,2.06405123095771,-0.0283022205433907,0
292,2984725854,0.2158158061227,0.0463099064336834,0.749667227159278,0.623921452521896,-2.22690986480176,2.12398940091321,0.15965110223397,0
293,2984742521,0.218811201335112,0.0492874805482616,0.752152544747464,0.619644213933612,-2.0217503366735,1.96370446741372,0.358057360851304,0
294,2984759188,0.221513124061388,0.0531072255260874,0.755582821394554,0.614171114982568,-1.37855609086651,1.49241878385633,0.252884234439928,0
295,2984775855,0.224202507039139,0.0565007902321993,0.758753810392494,0.608961042888109,-0.931179554748611,0.714174160187154,-0.0827896390799936,0
296,2984792522,0.226952285652608,0.0590646209216052,0.761182128946784,0.604653452123186,-0.668472346621047,-0.153515161559893,-0.523662639047079,0
297,2984809189,0.229729456093903,0.0610178409918251,0.762872200795998,0.601271324225733,-0.738433923305348,-0.537090329214432,-0.924642329824188,0
298,2984825856,0.232177048759339,0.0626273026612724,0.764353972482112,0.598276394103588,-1.03364902515121,-0.399444824423719,-1.35924766932787,0
299,2984842523,0.23404071533758,0.0639778852663925,0.766233684319056,0.594993877931495,-1.36336009507771,-0.0453202688651652,-1.46360886450339,0
300,2984859190,0.235451650763509,0.0651110601335054,0.76851890490612,0.591355868156331,-1.73743785076918,0.0510988617670274,-1.32262761840183,0
301,2984875857,0.236363728409851,0.0659822264539516,0.770880578967187,0.587810910629931,-1.92585562321831,-0.105195803154277,-1.20142833981552,0
302,2984892524,0.236707583953977,0.0664433265736332,0.772728351806379,0.585188600681094,-1.84009349242236,-0.281836760781979,-0.971207862264541,0
303,2984909191,0.236362793937573,0.0662657095614686,0.773588408545048,0.584210971775676,-1.49837083880298,-0.458058034168562,-0.777262326896811,0
304,2984925858,0.235383305563327,0.0652344496405259,0.773222253104355,0.585206385257718,-1.37247622832675,-0.644663097979293,-0.666101696382821,0
305,2984942525,0.233848228353559,0.0634986669127839,0.77183596732892,0.587836852309917,-1.32443848428615,-0.660570702123667,-0.653961764117586,0
306,2984959192,0.231913128643932,0.0613751491038168,0.769881536503382,0.591381274294561,-1.32752331243105,-0.485541670333152,-0.805898172968608,0
307,2984975859,0.229888579425406,0.0590769850794932,0.767918250287621,0.594947654637688,-1.4905737097695,-0.232683357136719,-0.788346163763492,0
308,2984992526,0.228044927623132,0.0567115247542881,0.766491309692398,0.597720993534138,-1.71418251750963,-0.10219848322615,-0.466012927392464,0
309,2985009193,0.226418652037807,0.0544932342353458,0.765927476470793,0.599266370005056,-1.73973994830686,-0.127072888731193,-0.253326489026435,0
310,2985025860,0.224942510063242,0.0523867477746078,0.766160069291217,0.599712634557356,-1.50514380876644,-0.0915684907058163,-0.165192581333077,0
311,2985042527,0.223841021936815,0.0503107946152414,0.766844740791317,0.599427363709869,-1.32125042094439,-0.0175725336586677,-0.124064424002643,0
312,2985059194,0.223125904722588,0.048463067538165,0.767679152246541,0.598777822679289,-1.10696337445744,0.213986689568449,-0.339074188865637,0
313,2985075861,0.222394403300291,0.0466627735938419,0.76846851223061,0.598180123918633,-0.738357314385905,0.508657189212897,-0.683752461179987,0
314,2985092528,0.22157448459627,0.0447720310493121,0.768931392909995,0.598034050877633,-0.372594441532066,0.783642559668255,-0.807225112423137,0
315,2985109195,0.220770981052857,0.04282308641233,0.768882472935866,0.598536632134666,-0.169205730766574,1.13333048674089,-0.803759219399494,0
316,2985125862,0.22003653244773,0.0407142798011983,0.768193242231929,0.599837823413833,0.0971800570246242,1.5157649890627,-0.689663437213738,0
317,2985142529,0.219362643900883,0.0384424295558357,0.766969047806056,0.601797881167864,0.31705274905108,1.68123546411201,-0.371740204627003,0
318,2985159196,0.218943722817704,0.0362659596017036,0.765300374897548,0.604205066674026,0.229597023395115,1.39481538553847,-0.031726672815846,0
319,2985175863,0.218801620923259,0.0345159449974216,0.763223367748205,0.606979893526448,-0.0145722190535711,0.796253297319619,0.156013099222658,0
320,2985192530,0.2188447343368,0.033425843943115,0.761392609869699,0.609320103759555,-0.378441489977486,0.170501523425156,0.185682280489761,0
321,2985209197,0.219089077729746,0.0328965409666763,0.759958004965109,0.611049608707353,-0.46217817619539,-0.196465879871769,0.242457413199763,0
322,2985225864,0.219272481311332,0.0327458044672649,0.758945157358115,0.612249572765902,-0.221154896314893,-0.35469062749185,0.192207288902731,0
323,2985242531,0.219266134803533,0.0328688571033708,0.75833081123272,0.613006020440389,0.168071544340803,-0.386139367988283,0.000891024554041671,0
324,2985259198,0.219188288961167,0.0333085658949199,0.758034052286598,0.613377052875521,0.628997615063055,-0.250076019983456,-0.130663973477959,0
325,2985275865,0.218971775584175,0.0342698109136775,0.757991082104851,0.613454530513038,1.05422882685566,-0.0734158818980978,-0.229833931155121,0
326,2985292532,0.218331014207429,0.0354139299578957,0.757933001385051,0.613689650565773,1.60115444844615,-0.074626418056966,-0.166193265186808,0
327,2985309199,0.217407324113768,0.0362104851096199,0.75754586734413,0.614448626867735,2.13772008069532,-0.185128771895898,0.220775567168493,0
328,2985325866,0.216287208546163,0.0365923172231788,0.756783548294505,0.615759292881826,2.50327347539729,-0.190952569062143,0.574587526420878,0
329,2985342533,0.214890305727477,0.0367653574163363,0.755913912830478,0.617304318296671,2.38930282860298,-0.139799986849121,0.529059511126957,0
330,2985359200,0.213601061559978,0.036821969057496,0.755335408397997,0.618455455077737,1.7590367315307,-0.0607844948897261,0.54554433023997,0
331,2985375867,0.212683965979289,0.036895387307211,0.755674655051008,0.61835271223171,1.35384965387889,0.0152731149148112,0.676050897593464,0
332,2985392534,0.211957566936878,0.0371139247734064,0.757285335971282,0.616616141800533,1.18868124178145,-0.0661041603535012,0.710968864756613,0
333,2985409201,0.211421818686658,0.0375543225562634,0.759796107676845,0.613677734808493,0.744892068790258,-0.443083674162626,0.828378131799552,0
334,2985425868,0.211324488195659,0.0383239883803267,0.762702175325682,0.610048050859061,0.31893793069401,-0.93533118539184,0.953154259403676,0
335,2985442535,0.211500701490471,0.0391908006714722,0.76568004420123,0.60618941290967,0.290453138060587,-1.1521031518447,1.01607314289914,0
336,2985459202,0.211605173369061,0.0399391452035486,0.768678545729685,0.602296777858521,0.960899005948489,-1.28799098593843,0.998562451896442,0
337,2985475869,0.211559884927183,0.0403852004853119,0.771382071287656,0.598816458330367,1.364845188804,-1.33429425333975,0.743659281049821,0
338,2985492536,0.211423170672298,0.0404614488852596,0.773483564274013,0.596142843498894,1.30346763082107,-1.03832369767037,0.267269782323262,0
339,2985509203,0.211446882828692,0.040288508530453,0.775352180332535,0.593713776390615,1.07359437776396,-0.714389209417183,-0.394024341343528,0
340,2985525870,0.211567796959908,0.0397068090511911,0.777306688096418,0.591148669325307,0.900942474146827,-0.315915927542009,-0.920892303347067,0
341,2985542537,0.211762861464867,0.0383704010147671,0.779303252141682,0.588532619343716,0.911403782099221,0.206374333997969,-1.16419267838589,0
342,2985559204,0.211875629289663,0.0362033608590545,0.781087143929764,0.586260102653475,0.683523545108656,0.330306590528249,-0.934789415316713,0
343,2985575871,0.211816624395555,0.0336974069523528,0.782518050714066,0.584520061846485,0.0654232689526902,0.245510567142892,-0.632522750046052,0
344,2985592538,0.211571485141515,0.0315619774086589,0.783735470709577,0.583095241113068,-0.575623178253237,0.259513128680523,-0.46249652618222,0
345,2985609205,0.210935914444582,0.0300030114653895,0.784903295709042,0.581835608815342,-1.21220424652766,0.090249615793853,-0.412840942808898,0
346,2985625872,0.209800881367497,0.0290008462385074,0.78615220923892,0.580609373850989,-1.2938359807517,-0.148894388766286,-0.270005567416584,0
347,2985642539,0.208120685169002,0.0283759303274201,0.787381772686901,0.579577890385126,-0.814954464040642,-0.249474674552015,-0.217963872050883,0
348,2985659206,0.205923178245738,0.027868948147396,0.788426323235117,0.578967096837366,-0.448281071507743,-0.29786240242129,-0.290545259856692,0
349,2985675873,0.203504819162319,0.0273871691493708,0.789246908865145,0.578727093188584,-0.247138031408077,-0.346941439926605,-0.40125951518857,0
350,2985692540,0.201117998856798,0.0267673619036362,0.789927019608346,0.57866256364589,0.0680527449790858,-0.393774327926008,-0.479260100167689,0
351,2985709207,0.198595016898712,0.0258691211672683,0.790485101884464,0.578812673955696,0.409989975193554,-0.417042035888088,-0.491981686391337,0
352,2985725874,0.19598834527034,0.0247587027559591,0.790813018321538,0.57930160124862,0.48118028945947,-0.43499004774395,-0.388169963715952,0
353,2985742541,0.193478170451397,0.0234215619415659,0.790874675245722,0.580116260804652,0.351463911366657,-0.269186227605329,-0.354938627679325,0
354,2985759208,0.1910212875399,0.0217644914024898,0.790897002679816,0.580963945329375,0.194466804046883,-0.119948025121794,-0.372321816637776,0
355,2985775875,0.188714510082502,0.0198038633301963,0.791041474511357,0.581590944121742,0.199428755850188,0.0352900786359517,-0.306695026641964,0
356,2985792542,0.186572596629776,0.017759000465393,0.791279224924733,0.582024460217788,0.122160326854932,0.0762753056061784,-0.240026945203246,0
357,2985809209,0.184732948911332,0.0158692703923147,0.791415234747018,0.5824807550933,-0.124550877891452,0.192464932880495,-0.0801397381921362,0
358,2985825876,0.183133049299528,0.0143232783960956,0.791544646409094,0.582850068792435,-0.292814582035156,0.342763222908743,-0.0795281889945174,0
359,2985842543,0.181683735410821,0.0132432792632995,0.791713974822986,0.583099149297539,-0.553526985568099,0.391388261397692,-0.0939652010436956,0
360,2985859210,0.180387146882392,0.0125767233364075,0.791896499886889,0.58326858027554,-0.639685044666379,0.450843921246193,-0.022481196347884,0
361,2985875877,0.179142072516919,0.0122273988020181,0.792012841170293,0.583501729212725,-0.402838484561165,0.396740148075862,0.0169877315798572,0
362,2985892544,0.178058803517007,0.0120719150002983,0.791909196090016,0.583977017104597,-0.153918094360359,0.365993906002113,0.101535718739548,0
363,2985909211,0.177121045810213,0.0120597312252911,0.79154706284256,0.584752892527422,-0.000493519876740303,0.39550633280506,0.100731321559805,0
364,2985925878,0.176232824679713,0.0120188315514882,0.79099044552116,0.585774405627101,0.0575913955124864,0.38188598321888,0.0640200716783565,0
365,2985942545,0.175426291476048,0.0118730353008496,0.790411578439804,0.586799952249489,0.0374066886290204,0.384323492094108,0.0370265882599668,0
366,2985959212,0.174733760281403,0.0116812675672133,0.790005898833328,0.587556244809371,-0.0803625147507476,0.373585793025158,0.0515062772644547,0
367,2985975879,0.174241988844198,0.0115339338231593,0.789901947225578,0.587844887247836,-0.229775808934652,0.334824056069702,0.133495550828615,0
368,2985992546,0.173905216085773,0.0114911754306797,0.790126566574891,0.58764354629142,-0.300894014028774,0.308763213437173,0.220325456293974,0
369,2986009213,0.173687855132358,0.01155382599947,0.790605591561526,0.587062038183312,-0.254289910369524,0.191587507197954,0.140576065629737,0
370,2986025880,0.173521759376023,0.0115873651315044,0.791104152139285,0.586438532550804,-0.123365443183934,0.118528353878737,0.00395990877010412,0
371,2986042547,0.173301644355242,0.0116140888659373,0.791416054812399,0.58608214542738,0.00779124488891024,0.137932533920028,-0.0165195580144739,0
372,2986059214,0.172962387851825,0.0117380806525699,0.791478403708927,0.586095697231738,-0.061480068945334,0.110091573059878,-0.0645384207513244,0
373,2986075881,0.172638052956343,0.011930321684801,0.791354700664905,0.58635442168666,-0.165445519810663,0.13858114973226,-0.112378975588527,0
374,2986092548,0.172349794626132,0.0121704913674521,0.79122387878237,0.586610774770448,-0.250419957609878,0.21964384261786,-0.0940006264037087,0
375,2986109215,0.172048920333785,0.0124733458813269,0.791204126277061,0.586719366662339,-0.273279981582194,0.184639080662023,-0.0449955160503757,0
376,2986125882,0.171732325861411,0.0127701324132568,0.791197173078864,0.586815103149529,-0.176006558269484,0.161614252584275,0.025514361240102,0
377,2986142549,0.171414172452268,0.0131210710819912,0.791110351433981,0.587017402493459,-0.107164774177135,0.117975948044543,0.0072292652617898,0
378,2986159216,0.171230330050938,0.0135239961902806,0.7909226605217,0.587314754344693,-0.060984950809553,0.111310159258621,0.0282778685608555,0
379,2986175883,0.171140889073895,0.0139450865488538,0.790752253375176,0.58756038364599,-0.095975339145101,0.0751957130693432,-0.0239961588470603,0
380,2986192550,0.171103863823973,0.0143643415846906,0.790653564457012,0.587693861195408,-0.17397874155743,0.0199367472950007,-0.0701707936589135,0
381,2986209217,0.171099708609339,0.0147187218293538,0.790622421801142,0.587728198308374,-0.115924736370366,0.0631737826890864,-0.0502780164854847,0
382,2986225884,0.171042443653603,0.014994201742686,0.790542749864525,0.58784506208672,-0.000505731030510586,0.0685262007122975,-0.0751425649597251,0
383,2986242551,0.171021401428695,0.0152341791942507,0.79030512299381,0.58816444350826,0.0258542918524845,0.0807004986292381,-0.0375903764096616,0
384,2986259218,0.171059681829232,0.0154569151771087,0.78993754901423,0.588641094116848,0.0153719354302108,0.149502936147957,0.0432116809116966,0
385,2986275885,0.171124251154743,0.0156469100665497,0.789519448911024,0.58917799064742,-0.0651433487034877,0.154098334845576,0.0729296588942095,0
386,2986292552,0.171245916962661,0.0158082664744342,0.789119787604627,0.589673549894787,-0.14559724521404,0.120271682598885,0.087083304158011,0
387,2986309219,0.171408331390629,0.015982204040821,0.788781268818861,0.590074455509121,-0.177023472343489,0.106145093725647,0.0871460489685649,0
388,2986325886,0.171558788765539,0.016166170976212,0.788507721077715,0.590391235295797,-0.108689309383001,0.138156153518069,0.0653353876551708,0
389,2986342553,0.171731987161128,0.0163452520459898,0.78827958828983,0.590640540436279,-0.0558847525557517,0.115347303090184,0.0312146823476145,0
390,2986359220,0.171991779898284,0.0165150508831474,0.787999910846893,0.590933347550327,-0.0443440986990468,0.102955276234048,0.0564706442080257,0
391,2986375887,0.172381099892803,0.0166995949445785,0.787670919147457,0.591253247820115,-0.105523845517193,0.13423704836429,0.0613704171682784,0
392,2986392554,0.172775167807298,0.0169439724247105,0.787284009588655,0.591646458143411,-0.312907206457863,0.171885156310947,-0.0109087068708812,0
393,2986409221,0.173225976323244,0.017165072703611,0.786812713134854,0.592135014887068,-0.441400760139513,0.220785711206518,-0.0635814453419946,0
394,2986425888,0.173753423789509,0.0173525028995059,0.786243211522015,0.592731179119247,-0.467016577574722,0.309168705920744,-0.12894588317974,0
395,2986442555,0.1744111253849,0.017618094009288,0.785518050860309,0.593491157371425,-0.55780058836097,0.403345785619893,-0.165521383852339,0
396,2986459222,0.175234436942865,0.0179815712590099,0.784624550621069,0.59441893456304,-0.687649340042348,0.412330501243772,-0.146016988026545,0
397,2986475889,0.176281213211975,0.018362804574034,0.783488614494704,0.595594939731577,-0.718746741953236,0.33029675174976,-0.082853356000218,0
398,2986492556,0.177594245096954,0.0188464852786592,0.781995694684631,0.597149753073536,-0.775697668406682,0.225773248378169,-0.034189862909025,0
399,2986509223,0.179139824928605,0.0194205749282717,0.780068148341508,0.599187323244622,-0.726680234858932,0.149320639067602,-0.0365606651430765,0
400,2986525890,0.180792988484337,0.0200005767789732,0.777608538375249,0.601862802712811,-0.330591681886675,0.151852840519631,0.0919146782494841,0
401,2986542557,0.182458857040288,0.0204284755088671,0.774590736131936,0.60522775413436,0.438432052245667,0.235695544777983,0.233514396841252,0
402,2986559224,0.184006316720653,0.0206556688172732,0.77111834279891,0.609172816326921,0.909240603892869,0.106348363740302,0.386096053809344,0
403,2986575891,0.185506525319356,0.0210766035075093,0.76743345077122,0.613342485472761,0.904762709003908,-0.124691123362206,0.56833990660184,0
404,2986592558,0.187053861760027,0.0218432208232814,0.763865324713153,0.617287203986601,0.686736035395734,-0.29972622236937,0.932337289541676,0
405,2986609225,0.188547199022198,0.0228099057528054,0.760774172484701,0.620606413454333,0.630052511885301,-0.398613483290656,1.4300413813512,0
406,2986625892,0.189618236464241,0.0236535586791967,0.758260516199874,0.623318877569339,0.956258129897801,-0.706958140805555,1.84754394119289,0
407,2986642559,0.189996331379112,0.0243087777461231,0.756055099025178,0.625852350498898,1.51101162330181,-1.13438083031509,2.15310313141016,0
408,2986659226,0.189805623733703,0.0248157001264577,0.754055741716606,0.628297656060018,2.1561241792129,-1.13924799858115,2.00915762349698,0
409,2986675893,0.189170405716986,0.0252503388617959,0.752472014832684,0.630367230177677,2.61005464482091,-0.698288805266782,1.40252391009148,0
410,2986692560,0.18845837455816,0.0258775547803903,0.751823938926126,0.631327615485881,2.22042169643517,-0.229087270012247,0.905845002339274,0
411,2986709227,0.188219037876129,0.0270805659336178,0.752725431662726,0.630273481322086,1.08137576016691,-0.0194558100578165,0.733262993742214,0
412,2986725894,0.188569334403298,0.0291483839210846,0.755848257200396,0.626326903401579,0.249421768399359,0.114905140320235,0.738664697925191,0
413,2986742561,0.189162753627929,0.0320338128916686,0.761042883996668,0.619681382800513,0.239142949142561,0.240226494033448,0.39294957326633,0
414,2986759228,0.189616680236716,0.0352022672749137,0.767294716891757,0.611608643157297,0.548498813377003,0.148407372312523,-0.127205563946939,0
415,2986775895,0.190109314876484,0.0383955196511591,0.773274303413738,0.603681276956565,1.04111413995573,0.352241695403288,-0.861376369167102,0
416,2986792562,0.190959537801466,0.0414226667199334,0.778058495116075,0.597028973988841,1.10309666257758,1.15610708923688,-1.85541769892369,0
417,2986809229,0.192090104448534,0.0437093744995634,0.78139045153533,0.592131610879896,0.116016902445035,2.13682229169945,-2.3093305892565,0
418,2986825896,0.193504436361094,0.0450121376481867,0.783711174541521,0.588495314740624,-1.31735703411787,2.38816930981445,-2.00814371786669,0
419,2986842563,0.195197080227995,0.0458810652042864,0.785435011630115,0.585563720044016,-2.65456642481458,1.61968734429877,-1.29869211483582,0
420,2986859230,0.196898966410559,0.0466869559299245,0.786527218228733,0.583460418672785,-3.16858730806643,0.464965934018007,-0.463148310649358,0
421,2986875897,0.198267737416022,0.0468423135765359,0.786405543720408,0.583148371141117,-2.69692061173307,-0.64967797569202,-0.109536177932678,0
422,2986892564,0.198790022442778,0.0461167655335195,0.78437991296019,0.58575073457785,-1.79474517089766,-1.29801664524766,-0.166378095722079,0
423,2986909231,0.198318517645899,0.0451792827746939,0.780764550273264,0.590792108108499,-1.41387136806741,-1.36420158331646,-0.46552844628757,0
424,2986925898,0.197318660837744,0.0449114063441602,0.777109372721618,0.595944069937442,-1.78854797964925,-1.08089923542524,-0.849883411313184,0
425,2986942565,0.196296474341755,0.0454126479865635,0.775019903933832,0.59895703858477,-2.15536935662592,-0.739593300313047,-1.15066650557737,0
426,2986959232,0.195180661771598,0.046037122140146,0.774819074284743,0.599533564348142,-2.12542910377422,-0.640384268029853,-1.27084441262838,0
427,2986975899,0.193830803673531,0.0462255811657252,0.775662747081027,0.598865692775834,-1.82650571219522,-0.61548403054676,-1.1462214941561,0
428,2986992566,0.192177607989469,0.045763320211178,0.776421173025918,0.598451040259563,-1.30417915353394,-0.508149411373029,-0.905941086641721,0
429,2987009233,0.190303908556008,0.044810078564974,0.77609149292368,0.599548558382723,-0.785977503729388,-0.326236727028418,-0.443007335977225,0
430,2987025900,0.188330507676308,0.0433467676722239,0.774258509500388,0.602641218368768,-0.391330238510868,-0.0747991148212548,0.0555169628878059,0
431,2987042567,0.186352590204716,0.0410208746398477,0.771078617104572,0.607476556100626,0.00983782168359819,0.327802372224176,0.22673961390639,0
432,2987059234,0.184874908959216,0.0379054755885599,0.767329977686498,0.612853284482807,0.0592979172632604,0.83124584805635,0.174983833399443,0
433,2987075901,0.184023056713825,0.0347275595125759,0.764020142439805,0.617416175002131,0.0957337378925828,1.22377915144312,-0.266229552787544,0
434,2987092568,0.183616583221928,0.0319636887975931,0.761608465650327,0.620657569046016,0.286495559288836,1.38044468232183,-0.254712641652761,0
435,2987109235,0.183521112120016,0.029756238365963,0.760021934101503,0.62273688454206,0.855179617233498,1.06412406031882,0.356643827532685,0
436,2987125902,0.183495265707343,0.0280648390478094,0.75894396692056,0.624136128858998,1.44757808566027,0.342690857243213,0.638893762110562,0
437,2987142569,0.183418305208947,0.026877430658935,0.758151407006377,0.625173394419263,1.60572507578566,-0.114413790859198,0.678371699443359,0
438,2987159236,0.183023137786058,0.0262922410947479,0.757780950399826,0.625762958558829,1.46866821356629,-0.188592070657551,0.47385577833141,0
439,2987175903,0.182259052208371,0.0261644051117317,0.758007907911818,0.625716448030898,1.22515985953302,-0.216941903256537,0.305822954597234,0
440,2987192570,0.181458464312772,0.0263444665729027,0.758923134490922,0.624831553896499,1.11121536605121,-0.385504370229056,0.261793684263085,0
441,2987209237,0.180694779210669,0.0266217025515513,0.760420418742599,0.62321863617722,1.14008234179816,-0.543763946066865,0.329196533307666,0
442,2987225904,0.180015928888279,0.0269789265650068,0.762252181770342,0.621158606359312,1.0118275298923,-0.773792300322013,0.357418342024135,0
443,2987242571,0.179375498943943,0.0274755358878657,0.764244751175673,0.618869522279713,0.866496523506258,-0.986588800902319,0.366194205363072,0
444,2987259238,0.178636350825903,0.0280407809347452,0.766164246515728,0.616680724629172,1.04704636811522,-1.15422438017632,0.307688938517227,0
445,2987275905,0.177525337852035,0.0285029870504521,0.767644373749309,0.615137748476512,1.33250308397659,-1.22104531074126,0.16302268718268,0
446,2987292572,0.17609866689885,0.0286925264315312,0.768636158688561,0.614299970698287,1.35238920754772,-1.11977583530642,0.0311708878594882,0
447,2987309239,0.174736856040615,0.0288016244397921,0.769531142763651,0.613562806799385,1.25327982851956,-0.862830853915049,-0.139063744990953,0
448,2987325906,0.173765122310164,0.0288716492686064,0.770696735104784,0.612371335576602,1.11531222839707,-0.273733025416654,-0.5186922014443,0
449,2987342573,0.173239215469447,0.0288788901814837,0.772149831328871,0.610687171884438,1.06598593252103,0.475202499821226,-0.825091454401111,0
450,2987359240,0.173127551530649,0.028500158221452,0.773533092826195,0.608983699441205,0.883348974996802,1.09158643062879,-0.916296306322729,0
451,2987375907,0.173199779515591,0.0275621719131345,0.774498518721043,0.607778090715758,0.372035687741118,1.22242206695584,-0.540758095043855,0
452,2987392574,0.173458498090924,0.0263114015445262,0.774854222291433,0.60730617795799,-0.298362600396829,0.77376885572597,-0.0296876402735197,0
453,2987409241,0.173762640117091,0.0250332541115385,0.774955411296749,0.60714412752658,-0.702887322807641,0.209118429566041,0.253475387105096,0
454,2987425908,0.173717989019831,0.0240168753239148,0.775242363081342,0.606831548681047,-0.816238577913354,-0.282274846744515,0.260779845593795,0
455,2987442575,0.173241930946155,0.0235223284262647,0.775801226593106,0.606272537926704,-0.751213728855681,-0.452951103960373,0.0358113432794453,0
456,2987459242,0.172594886776927,0.0236089297266138,0.776751477520058,0.605236123893832,-0.615604384028602,-0.266607993749012,-0.215797671023344,0
457,2987475909,0.17201318951576,0.0242322076714488,0.77821532561879,0.603494133953283,-0.773906189755207,0.0829106489774912,-0.513749419625744,0
458,2987492576,0.171539752356079,0.0249509647822642,0.780003306189122,0.601287289947233,-1.28184388186653,0.320826245017153,-0.725895159510067,0
459,2987509243,0.171244759521562,0.0252323730569565,0.781987432849977,0.598777266227617,-1.50402901981537,0.274188768383097,-0.816651331306125,0
460,2987525910,0.171211297741008,0.0246496271279901,0.783950687354752,0.596238548908324,-1.22335471111281,0.092416630553266,-0.869797563067274,0
461,2987542577,0.171360929464924,0.0232624044315218,0.785162161393254,0.59465508718017,-0.803712756978191,-0.121338858270094,-0.677426014259725,0
462,2987559244,0.171302141780785,0.0213159745278631,0.784987093859509,0.594976022983486,-0.576087617692369,-0.207365221146335,-0.631598214822604,0
463,2987575911,0.170951798075852,0.0188439103714533,0.783464145181941,0.597163564687997,-0.678481292292969,-0.15949200477376,-0.379898616824819,0
464,2987592578,0.170531864144581,0.0159627350684397,0.781407794389676,0.600054941874135,-1.19092601300652,-0.000876413020857503,-0.180306610810892,0
465,2987609245,0.170140217822128,0.0130814509830895,0.780262711435307,0.601723593573693,-1.99254307572807,0.0606317812273239,-0.393291795929349,0
466,2987625912,0.169697205455033,0.0110171309317294,0.781196213567509,0.600677914688539,-2.61784407098998,0.029144796327166,-0.936400935352326,0
467,2987642579,0.168948553330428,0.0103153718936768,0.783991080398021,0.597250337200905,-2.3420159477704,0.204168581963537,-1.1261764696701,0
468,2987659246,0.167521925868007,0.0103750147969807,0.787070665825037,0.593589530247265,-1.12476688832123,0.366841177763559,-0.428864350397712,0
469,2987675913,0.165946798613374,0.00999876168041917,0.788764949153526,0.591786735050445,0.665189156138719,0.463138106926454,0.486028000530817,0
470,2987692580,0.164764773270698,0.00860857455327436,0.788303841208326,0.592752491238472,2.22500771682227,1.03574634629955,0.92963176571728,0
471,2987709247,0.163743824436195,0.00659741590743137,0.786213371294663,0.595829647516665,2.37678638975551,1.50249227312395,0.865215795913946,0
472,2987725914,0.16303105344028,0.00500022189273379,0.784018632386964,0.598924584121616,1.05969801278724,1.17301287138488,0.238692777593894,0
473,2987742581,0.162945983446421,0.00407793499625566,0.78264961359629,0.60074250662195,-0.0404332963542126,0.773597505213009,-0.0702400269749719,0
474,2987759248,0.163169812894248,0.00376208142549364,0.782641352989144,0.600694574217818,-0.373802462364649,0.262345701786814,0.230458274364098,0
475,2987775915,0.163217519086085,0.00401521076912922,0.784055800886521,0.59883254808173,-0.254257772052498,-0.440757236313308,0.355904667616471,0
476,2987792582,0.163179415719812,0.00455713452173709,0.786452032564198,0.595688602615438,0.0341134766123065,-1.00420590257209,0.136083494079826,0
477,2987809249,0.163401428601433,0.00522698659394042,0.789412823252651,0.591692526762368,0.311013747357529,-1.17181492640132,-0.0865233988442547,0
478,2987825916,0.163727781851344,0.00602144772321605,0.792572196783254,0.58735531708117,0.528678585615513,-1.05400397567515,-0.291268316142192,0
479,2987842583,0.163943615748186,0.00683547828155919,0.795346005613292,0.583524205536544,0.545475413051687,-0.721739344812389,-0.347453769722096,0
480,2987859250,0.164124698804428,0.00750217883516916,0.797314982299573,0.580771572613289,0.56448319518665,-0.203426436542727,-0.362113850507946,0
481,2987875917,0.164355268972472,0.00784665117828651,0.798580418395922,0.578960353548381,0.552208289107406,0.14699474211363,-0.552632320515541,0
482,2987892584,0.16460775108923,0.00791420743979396,0.79928033401895,0.577920929931164,0.509076115363499,0.385209046830347,-0.6338940700569,0
483,2987909251,0.164872747550861,0.00765887375525983,0.799309569772463,0.57780838557258,0.666265213382282,0.499496757583276,-0.47016931667964,0
484,2987925918,0.165003420724434,0.00698971095031835,0.798568427559382,0.578803491346937,0.882088441124459,0.408277337291752,-0.0798820509330224,0
485,2987942585,0.165189762377799,0.00627132292171946,0.797380810694112,0.58039370745312,0.581106569626497,0.0404964054329628,0.216411154598612,0
486,2987959252,0.165674077786051,0.00593241581144929,0.796340134287711,0.581686596815684,-0.031908687229774,-0.177381568181672,0.253074520199013,0
487,2987975919,0.166314727850573,0.0059239364646408,0.796008753465416,0.581957371878033,-0.343984810266501,-0.288745144667709,0.108948726443356,0
488,2987992586,0.16688514565054,0.00605692998153129,0.796605538876503,0.580975281050471,-0.213701256237421,-0.389089487615754,-0.02863491524616,0
489,2988009253,0.167335465943154,0.00620595712056592,0.797709986530871,0.57932642380848,0.141958448470866,-0.362158427232383,-0.133880398521597,0
490,2988025920,0.167697603414688,0.00630958626871952,0.798758409427709,0.577773923172899,0.449343060245484,-0.303779364863454,-0.190171489156002,0
491,2988042587,0.167932009504228,0.00627321984872747,0.799473485863861,0.576716249378572,0.56973264023129,-0.173481154958164,-0.310409338903812,0
492,2988059254,0.168022226485651,0.0060370524234316,0.799804417357657,0.57623344174043,0.568814762605623,-0.019566103785834,-0.39823401777966,0
493,2988075921,0.167954196514635,0.00562456194452481,0.799827910661108,0.576224839367015,0.433200995952506,0.096504288880465,-0.41202844666349,0
494,2988092588,0.167737771746494,0.00520172771100451,0.799609402974635,0.57659499185554,0.198201768324954,0.157913978765064,-0.400133441855438,0
495,2988109255,0.16744561900246,0.00490610885682933,0.799206917816534,0.577240155643181,-0.0464701000220928,0.234665360169855,-0.369714992304321,0
496,2988125922,0.166965196167488,0.00471884600889646,0.798733428773773,0.578035695714711,-0.168704232905166,0.293456920184889,-0.36865666907344,0
497,2988142589,0.166281909610694,0.0047151594333218,0.798183194133585,0.57899195366641,-0.234382376949982,0.251718149526474,-0.318159676555732,0
498,2988159256,0.165567632141835,0.00493417817479623,0.797490338249421,0.580148406419866,-0.184372808264441,0.299581372856486,-0.195813694935855,0
499,2988175923,0.164762726999781,0.00523578021589704,0.796604598871977,0.581590013199285,-0.068007629244594,0.297069170245712,-0.0839250269930754,0
500,2988192590,0.163897387106437,0.00562419693675985,0.795484893645128,0.58336077935605,-0.106493397109713,0.231202643361166,-0.0203780171339377,0
501,2988209257,0.163173437150494,0.00607808216021498,0.794197905984719,0.585309467252355,-0.1129647122567,0.203491549099298,0.00774289230581481,0
502,2988225924,0.162632691876213,0.0065404789972666,0.792924213975912,0.587178865898853,-0.0846778648373183,0.174798241565457,0.0820005482524586,0
503,2988242591,0.162245957930441,0.00705192074826255,0.791816680161386,0.588772336788334,-0.113448416037824,0.106304576638655,0.101810497021156,0
504,2988259258,0.161994237452821,0.00759155044043589,0.790892304883113,0.590075925174606,-0.132509467257689,0.0258923551166028,0.0712776931228987,0
505,2988275925,0.161842197176168,0.00808284614596556,0.790094805958354,0.591178457328244,-0.128912249448272,0.0262020493317565,0.00274602105265515,0
506,2988292592,0.161682433342389,0.00850358639276889,0.789391785130285,0.592154616072329,-0.155486117978953,0.0417798846992302,-0.0578664082810321,0
507,2988309259,0.161504706608195,0.00884861331961249,0.788799568143059,0.592986655063201,-0.240416128986832,0.0540626372635656,-0.12183678509503,0
508,2988325926,0.161307353913629,0.00914186261071428,0.788311578628985,0.593684443893276,-0.358979151976217,-0.0102801884017763,-0.192250217754908,0
509,2988342593,0.161132868321039,0.0094089394077395,0.78787631708731,0.594305123298456,-0.408750852493696,0.0372329595903519,-0.144824450459801,0
510,2988359260,0.160876993636038,0.00968666681586324,0.78746510424389,0.594914675397059,-0.406647518723767,0.0834716201228133,-0.118082450242089,0
511,2988375927,0.160540184215844,0.0100205792485889,0.787035400706106,0.595568396810009,-0.452103437863126,0.129107531981447,-0.190146284764239,0
512,2988392594,0.16018323890856,0.010355398906034,0.786603903866832,0.5962284747542,-0.556907816342621,0.185126559792306,-0.30888583356891,0
513,2988409261,0.15978176511704,0.0106427672203769,0.786212195482796,0.596847470226773,-0.648409938028609,0.166136419655146,-0.375894241457479,0
514,2988425928,0.159352131203802,0.0109382555923147,0.785855406641788,0.597426591889977,-0.65010156889646,0.10257521238486,-0.339515879046327,0
515,2988442595,0.158897049992504,0.0112653970677731,0.785409616961963,0.598127538169116,-0.626977957985258,0.0419262393099519,-0.287008441802065,0
516,2988459262,0.158473973528118,0.011489283048086,0.784766186366256,0.599079317641173,-0.575347330376367,-0.0571790856306646,-0.229666206590903,0
517,2988475929,0.158053965328044,0.0115659508797867,0.78386512541617,0.600367086023726,-0.533725683258062,-0.1396672185367,-0.191794922955408,0
518,2988492596,0.157597829578685,0.0114752323485407,0.782734551763302,0.601961680367229,-0.476540979353578,-0.188261917702874,-0.15159994424555,0
519,2988509263,0.157149843414424,0.0113499676801289,0.781442969879296,0.603756564995122,-0.444766442263708,-0.166556464444242,-0.166801426646845,0
520,2988525930,0.156797645152175,0.0112553877113194,0.780090079219141,0.605596633928949,-0.49939487810122,-0.0532189054482621,-0.206261657203082,0
521,2988542597,0.156545204491593,0.0111220006408806,0.778766377882479,0.607365482005879,-0.623325613780498,0.0158623474609514,-0.156994160350756,0
522,2988559264,0.156366528326828,0.0109285408934148,0.777582159289219,0.608930259855816,-0.695880568904847,0.0676726620852626,-0.182181722791522,0
523,2988575931,0.156307925225703,0.0108991945675105,0.776546893586926,0.610265484957089,-0.572121743413619,0.13103319643417,-0.171907813039201,0
524,2988592598,0.156375842963593,0.0109876567052873,0.775473064826117,0.611610491135283,-0.334643995592488,0.279594749718741,-0.18214603097752,0
525,2988609265,0.156455189731489,0.011078532122456,0.774112348151685,0.613309964187099,-0.156281811113989,0.381119083502685,-0.157080023567904,0
526,2988625932,0.156549995999359,0.0111383447904049,0.772424879670785,0.615408678272824,-0.174397344349323,0.394572170743869,-0.181761172765824,0
527,2988642599,0.156723115706612,0.0112279455745452,0.770684046815862,0.617541819008974,-0.306610399513932,0.398755708459428,-0.245536442584958,0
528,2988659266,0.156976609476608,0.0113490613356409,0.769185220836498,0.619341294385202,-0.41661660633217,0.39790263207197,-0.189940656782714,0
529,2988675933,0.157282729282602,0.0114730246849077,0.768031509393734,0.62069164111689,-0.301407145182532,0.383439722239423,-0.0305975644796271,0
530,2988692600,0.157611118610046,0.0116203261942639,0.767076068917596,0.621786143142122,-0.0779269477826954,0.306358539924934,0.0705782943328313,0
531,2988709267,0.158153118418065,0.0117697605065006,0.766148639632597,0.622788347563908,0.188442000469895,0.216616565139386,0.200620131788041,0
532,2988725934,0.158883164920728,0.0119359639894174,0.765216771488302,0.623744310836929,0.602166047704468,0.175697437089761,0.416573052019898,0
533,2988742601,0.159504951940488,0.0120598729163419,0.764118670181655,0.624928306009196,1.21660295637596,0.132327183080906,0.622211955774923,0
534,2988759268,0.159896156497675,0.0120021210003432,0.762502130246244,0.626801140393589,1.75565995654055,0.136553472025362,0.862399364485692,0
535,2988775935,0.160307159067604,0.0117670874228558,0.760260070727299,0.629418600982669,1.84822065058678,0.247845584585091,1.11917885180179,0
536,2988792602,0.161030539093486,0.0114381444218809,0.757887523722541,0.632095590648409,1.39563522004837,0.186025446793399,1.04114924896275,0
537,2988809269,0.162272157319613,0.0111660832397994,0.756018491005247,0.63401822276814,0.826359659731241,0.155404952795319,0.896785118843507,0
538,2988825936,0.164200008449704,0.011135948517012,0.755157334372568,0.634548460102979,0.459869808577975,0.0296107287661662,0.886445087078983,0
539,2988842603,0.166605702441821,0.0115513823566935,0.75525580112225,0.633796324027447,0.548089272171927,-0.227693425528692,0.827445428899727,0
540,2988859270,0.169399976857222,0.0123438627633561,0.755792353421457,0.632399553607138,0.863166089781203,-0.568677838581848,0.769066517809428,0
541,2988875937,0.172749591005141,0.0134320871031399,0.7560766964937,0.631130087115789,0.988222878270172,-0.900858148704807,0.713140215239873,0
542,2988892604,0.17657461303858,0.0148439585124392,0.755873881291626,0.630282268913769,1.12403377408895,-1.10882075730412,0.498421540095225,0
543,2988909271,0.180406688147748,0.0164376935640039,0.755278536166058,0.629871067686645,1.27836950150665,-1.2186537031021,0.131508539698983,0
544,2988925938,0.183810052771604,0.0179112814583962,0.754399661574428,0.629900151701051,1.43948218371815,-1.27048768123822,-0.0863832793244117,0
545,2988942605,0.186799515755524,0.0191155042248028,0.753406861846277,0.630173499073611,1.5898700718396,-1.17817066233735,-0.187704286096946,0
546,2988959272,0.189727569934838,0.020278603036951,0.752605192829032,0.630220319564727,1.47854627242137,-0.817647220379199,-0.441669064628362,0
547,2988975939,0.192640981719028,0.0216468134623185,0.752270294978292,0.629690615240953,0.930424532958913,-0.430610941672342,-0.879808466032457,0
548,2988992606,0.195471424957226,0.0233605146113952,0.752600850726265,0.628360698857261,0.432737315120659,0.15252597017694,-1.14138792255981,0
549,2989009273,0.198232112269291,0.0252697048162768,0.753795489961492,0.625985487848933,0.295816998345145,0.773082805976916,-1.13418852562844,0
550,2989025940,0.201001979016338,0.0269828263865987,0.755550787852857,0.622907006291174,0.494008884119279,1.23662492948749,-1.00521357817742,0
551,2989042607,0.20367336586691,0.0282559949403761,0.75706676531754,0.62013601059607,0.427377557398141,1.04360264367879,-0.881630000004258,0
552,2989059274,0.206294491639195,0.0291440008387643,0.757476958169539,0.61872600379866,0.235305604917842,0.652857393445084,-0.542762310731595,0
553,2989075941,0.208740628273883,0.0296869828571141,0.756480020299423,0.619099355551636,-0.152812682899482,0.189646031926571,-0.237713724408946,0
554,2989092608,0.210981878578749,0.0302698807647777,0.75453637154792,0.620681275085021,-0.56129917079182,-0.0890494568460099,0.0182972017747536,0
555,2989109275,0.213019568262287,0.0313065680733875,0.75240327847465,0.622520577068271,-0.721242221139988,-0.0704106075770206,-0.00237605367506572,0
556,2989125942,0.214649979030911,0.0325634766125399,0.750513260410016,0.624175337899264,-0.638402207795386,-0.0789888447567224,-0.116260610655903,0
557,2989142609,0.215921539387053,0.0337865914116771,0.749049672136485,0.62542860802951,-0.423313125422371,-0.119124383232867,-0.154071028124261,0
558,2989159276,0.216887910419874,0.034760769624937,0.748086881829108,0.62619273426317,-0.25674942985612,-0.209091471643827,-0.253444650747433,0
559,2989175943,0.217652131386417,0.035357674200083,0.74771064610778,0.626343495436168,-0.264710870195859,-0.231999667136129,-0.418157354263604,0
560,2989192610,0.218263876577216,0.0356536627313558,0.747966043748612,0.625808671971213,-0.341931438708999,-0.0213682804803141,-0.435369932309251,0
561,2989209277,0.218734017135678,0.035820028631688,0.748812326557138,0.62462184951585,-0.455352206828772,0.171150548719392,-0.38738159377484,0
562,2989225944,0.219046332034029,0.0358734998453578,0.750021543421971,0.62305656310981,-0.448872458987759,0.162014801466123,-0.297256973371462,0
563,2989242611,0.219309183410696,0.0358094105425825,0.751248172544346,0.621488013912663,-0.25278983612304,0.107691819202781,-0.217803771750612,0
564,2989259278,0.21941151676394,0.0356506559007012,0.752142068167223,0.620378857101311,-0.13423687270985,0.168588260218328,-0.313800541672381,0
565,2989275945,0.219272889848377,0.0352948628358314,0.752530492705533,0.619977039883986,-0.325204465714398,0.173869948971215,-0.435810210747607,0
566,2989292612,0.219162307179449,0.034935858777982,0.752768554326783,0.619747426376254,-0.571636699871519,0.108068675477337,-0.491335936556157,0
567,2989309279,0.219033933346637,0.0346045999677095,0.753204910184256,0.619281051686633,-0.470647587611461,0.0430799369525696,-0.517580761249002,0
568,2989325946,0.218711250665381,0.0341303011454934,0.753806151500334,0.618689580756261,-0.314481535592827,-0.152704291067659,-0.546709860844402,0
569,2989342613,0.218202917311779,0.0334494782549452,0.754349144237906,0.618244278476267,-0.201500069692225,-0.306487399162046,-0.460427922771033,0
570,2989359280,0.217590687887677,0.0325729856194829,0.754675951372945,0.618108001543211,-0.184551728603137,-0.362387719216086,-0.401430186328855,0
571,2989375947,0.216831232888411,0.031594511584655,0.754892594997639,0.618161122442644,-0.323918870449124,-0.279679673302681,-0.389120438173028,0
572,2989392614,0.215905042198803,0.0306212527395683,0.75514968951872,0.618220266615042,-0.453811415196284,-0.0563024324580609,-0.333816314599044,0
573,2989409281,0.214811525258724,0.0296484869100671,0.755523624991776,0.618191740416555,-0.512592525188839,0.146332076422744,-0.306686160784896,0
574,2989425948,0.213676103807773,0.0288113304455032,0.756047115508443,0.617984780581895,-0.51702278809768,0.315804567962227,-0.339983580233366,0
575,2989442615,0.212548491463112,0.0281065977149567,0.756621674649081,0.617702840687061,-0.39610132701926,0.359228714415938,-0.366621689678535,0
576,2989459282,0.211453965580056,0.0275641548685428,0.757136706379094,0.617471817705285,-0.199565334058965,0.310810714286882,-0.397253230602275,0
577,2989475949,0.210383462058111,0.027258572046004,0.75747400614065,0.617437364567201,-0.0587063789220898,0.243368285483487,-0.439557596457374,0
578,2989492616,0.209287054791007,0.0271699595192003,0.757503244826548,0.61777791808536,0.0911004148206636,0.158353804245303,-0.4995059173076,0
579,2989509283,0.208079548686927,0.0271642646199916,0.757062459069598,0.618725655855156,0.224135704283847,0.088808995099424,-0.496617562122806,0
580,2989525950,0.206710429040713,0.027152147907332,0.75607724117629,0.620387592368733,0.242461590541609,0.0702866233304262,-0.422368514663689,0
581,2989542617,0.205256563421132,0.0271872528255048,0.75456012345764,0.622711503462029,0.210349889179155,0.0702826569914998,-0.377915125183403,0
582,2989559284,0.203806758237184,0.0272658313925168,0.752671157162921,0.625464234717185,0.217475208967805,0.190598545114035,-0.349142602908159,0
583,2989575951,0.202358588541634,0.0275206610701863,0.750610859813591,0.628392355131409,0.106681385540172,0.254155853898389,-0.327840553927595,0
584,2989592618,0.200916159434452,0.028161953701285,0.748430112452641,0.63142059517881,-0.0969955692229121,0.456280750546713,-0.283192986456745,0
585,2989609285,0.19953949221427,0.0292769564110964,0.746130324134406,0.634520598780891,-0.194065865561327,0.591618111132153,-0.162908158142871,0
586,2989625952,0.198211417608386,0.0308289623860194,0.743770415928605,0.637626361905831,-0.197487812260566,0.534685757309852,-0.105130371563415,0
587,2989642619,0.196914213411357,0.0327098640250589,0.74134255455079,0.640754300933016,-0.146519306152085,0.449072113154149,-0.131805231504408,0
588,2989659286,0.195693039495708,0.0348210824070125,0.738805496476548,0.643939566177585,0.0203440965262801,0.382932129604234,-0.151721792425794,0
589,2989675953,0.194576667101438,0.0371749194905644,0.736258069891836,0.647056412146355,0.135220041976199,0.289055456812925,-0.230902584994001,0
590,2989692620,0.193641264443495,0.0399394627779776,0.733736651475139,0.650029558020081,0.110867209734561,0.300665120845122,-0.242625831683873,0
591,2989709287,0.192699070791435,0.0430868495752171,0.731161148205297,0.653003803101415,0.0723898297675549,0.35537737720182,-0.28748002999713,0
592,2989725954,0.191632338385829,0.0465092312198878,0.728440419619518,0.656116219400691,0.0588192908357959,0.385983282345034,-0.279961459585606,0
593,2989742621,0.190579590066406,0.0499835692992514,0.725504528809162,0.659412042146352,0.0817894131302769,0.321748786452424,-0.221411554918304,0
594,2989759288,0.189620401956183,0.0534767470453828,0.722373004171874,0.662843558866737,0.146696235068596,0.175224502603368,-0.210574249574693,0
595,2989775955,0.188709699018848,0.0571214462480307,0.71902220528347,0.666432935998848,0.0870064170387017,0.0446784551748115,-0.226765036391391,0
596,2989792622,0.187822297353655,0.0609172566278487,0.715434196463346,0.670198316166623,0.0264758929309042,-0.0671286093703338,-0.138709674812534,0
597,2989809289,0.186949893642797,0.0647467056915853,0.71172148219561,0.674025320852501,0.0643323599113216,-0.165079367317193,-0.0704739473707378,0
598,2989825956,0.186004424998662,0.0685134727079741,0.707850451770623,0.677979347669629,0.119511481945499,-0.219234166530512,-0.0644307088589291,0
599,2989842623,0.185047376169578,0.0720313865381459,0.703837360849203,0.682042460114453,0.146087881905657,-0.2919751849031,-0.048102425603171,0
600,2989859290,0.184092361231379,0.0753586285773892,0.699791556491893,0.686092455211282,0.134714683208807,-0.357610493608336,-0.0761879658110636,0
601,2989875957,0.183115771916076,0.0785996597313544,0.695861325186146,0.689976610962919,0.194070182695932,-0.396039183802841,-0.0545562503978833,0
602,2989892624,0.182134768554678,0.0816744716895401,0.692087074128559,0.693665401026993,0.299664925585856,-0.477115746677384,0.0750397319290978,0
603,2989909291,0.181105919563847,0.0845980586672741,0.68841949253509,0.697224796365126,0.444271862136447,-0.491658146224726,0.151902715496274,0
604,2989925958,0.180000789144895,0.0873381729715863,0.684696580033389,0.700829760169886,0.469536424359835,-0.481209632694653,0.263178999165529,0
605,2989942625,0.179034428495481,0.0898637281152107,0.680919750453101,0.70442847559239,0.398330913554255,-0.380289611377269,0.369364744908451,0
606,2989959292,0.178100429580258,0.0920172375579534,0.677449076974957,0.707725803600031,0.44115744705554,-0.351683976378507,0.46927604752128,0
607,2989975959,0.177172250816424,0.0939624609727873,0.674440322093627,0.710571109321807,0.449167268267564,-0.490361562115069,0.455996267138698,0
608,2989992626,0.176247359564839,0.0958387535130672,0.671956715803472,0.712899693966897,0.481401180539755,-0.563973878905488,0.351634885718114,0
609,2990009293,0.175394113555925,0.0975705745630225,0.669839653130722,0.714864831281472,0.608629312870299,-0.43399042625325,0.446670043764725,0
610,2990025960,0.174599563461117,0.0989971116402189,0.668106242587212,0.716483505003485,0.714663229144315,-0.355072256867113,0.648877924582552,0
611,2990042627,0.173852299205002,0.100253581273272,0.666815361286575,0.717692044999297,0.724260724028802,-0.34597124378913,0.752182070967069,0
612,2990059294,0.17319168316599,0.101440949973431,0.665986903682805,0.71845376933635,0.694965483017528,-0.341309689734289,0.725710510410414,0
613,2990075961,0.172633370558523,0.102572546504241,0.665696811276404,0.71869628323073,0.630269055451561,-0.348029779099356,0.706767731415273,0
614,2990092628,0.172191321633286,0.103617552910268,0.665895311738244,0.718468499857925,0.555942991099031,-0.354130928773365,0.72955045093152,0
615,2990109295,0.171841315326701,0.104470322286544,0.666526940196049,0.717842846381454,0.428127685645806,-0.399433983991402,0.67788175252817,0
616,2990125962,0.171556780224333,0.105273270848393,0.667577132358854,0.716816979399533,0.142641318527544,-0.488005133669037,0.520093628258467,0
617,2990142629,0.171436454143455,0.106086614025734,0.668903553899233,0.715488090813711,-0.21088778828968,-0.480296410114192,0.446004347228816,0
618,2990159296,0.171438862272005,0.106511467222089,0.670169916380345,0.714238270489505,-0.315731452276949,-0.328781427325467,0.42650465335012,0
619,2990175963,0.171372169050533,0.106142507768928,0.671172769895058,0.713366988772843,-0.243724318030365,-0.181370716683531,0.573605986280906,0
620,2990192630,0.171227157882647,0.105082396035234,0.671841465076934,0.712929166362412,-0.309153237113059,-0.189055362642188,0.734020187659465,0
621,2990209297,0.171299535955547,0.103647407941272,0.672414126183103,0.712581873694443,-0.916722487809026,-0.116376286725235,0.474789410451432,0
622,2990225964,0.171735877756681,0.10209469404273,0.673461378091992,0.711711482243963,-1.84660174874643,0.0301336268226196,-0.0252423449249288,0
623,2990242631,0.172434258036351,0.100601828757437,0.675369596878265,0.709944791035614,-2.23799790896543,0.247141254644057,-0.290056587628697,0
624,2990259298,0.173288260628039,0.099072127998143,0.67831975800404,0.707133790794761,-1.98450032762999,0.346670228921666,-0.314119371646503,0
625,2990275965,0.174249332592285,0.0975971891931422,0.68173774468262,0.703807932768448,-1.59631776000164,0.319622399869767,-0.359680237504374,0
626,2990292632,0.175212484759848,0.0963300064734777,0.684722386374248,0.700839759599193,-1.4007861991927,0.516392082684524,-0.557552983614993,0
627,2990309299,0.176195530616245,0.0953188655966462,0.686986961517457,0.698511534305082,-1.50505657038212,0.927137159705153,-0.931835204399383,0
628,2990325966,0.176890081973847,0.094631447601331,0.688900455385746,0.696542138419115,-1.77352184513611,1.33152216142827,-1.19816376371034,0
629,2990342633,0.177065976971201,0.0942847852448765,0.690692215303367,0.694767790552994,-2.12577985207051,1.29722271547836,-1.31087395915709,0
630,2990359300,0.176714528593787,0.0938467852388718,0.692187367528661,0.693427288558756,-2.13761324608769,0.739127589159952,-1.16548532578056,0
631,2990375967,0.176223872407355,0.0933436609371993,0.693129785655628,0.692678286070511,-1.91586165854778,0.106138547192201,-0.64443077184526,0
632,2990392634,0.175849661366909,0.0929664784449702,0.693461978613122,0.692491599010889,-1.7532577949841,-0.117919811133462,-0.318820163837647,0
633,2990409301,0.175305124881982,0.0922952608478172,0.693063451850693,0.693118135474717,-1.64434018819014,-0.234998954305707,-0.364283009412851,0
634,2990425968,0.174719285011983,0.0910941415190797,0.692187040399057,0.694299740695182,-1.57820658092827,-0.239145342582959,-0.464313683726152,0
635,2990442635,0.174204409109007,0.0894369068327584,0.691240011624201,0.69558688161361,-1.34771456387571,-0.0626092008455146,-0.425355195588883,0
636,2990459302,0.173650343195685,0.0875092377840052,0.690570000082337,0.696635318223792,-1.17388187815487,0.176338600032864,-0.315594322683231,0
637,2990475969,0.172958905096749,0.0854605275438358,0.690182292661796,0.697445423152071,-0.930379371104625,0.400516146177204,-0.247409305303873,0
638,2990492636,0.172112044596019,0.083290060382623,0.689876361123292,0.698219747865758,-0.308332436043388,0.720706435295666,-0.0821634814256391,0
639,2990509303,0.171259959865416,0.0811327914894517,0.689509550248529,0.699045117576896,0.36881192381014,1.05446278970288,0.285349927343761,0
640,2990525970,0.170598355453305,0.0793923582279461,0.689145339339914,0.699765500605529,0.442238863762364,1.13307837859351,0.554828747680272,0
641,2990542637,0.17041188861556,0.0782085285408643,0.689039147847983,0.70004876045521,0.0653083319833968,0.835608751682217,0.50145467907888,0
642,2990559304,0.170761014984026,0.0773826405963764,0.689545283494777,0.699556934570779,0.0532847930460975,0.430609837723774,0.388763570019532,0
643,2990575971,0.171310711793365,0.0767709998723115,0.690893255079966,0.698158551969727,0.325066909661519,-0.0671668006871547,0.376076256204577,0
644,2990592638,0.172073977292657,0.0764765875685079,0.692774563573055,0.69613596513808,0.71327664323144,-0.437926559792901,0.356144248572701,0
645,2990609305,0.17309127126386,0.0763973317098242,0.694760821779416,0.693909403337547,1.18389664792797,-0.670630365562412,0.213261070974463,0
646,2990625972,0.174232681173316,0.0763338992535965,0.696552416619637,0.69183151094558,1.57080905035172,-0.796915082243349,-0.0488794832711851,0
647,2990642639,0.175357631012027,0.0759925651889052,0.697719653273866,0.690407210794656,1.94957477445534,-0.724346507435877,-0.0749490867801159,0
648,2990659306,0.176438388487213,0.0751736380265053,0.698085469521443,0.689851503192478,2.18515495546065,-0.541091855411981,0.0169185465085016,0
649,2990675973,0.17743390188307,0.0738280410285639,0.697792790247637,0.690037573396444,2.08910903099849,-0.342299581513096,0.00120178448413116,0
650,2990692640,0.178551201148074,0.0721696760198876,0.697211646980793,0.690512075018312,1.81044350164672,-0.105732812924446,-0.0235395864719827,0
651,2990709307,0.179831857442179,0.0704870530185122,0.696753319542645,0.690816104409825,1.45749438155392,0.017607729720486,0.0378646909801577,0
652,2990725974,0.181129379281481,0.0687999673632863,0.696418796155814,0.690984495349066,1.11507398618529,-0.0468366776423109,0.219469585612193,0
653,2990742641,0.18229711659866,0.067060292917528,0.696106493337215,0.691163098210108,1.00982182033525,-0.167850600492949,0.433282499702246,0
654,2990759308,0.183368425310569,0.0652606947169467,0.69579737089644,0.691363204819136,0.935039199980717,-0.476066376749798,0.563391739133338,0
655,2990775975,0.184455006259795,0.0634259579456964,0.695455445451648,0.691588911070746,0.872078480761438,-0.767179768727483,0.622828390125319,0
656,2990792642,0.185498024191179,0.0616346264124596,0.695379241689702,0.691548527635783,0.824531903445111,-1.00720752378353,0.611774476159304,0
657,2990809309,0.186359060730181,0.0599502778589613,0.695777266854281,0.691064584244617,0.82567935944469,-1.1659681074526,0.514196728638263,0
658,2990825976,0.1870642658608,0.058299748905295,0.696745674729237,0.690038813735604,0.950633345643764,-1.15439292432897,0.434758652157096,0
659,2990842643,0.187487893855279,0.0565414557879242,0.698299378261325,0.68849788071928,1.08194024244776,-1.07554947348273,0.391496991651371,0
660,2990859310,0.187608608003988,0.0546195603935468,0.70032316709065,0.686561851154973,1.098846386973,-0.976435873364857,0.42180947323179,0
661,2990875977,0.187434572079884,0.0525671979347833,0.702838176981108,0.684195489511871,1.20428909916332,-0.836258191221502,0.341172843830913,0
662,2990892644,0.187076607203695,0.0504345400727468,0.70587832358044,0.681318202093612,1.36153756515436,-0.616028294480028,0.273549663190364,0
663,2990909311,0.186622643807446,0.0482845124891171,0.709432266708991,0.677898557030586,1.4512551115155,-0.278717381967567,0.287112290746553,0
664,2990925978,0.186076869263009,0.0461465253736958,0.713273595919185,0.674156268446513,1.42943643347469,0.103436004947189,0.30138502003701,0
665,2990942645,0.185608756999359,0.0439297708395191,0.71727671686275,0.670174362390665,1.1150288520881,0.31403663802249,0.26138004877207,0
666,2990959312,0.185298093332437,0.0417556208609517,0.721505778432386,0.665845700160748,0.770746451188531,0.388317266405035,0.176010209564731,0
667,2990975979,0.184958423052103,0.0395022824255045,0.725888845716355,0.661298219481825,0.519128338231484,0.280874231626472,0.0445467492581129,0
668,2990992646,0.184557518855189,0.0373014789854583,0.73045085608969,0.656497272452334,0.452603548989767,0.061497157135927,-0.0497785762922353,0
669,2991009313,0.184051253783712,0.0355078147171148,0.735215077567504,0.651400890997292,0.514674597040085,-0.0690052050834768,-0.150080687903301,0
670,2991025980,0.183419522376327,0.0339912065450898,0.739900165796788,0.646335533096189,0.767507015379605,-0.0545058887368049,-0.116309613484966,0
671,2991042647,0.182714781363453,0.0327536704236322,0.744616531352671,0.641162013052398,1.01170564673646,0.0756685808748951,-0.112089055194008,0
672,2991059314,0.181840020110138,0.0318911810018221,0.749386948177928,0.63587448569763,1.00282909169737,0.136740459756408,-0.358929532510915,0
673,2991075981,0.180939815026662,0.0313152141481151,0.753876187364303,0.630833444600108,0.81321616306265,0.168713312174826,-0.539608622382177,0
674,2991092648,0.180056158078607,0.0310332246036886,0.757882552690279,0.626283286729205,0.733330314377664,0.214121053144978,-0.554155665382865,0
675,2991109315,0.179023486776518,0.031043409439621,0.761144017990453,0.622612786401059,0.839117827658179,0.264932735025645,-0.468674040278499,0
676,2991125982,0.177850472594624,0.0312289355261026,0.763474419124054,0.620081264292805,1.03310919149469,0.265700954626436,-0.247479025880749,0
677,2991142649,0.17666296446278,0.0317025610521173,0.764964764578239,0.618558043811346,1.09083417432499,0.213483677998115,-0.0524798252866913,0
678,2991159316,0.175422335183465,0.0323888875358799,0.765764817135783,0.617885271810203,0.975900560482795,0.0367709814255104,-0.0614886492057335,0
679,2991175983,0.174165712962288,0.0331606934396324,0.76607660579944,0.617813326892314,0.766631548126795,-0.0727857864449016,-0.123225215834679,0
680,2991192650,0.173011325874474,0.0341162954072006,0.766289941314075,0.617821078749921,0.549321079472644,-0.0272712877894785,-0.0526149800673908,0
681,2991209317,0.171959332991818,0.0353563894568407,0.766588418936162,0.61767476026995,0.385975445760522,0.0789599259350771,-0.0172293323299953,0
682,2991225984,0.171002889513222,0.0368762535216404,0.767053820925565,0.617273512721733,0.416154447835248,0.195892912716627,-0.0609058796197246,0
683,2991242651,0.170280956422516,0.0386552724821598,0.767645115982439,0.616628852469191,0.635237573437076,0.269451166702787,-0.11201615119989,0
684,2991259318,0.169845386433771,0.0407544574428259,0.768262440854773,0.615844494071004,0.77210188122615,0.180311444121052,-0.156522715154582,0
685,2991275985,0.169626968778063,0.0432171892439527,0.768754140452788,0.615122782502577,0.615524938576132,0.13029724999431,-0.212165778570544,0
686,2991292652,0.169488183481943,0.0460226804915402,0.76902540073055,0.614618256783494,0.44108565958615,0.291846298960135,-0.322434611320816,0
687,2991309319,0.169299007969079,0.0491707584305607,0.768959727441637,0.614508763150642,0.292670684984013,0.687676745402359,-0.409640729478781,0
688,2991325986,0.168996078829049,0.0525272298807716,0.768214815356314,0.615245652506803,0.0937645149362173,0.887400866048319,-0.455457188960757,0
689,2991342653,0.168803466246427,0.0560044569105535,0.766632557596453,0.616963055800318,-0.219729248800368,0.944636243454966,-0.435722116195788,0
690,2991359320,0.168887515548699,0.0596538525635475,0.764537526179458,0.619193666012103,-0.612415461489819,0.966357196640719,-0.277472656669835,0
691,2991375987,0.169241206785178,0.0635386536486001,0.762379436787723,0.621367723479144,-1.00179618083897,0.774148375938725,-0.123908292104507,0
692,2991392654,0.169526004089864,0.0677050656700176,0.76018788286621,0.623531347057492,-1.14083096942951,0.488045768386544,-0.213479940374926,0
693,2991409321,0.169692206899078,0.0721221799546839,0.757757057329755,0.62594503604011,-1.26443894796464,0.268604178536926,-0.0993788648289175,0
694,2991425988,0.169906175049494,0.0768210259261095,0.754845748920078,0.628838864092382,-1.40813796823478,0.336908780216139,0.217179493164394,0
695,2991442655,0.170039290553812,0.0814153316307017,0.751634588479895,0.632062994363757,-1.43121685613241,0.106520051220948,0.211708555961787,0
696,2991459322,0.170081310399138,0.0854090099775471,0.748466568196448,0.635275881141255,-1.23245958889215,-0.336896672444989,0.122362339019826,0
697,2991475989,0.170181217730726,0.088882369254256,0.745625625361443,0.638107126093883,-1.15000370707398,-0.496589258764476,0.0591901871801005,0
698,2991492656,0.170147883154818,0.0921109447687171,0.743086208602847,0.640615452745243,-1.31419901319757,-0.459840999000074,0.0473846711063088,0
699,2991509323,0.169967826642581,0.0949799200753431,0.74066643708867,0.64304197503682,-1.42403799859903,-0.379776982283946,0.15100389059196,0
700,2991525990,0.16981063002634,0.0972581291481126,0.738587655067796,0.645130593001232,-1.32052537325367,-0.220552996944234,0.329256442371304,0
701,2991542657,0.169562359648813,0.0990583310018094,0.737060840102333,0.646666352331019,-1.19168875842255,-0.16189288445391,0.248348838136847,0
702,2991559324,0.169346363199932,0.100468011334203,0.736061155142658,0.647643392508225,-1.2420161643818,-0.191834664671392,0.0414221709310345,0
703,2991575991,0.169332306205772,0.101554117994811,0.735509641862001,0.648104079543835,-1.14221972227528,-0.281743540441572,-0.0696611817313643,0
704,2991592658,0.169423989086612,0.102171989457175,0.735289618137385,0.648232654184993,-0.700325851349615,-0.438540862647543,-0.0302999334248635,0
705,2991609325,0.169644387406107,0.102249689471985,0.735087874235781,0.648391548353316,-0.218903991083087,-0.582155389113534,0.112846049617706,0
706,2991625992,0.170038673150792,0.101580809395849,0.734616740744584,0.64892713998831,0.133644706015847,-0.583791565135151,0.0636801339075748,0
707,2991642659,0.170312250391023,0.100177892446743,0.733957585875822,0.649818735777147,0.420499492736737,-0.271963338555158,-0.243443488609858,0
708,2991659326,0.170115810581337,0.0983387250155194,0.733613003662423,0.650539827381825,0.161302861592471,0.0941393492284419,-0.525529720528905,0
709,2991675993,0.169806182274386,0.0963103998005921,0.733667994819945,0.650862075042424,-0.653363732615136,0.105964876516952,-0.430638484919146,0
710,2991692660,0.169600125710534,0.0943405025746088,0.734324921065201,0.650463355797641,-1.27199374162224,-0.0210955699990716,-0.185586861001385,0
711,2991709327,0.169216890007041,0.0924307182551335,0.735365510837601,0.64966127476535,-1.30329889423679,0.0590217173569572,0.247124745268957,0
712,2991725994,0.168353632177074,0.0907470160618342,0.73662922404385,0.648690542472461,-1.17857108362979,0.0640170028907123,0.333096655558862,0
713,2991742661,0.166952787871976,0.0894888012519499,0.73775338439212,0.647949430812495,-0.907823953770814,0.0617799107890221,0.0182374913329702,0
714,2991759328,0.165296137600108,0.088686645840499,0.738684240707247,0.647423708459002,-0.6608625733315,0.0723030029984736,-0.163866139516745,0
715,2991775995,0.163368604317428,0.0881821912172636,0.739707402731402,0.646813387786509,-0.559739194457842,0.173103734939678,-0.0441774138636138,0
716,2991792662,0.161157210873506,0.0879375261896659,0.741539656429208,0.645301699063287,-0.61386492355523,0.243713011105596,-0.0601137491848632,0
717,2991809329,0.158780935356522,0.0878183190894009,0.744696105378697,0.642264951584173,-0.794230272693844,0.279250151108997,-0.0328519877822427,0
718,2991825996,0.156471703063929,0.0876553820034854,0.749320588955231,0.63745728885462,-0.754483595114094,0.153519858806341,0.0568672095549021,0
719,2991842663,0.154294286184682,0.0876336473779864,0.755213226812087,0.631004436708702,-0.425065034755308,-0.0624047172925329,0.138904653051742,0
720,2991859330,0.152285836730347,0.0875515196468166,0.76179216358842,0.623551485311474,0.136778245849862,-0.0899038366518894,0.207760340724317,0
721,2991875997,0.150720506850222,0.087171899134668,0.768535722964402,0.615659996543264,0.727169711638997,0.00361431149044836,0.344420804558168,0
722,2991892664,0.149851996211258,0.0860405883409907,0.775367216275501,0.607410138468744,0.803653928848025,-0.0664206357655547,0.555436749379849,0
723,2991909331,0.149622241922807,0.0841015927913449,0.782813651412057,0.598116120811731,0.634189818779889,-0.0725418207971234,0.55184631555887,0
724,2991925998,0.149608693413578,0.0818958657820944,0.791459953917534,0.586942456606896,0.38275902634317,-0.111047666594032,0.0326197683728503,0
725,2991942665,0.149674821328891,0.0794381372216685,0.800603294311417,0.574735935323887,0.235067095651109,-0.257043266097696,-0.192711119605649,0
726,2991959332,0.150232780477383,0.0767219558100144,0.809429246346225,0.562466130825762,0.349573020519408,-0.25307425246667,-0.0260555088487866,0
727,2991975999,0.151216722466423,0.0736515520624851,0.81741682466182,0.550943451258918,0.774706970989667,-0.0987471330171844,0.169315326481819,0
728,2991992666,0.152446518439522,0.0700243731503089,0.824577567393848,0.540304063959747,0.658999727976752,-0.112059939397627,0.3380287890979,0
729,2992009333,0.153621230807656,0.065955066276615,0.831111795557153,0.530380646294105,0.507553246645745,-0.242421463316293,0.175201715742077,0
730,2992026000,0.154711513193107,0.0615612673455861,0.836921998432838,0.521379062283372,0.644076812952643,-0.323567780468487,-0.227909011022651,0
731,2992042667,0.155966799417675,0.0568374667072259,0.841829262299084,0.513582858937769,0.834611949183612,-0.198591586558818,-0.316791739797671,0
732,2992059334,0.157334293400909,0.0518560635823583,0.845924309485876,0.506921030744063,0.98818773241792,0.128650646384851,-0.299628400001654,0
733,2992076001,0.158673110650872,0.0467078644979836,0.849539376081126,0.500923215511225,0.700732367679797,0.300540423601702,-0.348179449344242,0
734,2992092668,0.160046218134776,0.0414305800635349,0.852708037267291,0.495537807110739,0.360718122980533,0.213828317832916,-0.303667397729182,0
735,2992109335,0.161704445088051,0.0362025054726269,0.855338348179029,0.490853706485589,0.294584317898637,0.00634149916634388,-0.0862217433286601,0
736,2992126002,0.163474949961882,0.0309279127530879,0.857093306207459,0.48755560647178,0.4704737332767,-0.0406437041587251,0.00561069036520897,0
737,2992142669,0.16539154207754,0.0257085158864724,0.858137417873987,0.485370870638829,0.354781775069241,0.0255962608784863,0.0770316697141324,0
738,2992159336,0.167344353623284,0.020866614992799,0.858504073334825,0.484284222081063,0.0460449026356913,0.214784690903702,-0.00175889982990127,0
739,2992176003,0.169278451344561,0.0163736394626777,0.857934576529375,0.484793741952694,-0.115682169958681,0.447457197363491,-0.0849624101743924,0
740,2992192670,0.171140471361868,0.0120028232549786,0.856351134057925,0.487062220351418,-0.306298214453057,0.407999956925355,-0.0877175715308819,0
741,2992209337,0.172995819851044,0.00778684606860613,0.854145381067198,0.490354442565723,-0.423132467293207,0.457125397539525,-0.18513664288818,0
742,2992226004,0.174877255620929,0.00372576424321108,0.851642362834361,0.494074235285754,-0.352213962061063,0.457606651433167,-0.377357188720416,0
743,2992242671,0.176789958605366,-0.000245971557496673,0.84921761056776,0.497568789149692,-0.273979332826386,0.289687932280192,-0.549596217759478,0
744,2992259338,0.178407306133727,-0.00374381771890865,0.847206529721126,0.500397754736051,-0.233898739458938,-0.0411975535615818,-1.05398795780068,0
745,2992276005,0.179849301976441,-0.00701137953131155,0.845511139555495,0.502708645264057,-0.376965380762165,-0.13302134157738,-1.10542831459944,0
746,2992292672,0.180782720720366,-0.009923203972305,0.844024107489476,0.504819219016531,-0.518580822674945,0.156531861115834,-0.770964599209748,0
747,2992309339,0.181007451892717,-0.0121957868275431,0.8427352055903,0.506838177727011,-0.826755578108413,0.380309140094603,-0.507974925130558,0
748,2992326006,0.180561767072265,-0.0140244290733974,0.841386530904968,0.509185103152684,-0.684609685338539,0.430517242222734,-0.237703465559972,0
749,2992342673,0.179792083941574,-0.0157024975129048,0.839841344397585,0.511951906300055,-0.513414134706792,0.506491645486225,0.183025797222382,0
750,2992359340,0.179321341992532,-0.016144643847022,0.838971426087174,0.513527168697337,-1.02448800873387,0.49424047909617,0.19074584807214,0
751,2992376007,0.178872980428196,-0.015464448344932,0.83874580101197,0.51407274679262,-1.19535035742138,0.409083030045215,-0.0483617011347579,0
752,2992392674,0.178165501238193,-0.0142975785976816,0.83904552354007,0.513863058452499,-0.729294625994775,0.172677011508234,-0.144933001672237,0
753,2992409341,0.177082666987399,-0.0128604364809363,0.839690127108343,0.513222007188823,-0.35309403550632,-0.179521014040611,-0.340702267170988,0
754,2992426008,0.175935328936896,-0.0114079047407518,0.840613353164518,0.512138467821738,-0.0262614905137868,-0.227022914286132,-0.411849306734593,0
755,2992442675,0.174832578188378,-0.00996973180059578,0.84189108920957,0.510444480782536,0.412416239438127,-0.217925558191782,-0.376842387178241,0
756,2992459342,0.173494202157228,-0.0084318130227764,0.843159184392255,0.508833230166784,0.72804064136696,-0.00294544315275419,-0.342136405426846,0
757,2992476009,0.171911819512287,-0.00673988844199309,0.84390125765563,0.508164901919653,0.663708334642739,0.293663667180582,-0.129476415823431,0
758,2992492676,0.170301027066134,-0.00502331947608302,0.843954244760554,0.508638928113357,0.223172143813773,0.523789690922982,-0.0303126840490573,0
759,2992509343,0.168843669322626,-0.00336031873345217,0.84360812254588,0.509711545054942,-0.167589532833352,0.73673528023288,0.0282900660439787,0
760,2992526010,0.167680844842836,-0.00165384800446339,0.843193234706895,0.510789161987697,-0.344500224727003,0.698781891399803,0.147093798712157,0
761,2992542677,0.166830585460818,-5.80113660464471e-05,0.84277188561546,0.511764693199564,0.141629807840758,0.320966802820124,0.133811918553044,0
762,2992559344,0.166292703202758,0.000998913111146755,0.842157305358663,0.512949132044446,0.733864369844688,-0.24992490433513,0.165125482975205,0
763,2992576011,0.166025084434131,0.00191748955456915,0.841418816603193,0.514243492558272,0.848049198855061,-0.502625489343616,0.229801275457218,0
764,2992592678,0.165869236442802,0.00288541622149971,0.840689377711215,0.515480786236151,0.596417320017344,-0.52816501216877,0.0429811789583198,0
765,2992609345,0.165768537272702,0.00355024258439118,0.840049458812042,0.516551153882804,0.201248487459714,-0.488537182341003,-0.0561921108523801,0
766,2992626012,0.165622070242193,0.0038392452865525,0.839498746642725,0.517490525932228,-0.00337664358521565,-0.479845994884619,-0.0328653375750169,0
767,2992642679,0.165549645767081,0.00381488578110178,0.839172453460376,0.518042811731004,0.0385241130231324,-0.47065171278016,0.027048963034149,0
768,2992659346,0.165688724592289,0.00361845515592658,0.838834328429452,0.518547126858857,0.293608953755049,-0.295091435708954,0.0453468439057833,0
769,2992676013,0.165917179822893,0.00340885554060838,0.838025162411036,0.519782354750023,0.332965471112956,-0.18690877931152,0.192767549554341,0
770,2992692680,0.166296614951722,0.00324146528233899,0.836610595376167,0.521936433354444,0.195768304514024,0.0820694957745258,0.317880739112187,0
771,2992709347,0.166811197863598,0.00306264494948353,0.834882736889657,0.524533564337746,0.069753558358023,0.237774438408565,0.273395174080026,0
772,2992726014,0.167689644630889,0.00277990705165562,0.833078241017521,0.527117728352503,-0.276051359683395,0.0498657743233407,0.0166892599037599,0
773,2992742681,0.168948474891075,0.00222448427689798,0.831168992262508,0.529725939333736,-0.434996754060147,0.122123212402993,0.0496064985610654,0
774,2992759348,0.170092797608241,0.00176655596094703,0.82950161503502,0.531970290651774,-0.0243790381730844,0.143556266101257,0.251375229199583,0
775,2992776015,0.171147316082666,0.00117586978987821,0.827916302142091,0.534099064009014,0.260649234979776,-0.125965320863648,0.0992075816112569,0
776,2992792682,0.172058935941012,8.2051912163272e-05,0.826374985702335,0.536190356903028,0.231452033866046,-0.336518561798929,-0.186303574495853,0
777,2992809349,0.172727270001853,-0.000546270359900101,0.825216558966582,0.537757029329934,-0.243720294372283,-0.263437911658092,-0.535541001466065,0
778,2992826016,0.172914613640396,-0.00044370041476813,0.824597455113522,0.538645873037042,-0.747195650435685,-0.00607541525370679,-0.797938739335927,0
779,2992842683,0.172486605027476,-0.000250319185155322,0.82450507847612,0.538924562432896,-0.616251917148425,0.170547397790271,-0.78668779435306,0
780,2992859350,0.17142646050448,-4.58459544692561e-05,0.824797726605077,0.538815067276474,-0.360709138436367,0.104555618156513,-0.753680483357229,0
781,2992876017,0.170146428888002,0.000204913379451066,0.825053610244917,0.538828999747595,-0.0513736373530111,0.0440042824698854,-0.491600381429658,0
782,2992892684,0.168879588360365,0.000584418296882696,0.824886938621929,0.539482049359782,0.37924156280667,0.183713984506953,-0.209497851225849,0
783,2992909351,0.16756770424008,0.000722754686358312,0.824007232408803,0.541232503698139,0.729856942713397,0.117804745675937,-0.0280270592065195,0
784,2992926018,0.166627255925458,0.000295753871403859,0.822560976326973,0.543717491291587,0.660652679561952,-0.0861631125411347,0.187231718401609,0
785,2992942685,0.166001890749736,-0.000195533948617512,0.821006910082814,0.546251762130117,0.218912998323728,-0.165119703944994,0.122299552538938,0
786,2992959352,0.16549878619671,-0.0007055414984617,0.819612970550635,0.548492691367691,-0.0622165626767972,-0.154887836053843,0.0016685485705539,0
787,2992976019,0.165069474678535,-0.00129143540403838,0.818460798803072,0.550338370047543,-0.089483053584507,-0.140145889486238,0.0598282390385971,0
788,2992992686,0.16463282921017,-0.00190145300151123,0.817553119488799,0.55181456381367,-0.124321874806252,-0.196237365775335,0.0447838264459995,0
789,2993009353,0.164240693096101,-0.00253437983102371,0.816787385535881,0.5530614237855,-0.111981876683791,-0.239438480105331,0.0412798827416917,0
790,2993026020,0.163890857134507,-0.00312099328931544,0.816008296486857,0.554310839162668,-0.0198549506971163,-0.0821351741503241,0.133079265830826,0
791,2993042687,0.163530973624092,-0.00349657561417945,0.815278703898995,0.555487200206544,-0.0280453337109048,0.105453650683699,0.163516931111559,0
792,2993059354,0.163064614487332,-0.00362050733963059,0.814689783794436,0.556486639201408,-0.1858389925953,0.197284637815753,-0.0752461196487877,0
793,2993076021,0.162493500025393,-0.00360681161697556,0.814264785370334,0.557275257539092,-0.260155179715217,0.301759854712429,-0.252469741003498,0
794,2993092688,0.161927795448145,-0.00351517650697351,0.813952429391832,0.55789647362442,-0.174543766981739,0.294740479066497,-0.173572553068888,0
795,2993109355,0.161425627076219,-0.00332098424756379,0.813701305881156,0.558409278928976,0.0233457514849604,0.314959676775103,-0.0492409139563048,0
796,2993126022,0.160975518989722,-0.00305061642452282,0.813400457003716,0.558978776494748,0.146086955863927,0.247573641459056,-0.0154183887456418,0
797,2993142689,0.160627492903627,-0.00278192905545596,0.81301435593534,0.559641605348699,0.114405095617725,0.139622041141312,-0.0248943337154481,0
798,2993159356,0.160410502929651,-0.0026324968270168,0.812541421084138,0.560390916711612,0.102143573357901,0.0879545213922006,-0.0272579647366952,0
799,2993176023,0.160258825783527,-0.00267858651883974,0.812041369239635,0.561158398828855,0.0924011714683142,0.0304952428169311,-0.0376896677475932,0
800,2993192690,0.160125138230267,-0.00276625524753266,0.811581493082491,0.561860986387771,0.0400412797324183,-0.0496133251130535,-0.0599737333954383,0
801,2993209357,0.159997437379172,-0.00293745150022556,0.811095069661629,0.562598417506998,0.0627545765964213,-0.0549251500249404,-0.0386179932776585,0
802,2993226024,0.159889055246935,-0.00330799160934741,0.810566276166317,0.563388728273494,0.1029253591446,0.0230548826031496,0.0542679370037034,0
803,2993242691,0.159788210896312,-0.00380973893392548,0.810075570878929,0.564119475832017,0.0750681390077855,0.064971575915997,0.0728582323081261,0
804,2993259358,0.159685039225547,-0.00422175191024242,0.809607821126643,0.564816820773704,0.0011517173487951,0.114785615633367,0.0113796474444057,0
805,2993276025,0.159799053745886,-0.00454396882874059,0.809156516323268,0.56542846307981,-0.155839673017785,0.26135990631215,0.0968192032805837,0
806,2993292692,0.160082534848633,-0.0048853023003592,0.808808389361744,0.565843357437314,-0.182623173744285,0.275137182927336,0.140502474762082,0
807,2993309359,0.160323251798139,-0.00532358646218945,0.808575567856348,0.566103935179605,-0.0261542625441444,0.217590560175777,0.190268215027364,0
808,2993326026,0.16062256978326,-0.00565945541101157,0.808368174701534,0.566311976538006,0.16224956672992,0.205514901831728,0.145723784016215,0
809,2993342693,0.161085507232029,-0.00584633883404133,0.808144358766625,0.566497992119758,0.0901709643710144,0.201249528762893,0.175570073990339,0
810,2993359360,0.161863652474909,-0.00596136785332565,0.808173585640322,0.566233234254282,-0.0642152927923293,0.269409003086164,0.190553088853878,0
811,2993376027,0.162863634960481,-0.00615893941373588,0.808861836225598,0.564960205475139,-0.205391284141705,0.180607524480273,-0.019369644190873,0
812,2993392694,0.163927666267298,-0.00649496731302158,0.810238961629903,0.562670739143823,-0.118414560692099,-0.0800781066421014,-0.22412829306747,0
813,2993409361,0.165034294808391,-0.00689837272777163,0.811895194150782,0.559948468794826,0.127186169636109,-0.24758090245338,-0.117433610355987,0
814,2993426028,0.166274146734862,-0.00719020551801847,0.813524108485474,0.557207083574067,0.175815905931065,-0.209246196070932,-0.00164378742766993,0
815,2993442695,0.167323270092451,-0.00745668506058208,0.815053064241127,0.554649279819803,0.0241671405370416,-0.1401127059386,-0.238138768062299,0
816,2993459362,0.168300385445165,-0.00769298216511274,0.816322421309163,0.552479413872011,-0.374415472697056,-0.215621877859543,-0.435010383554351,0
817,2993476029,0.169132719049897,-0.00799196519156608,0.817278085201989,0.550805576667245,-0.263340473894757,0.0136284367916787,-0.0942109931429156,0
818,2993492696,0.169843596842946,-0.00821136155195369,0.818087925737998,0.549379533578213,0.0653423806803034,0.179202986845451,0.108611329975714,0
819,2993509363,0.170456575009064,-0.00840321182877468,0.818729349902164,0.548230055429215,-0.000698272619750397,0.177818522072213,-0.00568925311235255,0
820,2993526030,0.171000299305405,-0.00850074319746028,0.819314548750733,0.547183977477353,-0.010737523103097,0.132827657491799,-0.173253044940436,0
821,2993542697,0.171290787231575,-0.00867925334196414,0.819837009815811,0.54630706942825,0.0522544552598609,0.00561409777446234,-0.434368782088434,0
822,2993559364,0.171385931860267,-0.0090946974788263,0.820274275297015,0.545613656467755,0.111575228007988,-0.0772672334456965,-0.502474788551323,0
