"sep=,",,,,,,,,,
"DeviceTag:,Xsens_5,,,,,,,,,,,,,,,,,",,,,,,,,,
"FirmwareVersion:,2.4.0,,,,,,,,,,,,,,,,,",,,,,,,,,
"AppVersion:,2022.0.1,,,,,,,,,,,,,,,,,",,,,,,,,,
"SyncStatus:,Synced,,,,,,,,,,,,,,,,,",,,,,,,,,
"OutputRate:,60Hz,,,,,,,,,,,,,,,,,",,,,,,,,,
"FilterProfile:,General,,,,,,,,,,,,,,,,,",,,,,,,,,
"Measurement Mode:,Sensor fusion Mode - Extended (Quaternion),,,,,,,,,,,,,,,,,",,,,,,,,,
"StartTime:,2020-11-25 11:23:35.415 +0100,,,,,,,,,,,,,,,,,",,,,,,,,,
"© Xsens Technologies B. V. 2005-2020,,,,,,,,,,,,,,,,,,,",,,,,,,,,
PacketCounter,SampleTimeFine,Quat_W,Quat_X,Quat_Y,Quat_Z,FreeAcc_X,FreeAcc_Y,FreeAcc_Z,Status
1,2979875757,0,-7.85046229341888e-18,-0.707106781186548,-0.707106781186547,0.2670789,0.00815773000000001,0.87405324,0
2,2979892424,0.00117727849215961,-0.0165212942538224,-0.712668550756716,-0.701305352620278,-0.229132465103335,0.134026451991942,0.29133267714278,0
3,2979909091,0.0035677557804006,-0.0321607668211143,-0.716791219324978,-0.696536649498632,0.0306047053352158,0.40852203440739,0.330514637130193,0
4,2979925758,0.00740940996405764,-0.04719406113962,-0.720587179581331,-0.691716660100187,0.162360542538609,0.531382616017067,0.379085732820032,0
5,2979942425,0.0121247452980345,-0.0625980533342498,-0.724991615368674,-0.685799994105673,-0.324469625138283,0.096795921645109,0.132643428793132,0
6,2979959092,0.0169948842697002,-0.0779938411841281,-0.72964896490975,-0.679146908004545,-0.504304006579447,0.226894363646425,0.155333209395015,0
7,2979975759,0.022480120451306,-0.0927441214444393,-0.734953092212838,-0.67136958850456,-0.64364666751063,0.658745262766466,-0.208029255654626,0
8,2979992426,0.0291692376532452,-0.106322681033911,-0.741219473238209,-0.662146762859234,-1.29076305876036,0.81615021165073,-0.821738446127093,0
9,2980009093,0.0367204489418203,-0.118528910271984,-0.747772036050575,-0.652257225456357,-1.6135676420823,0.952920356886763,-0.854872941664039,0
10,2980025760,0.0450285960042194,-0.129219067154209,-0.754672051593752,-0.641673556233201,-1.66663352190005,1.05242511744117,-1.16641117171469,0
11,2980042427,0.0540255985095636,-0.137866938292991,-0.761376071996829,-0.631173842156089,-1.91753779415051,0.732402542190704,-1.67424620268037,0
12,2980059094,0.0634040491367548,-0.144055188579695,-0.767256277110474,-0.621728103298305,-1.99175422174253,0.422889387959823,-1.94690029190471,0
13,2980075761,0.0731955568860924,-0.147378546230368,-0.772269053329649,-0.613614279358366,-1.82225885935896,0.331630806443956,-2.03023173473419,0
14,2980092428,0.0835184066062824,-0.147626401848882,-0.776676927593453,-0.606633391249685,-1.48799101929846,0.162592725912867,-2.15379855448043,0
15,2980109095,0.0940802400742619,-0.145158860512854,-0.780414234564353,-0.600858915329975,-1.39242883889878,-0.442439327351967,-2.34977305646473,0
16,2980125762,0.103842025061038,-0.140622970178431,-0.782666101244772,-0.597390816845829,-1.01619158246629,-1.61015829560461,-2.98938361170273,0
17,2980142429,0.110401350284126,-0.135592955002232,-0.782087079046132,-0.598135346889226,-0.365399059496124,-3.44290949799436,-4.22834602234876,0
18,2980159096,0.112627894155271,-0.132811584392034,-0.778325440199876,-0.603229267896623,0.686217093402135,-3.63037841101255,-4.32482973543567,0
19,2980175763,0.111301475566325,-0.13372533833068,-0.773422123055224,-0.609547155676945,2.12002898920053,-1.46786997595599,-2.41419291084248,0
20,2980192430,0.108541496853848,-0.136129478061486,-0.770137369885245,-0.613657836395553,2.85018078346557,0.490174258728858,-0.0969795193340825,0
21,2980209097,0.106276569421985,-0.137170099460739,-0.770850483272062,-0.612926738725806,2.50257731008306,1.0082311288187,0.609193724557252,0
22,2980225764,0.104016495078006,-0.137029851554292,-0.775967391736824,-0.606859123269846,1.87243607884353,0.477843172161068,0.0273375946462899,0
23,2980242431,0.101303289548756,-0.13575475397251,-0.783529246347753,-0.597821219444565,1.32388814599911,0.272070735416242,-0.611676046382781,0
24,2980259098,0.0986653506054091,-0.133654124474445,-0.79142804163582,-0.588254518481051,0.438071719034117,0.100875791663176,-1.02056314478637,0
25,2980275765,0.0968564503689095,-0.130958349988711,-0.798292202890718,-0.579826092370855,-0.0626112976880519,0.00961653048031796,-0.896804817548888,0
26,2980292432,0.0957962624132961,-0.127825062408408,-0.803721320046835,-0.573163038960209,-0.206325212923437,-0.0856842914334959,-0.518542135824726,0
27,2980309099,0.0951700241542325,-0.124403012315302,-0.808147871204002,-0.567770706621785,-0.135877171741505,-0.0636578896760863,0.00949566713518274,0
28,2980325766,0.0947329426159489,-0.12093385926974,-0.811916731695751,-0.563197915530535,-0.0986840537347201,0.131971192546491,0.632571770566756,0
29,2980342433,0.0944862883897628,-0.117672057678177,-0.815229309409492,-0.559130397338432,-0.0690177369536667,0.473504626498376,1.04409385138239,0
30,2980359100,0.0942517295159668,-0.114848156837919,-0.818202456483156,-0.555401883827478,0.146082990082418,0.526108221355424,1.1149877109357,0
31,2980375767,0.0940251925157836,-0.112657804675548,-0.820547844195638,-0.552420779482404,0.391396254193685,0.395433294333837,0.919570167197819,0
32,2980392434,0.0934519996174698,-0.111393399576047,-0.82194917440841,-0.550688468181168,0.536215611039688,0.155096982209673,0.62901403870031,0
33,2980409101,0.0922527256353029,-0.111099017692565,-0.822318756076734,-0.550398316026692,0.877615178713938,0.0513833200674809,0.371314145618813,0
34,2980425768,0.0906488115999246,-0.111578540998348,-0.82183325167324,-0.551292235196896,1.05715220916352,0.171584568568888,0.207036468755329,0
35,2980442435,0.0890138375735289,-0.11249312262428,-0.820817546658614,-0.55288370312391,0.963118079749665,0.396199448029173,0.0937212565547106,0
36,2980459102,0.0876750085988072,-0.113458976715084,-0.81957985383592,-0.55473328425132,0.658769621751968,0.576894228718625,0.138859600635015,0
37,2980475769,0.0868580174392289,-0.114289000935192,-0.818104853811042,-0.556864577112403,0.225644848105734,0.706757787077667,0.278169551298836,0
38,2980492436,0.0866636983612136,-0.114967851757718,-0.816375310567439,-0.559288073129124,-0.181880737040754,0.744542494357485,0.258801626054238,0
39,2980509103,0.0869302011202222,-0.115483607907527,-0.814548176342361,-0.561798847324549,-0.526850775727937,0.717649700190802,0.303951136883954,0
40,2980525770,0.0872710568604393,-0.115944580004346,-0.812838398383506,-0.564122641909908,-0.809453410171557,0.91887186144691,0.322650417942312,0
41,2980542437,0.0875686399094007,-0.116455417537526,-0.811206112123445,-0.566316618760339,-1.18083399534916,1.00557954111668,0.27943772501933,0
42,2980559104,0.0879763241825045,-0.116880728370474,-0.809232311921804,-0.568983415453046,-1.49287303292604,0.881096252738065,-0.0658099373196417,0
43,2980575771,0.0886796031049738,-0.116934652060414,-0.806650021244907,-0.572518958957906,-1.69829761570161,0.732541028245996,-0.292511934202718,0
44,2980592438,0.0895148103705602,-0.116531749405105,-0.803326727863084,-0.577125305636219,-1.68478548527663,0.500195092568395,-0.34607650463074,0
45,2980609105,0.0903314304177489,-0.115637408027259,-0.799336693255501,-0.582691233294942,-1.47393995814643,0.0606889390553759,-0.250846366178845,0
46,2980625772,0.0910385498866671,-0.114329723592489,-0.795321764698562,-0.588306032039927,-1.19986976249748,-0.0875132745378607,-0.0502742521903629,0
47,2980642439,0.0914542857342777,-0.112826442302377,-0.791948708022289,-0.593062856196582,-1.07204562045228,-0.12512105602802,0.134580386542933,0
48,2980659106,0.091748981028825,-0.111032030497947,-0.789308235500972,-0.596863905806019,-1.13944460662669,-0.21100264648489,0.205004735410718,0
51,2980709107,0.0925499003398955,-0.104085582768027,-0.783889516703045,-0.605076799265997,-1.02163193310952,-0.932998570176172,0.124604653962002,0
52,2980725774,0.0929865988747341,-0.101394927506028,-0.781852573349704,-0.608094659286038,-1.00480205119538,-1.19347358938728,0.101163110172394,0
54,2980759108,0.0932779492773235,-0.0963796536187103,-0.777748308247142,-0.61409914147934,-0.98771900166465,-0.793295464444451,0.339326741625926,0
55,2980775775,0.0928828006940345,-0.0944297023598005,-0.775848500053162,-0.616858915484514,-1.08186784296647,-0.70533310134082,0.245677845782531,0
56,2980792442,0.0922147581027217,-0.0928529008723435,-0.773680747316661,-0.619913605609023,-1.18400249191481,-0.710213359366429,0.0551457781521185,0
58,2980825776,0.0900374201144075,-0.0906478550213808,-0.767902517245497,-0.627695749043431,-1.12136021084787,-0.21989899966476,-0.1470143537439,0
59,2980842443,0.0883896492584149,-0.0900137829556646,-0.764175366508292,-0.632551024031976,-0.951574373654169,0.100084396636269,-0.392906291207127,0
61,2980875777,0.0839215353230998,-0.0884791827356458,-0.753271068693942,-0.646305892902217,-0.293407402695079,0.236219516445566,-0.846047509010654,0
62,2980892444,0.0814262099905975,-0.0871957904762246,-0.746526394005055,-0.65457238675612,0.0585320137033371,0.370374720919266,-0.621247815280037,0
63,2980909111,0.07866748062306,-0.0860873431868108,-0.739612617615795,-0.662852602543709,0.301303004870604,0.611175921700442,-0.382516360960036,0
66,2980959112,0.0699759813146541,-0.0826556902517907,-0.721697824877793,-0.683683880514024,1.49483704186098,1.61042104500495,-0.67768626996957,0
67,2980975779,0.0669734715902979,-0.0798198910278142,-0.716791259598734,-0.68945893950424,1.98402565073271,2.03349470973692,-0.992349021487832,0
69,2981009113,0.0615789218546251,-0.0698881418364045,-0.709543279413506,-0.698478359473652,2.04196830146583,1.82376000622504,-0.867426220273239,0
70,2981025780,0.0583383615757819,-0.0630938162578729,-0.706215603804635,-0.702762639062098,1.64843520223356,2.10751594668809,-0.607128545423757,0
71,2981042447,0.0548710518181846,-0.0552325938437616,-0.702077708776783,-0.707831490602388,1.41210628833952,2.47551540788095,-0.674762938247588,0
73,2981075781,0.0505237279977996,-0.0359438341736763,-0.689220708170917,-0.721893488765814,1.01010769288004,1.96005714670684,0.0218480693268209,0
74,2981092448,0.0487175120724574,-0.0246183294572631,-0.682241435889335,-0.729086527805763,0.342957117565271,1.14184200154649,0.663072117071621,0
75,2981109115,0.045797671046852,-0.0125632309507929,-0.67689655313266,-0.734544617373161,0.0414990420572561,0.547227402477066,1.04541209052318,0
77,2981142449,0.035048493128985,0.0136382755912013,-0.669765844856857,-0.741619385959851,-0.738733926428519,-1.01472138742519,-0.618872679222064,0
78,2981159116,0.0283010884899221,0.0255448577825992,-0.663989740051899,-0.746769130144629,-1.29426681647317,-0.644832890780649,-2.31003594338308,0
81,2981209117,0.00856842923200826,0.0541283141732782,-0.638154389253576,-0.767955521564661,-1.89241056634491,-2.16080255917068,-0.615260627552278,0
82,2981225784,0.00108006594832831,0.0591716656782645,-0.633868126525751,-0.771173615739764,-2.30984292441857,-1.90554029868634,0.262435022628193,0
83,2981242451,0.00396599006699408,-0.0635875128933343,0.631577375647549,0.772690699890314,-2.11813441424712,-0.791460148349688,1.25411643717914,0
85,2981275785,0.00823326536689559,-0.0745016590548122,0.631874066516588,0.77143818948978,-2.83929282590578,-0.210206662613226,-0.324280436726373,0
86,2981292452,0.00780858149639199,-0.0810769823756981,0.633395277869927,0.769529707650032,-1.90306103879699,-0.45763693153721,-0.443666073767389,0
88,2981325786,0.00439748997657257,-0.0921557194347085,0.638624499271355,0.763967757426836,-1.01076417815594,-1.59921025116106,-0.508684043222419,0
89,2981342453,0.00245640863099506,-0.0944279114013615,0.643066168787878,0.759962655770331,0.790109992765552,-2.7987099835628,-0.248050830055061,0
90,2981359120,0.00165185235529608,-0.092582859924582,0.648685910589586,0.755402061709221,1.62414169397673,-2.35600010491974,-0.354386697918914,0
92,2981392454,0.00166970857785542,-0.0878220814938926,0.657465689726547,0.748347085855047,-0.491897720863765,0.998548291088435,-0.147142724577009,0
93,2981409121,0.000477534131674758,-0.0860523089755976,0.658400795506721,0.747732013864084,0.262450468791072,-0.61351214612051,-0.93189887126462,0
96,2981459122,0.00282212140894453,-0.0716341276652239,0.653675907521657,0.753371352860018,-0.372489449680626,-1.00845569632523,0.3616267782291,0
97,2981475789,0.00468819560169979,-0.0651621401218207,0.653229467272,0.754336250888345,-0.904432869475244,-0.664967407043357,0.898459671243774,0
98,2981492456,0.00666292808552383,-0.0585392149415136,0.653932340044868,0.754255434416486,-0.469536045139143,0.361837906317791,0.642786173770838,0
100,2981525790,0.00920961054342954,-0.0467459178383216,0.660907440605434,0.748953508030683,-0.921128096276356,-1.36307052015606,0.239400715173682,0
101,2981542457,0.0114809721779602,-0.0400626294655479,0.66677196002237,0.744095643265085,0.0400116342878058,-0.225201604144479,0.482828704079752,0
102,2981559124,0.0133455792062328,-0.0337042063410293,0.673996460921563,0.737844626365049,1.02527536885184,1.54144612639026,0.879044591495383,0
104,2981592458,0.0120093018506486,-0.024019909618921,0.686964730864795,0.726194381112123,-0.75893502164203,2.31223662661686,0.541106390361264,0
105,2981609125,0.00795234521910717,-0.0218649442375805,0.690051972261284,0.72338576153897,-1.54697420970327,1.52469025386826,0.524347151109443,0
106,2981625792,0.00358980871486305,-0.0202455163659052,0.691552273467422,0.722033714865524,-1.09309254937348,0.39357522168367,0.395497653121214,0
108,2981659126,0.00323560900672266,0.0160579935751481,-0.694680463468096,-0.719131924859721,-1.17924124250441,-1.32114820549389,1.00571730905838,0
110,2981692460,0.0069207574463155,0.00773010215526512,-0.70015495082045,-0.713915536655879,-0.815827055571706,-1.22248968329717,0.557647476379996,0
112,2981725794,0.0107481416921211,-0.00607658914249323,-0.700840275195761,-0.713211372019606,-1.81959117048167,-1.5350791722169,0.114516585883748,0
113,2981742461,0.0131036655569821,-0.014824249140043,-0.697145434363377,-0.716656667402671,-2.35681429955209,-1.64131104601499,0.0667832960728058,0
115,2981775795,0.0206246155238173,-0.0320957722271153,-0.68490099051043,-0.727636667463558,-3.73268658955013,-2.05483339653969,0.955791570073925,0
116,2981792462,0.0238304456406834,-0.040579582842491,-0.677084796370807,-0.734398792101674,-3.48338705403037,-1.0939531777496,0.750721946336131,0
117,2981809129,0.025712413663293,-0.048714430023573,-0.667339156013921,-0.742714095020227,-2.39505863598414,0.333532413920388,-0.0648640564260156,0
119,2981842463,0.0260137346180132,-0.0645144478200741,-0.638792947990458,-0.766227604065106,-0.0560415831424966,1.08251971645948,-2.54835466913768,0
120,2981859130,0.023863598648609,-0.0736976493962511,-0.618010992438043,-0.782343657454159,0.752170136891228,2.28403851140959,-2.80654797934891,0
121,2981875797,0.0216236767945189,-0.0815247362059941,-0.593354040768273,-0.800510534779145,1.49992375567481,3.69141959790359,-2.355183673316,0
125,2981942465,0.0273646691737202,-0.0835855738560662,-0.490513866115636,-0.86698372180362,3.56404956802531,1.69492290794259,-1.48326130656248,0
127,2981975799,0.0229169818367468,-0.0768555993268233,-0.458822991917049,-0.884900836751721,2.82371343038091,0.828654175074671,0.139194069254683,0
128,2981992466,0.0203636807659941,-0.0740654924679418,-0.450513452194325,-0.889458966295295,2.38406494060405,0.332037339838248,0.0849908595164046,0
129,2982009133,0.0161027265636314,-0.0712553777200742,-0.443499904255986,-0.893292341995675,2.2080917123267,1.13894454557682,-0.624832846854699,0
131,2982042467,0.00336307706423194,-0.0665224518299107,-0.425575316346968,-0.902468339185024,1.00696020610087,0.62887994226181,0.115105488593532,0
132,2982059134,0.00371530563727605,0.0635255727690168,0.415767499505584,0.907242020887075,0.150551875010706,-0.0360396041442394,0.326046473290137,0
133,2982075801,0.0110944467002591,0.059863596806871,0.405895149951927,0.911889461653803,-0.262165511662774,-0.232457962116702,0.246509130718343,0
136,2982125802,0.0311690744061437,0.0498341705238722,0.376229142193831,0.92466030346985,-1.65610160841884,-1.01073647611272,0.879404712243832,0
137,2982142469,0.0363963846372989,0.0462433480499718,0.367480245190241,0.928167617050597,-2.21462767091907,-1.20988767172836,1.32927852798159,0
139,2982175803,0.0425930642444684,0.0378617461517813,0.354241186824003,0.933416038331314,-2.66599437932215,-1.64956610825279,1.4722241913844,0
142,2982225804,0.03960031658862,0.0246258629051759,0.343324255856563,0.938058546756435,-2.66371804190152,-1.2126822974368,1.49916838208779,0
143,2982242471,0.0346661455737866,0.0202254281886702,0.342599262748187,0.938623958553179,-2.78962074662658,-1.26864678335388,0.968041952101817,0
144,2982259138,0.0279017522307822,0.0163706713496635,0.34451785847248,0.938222222362884,-2.73442252350993,-1.24268173442569,0.227612909912781,0
146,2982292472,0.01289891104839,0.0110985020402901,0.350344478607261,0.936466330230635,-1.32289439776652,0.16172340072407,-0.367454700698325,0
147,2982309139,0.00527495450668613,0.00938532598557179,0.350122113871637,0.93664219202914,-0.895253813682162,0.209124650304418,-0.278577550481721,0
148,2982325806,0.00275967707517998,-0.00810426693322389,-0.349871821338153,-0.936758460689542,-1.15668873771123,-0.314567162653764,-0.0519910963378653,0
150,2982359140,0.0191102238934639,-0.00697935497508005,-0.353910171844041,-0.935058114884949,0.287942396112149,1.35523995775819,-1.05854716158345,0
151,2982375807,0.026489237284964,-0.00745202086064524,-0.355755129999529,-0.934174006902446,1.84086392378502,1.76567064189179,-0.779444000410748,0
152,2982392474,0.0336669522416861,-0.00613432271418793,-0.354978237884166,-0.934248016877878,2.15796063427097,1.97404502239415,-0.746846085979672,0
154,2982425808,0.0454937569042333,-0.00334921606478379,-0.354052779380059,-0.934112268545781,1.36399729723519,1.39628951062268,-0.357483415697959,0
158,2982492476,0.0463054248852275,0.000359992370801874,-0.371511024676703,-0.927273010809307,-0.541839389089134,-0.421048938623428,0.433122762966523,0
159,2982509143,0.0434894385701498,0.000480615933306977,-0.383096873283098,-0.922683707140151,-0.670521076829708,-0.58708762227865,0.642610787807342,0
160,2982525810,0.0403163271518863,0.00140186507280113,-0.394925292365675,-0.917827130776371,-0.440331050823597,0.295513313935828,0.178297071289889,0
162,2982559144,0.0341217123332566,0.00332040050941944,-0.410776247662631,-0.911091410366772,0.00155627236064983,0.555840959009854,-0.246305222710511,0
163,2982575811,0.0325369636753717,0.00403375970808682,-0.416393823536963,-0.908593010372451,-0.507730718522065,0.0286146208651059,-0.0107485713747943,0
164,2982592478,0.0323997014169588,0.00413313661315264,-0.421126476619547,-0.906413629211209,-0.945359698880218,-0.440184975043846,0.24019020151538,0
166,2982625812,0.0353711777847881,0.00311276965926696,-0.431587607037935,-0.901371914305318,-1.23018201179293,-1.12554312150116,0.479153508076322,0
167,2982642479,0.0377978327971807,0.00172652583827916,-0.439041198078692,-0.897669855422356,-0.847094518008411,-1.18330340979206,0.373119859714884,0
169,2982675813,0.043422896305594,-0.00228780587083339,-0.455121423606519,-0.88936702648294,0.952705770443298,0.37695862282947,-1.12389374479604,0
170,2982692480,0.0457726440225988,-0.00388966895355522,-0.460088660010818,-0.886683799594908,2.24511245927707,1.98453864179634,-1.87800270951807,0
173,2982742481,0.046627703126642,-0.00712360306523681,-0.454939798010054,-0.889272113454073,1.63631842530164,1.62672757804423,-0.738476949627028,0
174,2982759148,0.0452783801400331,-0.00730019316143664,-0.452172637083088,-0.890750515994813,0.898982026942507,1.63742004883079,-0.101504474596068,0
175,2982775815,0.0438589089952868,-0.00669607251439141,-0.450677490451235,-0.891583623848712,0.36161299737596,1.38578945249367,0.080823231098169,0
177,2982809149,0.042215821694907,-0.00349509184179951,-0.450554040839936,-0.891743609460952,-0.34901239500734,0.385113038305496,-0.264846318052348,0
178,2982825816,0.0422839778175893,-0.00183853319022235,-0.451232189477273,-0.891402376144004,-0.275459612593952,0.0106461433402917,-0.779075578065169,0
179,2982842483,0.0430035313823106,-9.67195625997072e-05,-0.451838079256426,-0.891062869312733,-0.29166339862985,0.128772367260508,-1.29685167922516,0
181,2982875817,0.0444127799906547,0.0024959761006894,-0.451983933319235,-0.890916269409242,-0.0397774167695787,-0.252899245448429,-1.42096092317003,0
182,2982892484,0.0448042133042936,0.00291109449020996,-0.452563952006133,-0.890600908007421,0.265578556688995,-0.0655367178457897,-1.3106170428927,0
183,2982909151,0.0448143703621863,0.0029035449779353,-0.453371710711323,-0.890189493064421,0.572121122515984,0.139487009686725,-1.02352937021118,0
185,2982942485,0.0433959477057616,0.00175978255897112,-0.454283438817417,-0.889797871487838,0.769664394528012,0.398917715890818,-0.574324200638939,0
186,2982959152,0.0423949014252062,0.00105890699360411,-0.455004435218601,-0.889478788381447,0.614263035307982,0.328976042709463,-0.456010212093047,0
187,2982975819,0.0416875554624997,0.00078150953261567,-0.4562201633693,-0.888889587911626,0.463758061760268,0.232925768415315,-0.436339435774406,0
189,2983009153,0.0428314232568206,0.00119620912499385,-0.461069114375825,-0.886329120606006,0.0663844336472628,-0.398098977764592,-0.360593748434191,0
190,2983025820,0.0442258598465613,0.00134327931970754,-0.465158287577042,-0.884121053035101,0.206927722239051,-0.73954574889142,-0.465644818923652,0
191,2983042487,0.0456431660111409,0.00125897412833101,-0.470623255366136,-0.881152011794335,0.342188881937982,-0.536299639228388,-0.266253837537707,0
193,2983075821,0.0489348382766292,0.000876195934601767,-0.483584533875203,-0.873928265065404,0.685614739431394,-0.191446795126234,-0.0506546954628226,0
194,2983092488,0.0503625201003662,0.00112182061898322,-0.489459535517023,-0.870569768128379,0.906185047647191,0.0919062873178084,-0.260937810351295,0
196,2983125822,0.0524605055790862,0.00296763012290936,-0.497161480529443,-0.866065558028728,0.765890695764483,0.332093943134024,-0.216976347839184,0
197,2983142489,0.0532974478786912,0.00435327499749573,-0.499242867572962,-0.864810378189312,0.587668496137294,0.505107393217506,0.149792164555762,0
200,2983192490,0.0555310376802592,0.0109077698750607,-0.501508267853606,-0.86329993726687,0.0217710097596374,0.341200638220123,0.491274053785274,0
201,2983209157,0.055740242082792,0.0135465232796459,-0.500949468296349,-0.863573475352961,0.0246337089672888,0.0852415144321106,0.301481373736285,0
202,2983225824,0.0556501962379024,0.016089433313044,-0.500337431474688,-0.863890409982458,0.0965891741021263,0.140040460795293,0.166664366631841,0
204,2983259158,0.0549970987942529,0.0204409191825506,-0.499718001610411,-0.864198707944929,-0.470678555297661,-0.283227566976817,0.627590255236207,0
205,2983275825,0.0548001363304028,0.0214218736256572,-0.500584690746436,-0.863685715858975,-0.420437650128555,-0.434061230680037,0.831609863493752,0
206,2983292492,0.0549596764769801,0.0214490581256638,-0.502716460552813,-0.862435813354431,-0.375035900931482,-0.372392827914223,0.994513771650284,0
208,2983325826,0.0569618956300438,0.0198321194779385,-0.50899405497024,-0.858654226966942,-0.00576491179580859,-0.216405092775449,0.885287833295063,0
209,2983342493,0.0588368280354486,0.0186823208676692,-0.512509128855352,-0.856459918147751,0.0359249866698195,-0.210293479735959,0.712095223363515,0
210,2983359160,0.0611776749748978,0.0173653079018933,-0.515759781956482,-0.85436970070476,-0.117540949581611,-0.206339867905994,0.548854376872613,0
212,2983392494,0.0661022540241691,0.0142021841205962,-0.521050069834289,-0.850844060157213,-0.55210305591688,0.0700768149798368,0.330154244007576,0
216,2983459162,0.0708027941718525,0.00857937489635167,-0.522756475834129,-0.849493393521885,-0.332923859187753,0.686710763348855,-0.0721612523651819,0
218,2983492496,0.0707915137241954,0.0078065728005383,-0.518802615645112,-0.85192221769686,-0.184238030777133,0.0886821419421394,0.0771560538288436,0
220,2983525830,0.0709512683329901,0.00852846457255802,-0.514816386679216,-0.854316844514102,-0.0761559182507082,-0.145072353227382,-0.114074239301523,0
221,2983542497,0.0712733322925816,0.00942561085126392,-0.512775585280371,-0.855507141468944,-0.177066263921829,-0.0310973828969525,-0.226806298545407,0
223,2983575831,0.0719612687389112,0.011700185762384,-0.507647752681852,-0.858474484566476,-0.363282942286445,0.379083147303542,-0.23587634800561,0
224,2983592498,0.072194548016819,0.0128407031987415,-0.504380167130234,-0.860362546013997,-0.460014754263439,0.580570208732053,-0.150317891761549,0
225,2983609165,0.0722912218989359,0.0139360026018065,-0.501103880673827,-0.862249771146083,-0.545717135260098,0.528140972919186,0.121973433339535,0
227,2983642499,0.072023728777731,0.0157436606665095,-0.496654995247919,-0.864811271513652,-0.418102612003964,0.298500550988074,0.178508801908486,0
228,2983659166,0.071768409220725,0.0163439322971681,-0.495533470536854,-0.865464471190293,-0.227952148944563,0.133599931878837,0.173526455727447,0
229,2983675833,0.0717281144896337,0.0167707795951097,-0.495262818478599,-0.865614555778823,-0.0962012619951851,-0.105501771123968,0.150309191217531,0
232,2983725834,0.0736990721333216,0.0163520808628241,-0.498268226043728,-0.863730184220385,-0.122573577475883,-0.110643474993496,0.0687442276821412,0
233,2983742501,0.0747114936732885,0.0156805348140567,-0.500036924968382,-0.862632822937555,-0.189259332472847,-0.0500324134250075,0.145804322606572,0
235,2983775835,0.076811967154451,0.0141587841399977,-0.503256123660482,-0.860600211789287,-0.070870552834957,0.0182139199309689,-0.0809589926822019,0
236,2983792502,0.0776238881202194,0.0135010034790085,-0.504256901120757,-0.859951878054959,0.00999999320418323,-0.0417456584916298,-0.128608692059039,0
237,2983809169,0.0781816586440228,0.0129349708709114,-0.504911700315774,-0.859525735312488,0.101052067127383,-0.00498649182011308,-0.0966411022180413,0
239,2983842503,0.0788917339740465,0.0120277269077086,-0.505195230546533,-0.859307399670826,0.150739602035103,0.133992808803285,-0.155175832924579,0
240,2983859170,0.0792653123677636,0.0117561206258075,-0.504972893267194,-0.859407459211538,0.0270423119595946,0.143257155745005,-0.105727285009899,0
241,2983875837,0.0796970365259866,0.0116244862420553,-0.504928225375334,-0.859395567191209,-0.097497367706058,0.0462394693130261,-0.0520888774045075,0
243,2983909171,0.0804378939136838,0.0113651106071986,-0.505455412997824,-0.859020025933515,-0.195046999815815,0.0453261575158794,-0.0343233878802061,0
244,2983925838,0.0807370077091679,0.011144221169301,-0.506050192547973,-0.858644597340983,-0.170439271487759,0.124028694772594,0.0291199821568515,0
247,2983975839,0.0817601556776152,0.00970790609404481,-0.509442142299183,-0.856556908297669,-0.0034067845479617,0.0703497464843411,0.310774942697165,0
248,2983992506,0.0820081343983669,0.00891313166356941,-0.511657452700802,-0.855220365211315,0.0699634139817795,0.166378573908994,0.327192152441644,0
250,2984025840,0.0821997512824982,0.00719442877516064,-0.516307211253641,-0.852419089820953,0.050680182911812,0.192198246584273,0.232292243528843,0
251,2984042507,0.082115478722903,0.00636731956954682,-0.518245363163711,-0.851256864263027,0.0629779149133765,0.266132257645003,0.180219839767302,0
252,2984059174,0.0819384501571924,0.0056492582654021,-0.519791252796989,-0.850335951129097,0.0733468388131781,0.25270566196915,0.132329298259857,0
254,2984092508,0.0815259849288715,0.00487569304676277,-0.521590492427168,-0.849277987238734,0.190209916793429,0.0110052482580257,0.177899314999524,0
255,2984109175,0.0813611152310992,0.00483124190673884,-0.52196861244905,-0.849061714864122,0.184699881922492,-0.0879569559584942,0.188987327184934,0
256,2984125842,0.081280496335958,0.00494455243000983,-0.522225429339041,-0.848910851190101,0.176379051426199,-0.149934780668259,0.24593158210732,0
258,2984159176,0.0814431492423068,0.00516852641470964,-0.523012808533184,-0.848409041610488,0.0258035035110594,-0.164322307710469,0.347955461663783,0
259,2984175843,0.0816879834782724,0.00512605164993907,-0.523828617135833,-0.847882289483214,0.0698902399173572,-0.0741000085638763,0.333636677843089,0
260,2984192510,0.0819970627065433,0.0049451909177638,-0.52506048212368,-0.847091209319478,-0.0135193468379562,-0.00210328215120471,0.305858096266629,0
262,2984225844,0.0826636635873964,0.00332268165271615,-0.527455260188922,-0.845545165563603,0.116111359431854,0.163985040260215,-0.0409606634680217,0
263,2984242511,0.0829936856929862,0.00193988373479382,-0.528470543659911,-0.844882932405424,0.065616588132718,0.232272128505042,-0.247826244590617,0
264,2984259178,0.0833245200157225,0.0001767207392172,-0.529464454359685,-0.844230054371159,-0.0489001355596384,0.305090302839647,-0.270848811616611,0
266,2984292512,0.0837368671573077,-0.00447601533989857,-0.532044626719097,-0.842553628883463,-0.273416669775369,0.420530473723184,-0.22399032595779,0
267,2984309179,0.0838965632718318,-0.00715584281712512,-0.533609476259047,-0.84152901758127,-0.300004585929774,0.348013634065787,-0.325695792133346,0
268,2984325846,0.0838635107140449,-0.0102661984605078,-0.53513965492338,-0.840527849906456,-0.317716822939915,0.247442726606875,-0.460135237797839,0
270,2984359180,0.082939183454291,-0.017304640926389,-0.537937668368853,-0.838716105842869,0.0779164745767277,-0.0565306003107846,-0.738312979284089,0
271,2984375847,0.0824323309434267,-0.0204517695587831,-0.53846854927685,-0.838354493860939,0.44218114657115,-0.121584367166496,-0.985258637600679,0
275,2984442515,0.087185718482344,-0.029522036859706,-0.537371057763388,-0.838307488998297,0.428483592873763,1.18761834855733,-0.302434521069897,0
278,2984492516,0.09500766715685,-0.0319316783704485,-0.532647418841766,-0.840381245803988,0.38641814639596,0.106535991606192,-0.461540066580708,0
279,2984509183,0.0972594737177512,-0.0324307687022534,-0.532132640040984,-0.840430659493417,0.497858368617776,-0.206711263210733,-0.46600261508593,0
282,2984559184,0.0990869385300899,-0.0328200556205778,-0.532582577345803,-0.839916913075036,0.442758898026588,0.209435493249023,-0.831912347823082,0
283,2984575851,0.098999859529349,-0.0330373845235254,-0.531920025745444,-0.840338411146355,0.525524955286177,0.226642203210694,-0.787079828904027,0
286,2984625852,0.101047198540157,-0.0338993081155096,-0.530710280156537,-0.840825129924555,0.644912639896316,-0.355727805201931,0.155887432542841,0
287,2984642519,0.103116837129039,-0.0350544038176621,-0.532768700845349,-0.839223223030113,0.640633993074315,-0.451789346726742,0.51337392184191,0
289,2984675853,0.109248785770997,-0.0399787315144281,-0.541481358845224,-0.832624970714421,1.14331668098379,0.101640351478045,0.506851467383797,0
290,2984692520,0.113099796249313,-0.043292037850311,-0.547968456400826,-0.827686417876255,0.725586377856052,0.882558647085408,0.6834861907574,0
291,2984709187,0.117794349681508,-0.0469320658129915,-0.554167214725941,-0.82269105410508,-0.177396359807614,1.03936152608587,1.16244599403197,0
294,2984759188,0.129671926637413,-0.0574386149936377,-0.570504535813047,-0.808956470748886,-1.02185739309009,0.687206070339901,0.0566935817370495,0
295,2984775855,0.131302201548326,-0.0598297972040234,-0.5725083794538,-0.807102399135495,-1.20087469362411,0.594075696147097,-0.946356448466632,0
297,2984809189,0.131011012491763,-0.062239605562539,-0.568524397142601,-0.809779201979741,-1.11571170104182,-0.201029556334092,-0.403766898769985,0
298,2984825856,0.129909822960298,-0.0625342416667141,-0.565871706891434,-0.811789454142741,-1.46264765988184,-0.670936990242159,0.412449044913731,0
299,2984842523,0.128290565152324,-0.0629926983875855,-0.564540634208637,-0.812937465719263,-1.74507929941963,-0.812048760802443,0.752076667024962,0
301,2984875857,0.123472978610471,-0.0677044999395972,-0.564113226775726,-0.813601125624629,-1.43477573841507,-0.904293243412884,0.680858957190732,0
302,2984892524,0.120379665909945,-0.0716207802241335,-0.563892658206352,-0.813882221145339,-1.6529769540989,-1.04788032606516,0.999001546061196,0
304,2984925858,0.113762034574233,-0.0834589401696779,-0.564862570409232,-0.813033259680045,-0.888129826994339,-0.687235138309441,1.44603584288015,0
305,2984942525,0.111039670316976,-0.0892903639797689,-0.566372814164653,-0.811738417158796,-0.944662657459581,-0.318048090005524,0.649974347440245,0
306,2984959192,0.109037810880208,-0.0946745013315529,-0.567418717971358,-0.810668546997979,-0.977742262561674,0.174603886427346,0.11815876576683,0
309,2985009193,0.106417581588599,-0.103391333984405,-0.568669630514629,-0.809073780143761,-1.36702268452716,-0.355168843148535,0.0166403402757802,0
310,2985025860,0.105483083787693,-0.104637690376059,-0.568736630500599,-0.808988824344457,-1.5560580717454,-0.277700628945147,0.0142064956148106,0
312,2985059194,0.101656816268562,-0.105466683637041,-0.565935306382383,-0.81133217570772,-1.77802291956826,0.454660270832738,-0.166636769919269,0
313,2985075861,0.0989876550264802,-0.105210021196179,-0.563633013267773,-0.813295839130478,-1.73848769455639,0.735946980571308,0.353233505964038,0
314,2985092528,0.0962515347162826,-0.104644464035617,-0.56170502653672,-0.815029227313255,-1.63033879919204,1.02758881396753,0.56518431883654,0
316,2985125862,0.0921224006974734,-0.104304109076401,-0.560494233798177,-0.816382465513871,-0.911607953146898,1.20375114720803,0.985361263998836,0
317,2985142529,0.090874152774951,-0.104977289394021,-0.561835388507927,-0.815513735806495,-0.507400748829741,1.3010156904434,1.08012076986681,0
318,2985159196,0.0899424670406889,-0.106055483657266,-0.565487912742891,-0.812948957530881,0.193583096190087,1.06615492344019,1.29802931336541,0
320,2985192530,0.0883614204668393,-0.108006588172096,-0.574212566487009,-0.80672595394775,0.673302868227155,0.162350330960656,-0.0715936180848734,0
322,2985225864,0.087196136214418,-0.11072803577841,-0.575955652819819,-0.805239853650344,0.89614906376174,-0.434322381964872,-0.883786132766522,0
325,2985275865,0.0838007385304874,-0.113666847623579,-0.567123657776197,-0.811435789673841,0.145833339190194,-0.622210653113602,-0.499101780878984,0
326,2985292532,0.0820447023574129,-0.114889814850527,-0.564047920725721,-0.813584009419854,0.33527152375646,-0.119937336689427,-0.550862996013638,0
328,2985325866,0.0796525428992875,-0.116682914524143,-0.558686051681072,-0.817257894134308,0.962741199072041,0.642439215075522,-1.16085143674997,0
329,2985342533,0.0795867258542353,-0.116713603032082,-0.556323664698103,-0.818869872465672,1.17544240151768,0.961569627434141,-1.28964829898165,0
330,2985359200,0.0802853746226284,-0.115919954595236,-0.554450574931671,-0.820183749355157,1.23988894295504,1.11627512274795,-1.41285462069187,0
332,2985392534,0.0829793674925334,-0.112195619718206,-0.552363536820925,-0.821840063928052,1.09552035974658,0.688359376931746,-1.60588438744559,0
333,2985409201,0.0843727167111957,-0.109385886024092,-0.552838057292781,-0.821757905360357,0.983044330565034,0.467782038745889,-1.76409656809974,0
335,2985442535,0.0863485450258277,-0.102161921465659,-0.556324326718589,-0.820128108331543,0.755217450907568,-0.233997770530941,-2.22253780008227,0
337,2985475869,0.0868884091926031,-0.0952747783450188,-0.562057067896145,-0.816985295698322,0.625793140432271,-0.665540555072005,-1.27525664856098,0
339,2985509203,0.0869001114826925,-0.0895801196525246,-0.572141686153845,-0.810603271491283,0.275372671096233,-0.253885348961568,-0.476230180814551,0
340,2985525870,0.0869818802566995,-0.0874589931564764,-0.578388596794971,-0.806381862470014,0.063255196007889,0.0853369448365636,0.455864689258403,0
341,2985542537,0.0871938823372561,-0.0856939298121155,-0.585211678187792,-0.801611544944895,-0.159131964841201,0.476706760125729,0.85544200339773,0
343,2985575871,0.0884645957207365,-0.0832427310913972,-0.597615394960096,-0.792527919212377,-0.107803839382365,0.828432172635702,1.08464400745619,0
344,2985592538,0.0895858485218232,-0.0822619555480387,-0.602089826453347,-0.789110377130738,0.154313811950721,0.402722336493499,0.96889437972359,0
345,2985609205,0.0907260201838754,-0.0811695788270581,-0.605575292864376,-0.786421549429349,0.348939383627246,-0.0984073980818966,0.66601495249912,0
347,2985642539,0.0915850027096177,-0.079364385018777,-0.610594828626263,-0.782615765829015,0.592957922915854,-0.500175256887758,0.301193468479498,0
348,2985659206,0.0912185843056608,-0.0790067408998349,-0.612526251058797,-0.781184163007362,0.499669043998711,-0.383633232349593,0.117132530162164,0
349,2985675873,0.0904474294982558,-0.0789060255625328,-0.613987227450148,-0.780136389457102,0.313477477491846,-0.13013198111481,-0.238917392232026,0
351,2985709207,0.0880439992110027,-0.0791226153843088,-0.614033623361088,-0.780352853086174,-0.0473978902853911,0.220340971712535,-0.40494863788512,0
353,2985742541,0.0841013598453212,-0.0789139340463549,-0.612356706767315,-0.782124552716883,-0.170077231568309,0.482433585503727,-0.00295255933698174,0
355,2985775875,0.0795187917761158,-0.0770485295589942,-0.61086421003479,-0.783954847389718,-0.185160917004099,0.633673308865608,-0.320604528467204,0
356,2985792542,0.0775566874428452,-0.0752948233461101,-0.609674150956851,-0.785247145467727,-0.194873905838485,0.492897283886689,-0.208832811905029,0
358,2985825876,0.0744751350914637,-0.0706219944616076,-0.607114579275186,-0.787958041892388,-0.320847036211786,-0.103834242590585,0.232213954471806,0
359,2985842543,0.0731940011574351,-0.0681579023307046,-0.606366358250703,-0.788870697976686,-0.403895369861874,-0.253266609023615,0.37117010461521,0
360,2985859210,0.0720535639354831,-0.0658555964828847,-0.605857281287273,-0.789562080553057,-0.437909624389284,-0.280640195824365,0.270181038051049,0
362,2985892544,0.0700933912147349,-0.0621160654547301,-0.604412825757156,-0.791147045106465,-0.518325793045442,-0.161358458789957,0.274414413306994,0
363,2985909211,0.0694035854408431,-0.060888440858387,-0.603268382479384,-0.792176116023765,-0.399786654572237,-0.068580471301619,0.356955244261826,0
364,2985925878,0.0689762947351057,-0.059967501787235,-0.602018306977557,-0.793233967728242,-0.244889170125095,-0.0865069939767873,0.322262788203459,0
366,2985959212,0.0684026027316042,-0.0589855316548617,-0.59945210742133,-0.795298033383122,0.00882633423251407,0.0073312729985453,0.270495085036852,0
370,2986025880,0.0675797582269047,-0.0585569230141683,-0.594892296496202,-0.798816135674901,-0.195211777563114,0.115211605493695,0.053807241062539,0
371,2986042547,0.0674275957670355,-0.0583555159751162,-0.594052354616689,-0.799468544133365,-0.272003773120342,0.169489738157841,-0.0308920912493278,0
372,2986059214,0.0673451473969159,-0.0582117343042404,-0.593318312095816,-0.800030877931066,-0.260672199357097,0.183178198994461,-0.0378478893304827,0
374,2986092548,0.0674865540410097,-0.0577953564762126,-0.59167984966033,-0.801261640975897,-0.270462065940115,0.149503433757336,0.0923646561207068,0
375,2986109215,0.0676162462184448,-0.0575107628511324,-0.591035923943997,-0.80174627658086,-0.268895044884791,0.10321475442363,0.130071352275965,0
376,2986125882,0.067796013381658,-0.0572052929171048,-0.590673215960681,-0.802020203597446,-0.266370484577002,0.108305661607938,0.134313945195524,0
378,2986159216,0.068375307151866,-0.0566944825276114,-0.590434853426798,-0.802182795179309,-0.184384635637871,0.169320620582843,0.0398357549532079,0
379,2986175883,0.0687009497391765,-0.0565211814103817,-0.590329734592378,-0.802244563716702,-0.113917371367306,0.0878759573774071,0.0112905732138578,0
382,2986225884,0.0694322079315743,-0.0564305232970441,-0.590248797570466,-0.802247543784827,-0.0767908421212521,0.0637088054558738,0.140921984319964,0
383,2986242551,0.0696386350969528,-0.056541656509299,-0.59039829696343,-0.802111807994184,-0.0545188486857032,0.125072558901443,0.179682647461002,0
386,2986292552,0.0702890007425204,-0.056964256601612,-0.590358681652294,-0.802054335342818,-0.0327271820337529,0.164314904552926,0.151143617830751,0
387,2986309219,0.0705964331320414,-0.0571076446495433,-0.590200041278482,-0.802133886471886,-0.0410162406581211,0.139029302721782,0.203143782195565,0
389,2986342553,0.0711917114659131,-0.0576000417984203,-0.589980525356575,-0.802207551138328,-0.0801238040846987,0.152116857748167,0.22607012685529,0
391,2986375887,0.0718471840014679,-0.0582319495763118,-0.590025552801969,-0.802070364270075,-0.160329051129976,0.118002111281669,0.302745954300949,0
395,2986442555,0.0730510994192466,-0.0599040346988007,-0.590303297413126,-0.801633994141737,-0.384340877779931,0.0838619201988678,0.58694984813212,0
397,2986475889,0.0730087534514923,-0.061267516957094,-0.588973502504089,-0.802512446404065,-0.388175543748407,0.225296082056642,0.604146317481217,0
398,2986492556,0.0727801441411005,-0.0622741759959337,-0.587484761764365,-0.803546285112124,-0.194913089286981,0.250385752508708,0.698367406173096,0
399,2986509223,0.072381303260769,-0.0635634737327222,-0.58565319017212,-0.804817353557017,3.43431351467766e-05,0.284455903879493,0.729977756454359,0
401,2986542557,0.0713174993121734,-0.0679298810526443,-0.58211039496578,-0.807122564190108,0.61048649930513,0.0293193626466911,0.78159155941005,0
402,2986559224,0.071523828900775,-0.0706094408366076,-0.581366736484597,-0.807410283854104,0.537867898735339,-0.0138587742153757,0.917484625215046,0
405,2986609225,0.0770424780830761,-0.0781130534940321,-0.580355689906652,-0.80693870934392,0.791822732020483,-0.830260292149537,0.463304845445331,0
406,2986625892,0.0802223408132207,-0.0803701052832828,-0.579809393185003,-0.806799906907308,1.13403884606843,-1.2606421080348,-0.165779674261272,0
407,2986642559,0.0833691562959344,-0.0822329896013793,-0.579320847591413,-0.806644081826483,1.21924876155057,-1.13165742204933,-1.36845328801042,0
409,2986675893,0.087791823801811,-0.0845471180884738,-0.576192291771491,-0.808174995529807,1.60195048292193,-0.240173324520281,-2.99283972945643,0
410,2986692560,0.0890595624398503,-0.0849753154947743,-0.573735381899269,-0.809737798087434,1.45589002555162,0.213190817760249,-2.78747952443125,0
412,2986725894,0.0907870534352475,-0.084425089084597,-0.571251658946765,-0.811357909564067,1.20443398141939,0.341194208575722,-1.29545871169794,0
413,2986742561,0.0923236723614445,-0.0836366965228102,-0.5729686228363,-0.810054442467617,0.964533696353214,0.233694769145485,-0.745986197624407,0
416,2986792562,0.098770006078186,-0.0811122901129215,-0.590827209296365,-0.796610626998549,-0.436345507562743,0.990525540015849,2.20415975133134,0
417,2986809229,0.101214331269631,-0.0809817664576737,-0.599713729047721,-0.789646158629745,-1.3434384267997,2.05423092171781,2.96756653179839,0
418,2986825896,0.103399295094231,-0.0804431638474707,-0.607550622136569,-0.783402658092051,-2.31011782911404,2.24961251792588,1.89832069036697,0
420,2986859230,0.106405633200835,-0.078568277047019,-0.611506929798522,-0.780105212053718,-1.57001754890385,0.532058579877349,0.012017811851734,0
421,2986875897,0.106606368895628,-0.0776865180074549,-0.607782274822784,-0.783071256937712,-1.26100661263743,-0.535037865886681,0.107301665845398,0
422,2986892564,0.105316244168064,-0.0770679514504301,-0.603012174836894,-0.78698496591234,-1.00297509923702,-1.21336351810054,0.180315994923444,0
424,2986925898,0.100290301528875,-0.0756433395134105,-0.593552425854816,-0.794931102906642,-1.09766907021653,-1.45439246827845,0.365865031402358,0
425,2986942565,0.0980439352342419,-0.0747774104213247,-0.588889634780338,-0.798751978841207,-1.2602726194044,-1.2514444291912,0.481307281517039,0
426,2986959232,0.095989652923992,-0.0740850062059636,-0.584926664144029,-0.801971443357139,-1.38616635417414,-1.22904886177176,0.525224744814813,0
428,2986992566,0.0920470499500412,-0.0738697284847023,-0.579070816129382,-0.80668927953478,-1.63955422110378,-0.17403150218785,0.650229520837092,0
429,2987009233,0.0902918405917404,-0.0742463921822605,-0.576820558556933,-0.808463295392278,-1.5974237263406,0.297209501547556,0.671688703168561,0
430,2987025900,0.0883522588849493,-0.0748072663794786,-0.574950034482498,-0.809956918048936,-1.28476884408706,0.977667256984477,0.551480310920736,0
433,2987075901,0.0815940132393879,-0.077777702647593,-0.56971306897847,-0.814076203441353,-0.085450739057052,1.5634236051311,-0.0206107707739024,0
434,2987092568,0.0788118063246533,-0.0799966882173559,-0.568513696208814,-0.81497325494834,0.471741760936082,1.4550330641009,0.0957688602580303,0
436,2987125902,0.0755862036473542,-0.0847340548297128,-0.568563009183363,-0.814765592277101,1.56133852731669,0.957041609024677,-0.404123888340486,0
437,2987142569,0.0758264459168151,-0.0862078562381247,-0.568374812650911,-0.814719969048564,1.74950351160002,0.246856522617795,-0.805959231501711,0
439,2987175903,0.0785185775670243,-0.0875885700941864,-0.569443830429085,-0.813570402209887,1.30848334335865,-0.717279513668664,-0.256356968333255,0
441,2987209237,0.0820225266494155,-0.0875409588492242,-0.575664819779568,-0.808837994232443,0.34834263142807,-0.708192101676424,-0.970488143669185,0
443,2987242571,0.0843270792742952,-0.0851710423085962,-0.58020058440194,-0.805606677673901,-0.042815714914698,-0.39121099596933,-2.61879755848183,0
445,2987275905,0.0837223453199574,-0.0809654459971115,-0.577035623547261,-0.808371854164924,0.489611546830088,-0.390745057986823,-2.49276888257931,0
447,2987309239,0.0808441035892629,-0.0767627197959671,-0.572930066180845,-0.811986979594123,0.656848104372298,-0.429181506718368,-0.994390436162226,0
448,2987325906,0.0789511299437198,-0.0759884359081042,-0.57420258854213,-0.811346944284853,0.82848077987028,-0.303444853858995,-0.253497982064391,0
451,2987375907,0.0764674074090225,-0.0762123942658732,-0.591798910104555,-0.798823169771299,-0.181767938481263,2.23129735444038,0.0979931203014078,0
452,2987392574,0.0777056346669444,-0.0752932778692087,-0.596885119668078,-0.79499742802574,-0.257403682629906,1.91422236920315,-0.317251986212663,0
453,2987409241,0.0797026687663081,-0.075144530190109,-0.599847542266953,-0.792580412456889,0.581695023064779,0.898528709924169,0.612305816334522,0
455,2987442575,0.083928346584342,-0.0752198348101844,-0.609212456126787,-0.78495744622923,0.253080670249235,-0.620122877487502,0.550375484552518,0
456,2987459242,0.085116705539492,-0.0750450411351632,-0.615387071362448,-0.780014192588234,-0.00955218942499908,-0.270394956372127,-0.357828934489378,0
457,2987475909,0.0860005834625774,-0.0748717107612276,-0.62038460108953,-0.775964608279764,-0.561318447059402,0.000147692396018112,-0.825213341080749,0
459,2987509243,0.0857069854237318,-0.0742903641604435,-0.624582604701917,-0.772678344685713,-1.60322069497429,0.516968701972087,-0.385606733010883,0
460,2987525910,0.084622585689389,-0.0737894409662676,-0.624562444814093,-0.772862140954628,-1.55252889500162,0.428419623753459,0.121352477267739,0
461,2987542577,0.0832671079162819,-0.0731598368763305,-0.624098033130314,-0.773444162205884,-1.59884782095697,0.265963415013351,0.490158858195566,0
463,2987575911,0.0803490109751393,-0.0712460631735343,-0.623715941708221,-0.774239277598739,-1.60115830575455,-0.414682788857101,0.171576662220405,0
466,2987625912,0.0760514385092575,-0.064998366754278,-0.620285833257977,-0.777969714114506,-1.65949488952977,-1.44734830548778,0.0508526003335776,0
468,2987659246,0.0731171595522147,-0.0613189088308085,-0.615960253923401,-0.781976238760126,-1.63918954542382,-0.793203044579073,0.104057884522036,0
470,2987692580,0.0705601504428395,-0.0591675983634159,-0.610521123004825,-0.786628513873173,-1.2875001441236,0.667781409633167,0.012375732034439,0
471,2987709247,0.0690781572288848,-0.0593157340716465,-0.607639270119238,-0.788976786283577,-0.698026069983228,1.70409528253418,0.14412362808171,0
472,2987725914,0.0678680138342503,-0.0604536886016633,-0.606262961347562,-0.790053482955889,0.718521004512081,1.97878905981635,0.40669897039408,0
474,2987759248,0.0674130412629816,-0.0625929534675604,-0.608430151663253,-0.788257797037819,2.14333530966708,1.12722985306241,-0.42409902290924,0
475,2987775915,0.0684390140564701,-0.0625857388687861,-0.609354895493854,-0.787455229192683,2.6562181828774,0.617609010138331,-0.395351822869493,0
476,2987792582,0.0708018863137977,-0.0616298670536325,-0.611321310786151,-0.785795843307956,2.35098431034332,-0.0922089827765628,0.121019529725783,0
478,2987825916,0.0748603991501876,-0.0589053872337121,-0.62034824452338,-0.778520475973934,0.679981907207897,-0.895008823139323,-0.0176855384664122,0
479,2987842583,0.0757409079955813,-0.057938103445999,-0.625297440219812,-0.774538315565883,-0.153841199859738,-0.473578369843381,-0.254484325407656,0
482,2987892584,0.0760544318225205,-0.0566553726209878,-0.629133056257951,-0.771490433950325,-1.0951854831264,-0.0600264754417584,0.101410388655875,0
483,2987909251,0.0753989396501237,-0.0568747509472465,-0.627493372320122,-0.772872777563453,-0.861278628331971,0.343097603573011,0.347669693088327,0
484,2987925918,0.0745497875497494,-0.0574051277706142,-0.625432775801032,-0.774584290723574,-0.350567877548622,0.566570236992665,0.435098007949366,0
486,2987959252,0.0727767192635475,-0.0584407794859518,-0.621506188346165,-0.777829211507083,0.943722487163792,0.38877584269933,0.0126170479208363,0
487,2987975919,0.0721394273403728,-0.0586588934778861,-0.619876786994261,-0.77917123033684,1.27197090083312,0.345745299217473,-0.217253629957541,0
488,2987992586,0.0718292825788633,-0.0586743034920241,-0.618615642059777,-0.780200338165078,1.33722686711266,0.258616215227905,-0.114832103392648,0
490,2988025920,0.0720478218356932,-0.0584984793499779,-0.618541957239931,-0.78025180962063,0.831387122304127,0.0622185756798842,0.0768023672646432,0
491,2988042587,0.0723530485497582,-0.0585515538494534,-0.619688388436441,-0.779309343678374,0.41997134206879,0.103770580489528,0.0665150579103295,0
493,2988075921,0.0730214218526815,-0.058916765916791,-0.622236149926923,-0.777186502950636,-0.257440501108132,0.0371362254562937,-0.0784780309309365,0
494,2988092588,0.0732323477933424,-0.0592197358015912,-0.623186494862583,-0.776381760958584,-0.370674918387702,-0.0608652196726787,-0.0353817359702747,0
495,2988109255,0.0733088773207735,-0.0595287905194073,-0.623825872211981,-0.775837233422208,-0.412160176572261,-0.105984074654289,0.01770756527956,0
497,2988142589,0.0734524572807622,-0.0601080889938716,-0.624093790520942,-0.775563469221008,-0.259741523896055,-0.0432799650858516,0.0799292454254432,0
498,2988159256,0.0735952835138685,-0.0603713269708973,-0.623739318089077,-0.775814604267063,-0.193848835765757,-0.0226776362140068,0.164140951566231,0
499,2988175923,0.0737980329717318,-0.060523359638284,-0.623287155572646,-0.776146825649476,-0.141787320175828,0.0388972088485347,0.100735886700953,0
501,2988209257,0.0744149361669343,-0.0606629642250389,-0.621816365461985,-0.777255961501969,-0.117219723694301,0.0645693227045597,-1.423092620652e-05,0
502,2988225924,0.0747247945243931,-0.0607653086321367,-0.62087645965384,-0.777969282297085,-0.0573121208036486,0.00879893650437857,-0.00761276896441305,0
503,2988242591,0.0750149105883146,-0.0608973222985589,-0.619943497125298,-0.778674732926623,-0.043088116468206,-0.05142407070843,0.0517260951071662,0
505,2988275925,0.0755024895133571,-0.0610074902054673,-0.61834554383391,-0.779888612967814,-0.226982799202793,0.0276320455742734,0.0016813545711678,0
506,2988292592,0.0757277874776568,-0.0609568079163622,-0.617411852289935,-0.780610129593703,-0.325018173741749,0.0874071107723535,-0.0319007187304301,0
509,2988342593,0.0761406279593344,-0.0601199947917954,-0.61328857610652,-0.783878379225649,-0.570906405832692,0.220007039743578,-0.150965809917694,0
510,2988359260,0.0761792792149757,-0.0596401587522987,-0.61147213046915,-0.785328977271185,-0.611466214005224,0.168763317482769,-0.0182418888222862,0
511,2988375927,0.0761244892643742,-0.0590777872613892,-0.609688856701088,-0.786761955867883,-0.580107800053044,0.147144770532292,0.0786496714428175,0
513,2988409261,0.0759665332305284,-0.0575595249663636,-0.606764010241143,-0.789147275729105,-0.59213351047376,0.178918694294961,-0.0104539691718678,0
514,2988425928,0.0758873768303481,-0.0567929577727292,-0.605350625929459,-0.790295062411531,-0.55473755582968,0.131067462418292,-0.0299325096729193,0
515,2988442595,0.0758301814514569,-0.0561663893367945,-0.604092907832947,-0.791307069977163,-0.540519083893129,0.0293429912340768,0.0749799549498215,0
517,2988475929,0.0756059472077421,-0.0555605212707452,-0.602105767687739,-0.792884237288207,-0.519613695987698,0.0151739479796308,0.238440096674043,0
519,2988509263,0.0754667881928147,-0.0556588743986762,-0.601067582653461,-0.793677903600482,-0.485231948450505,-0.0697228591142525,0.478646540153643,0
521,2988542597,0.0755703249910792,-0.0563817949339651,-0.600779963382942,-0.793834778010109,-0.514139812735416,-0.0480245766147549,0.548524882366062,0
522,2988559264,0.075788044073399,-0.0570303543197129,-0.600433683245919,-0.794029661338565,-0.496689215132074,0.00758030495030682,0.453728439225553,0
525,2988609265,0.0768924451810893,-0.0595708588681121,-0.597158651121139,-0.796203749073672,-0.502580148092968,0.124207507415621,0.395790099609035,0
526,2988625932,0.0773817347681891,-0.0604836542605485,-0.595422050757094,-0.797387218460249,-0.465709635697697,0.0361421317869515,0.325311796119306,0
528,2988659266,0.0781846738371543,-0.0625376054711965,-0.591620772390112,-0.799975666102059,-0.238761875958559,0.212318401988076,0.0822243289641669,0
529,2988675933,0.078218612883088,-0.0638052431675458,-0.589439160986006,-0.801481263061769,-0.048157987359021,0.378227063174583,-0.136038061569072,0
530,2988692600,0.0778919079719566,-0.065130429475211,-0.587023379439527,-0.803177707497077,0.271070543877285,0.57911885125254,-0.345975797434463,0
532,2988725934,0.0767069550891474,-0.0684794500430893,-0.581945112748109,-0.806700993994267,0.753562483650006,0.530695669876633,-0.133021630072661,0
533,2988742601,0.0761902964387309,-0.0704752046208396,-0.58026366770009,-0.8077885615738,1.03551864343754,0.610292668093834,-0.189363284848255,0
534,2988759268,0.0761880635549528,-0.0724083463600074,-0.579268046984225,-0.808332196619828,1.22612843193368,0.627838508478896,-0.275445105676079,0
536,2988792602,0.0765257788145685,-0.0759995580204948,-0.578964510585345,-0.808188077021794,1.58027393723762,0.41689313582934,-0.115819106963792,0
537,2988809269,0.0766865163659631,-0.0777835198357253,-0.580494841493646,-0.80690435694008,1.55310075312266,0.327429044831671,-0.149092794972017,0
540,2988859270,0.0778440283076662,-0.0818312689601949,-0.587014531789215,-0.80165946021081,0.782712022382305,0.184989825076147,-1.15700180641554,0
541,2988875937,0.0788070671944439,-0.0825199081294274,-0.587768299751034,-0.80094215567062,0.662130219032083,-0.203348854492428,-1.08212040287051,0
542,2988892604,0.0799476893781128,-0.082960410920456,-0.587732700517137,-0.800809721423163,0.468186881836747,-0.5185042379525,-1.10933726383146,0
544,2988925938,0.0821374308452725,-0.0837782023441456,-0.585882250777112,-0.801858244012286,0.160037921327506,-0.607503962231449,-1.06773633771385,0
545,2988942605,0.0831436024316723,-0.0844461443750319,-0.584635913286419,-0.802593819419655,0.155821722298597,-0.471592517750151,-0.987479068847569,0
548,2988992606,0.0873616444717766,-0.0873158563931311,-0.584050916167428,-0.802264552140694,0.12666967506591,0.218832808385172,-0.1571698930625,0
549,2989009273,0.0897933913537302,-0.0887034008147517,-0.585557138281021,-0.800744460712177,0.189546673860989,0.822960392766563,0.377197651795655,0
551,2989042607,0.0960078313883044,-0.0905179987349782,-0.592320639721179,-0.794824035857889,-0.0443754786248601,1.00892018229289,-0.359076157388042,0
552,2989059274,0.0984470092378921,-0.091250157301732,-0.595341168188077,-0.792180843384249,-0.0560070751179752,0.961286961670174,-0.898233106510518,0
553,2989075941,0.10052836899397,-0.0916996054720051,-0.597024325515535,-0.790599256340664,0.0652920472150358,0.458096657889688,-0.994642847886377,0
556,2989125942,0.104244339800724,-0.0912785268467537,-0.596847253365275,-0.790300388653913,-0.172106788624037,-0.311655209026263,-0.273693912288889,0
557,2989142609,0.104728048221516,-0.090929067061578,-0.596301956695196,-0.790688255332342,-0.42802199828446,-0.251611355407268,-0.150798470237039,0
559,2989175943,0.104537727135385,-0.0903383283761729,-0.594824082891647,-0.791893402197339,-0.799104246785234,-0.0491943195699366,-0.253766791409307,0
560,2989192610,0.103864755338684,-0.0899755574389994,-0.593851282448454,-0.792752903492824,-0.817675364070141,0.22746784983257,-0.284535684987874,0
561,2989209277,0.10302320019221,-0.0895486642292875,-0.592583482329099,-0.793858975780727,-0.703335202144175,0.33305879605944,-0.353532956158534,0
564,2989259278,0.100966497361718,-0.088196690677943,-0.590103710125539,-0.796118534804987,-0.504371491387921,0.140754290475119,0.160277975361236,0
565,2989275945,0.100689433443808,-0.0875380749830595,-0.591141063887745,-0.795456451357766,-0.493849050724044,0.0147219848931422,0.351069674418801,0
567,2989309279,0.10070416839926,-0.0859932271311884,-0.59543227047878,-0.792416712738356,-0.613957636119111,0.115024349929639,0.29966247270069,0
568,2989325946,0.100898977035752,-0.0851345894332216,-0.597529608799875,-0.79090445992082,-0.523514680057445,0.146209382533091,0.256196814956876,0
569,2989342613,0.101043883637446,-0.0844021965184722,-0.599188356881035,-0.789708627140748,-0.448750639942587,0.0489827474698149,0.267936062459206,0
571,2989375947,0.100435699135097,-0.0837417689272907,-0.601950277491877,-0.787753673367269,-0.235142640095828,0.0148082714840461,0.348053526980514,0
572,2989392614,0.0993271705697269,-0.083709553320925,-0.602954014029176,-0.787129773821019,-0.144543303619441,0.151642908041487,0.112723946048766,0
574,2989425948,0.0958993931780383,-0.0838086730146511,-0.602953195333861,-0.787544828535046,0.070510748500331,0.0727175624688935,0.122347907854143,0
576,2989459282,0.0919960924726657,-0.0829238266926805,-0.600773119946367,-0.789767064574302,-0.132551345584884,0.0949421149309798,0.28796847700176,0
578,2989492616,0.0886729602133511,-0.0828210295764439,-0.598511589697763,-0.791872249914313,0.062331888480832,-0.366524808828201,0.95558226848009,0
580,2989525950,0.0865754254732837,-0.0824938928620724,-0.597161893814495,-0.79315643218754,-0.318416922873647,-0.312680636703947,0.577641578666184,0
582,2989559284,0.086403460551857,-0.0826858031573296,-0.593258276546574,-0.796079215448991,-0.371171495974952,-0.622608668991499,0.746290218769558,0
583,2989575951,0.0868419707238402,-0.0830214604478453,-0.591224415870008,-0.79750836942635,-0.419261872312549,-0.732938593247037,0.852626636157077,0
584,2989592618,0.0874736654700883,-0.0834482695230717,-0.589474795609311,-0.798689056832628,-0.436678072642848,-0.615725093659726,0.836622987753227,0
587,2989642619,0.0911390672250141,-0.0858848413421503,-0.582583256105639,-0.803065510502312,-0.280776050544923,-0.194936556434878,0.714961293183635,0
588,2989659286,0.093046066885252,-0.0868251690694194,-0.579347625255437,-0.805083938831311,-0.216247501718161,-0.00914143766667347,0.591702975549469,0
590,2989692620,0.0979730276712203,-0.0881548553925303,-0.570940676868242,-0.810343600466426,-0.0758310508436201,0.0977178169529199,0.296104670753347,0
591,2989709287,0.100865268196709,-0.0886683550877413,-0.566018872524084,-0.813379835270217,-0.0520899313825462,0.0414475653256482,0.167174592382969,0
592,2989725954,0.103916090148746,-0.0890361582315039,-0.561111502630562,-0.816350347798814,-0.160533419654613,0.0974366647104588,0.150342289864538,0
594,2989759288,0.109937772064138,-0.0893304751865302,-0.551460603258809,-0.82208573490236,-0.18214623958733,0.166127694512423,0.0580695701056335,0
595,2989775955,0.11289367068138,-0.0893994063498301,-0.546339816477324,-0.825091249617827,-0.0972978579724608,0.182115352320113,-0.14431823948174,0
596,2989792622,0.115705227847262,-0.0893766670859868,-0.540877513425269,-0.828296823065447,-0.101712233390808,0.345509264457284,-0.280115511943204,0
598,2989825956,0.120523517911702,-0.0895671296641794,-0.530068314808549,-0.83455340904578,0.128800122255982,0.240277532562404,0.0726977495837976,0
599,2989842623,0.12242889820886,-0.089865875522873,-0.525019644944984,-0.837430392165053,0.183730146610352,0.175062264462855,-0.105579474867805,0
603,2989909291,0.12607084943202,-0.0916974948782519,-0.50160692006219,-0.850933727209273,0.148466779053892,0.221709409364105,0.142912099781279,0
605,2989942625,0.127195303006439,-0.0922913249279435,-0.490888760017201,-0.856931672611603,0.147380723695666,0.724095309548083,-0.706673798654118,0
606,2989959292,0.128084637843449,-0.0927908724890623,-0.484794085487698,-0.860208622490718,0.32822749305603,0.499154651603764,-0.662479055165573,0
607,2989975959,0.128574953361679,-0.0928354002237837,-0.478869167608815,-0.863443333489218,0.61234537423684,0.694699519746032,-0.781511428157944,0
609,2990009293,0.129517615255228,-0.0925836827632534,-0.469494346993315,-0.868463302141151,0.433095111171901,0.481619911746937,-0.569677503227825,0
610,2990025960,0.129993812233219,-0.0923315029070235,-0.466487163806095,-0.870038061441079,0.393362589544048,0.553274455273422,-0.714687032210135,0
611,2990042627,0.130371240933436,-0.0921643090335051,-0.464299337038783,-0.871168873010968,0.504783293947318,0.68851608170663,-1.01583176788149,0
614,2990092628,0.132555203109621,-0.0918306957780535,-0.460519727608445,-0.872879041978285,0.41270494776916,0.476136103475124,-0.800286207754032,0
615,2990109295,0.133888735961447,-0.0917535657638357,-0.461148076523037,-0.872351730136057,0.258986361166898,0.388515094641825,-0.439023013371677,0
617,2990142629,0.137185016470907,-0.0914965351262695,-0.465829845750725,-0.869374033499747,0.138311076172348,0.380201952051472,-0.227180951081917,0
619,2990175963,0.140366678512225,-0.0908112105312709,-0.473561400236171,-0.864748587632063,-0.429792047364277,0.767682691952278,-0.13441585055117,0
621,2990209297,0.14117686287134,-0.0896269834420258,-0.480567857912286,-0.860866209797136,-0.595228517875641,0.872708980554764,-0.310806230758791,0
622,2990225964,0.140628490239982,-0.088655955193988,-0.482684973870243,-0.859871481874674,-0.537519344393256,0.237849708701824,-0.10355652601394,0
623,2990242631,0.139518120535687,-0.0873686655145857,-0.484607950235865,-0.859102173723582,-0.62456257048738,-0.358909055576515,0.351939701954808,0
626,2990292632,0.132961419613382,-0.0836064798727748,-0.491858411302777,-0.856391569697172,-1.82638161524581,-0.355134153682786,0.360289735656075,0
629,2990342633,0.121512569148402,-0.0828213348607021,-0.490926628054941,-0.858700394723009,-1.79691939766432,-0.753241531572409,0.61992522746379,0
630,2990359300,0.11738958180304,-0.083366249882324,-0.48960055285505,-0.859977356160437,-1.77178604831373,-1.01140620393378,0.83093563853961,0
632,2990392634,0.109275866265521,-0.0856569171295558,-0.48864641625391,-0.861363081099945,-1.82056577905763,-1.10852904359125,0.883701338042778,0
633,2990409301,0.105466601928864,-0.0873377329525406,-0.488716970879206,-0.861629060939185,-1.91866148497716,-0.989479275785243,0.842992942862557,0
634,2990425968,0.101777066726837,-0.0893947354954764,-0.488942667392042,-0.861733762804806,-1.91600320152382,-0.721430657906595,0.921453434048887,0
637,2990475969,0.0914974392950931,-0.0970192768662018,-0.488946217108923,-0.862059786380083,-1.8982324241051,0.254063032044446,1.11708703377272,0
641,2990542637,0.0827750655423452,-0.108400932527805,-0.481300041428981,-0.865879781766513,-0.161420772756485,0.994000929486896,0.237717601038402,0
644,2990592638,0.0847431987052813,-0.109651815984492,-0.475915115199571,-0.868504388387922,0.743639622994456,0.409339218813386,-0.0965399198344557,0
646,2990625972,0.0887055453697321,-0.107672691688087,-0.479330768759707,-0.866475580616978,0.804053042496338,0.515065394383123,-0.345174996751131,0
648,2990659306,0.0933467682556181,-0.104823907584493,-0.488082391282758,-0.861437118177906,0.829328531418094,0.98666568549829,-0.7002246100549,0
649,2990675973,0.0952193722331155,-0.103536763829757,-0.492711315857861,-0.858748489904237,1.35913553036785,1.0784033821892,-0.939106152353245,0
650,2990692640,0.0959460157341569,-0.102915563580178,-0.496650937414884,-0.856469844888092,2.4023985037205,1.12559643216822,-1.00279003712273,0
652,2990725974,0.094259041762581,-0.101601646412583,-0.503648678088811,-0.852719383825444,3.03253650796525,1.09272443083288,-0.921290679483638,0
653,2990742641,0.0918083550149637,-0.101268554290552,-0.506232219179133,-0.851495652441232,2.96462119546397,0.795937993826676,-0.825778738692547,0
655,2990775975,0.0860713539281405,-0.100888989184325,-0.510212190912612,-0.849762704605523,1.9859974157056,0.466996043717107,-0.961121439029611,0
656,2990792642,0.0831663580158754,-0.100687654448727,-0.511550459138974,-0.849271146861056,1.31046733818302,-0.0567021117553981,-1.10880918182514,0
657,2990809309,0.0801403288067337,-0.100754182887608,-0.512565297358094,-0.84894224672448,0.838004279791799,-0.363148797173926,-0.999957180993122,0
659,2990842643,0.0739989801989695,-0.100852285972532,-0.515146332165608,-0.847925246587191,0.319288279459752,-0.40979246587611,-1.02529385551267,0
660,2990859310,0.0711568991061374,-0.100915400253555,-0.516967026229554,-0.847052460885768,0.290331918878635,-0.438247474939202,-0.939000333335546,0
661,2990875977,0.0684590302217321,-0.101050438537591,-0.519226417859437,-0.845875934785543,0.304406518659248,-0.35930034088928,-0.949212188815206,0
663,2990909311,0.0629774905893848,-0.101423515080316,-0.525224069581084,-0.842547792710005,0.542447626565977,0.0913251083665819,-1.11330369080379,0
664,2990925978,0.0597658634171162,-0.101305095866009,-0.528443519905757,-0.840781044857221,0.554515286403683,0.237033337932887,-1.15321980965745,0
665,2990942645,0.0558617702455159,-0.101553237228577,-0.530942777864763,-0.839443964339897,0.667915058127651,0.197858838311101,-1.14044973438896,0
667,2990975979,0.0456400404865922,-0.103144205006532,-0.533004896958736,-0.838560695177135,1.11271057539497,0.0738428203031589,-0.718564950509753,0
669,2991009313,0.0337404774548525,-0.104091059121949,-0.531946420333205,-0.839678294042831,1.16663956650822,-0.112824150965482,-0.395160820663282,0
671,2991042647,0.0184186063771458,-0.10799423232234,-0.528099970118652,-0.842085757084699,1.39839808376936,-0.513204306067096,-0.0272726499133324,0
672,2991059314,0.0101206380347877,-0.110851893702571,-0.525873685374331,-0.843247471018527,1.41563601639299,-0.120945096266403,0.337823323765014,0
673,2991075981,0.00237348078022951,-0.113251505605885,-0.523501780099178,-0.844460981514231,1.46851370208635,0.233959040288821,0.522749777434617,0
675,2991109315,0.0111986627187027,0.117641847273171,0.517548847977998,0.847453937202557,1.29811620654903,-0.362262752713587,0.862346547051885,0
676,2991125982,0.0176425039914917,0.120257578902332,0.513803742502594,0.849254126254201,0.986729347834697,-0.612994826742966,0.901778114642125,0
677,2991142649,0.0244023382451107,0.123615950541237,0.509265836467841,0.851335380720588,0.692114980157817,-0.846538350539917,0.73838492922346,0
679,2991175983,0.0384243774531954,0.131441087625085,0.496864317183064,0.856955458592497,0.492732629697993,-0.752571118601787,0.155733120270227,0
680,2991192650,0.0446181920788068,0.134917050501326,0.488803462367993,0.860742575684916,0.300877542790768,-0.646199585871916,0.149909405723906,0
681,2991209317,0.0498711364949147,0.138257896724229,0.480260797149926,0.864723765406627,0.198325916967136,-0.966831320743033,0.33109783621599,0
684,2991259318,0.0617392385457386,0.148963951269111,0.455255671197893,0.875637071787303,-0.283350562773539,-0.482064818629613,0.160591326292604,0
686,2991292652,0.0660055854163442,0.153209949525474,0.436368815090363,0.8841675357515,-0.974075653311978,-0.380496190157907,0.46128329953003,0
687,2991309319,0.066841582721704,0.155089292694767,0.428192978413627,0.887767023124852,-1.32119792207949,-0.525968109599841,0.761450663021721,0
688,2991325986,0.0667771859529669,0.156668202311183,0.421374446367787,0.890752186508137,-1.40621786600429,-0.236531529820645,0.670966897906297,0
690,2991359320,0.0650905032253912,0.158352662656309,0.406000644201377,0.897692117336222,-1.79350403542536,0.825240349088516,0.497131867920172,0
691,2991375987,0.063469549711154,0.158966258257706,0.398230087447077,0.90117375818812,-2.19662200235103,0.521584872986357,1.1693483050579,0
692,2991392654,0.0609598603781182,0.159413002694017,0.392293427935741,0.903867941899248,-2.43275359320112,0.402029103884652,1.64452881817112,0
694,2991425988,0.0526087767052192,0.159428869359211,0.384784278668846,0.907609944369122,-1.57346361849471,0.958705473100994,1.36462803188677,0
695,2991442655,0.0467176125330752,0.157936864459259,0.379894509714487,0.910249181824833,-1.50177573607991,0.877417184663785,0.592770004284872,0
696,2991459322,0.0400698567020468,0.155943053882007,0.374495408366802,0.913142573556842,-2.10046930560272,0.0733487413163697,0.464337054374842,0
699,2991509323,0.0182305564482809,0.150431023317862,0.367824783986834,0.917465575550476,-2.15491086664109,0.511218211925329,-0.509512489907206,0
700,2991525990,0.0113292113414962,0.148782541588408,0.36569301707819,0.918696914955702,-1.80621724354285,0.390675193313564,-0.26716648000642,0
702,2991559324,0.00256569086376104,-0.146202925505734,-0.362872051512307,-0.92029451592151,-1.5299130508864,0.320551864275035,-0.318416046058286,0
703,2991575991,0.00921794172308053,-0.145230314397411,-0.362699635807768,-0.920473877693078,-0.974656081050325,0.568709657004308,-0.250070473497557,0
704,2991592658,0.0154349892211668,-0.14436754492472,-0.362874790439497,-0.920457310006088,-0.389082659860114,0.880838247560324,-0.228495045616671,0
706,2991625992,0.0262455110367867,-0.143919049889047,-0.365510320004316,-0.919239188785919,0.952589023578164,1.22671281897063,-0.214044822061096,0
707,2991642659,0.0298809885730746,-0.14420674296071,-0.367768743845627,-0.9181817319337,1.87780336152684,1.52054862152326,-0.511389900993394,0
708,2991659326,0.0315980222092317,-0.145191071427486,-0.369916383880808,-0.917105766368716,2.40245600430276,1.53703770478323,-0.662674943487325,0
710,2991692660,0.0293603677224598,-0.145894955565082,-0.372612422392838,-0.915976317066335,2.89543162862938,1.76621194055666,-0.697138358931656,0
711,2991709327,0.0260880082018572,-0.145292408572097,-0.372358361603605,-0.91627440343123,2.99080450488278,1.32279251342995,-0.471848110063122,0
715,2991775995,0.000997629573676797,-0.145190784225349,-0.372434639161598,-0.916630285591651,1.57281421828399,1.04642852337103,-0.221163467792224,0
717,2991809329,0.0155325437997729,0.145196486366557,0.371080653775701,0.917047364547389,0.282124244126563,0.676587666302504,0.0868945482260322,0
718,2991825996,0.0242266435879906,0.145350572888188,0.370423431937547,0.917100191785578,-0.14001192765561,0.599139760939576,-0.0213880086482957,0
719,2991842663,0.0332321993909132,0.145974494418067,0.369815686693853,0.916964244547292,-0.340216000163705,0.532805329226632,-0.0271558264503404,0
721,2991875997,0.0511317815481759,0.147932839172414,0.367932478846696,0.916584478932424,-0.838645186947468,0.840335568581165,0.511723619893337,0
722,2991892664,0.0593795816331589,0.148417684233856,0.366078082143272,0.91675138072764,-0.91336770827243,0.91067184986248,0.335381576163465,0
723,2991909331,0.0671463798779132,0.14870576864885,0.363083459874379,0.917359449292095,-1.13902297270435,0.867404955109153,0.107961012329941,0
725,2991942665,0.0807232442444774,0.148673232550522,0.356715655775587,0.918767635850446,-1.50503999694887,0.615785830489048,0.207751149853568,0
726,2991959332,0.0861074812585606,0.147560412364693,0.353723383526772,0.919614698838835,-1.57773607457893,0.605629688442116,0.249725911002022,0
727,2991975999,0.0900451395757368,0.145747056990365,0.351484548545884,0.920384854477153,-1.76120489213212,0.150075750862556,0.630864224589441,0
729,2992009333,0.0926018667252528,0.140042243641762,0.352567621777486,0.920602594146327,-2.09345392489608,-0.204507122696043,0.669068219675847,0
731,2992042667,0.0873334595484303,0.131044421686404,0.363169204012269,0.918318221340115,-2.26058893179394,0.0995455960521502,0.722121249548506,0
734,2992092668,0.0670814393323149,0.117148905276121,0.39546289130536,0.90850719099527,-2.23701983650341,-0.337001764861984,-0.166711385050991,0
736,2992126002,0.0511048854394806,0.107919799873007,0.417885921782668,0.900618101003659,-1.26380724004892,0.510683789493251,-0.918583892408942,0
737,2992142669,0.0421090578267661,0.102047265452685,0.426636862233999,0.897660387142988,-0.974551322439602,-0.25422591820257,-0.288682103535271,0
738,2992159336,0.0322702051938736,0.0955632524203619,0.435062741031887,0.89473275898975,-0.574222697559278,-0.799782710358673,0.233481372207566,0
740,2992192670,0.0116013530928738,0.0824375254952883,0.45409584558192,0.887054917139784,0.307690804815039,-1.0739186978631,0.851565378779672,0
741,2992209337,0.000639276253399119,0.0756916072360834,0.465014364658487,0.882061229496657,0.449399035539236,-0.688785558540313,1.11993305927226,0
742,2992226004,0.0110349747981829,-0.0687929565138721,-0.476896523854585,-0.876193736567831,0.672423814490064,-0.47967427543016,1.03800926644297,0
746,2992292672,0.0539065287562762,-0.0430818817083427,-0.513142164661884,-0.855525076471773,1.09952132917763,0.251291061029477,-0.298903389912401,0
748,2992326006,0.0664121067776746,-0.0356839465048684,-0.522222931453436,-0.849470010005867,3.0710264874896,-1.33576704822914,-1.02796503076985,0
749,2992342673,0.0676799323707527,-0.0335803868764006,-0.530130477348568,-0.844543344866148,3.8861505064964,0.46282202835824,-2.00578357966425,0
750,2992359340,0.0673047894162348,-0.0324741565371385,-0.536090799622417,-0.840846091171884,3.38862419432149,1.01518396160766,-2.16539151217153,0
752,2992392674,0.0636052003459181,-0.0323054903574217,-0.541990972094531,-0.83735089415952,1.46247138047457,-0.0344397284246045,-0.655171069332693,0
753,2992409341,0.0609104256799859,-0.0327954957411737,-0.544374963969367,-0.835984613558122,0.302506856363569,-0.805440448904733,0.0663018119129792,0
754,2992426008,0.0576099738447731,-0.0331577725565522,-0.546262062626222,-0.834972701331031,-0.685351903606588,-0.824738934425034,-0.17827506481712,0
756,2992459342,0.0491395493567899,-0.0359647195973485,-0.543840485707123,-0.836976325674231,-1.09775878460456,-0.843140719142723,0.849363776066375,0
757,2992476009,0.0448657328181787,-0.0382182021110561,-0.542436184313987,-0.838027100392922,-0.997765017772926,-0.970759909615035,1.04042792667274,0
760,2992526010,0.0376022347871309,-0.0438772097409361,-0.539830769700361,-0.839787831829611,-0.254857166882511,-0.0769113041833445,0.883700245773145,0
763,2992576011,0.0409440837256475,-0.0464300504689645,-0.537731139748434,-0.840840682749216,-0.891946327855466,0.265966101708793,1.27152054553393,0
764,2992592678,0.0436810088707453,-0.0465846698851256,-0.536960833442867,-0.84118660316488,-0.845850042959992,0.292670739453018,1.03639528807307,0
765,2992609345,0.0471540872130677,-0.0462779996504701,-0.536112940657032,-0.841556744175652,-0.683096168126482,0.425811609601969,0.532547042957015,0
767,2992642679,0.0559850097431426,-0.0443601510691846,-0.5331213201361,-0.843018098084212,-0.244946659059912,0.559548383478498,0.0182059796952418,0
768,2992659346,0.0607450056459615,-0.0430257297038755,-0.531076304045587,-0.844047860108536,0.0927180923004974,0.377631824543882,-0.0872018457385509,0
769,2992676013,0.0644096349751001,-0.0419661070563882,-0.52940026635317,-0.844882005232742,0.854644003708991,0.383296196083852,-0.748839925912074,0
772,2992726014,0.0668689693105014,-0.0413006286383747,-0.527390800856396,-0.84597975282478,1.83794454121847,0.74095242101438,-1.01632334239618,0
773,2992742681,0.0659400204385348,-0.0412104702300715,-0.526897454400676,-0.846364391615142,1.40917139657294,0.667545823076449,-0.624860529856959,0
775,2992776015,0.0631311756127987,-0.0411847625042724,-0.525256084875328,-0.847599147772492,0.20102326010177,0.265313668229909,0.21299358478983,0
776,2992792682,0.0618048097547999,-0.0413723496866151,-0.524224080028432,-0.848326357064854,-0.363851498425708,-0.0256453191570633,0.626438691032738,0
779,2992842683,0.059869395988521,-0.0424823083974707,-0.522742684275921,-0.849323845734474,-0.891507143000099,-0.121172389023471,0.152211291980508,0
780,2992859350,0.05996617622258,-0.0428022540912005,-0.521950599284871,-0.849787971590631,-0.85743099337301,-0.179097261254262,0.150769909454009,0
781,2992876017,0.0602878197603273,-0.0431126904143887,-0.521207770087546,-0.850205348791777,-0.604769165739044,-0.150713002768514,0.0809814293228294,0
783,2992909351,0.0614468250605675,-0.0437367379594037,-0.520190257119579,-0.850713513375985,-0.0791718239301942,0.0893730303560176,-0.0243199424164431,0
784,2992926018,0.0617899826663608,-0.0440208123995234,-0.519870833086224,-0.850869251427041,0.312399092297865,0.198464497011205,-0.182518448651687,0
785,2992942685,0.0617532725754988,-0.0442883390837738,-0.519653543498968,-0.850990758514088,0.617377892273983,0.337287292586252,-0.325411130394578,0
787,2992976019,0.0604843675651521,-0.0446754919755286,-0.518999830457899,-0.851460461607972,0.757625284773753,0.406583310075743,-0.190736416621489,0
788,2992992686,0.0594968559289931,-0.0446651568516175,-0.518642982637162,-0.851747970035276,0.588777301160576,0.370266027094382,-0.0963241058879026,0
790,2993026020,0.0575805180877319,-0.0442303165334656,-0.516925489126239,-0.852945603029699,0.115497330575843,0.232035916277457,-0.118921365804142,0
791,2993042687,0.0567687319678985,-0.0439809471260517,-0.515733882272031,-0.853733887131857,-0.22494979183983,0.0394546986059322,0.0735163137065398,0
795,2993109355,0.0547199439823112,-0.0434466551386149,-0.51326639857079,-0.855380453357458,-0.363318765440856,0.264900035728697,-0.235117775681244,0
796,2993126022,0.0546339193866608,-0.0431802772127919,-0.512954975182785,-0.855586227067445,-0.299983420818064,0.20964637818277,-0.154853388577755,0
798,2993159356,0.0545962358887656,-0.0425834898038657,-0.513153958385654,-0.855499218243966,0.0182693271616229,0.122612169203601,-0.11889631537399,0
800,2993192690,0.0542886507036303,-0.042163282359438,-0.514586509937803,-0.854678725496013,0.153559518441892,0.132483583603493,-0.176960625029506,0
802,2993226024,0.0538408213455006,-0.0418298780314254,-0.516237263821682,-0.853727424124715,-0.026794402569048,0.249197477075192,0.0477091805904103,0
804,2993259358,0.0532345982406069,-0.0413785609856528,-0.517887532029941,-0.852787427445348,-0.00806230763686313,0.165308306181125,-0.142972610014425,0
806,2993292692,0.0524477677107807,-0.0412061951829232,-0.518717685735827,-0.852339863930798,-0.102021144974693,0.195525512883643,-0.126130717111476,0
807,2993309359,0.052056625924763,-0.0411967535492889,-0.518664920475235,-0.852396407467058,-0.16708264458601,0.178678828454096,-0.107128027280156,0
808,2993326026,0.0516110385365507,-0.0411739038919182,-0.518248316205026,-0.852677953913512,-0.192123637898093,0.185526591529576,-0.0601788583391886,0
810,2993359360,0.0504050574295252,-0.0408709549140443,-0.515394654224432,-0.854492390619612,-0.0970971095296774,0.227543753033006,-0.374772543002862,0
811,2993376027,0.0495196482182353,-0.0405602024765968,-0.512291735705922,-0.85642270634472,-0.0933825224167268,0.191830707412589,-0.287726889999588,0
812,2993392694,0.0485184277333252,-0.0404877368551954,-0.508606190249074,-0.858677150374315,0.0266483881985937,0.0191617283730655,-0.144826931221832,0
814,2993426028,0.0462306892835913,-0.0410068354682809,-0.500574964001751,-0.863484723795324,0.125313586253805,0.209479602643398,-0.0177203020485643,0
815,2993442695,0.0449962989769846,-0.0414763572018461,-0.496267660532396,-0.8660100772978,0.157592052492709,0.204432259507142,0.0944264040549221,0
817,2993476029,0.0430892827497259,-0.0425330114500995,-0.489721955415385,-0.869773914895837,0.0311144001510121,0.040629957648195,0.148412730669035,0
818,2993492696,0.0425621318422943,-0.0428964067362074,-0.488164964477886,-0.870656838644518,-0.0913481183536525,0.120428738748983,0.121362956053358,0
819,2993509363,0.0422751580593106,-0.0429899521242884,-0.487880213719586,-0.8708257989336,-0.253339307269448,0.193095271501568,0.0752496653308301,0
821,2993542697,0.0419958364368983,-0.0423172351188979,-0.489372896670597,-0.870034349516205,-0.306395924858183,0.436273318581738,-0.509457638263491,0
823,2993576031,0.0415378311738549,-0.0412926127792429,-0.490916636969725,-0.869235517139959,-0.228863097194363,0.0521946551658987,-0.0931242302910742,0
827,2993642699,0.0404903076875522,-0.0385849680274543,-0.492822818672073,-0.868330239380042,0.0577197111370147,0.0203244244810449,-0.357003152172271,0
829,2993676033,0.0389383041220531,-0.0387417024642231,-0.490181039347175,-0.869888175357497,-0.015314809238177,-0.0508885623167357,-0.631640892429209,0
830,2993692700,0.0373783167074749,-0.0394933495428145,-0.488586342380567,-0.870819454778764,-0.17394596200948,-0.139560395947472,-0.385519551866915,0
831,2993709367,0.0355141524396195,-0.0405181323135144,-0.486821552827057,-0.871838173994104,-0.219474713532679,-0.00958453804928189,-0.328583208085944,0
833,2993742701,0.0314703142973375,-0.0422389575432513,-0.482837441787275,-0.874124415968348,0.0674661304175963,-0.00196960767687988,-0.27944655139248,0
834,2993759368,0.0292584196033459,-0.0430820905070626,-0.480613176460514,-0.875384974152738,0.0445520664794969,0.0613856498503401,-0.30574434956097,0
835,2993776035,0.0268505332193978,-0.0442021353643249,-0.47863723664411,-0.876488229123905,-0.0028307963980348,0.168026812196432,-0.00521066889578532,0
837,2993809369,0.0227284975996154,-0.045769905895419,-0.476777073559599,-0.877537550899752,-0.142339600822687,0.350011029428593,0.123521183527446,0
838,2993826036,0.0211720894318977,-0.0459537865696214,-0.475984036652294,-0.877997260235583,-0.0679586430185491,0.438439123885455,-0.178610769673018,0
839,2993842703,0.0197307489033984,-0.0458841646002429,-0.474657322229651,-0.878752392565975,-0.192699553592435,0.22809231919476,-0.16431711703217,0
842,2993892704,0.0160796123287767,-0.0451241047337243,-0.472613203224797,-0.879967056983915,-0.470232858129593,0.256735770858663,0.112157479497131,0
844,2993926038,0.015390736595054,-0.0430589010241563,-0.47318172442922,-0.879777308150104,-0.271636324741275,0.527249596153015,0.125079562550225,0
845,2993942705,0.015583560782029,-0.041327023427648,-0.473045173088275,-0.879930391557109,-0.33729673899525,0.549974580927896,0.0344374298080389,0
848,2993992706,0.0173405471164913,-0.035029826312072,-0.473908358609104,-0.87970624888918,-0.159136419458166,0.0928255491937134,0.359612209403946,0
849,2994009373,0.0186571152129388,-0.0324748512060441,-0.475639488067209,-0.878842632945307,-0.0801712528030009,0.0816092910428284,0.379594041995442,0
850,2994026040,0.0202736611689016,-0.0296567972562166,-0.477835621517622,-0.877714402210753,0.080890856467857,0.048681158984731,0.372478160642777,0
852,2994059374,0.0239929300357452,-0.023093285727463,-0.481834874496427,-0.875629027146555,0.023042493793756,0.0640728180965219,0.280017233690432,0
853,2994076041,0.0258264940203381,-0.0200544626953968,-0.484058434851462,-0.874424520688761,0.0122857481669593,-0.0796494651111817,0.307236429823566,0
854,2994092708,0.0276206447880668,-0.0172072470475126,-0.486457423658487,-0.873098038938403,0.0375121730409287,0.0495473505965882,0.147860699953334,0
856,2994126042,0.0309564754758858,-0.0121560016693772,-0.490632024057624,-0.870731959456321,0.0933564472359565,0.163017974823814,0.142433800071303,0
858,2994159376,0.0335222054787379,-0.00780207506801766,-0.493781440935905,-0.868904642611452,0.311589727845203,0.0635794845863932,0.125828274138153,0
860,2994192710,0.0346330595843308,-0.00379776480741461,-0.494570659414625,-0.868438823989622,0.389059972810722,0.178357495980091,-0.226816318099801,0
861,2994209377,0.0346434085575249,-0.00214261627098287,-0.494208112072548,-0.868650439129987,0.297931784770442,-0.0331903798522062,-0.173562839748479,0
862,2994226044,0.0343397009521575,-0.000946605407818607,-0.493864981003858,-0.868859752442693,0.210798948178887,-0.0254130594907201,-0.147146998619245,0
864,2994259378,0.0331430956142901,0.00064572840825857,-0.493687014654482,-0.869007623562343,0.00611171074302815,0.0702348943359983,0.0292173164870153,0
865,2994276045,0.0323987258469052,0.00118930289908147,-0.493376037852421,-0.869211708040773,-0.0884897221897266,0.0463358271143753,0.243060206517008,0
866,2994292712,0.0316559625952946,0.0016813407223141,-0.492959291408822,-0.869474674811896,-0.178325933562685,0.0228599949488814,0.431361858050276,0
868,2994326046,0.0307027425743203,0.00272381776365897,-0.492306519443879,-0.869875975831186,-0.229566455404165,-0.046867405601788,0.302705471377571,0
869,2994342713,0.0305395479005096,0.00320331107575813,-0.492158006324342,-0.869964120882599,-0.247081337788491,-0.0182816103106976,0.248419399229139,0
872,2994392714,0.0309170583443418,0.00498308038079998,-0.492032614814243,-0.87001333919217,-0.208489428180747,-0.0247220116460513,0.109137918236807,0
875,2994442715,0.0321033246024433,0.00640289520493427,-0.492924929727323,-0.86945580286509,0.0448623721453561,-0.00770125952962475,0.0685502210723589,0
876,2994459382,0.0322607876027828,0.00674162616676992,-0.493619651025426,-0.869053181445999,0.000933948613115756,0.0778962504208935,0.113371153853954,0
877,2994476049,0.0321350737539506,0.00711639190690974,-0.494274571098044,-0.868682532555421,-0.0110104435877527,0.0946911948791918,0.138920890586568,0
879,2994509383,0.0315336333827616,0.00771810410710438,-0.495355497701412,-0.868083516564887,0.16614439836336,0.0950800630523547,0.0767072046134093,0
880,2994526050,0.0312041419578991,0.00792776452615378,-0.495482375166027,-0.86802112184792,0.200443255992926,0.0454921875193263,0.127870832041489,0
881,2994542717,0.0308308336760215,0.00805033090264466,-0.495277534403659,-0.868150226505892,0.0836271418961956,0.0515835937494687,0.274361288408872,0
883,2994576051,0.0300867412420521,0.00830848802251436,-0.494041433958656,-0.868877907740949,-0.044259974553892,0.0137918937623149,0.224689800217383,0
884,2994592718,0.0299891292525149,0.00847443246273856,-0.492945895405788,-0.869501685060872,-0.0993463929269449,-0.0217404371610242,0.0706186559742397,0
885,2994609385,0.030050132329228,0.00852540719712192,-0.492076650519124,-0.869991308573252,-0.206698374035083,-0.0371506235446861,0.0571487365747692,0
887,2994642719,0.0303000308684856,0.00832194012613744,-0.491276028169949,-0.870436969336359,-0.211077470443148,0.0630529906277357,0.00380422845966332,0
888,2994659386,0.030399502661169,0.00813284677246414,-0.490969528386519,-0.870608206506949,-0.0558393380566607,0.115664162229007,-0.0111667545550738,0
889,2994676053,0.0305456321213797,0.00790625051675332,-0.49049268349441,-0.870873919117758,0.022359012059677,0.100857990543857,0.00703704343408501,0
891,2994709387,0.0309927464399265,0.00740898506609141,-0.489472083243064,-0.871436536033518,0.183040527164075,0.136093654166329,-0.0159944982829385,0
892,2994726054,0.0312451273001606,0.00722766850428966,-0.489208634678036,-0.871576969971351,0.100649042106439,0.141638490962569,-0.0233248917345852,0
893,2994742721,0.0313951264936663,0.00707837713525409,-0.489242379436649,-0.871553863380081,-0.00584506399608079,0.127358345137312,0.0557457210555091,0
895,2994776055,0.0315194334674651,0.00676779259599722,-0.489915211974289,-0.871173810082382,0.00982393941125643,0.121325077769103,0.0321296756360746,0
896,2994792722,0.0316153376864018,0.00660469802320545,-0.490361005669663,-0.870920738360061,0.0380387635621917,0.0939454231176309,-0.0391936406617516,0
897,2994809389,0.0318202796193645,0.00642596278171525,-0.490786226314965,-0.870675058139826,0.00381014327219082,0.0761349020321804,-0.0890993609337055,0
899,2994842723,0.0323089788204628,0.00603456773308522,-0.49163501332593,-0.870180859104512,-0.107805271211986,0.120599402832108,0.0875263023246421,0
902,2994892724,0.032790664339787,0.00564932910313749,-0.491352767853982,-0.870324832999192,0.0849558072979782,0.134941678406929,-0.0292388211537834,0
903,2994909391,0.0329941914535604,0.00560985783540517,-0.490737433188048,-0.870664507427171,0.0988489432881138,0.123072050453972,0.00501721045733667,0
904,2994926058,0.0331796375424744,0.00564759030261896,-0.49004360431654,-0.871047921899122,0.121378765095669,0.149401040388194,-0.0273923757572749,0
906,2994959392,0.0333829852895217,0.00608491808435746,-0.488375969358372,-0.871973315313225,0.0624745056936654,0.139150101397339,-0.0209807261408627,0
907,2994976059,0.033399393929592,0.006258011398476,-0.487656725811409,-0.872373908109,0.0625032904045451,0.1254472171394,0.00354601642430306,0
910,2995026060,0.0333466703357886,0.00672620964451023,-0.48720225992073,-0.872626332177449,-0.0514449075551093,0.131908822078004,0.0298803743610233,0
911,2995042727,0.0333336135596619,0.00681009087356791,-0.487485665141121,-0.87246789004024,-0.060633476452223,0.0786302141058539,-0.00367871512737558,0
915,2995109395,0.0337293165364625,0.00688289132396909,-0.488838869463729,-0.871694624690567,-0.0609002047419515,0.17718444318915,-0.056689321879209,0
919,2995176063,0.0339785488280866,0.00624035183199362,-0.489850067863505,-0.871121935920953,0.0372938955665714,0.133677372158411,0.0812068741417745,0
920,2995192730,0.0340074643405098,0.00608222980049744,-0.490123774337337,-0.870967958468683,0.021213614202931,0.142699739005896,-0.00263794863315292,0
923,2995242731,0.0343008214905342,0.00579712124757365,-0.491088087350347,-0.870415037492398,-0.110220713876454,0.10301951543064,-0.0643929855358564,0
925,2995276065,0.0345546496476569,0.00575472342566471,-0.491899432605507,-0.869947014218913,-0.0872151289207235,0.163905765340135,-0.0922795777305725,0
926,2995292732,0.0347122654646184,0.00580972764407943,-0.492258594075145,-0.869737191483828,-0.0746587552120809,0.18117878930066,-0.0874139630829286,0
927,2995309399,0.0348362141600607,0.00587834964700119,-0.492562180758037,-0.869559877912561,-0.0570409617083513,0.175142213381413,-0.0231164880342186,0
929,2995342733,0.0349534702050541,0.00611528135133798,-0.492975180809981,-0.86931946335049,0.0243410066758623,0.144162647232477,-0.0464169585085524,0
930,2995359400,0.0349925673542528,0.00628657193729367,-0.493068141934157,-0.86926394533124,0.00631667083695335,0.156600498203307,-0.0700495241340565,0
931,2995376067,0.0350200101280044,0.00643289996470642,-0.493090942691402,-0.869248836021299,-0.0151373417635438,0.152407696487467,-0.0587843793681584,0
933,2995409401,0.0350114698455302,0.00671567053606457,-0.493165713865953,-0.869204622293043,-0.0569864890380329,0.107831574325859,0.00922276276865366,0
934,2995426068,0.0349829675906389,0.00684455978004634,-0.493425374848647,-0.869057387883816,-0.0899639315993342,0.126650057092097,0.0368748352850818,0
935,2995442735,0.034980422006968,0.00696456516027976,-0.493642829464794,-0.868933036445464,-0.0369684725759621,0.119201910903795,0.0602939031647696,0
938,2995492736,0.0352106612295343,0.00709164733700923,-0.494532075504679,-0.868416918404323,-0.0340942880782132,0.101123540485778,0.0392119101826016,0
939,2995509403,0.0353030865525872,0.00706810508444976,-0.495006182938385,-0.868143198339506,-0.0482016270630653,0.0818799268889212,0.0502073824379719,0
941,2995542737,0.0354316480902693,0.00700965664236124,-0.496084462427043,-0.867522719682796,-0.0218182100330441,0.1157658154852,0.033620832713312,0
942,2995559404,0.0354863529616139,0.00699100450445051,-0.496629346762508,-0.867208819456852,-0.0379654101744376,0.152902179951688,-0.018849122828764,0
943,2995576071,0.0355069458645246,0.0070339147159457,-0.497163194073449,-0.866901689522998,-0.050201597152002,0.197119670153774,-0.0605070526853573,0
945,2995609405,0.0353824351095381,0.00711613585162401,-0.497845831334268,-0.866514265387103,-0.0675529644546979,0.136580969675538,-0.0357839073169791,0
946,2995626072,0.0352502401871191,0.00716388313095885,-0.498096667729023,-0.866375097138924,-0.054679568624862,0.0968414317579146,-0.0326309843032763,0
947,2995642739,0.0351433793621837,0.00719173956958922,-0.498305373738712,-0.866259185389738,-0.0187294399878419,0.108278377389157,0.00584157005710301,0
949,2995676073,0.0349711715118158,0.00717078270902134,-0.498507794132089,-0.86614985783523,-0.0614016569502095,0.143916102515202,-0.00220732597875813,0
950,2995692740,0.0349301703119246,0.0071648515290893,-0.498644552128781,-0.866072836854287,-0.0765608745162742,0.134521822922238,0.0165341178997966,0
953,2995742741,0.0345313374166601,0.00712406323116129,-0.499339641122759,-0.865688602941433,-0.049144243964014,0.0589180571654645,0.0998448764564632,0
956,2995792742,0.0342339048986518,0.00719157289311128,-0.500030534579176,-0.865300979730855,-0.0597628894828821,0.112444237382706,-0.0758878366540592,0
957,2995809409,0.0341880774766331,0.007153743360527,-0.500028391873751,-0.865304343358182,-0.0527166953494383,0.100116724171131,-0.0650798848846473,0
960,2995859410,0.0340360938095049,0.00680600472858878,-0.500408869171183,-0.865093166238552,-0.0105443063315102,0.123765826710447,-0.00610788759315715,0
961,2995876077,0.0340653123228233,0.00665794831424248,-0.500580948085556,-0.864993607279475,0.0343539839582363,0.0936849476631948,0.0105224178510715,0
964,2995926078,0.0341199328887732,0.00634665772235335,-0.50074589141957,-0.864898319076781,-0.117651061708646,0.149355489343725,0.00427952854228071,0
965,2995942745,0.0340528397275951,0.00621434468825972,-0.5009564104419,-0.864780007206312,-0.0646240321022251,0.181262183402353,0.0042674801969062,0
968,2995992746,0.0339795739301348,0.00601204458093401,-0.501101848985563,-0.86470005251459,0.0183528264519708,0.0487885006666321,-0.0312299087545529,0
969,2996009413,0.0339913990927054,0.00594139575462141,-0.50103454693863,-0.864739074737698,-0.0241610007134959,0.0452057040978124,-0.0188700571123555,0
970,2996026080,0.0339887341249269,0.00586037429265759,-0.501059368151921,-0.864725350358674,-0.0796050469390961,0.0718452532265715,0.0113729706075674,0
972,2996059414,0.0341321627448825,0.00580493781183782,-0.501154482184104,-0.864664954274278,-0.053017476778878,0.111001722452776,-0.000915694641041367,0
973,2996076081,0.0343200372389335,0.00577997423801561,-0.501101022172024,-0.864688667972397,-0.0220716464044897,0.110943048175677,-0.0218082988567512,0
974,2996092748,0.0345532055501114,0.0057330656890819,-0.50097264584074,-0.864754078373352,-0.0280111107316074,0.0735706655770027,-0.0308463582932944,0
976,2996126082,0.0349924540491392,0.00558026415064213,-0.500604758071143,-0.864950440781529,-0.0583143402052463,0.141585871683241,-0.0406049158482444,0
977,2996142749,0.0351926902374199,0.00546514497688388,-0.500567039236746,-0.86496488135299,-0.0826280450725882,0.122999751292222,-0.0157946185344028,0
979,2996176083,0.035502829748074,0.00519906529044226,-0.500892472117955,-0.864765430724163,-0.036132667141509,0.13055717317132,0.0324325297324276,0
980,2996192750,0.035617938964298,0.00511565407796356,-0.501133765759132,-0.864621386112651,-0.0280786773553182,0.151101299319481,0.0638109834259302,0
981,2996209417,0.035709402607962,0.00508519703807419,-0.501341656555845,-0.864497265894062,-0.048674018819793,0.16592103870214,0.0721754746622201,0
983,2996242751,0.0358892195614285,0.0050760965203692,-0.501560653331548,-0.864362833648589,-0.0344374803744691,0.102821230833998,-0.005406459951405,0
985,2996276085,0.0360981990127496,0.00502959527707194,-0.501680218618906,-0.864285011698034,-0.0858869553692476,0.0793187767932254,0.0212705005713605,0
987,2996309419,0.0361856013687195,0.00507425617623007,-0.501757377886096,-0.864236303284415,-0.00393345703832609,0.111558373999207,0.0347551876650392,0
988,2996326086,0.036262581711118,0.00517196017078537,-0.501685734133517,-0.864274088563663,-0.0095359540730703,0.107007886443613,0.0423039441764088,0
989,2996342753,0.0363283828485269,0.00527544621506609,-0.501574525104953,-0.864335244006967,-0.0423829643377418,0.107213077454274,0.0571807660930409,0
991,2996376087,0.036450606098291,0.00541487942945622,-0.501145513935712,-0.864578050992472,-0.0399952285456913,0.0915288092269953,0.0245048078086658,0
992,2996392754,0.0365155714417718,0.0054475163044115,-0.500868234563605,-0.864735768436539,-0.0457390532076105,0.101739945060118,0.0212254275986092,0
993,2996409421,0.0365486674597228,0.00543116265536804,-0.500519644908937,-0.864936288081013,-0.0305363758914164,0.0902541131800329,0.0509276464779943,0
995,2996442755,0.0366474165697511,0.00520368821965662,-0.49962431074359,-0.865451001849133,-0.0206407425094039,0.0754258374609532,0.0484492972702797,0
996,2996459422,0.0367214037473285,0.0050299226681157,-0.499295274793876,-0.86563876239069,-0.0465630942472818,0.0989072896238898,0.0269431210743415,0
997,2996476089,0.0368190898788028,0.00483737937384445,-0.499064703264276,-0.865768662136157,-0.0376288019029732,0.12647341415157,-0.00481025544592944,0
1000,2996526090,0.0370507011383112,0.00433244692981695,-0.498653603414857,-0.865998302105806,-0.0864707935873786,0.155072448467767,0.0403738170706336,0
1001,2996542757,0.0370554639257694,0.00409617740513053,-0.498673646414078,-0.865987706781106,-0.0367828300496592,0.16683415954143,0.00813712075305956,0
1003,2996576091,0.0371012612340164,0.0036980295522446,-0.499133398606607,-0.865722629592004,-0.0123038243006326,0.0870366829320227,0.0510264192297586,0
1004,2996592758,0.0371225630514363,0.00353522070716423,-0.49944471969785,-0.865542829381065,-0.00441123983295209,0.0760762003527091,0.0752456349768033,0
1006,2996626092,0.0371685558515761,0.00331350332582683,-0.500008040306787,-0.865216434645219,-0.0500103116928781,0.0768190418146103,0.0360672753029471,0
1007,2996642759,0.0372680670978311,0.00325489713705637,-0.500311617668935,-0.865036867448384,-0.0336322163732114,0.104285780897102,0.0181751592051062,0
1008,2996659426,0.037412607678978,0.0031550150104694,-0.500565950943786,-0.864883848515329,-0.0118249809209054,0.0890783889912956,0.051553618944778,0
1010,2996692760,0.037714255268175,0.00304477840016486,-0.500899384582814,-0.864678073504017,-0.0249153326455117,0.0826275393714603,0.0594675511879714,0
1011,2996709427,0.0378442601032991,0.00302124612331813,-0.500909944074145,-0.864666358763155,-0.0104157547319859,0.102913818490872,-0.0156558699353408,0
1014,2996759428,0.0381549114381292,0.00284036438190158,-0.500455115644678,-0.864916650486276,-0.0410983839121346,0.133609728283936,-0.0114332925430647,0
1018,2996826096,0.0384302617878494,0.00241960683543975,-0.500487677218338,-0.864886897480977,-0.0154231923457339,0.0917449101589836,0.0614932754174297,0
1019,2996842763,0.0384824751574696,0.00235437316848714,-0.500770218982036,-0.86472119426635,-0.0231835081887459,0.107489536594782,0.0181185158768868,0
1022,2996892764,0.0386777641857744,0.00223425452306035,-0.501611312515817,-0.864225161529375,-0.0542000257289602,0.144458138947396,0.0192607467342175,0
1023,2996909431,0.0387067229170397,0.00222254335887291,-0.501814077219621,-0.864106175077034,-0.0400806271377234,0.104937850346754,0.0219066720390714,0
1026,2996959432,0.0387207131607505,0.00226238076240051,-0.501610991857059,-0.864223351254632,0.0131897257910232,0.106546455013408,0.0170246132547669,0
1027,2996976099,0.0386960599572021,0.00229668779803756,-0.501393546566555,-0.864350537473286,-0.0128425231897276,0.0905732194668751,0.049441214280963,0
1028,2996992766,0.0386230407896688,0.00234111203007655,-0.501206909320315,-0.864461921639235,-0.0247448981846396,0.0940079730889443,0.0393865643011179,0
1030,2997026100,0.0385117891975069,0.00255609956716737,-0.500892882364572,-0.864648268860998,-0.026908824386376,0.0814098545075105,0.0462164691425218,0
1031,2997042767,0.0384913756268793,0.00268524992373287,-0.50077905055779,-0.864714719406138,-0.0353197473748359,0.0686395405797361,0.0477660943468534,0
1032,2997059434,0.0384736513042507,0.00278207540611329,-0.500666135526739,-0.864780584280472,-0.0368277101434182,0.114653884943452,0.0379038267311338,0
1035,2997109435,0.0383789675192246,0.00284256163720445,-0.500433491288311,-0.864919242179574,-0.0125400915352805,0.0771770266760007,0.0609708301742243,0
1038,2997159436,0.0383326464194724,0.0028344166245255,-0.500364989777223,-0.864960953630925,-0.0539994613172779,0.104037203050001,0.0410363113290476,0
1039,2997176103,0.0382669956170888,0.00279676668159889,-0.500505884802684,-0.864882462777719,-0.0469677888703726,0.0976812425303042,0.0304922970186176,0
1041,2997209437,0.0381027688455557,0.00269895364191404,-0.5008573223751,-0.864686554352955,0.0224579755548692,0.0697618801621057,0.0512063605556799,0
1042,2997226104,0.0380761259055318,0.00270600766238111,-0.501007566184295,-0.864600662031117,0.0106031900372618,0.0683051627315939,-0.0267414282078809,0
1043,2997242771,0.0381340613711706,0.00271862246160998,-0.501159949221533,-0.8645097499459,0.00737737676559414,0.0647038317596341,-0.0310599896385908,0
1045,2997276105,0.0382623225225835,0.00270561860148555,-0.501337497978163,-0.86440117273414,-0.0858217153663606,0.107090426281386,0.0583750514958931,0
1046,2997292772,0.0382699392808522,0.00266944848821151,-0.501395198398616,-0.864367480192899,-0.0650757198462263,0.117098598094703,0.0726765891462653,0
1047,2997309439,0.0382270678927174,0.00263121223175934,-0.501428029468612,-0.864350449335073,-0.0400092653938619,0.182024622877202,0.0455410885417332,0
1049,2997342773,0.0379955470574876,0.00257846987520271,-0.501363991153611,-0.864397962903329,0.081095022144727,0.118414079849411,0.000338223576684622,0
1050,2997359440,0.0378974667751526,0.00255815390908779,-0.501365489770131,-0.864401459698074,0.0661170337683831,0.0948441966231705,0.0302063401184038,0
1051,2997376107,0.0376563047869681,0.00237066313647543,-0.501590893917458,-0.864281758343406,-0.0392325665975082,0.174106869979701,0.0110339015403199,0
1053,2997409441,0.0366880583185914,0.00180588344011788,-0.502960419048942,-0.863528541527102,0.162543673635927,0.206622557327256,0.0854332078867732,0
1054,2997426108,0.0358666276993141,0.00154176710183112,-0.50362270408198,-0.863177490383546,0.317943899986413,0.214987753054816,0.0305204158921393,0
1055,2997442775,0.0348188462751235,0.00122939838191392,-0.504081381468364,-0.862953125830501,0.368227776802656,0.214301308153012,0.0781829109749013,0
1057,2997476109,0.0316441793184386,-0.000332704699014175,-0.504604878010563,-0.862770219879425,0.710764313496834,0.244605849781645,0.0291417838628677,0
1058,2997492776,0.0293560962341847,-0.00165468520211787,-0.504930688456199,-0.862658960126145,0.847876174498505,0.517870785180881,-0.0255125221608642,0
1059,2997509443,0.0264397694868077,-0.00335906896737249,-0.505348213577869,-0.86250381928361,0.968641039833383,0.960656251187824,-0.24325867442958,0
1061,2997542777,0.0176956901688426,-0.00676614951548992,-0.504134105902898,-0.863417561227283,1.82679840521904,1.007612732913,-0.65737934081146,0
1064,2997592778,0.00312184467587227,0.0105185993304003,0.498872068914648,0.866606180459593,2.69774409476046,0.916879251660428,0.415280701818206,0
1065,2997609445,0.011970116523685,0.0111415135027955,0.498335039107184,0.866830301607712,2.86634677278982,0.898721115659627,0.351373449558669,0
1066,2997626112,0.0220319306611192,0.0121592922149419,0.498474304884424,0.866539158384759,3.04063018796493,0.965886765151249,0.171327934503838,0
1068,2997659446,0.0469806263544244,0.0158264278230675,0.499206339313452,0.865063798640868,2.80428738949873,1.03425523820803,0.0850613926663099,0
1069,2997676113,0.0614050740864059,0.0182967570658334,0.499879651390544,0.863721586903434,2.39946781311435,1.28057900535118,0.413463685060628,0
1070,2997692780,0.0763499224908391,0.0210516097419563,0.501277967681002,0.861654175513889,1.95732411331106,1.49194221028338,0.405884086965439,0
1072,2997726114,0.10868409515271,0.0279106667336321,0.503273100073935,0.856810917814013,1.97832502317251,1.22606558276778,0.363925546695902,0
1073,2997742781,0.126596403844371,0.0322368559293681,0.50317127353609,0.854255702434308,1.69524116667225,1.14704895628828,0.402623347977686,0
1074,2997759448,0.145764783538066,0.0371200648442182,0.50198221315338,0.85169747348674,1.07360553476243,1.22582070734186,0.532733670056807,0
1076,2997792782,0.185511945259375,0.047946887753663,0.497883674323122,0.845812190124573,0.303629823157599,1.144531857878,0.874436375346192,0
1078,2997826116,0.225738800722914,0.0581332698864339,0.489791312249093,0.840099391278081,0.127489845298012,1.51691649928476,0.37245775838799,0
1080,2997859450,0.266767464717487,0.0665363995065478,0.474729355487416,0.836086159643498,-0.342846944643199,1.85456780424357,0.905607448600068,0
1081,2997876117,0.287064352759892,0.07036657644874,0.466177834599545,0.833858998165461,-0.415488784512826,1.72043740415576,1.17660241000473,0
1082,2997892784,0.307029840085711,0.0737783580125395,0.457761743669806,0.831109870726064,-0.377657829370937,1.34099010960527,1.11487513359659,0
1084,2997926118,0.345399972337129,0.0800807468961857,0.441895753529891,0.824023104104678,-0.775709230695205,1.24586074311593,1.07006500096272,0
1085,2997942785,0.363528192851784,0.0843037031608939,0.435059309995539,0.819428786058607,-0.997662211180534,1.60178922628307,1.26946811222255,0
1086,2997959452,0.380677645468871,0.0887372119688648,0.429518032567481,0.814078925627994,-0.81635199336512,1.5305741912016,1.22155459672128,0
1088,2997992786,0.414173290512561,0.0961455053241437,0.41771928860886,0.802949016535963,-0.24438646671404,1.89335943849834,0.829281721173564,0
1089,2998009453,0.430361235771073,0.099308059315505,0.410329129561153,0.797845299249278,-0.185367385215576,1.71794573340257,0.699682564661607,0
1091,2998042787,0.461983137793022,0.105587885900522,0.393827781133572,0.787605521535609,-0.309775995167179,1.2846723400216,0.431449817202503,0
1093,2998076121,0.49344974299092,0.109988569086405,0.374024898448369,0.777505782070595,-0.447223192710763,1.0221778908491,-0.0224372410546107,0
1095,2998109455,0.523196016553873,0.114201065590421,0.353700252140146,0.76688993768087,-0.628393283304384,0.985636668308426,-0.412875118085723,0
1096,2998126122,0.537700481794556,0.115809835968569,0.342997364868063,0.76145852248458,-0.55250350442271,1.38675064240889,-0.715840452381348,0
1097,2998142789,0.551864146458474,0.117482107151872,0.331789764011381,0.756015522889635,-0.544479629456352,1.39976437777572,-0.967413949760808,0
1099,2998176123,0.578479018141499,0.11837750675429,0.308159607380064,0.745913163742303,-0.497965733379384,1.34203237972608,-1.00019756797931,0
1100,2998192790,0.590825426602058,0.117210348015728,0.295907192532119,0.741367643619741,-0.60858996617902,1.22996515751653,-1.360162599821,0
1101,2998209457,0.602370105439736,0.116029509699926,0.284428675061096,0.736741296354633,-1.29198179526941,0.975040466649433,-1.70127120648453,0
1103,2998242791,0.623392710646636,0.11586011866203,0.265378048985816,0.726314293080304,-1.22921669426918,1.00667716563936,-2.14998578426957,0
1104,2998259458,0.63279144484516,0.115787857121433,0.256483707938174,0.721376647138156,-0.838813643593786,0.861678916780257,-2.24230422526394,0
1105,2998276125,0.641393439590106,0.114962890217044,0.24729063665018,0.717109008832594,-1.03700286081617,0.696696177654257,-2.23069966205218,0
1108,2998326126,0.661137556409548,0.107228180577352,0.221704595446086,0.708693390086975,-1.27619969105848,0.0875964934668248,-2.13224498559606,0
1109,2998342793,0.665628856580821,0.104696136825135,0.215128481416065,0.706892269518078,-1.67251443575755,-0.00535526099431149,-2.41428355753858,0
1111,2998376127,0.672513014597054,0.103012669724245,0.208381751221167,0.702631966844567,-1.18213563982608,-0.18644889280221,-2.15583041075887,0
1112,2998392794,0.67502372670002,0.102689213674146,0.206468254225533,0.700834326916186,-0.748131084223433,0.0960636195146198,-1.94895054370841,0
1114,2998426128,0.678113456491001,0.100490327056712,0.202666373108578,0.699278324778394,-0.281073501151806,-0.10397351960185,-1.28181535733734,0
1115,2998442795,0.67909400292519,0.0982604905984166,0.199868555319268,0.699448905762951,0.0426091198186146,0.0423575458464555,-0.854695957806818,0
1116,2998459462,0.679748810090512,0.0952005479239047,0.196689674378067,0.700136831518362,-0.159279319902802,-0.120040682699285,-0.916145054836915,0
1118,2998492796,0.68039124357049,0.0908727908463147,0.192794074382434,0.701170689946053,-0.649687386906117,-0.208369725417422,-0.967096068607929,0
1119,2998509463,0.680466884690459,0.0902265672763265,0.191903846415665,0.701424906264431,-0.186939247459144,-0.21498305031507,-0.805967534041513,0
1120,2998526130,0.680522275498746,0.0893781010038834,0.190850945960289,0.701766986995691,-0.122960322712672,-0.0391975899757605,-0.440250095723321,0
1122,2998559464,0.680307997718965,0.0869957639370913,0.189277592099241,0.702699621762903,-0.0441003147942953,-0.209286077250313,-0.256578853643324,0
1123,2998576131,0.680146881172771,0.085926138565587,0.188051283919922,0.703316168844588,0.231738575794821,-0.0988805548333875,0.119737425915015,0
1124,2998592798,0.680075398175389,0.0849445533311309,0.186930463964455,0.703803152378558,0.0595928636751841,-0.172984004353944,-0.0769961923490676,0
1126,2998626132,0.680385466541907,0.0833846058651875,0.185765902645237,0.703998333689548,-0.126721149190279,0.0680606120669637,0.177037939479492,0
1127,2998642799,0.680681354751232,0.0828011131589209,0.185047366265034,0.703970412156679,0.284518240955446,-0.105770226993951,0.528441851591234,0
1128,2998659466,0.68108337682328,0.0815112233123852,0.183725731187617,0.704078269788731,0.363938545832385,0.00231639875332997,0.2031436808194,0
1130,2998692800,0.682083529378658,0.0779688041144633,0.181303722733141,0.70413910888291,-0.174141317770325,-0.0392831895068588,0.321173728173396,0
1131,2998709467,0.682679086372463,0.0768033836541936,0.180099697824284,0.703999008616154,0.121179741570066,-0.166971543020879,0.224473277566833,0
1132,2998726134,0.683432847736091,0.0755996714398473,0.17868491989052,0.703758432785883,0.0526708075862679,-0.207430771033815,-0.0912104220289685,0
1135,2998776135,0.685503812968864,0.0717547172165987,0.175476045394238,0.702953725685492,0.0156385461034663,0.0766654730950239,-0.0737669754637139,0
1136,2998792802,0.685921820294886,0.070555875492227,0.17408285186393,0.703013716483396,0.00819055357893456,0.165238931302724,-0.173950199270434,0
1138,2998826136,0.68643648348743,0.068756715132488,0.171219668841083,0.703392702026081,0.0762438798448508,-0.0142336534896829,-0.114509494277747,0
1139,2998842803,0.686626336475022,0.0676778662689538,0.169656218090091,0.703690804359087,0.20559424386845,0.0226829380063765,0.0676443941712273,0
1141,2998876137,0.686895566685061,0.0649277590215142,0.166302613860052,0.704487265463448,-0.134840504002886,-0.19250012219496,-0.706726379371631,0
1142,2998892804,0.687001097777569,0.0649701417185187,0.1657253080461,0.70451649704639,-0.210476128894654,-0.133521739551878,-0.620613895177006,0
1143,2998909471,0.687074365735177,0.0652057813533325,0.165669481804644,0.704436402258065,0.205860431100945,0.0329955471444646,-0.212484800531079,0
1145,2998942805,0.687200311649206,0.063007072919173,0.16432982827737,0.7048273178373,0.313888545175993,-0.0114747445787425,-0.272682980999771,0
1146,2998959472,0.6872854215329,0.0617549905375913,0.164034857381233,0.704923851246334,0.0233162457031237,-0.0440123854360338,-0.664699993687768,0
1147,2998976139,0.687304800619806,0.0612405407514016,0.164304585393998,0.704887019622258,0.066097042545024,0.0373008907056211,-0.578977412811992,0
1150,2999026140,0.68657917753964,0.0579484988217229,0.163871425785423,0.705972492569188,0.193048557202061,0.128891000109401,-0.115331403868668,0
1151,2999042807,0.686148272217677,0.0564305140463867,0.163501590525249,0.706599869454326,0.215301289549775,0.0368382192142412,-0.213626127056945,0
1153,2999076141,0.68510172810104,0.0534071390320616,0.163012261838676,0.707962076769383,0.111820532814312,0.00338451995330119,-0.0950529486416981,0
1154,2999092808,0.684624421895711,0.0521245717959725,0.163353800772024,0.708440516721328,-0.0580851638004159,-0.0235514412234724,-0.0483722336521248,0
1155,2999109475,0.684260143448518,0.0513091648686729,0.16394683558192,0.708714936198587,-0.0219867461848607,0.00131471021154815,0.148947836851714,0
1157,2999142809,0.683861195090625,0.0500857008568399,0.164674647166331,0.709018722601558,0.0596623737279437,0.0523647548315051,0.131904712419618,0
1158,2999159476,0.683820634573283,0.0492165528556723,0.165233579921769,0.708988670377061,-0.226943181905853,0.108404080194965,0.24554458474733,0
1159,2999176143,0.683855007796948,0.0487439700593473,0.165940828577371,0.708822964572216,-0.145247524792395,-0.123623822914521,0.381965100228574,0
1161,2999209477,0.683945012055301,0.0476379972232043,0.166161407060987,0.70875964085771,-0.0709732150864836,-0.0276868141590829,-0.0502245459875853,0
1162,2999226144,0.683921712836947,0.0469828648505975,0.16620570494233,0.708815465946695,-0.353948237269418,-0.0456090111568274,0.0345716320212421,0
1165,2999276145,0.684090589474307,0.0471896399954355,0.166414998339325,0.708589621429442,-0.0223521171491978,-0.0186999733716293,0.170627571835696,0
1166,2999292812,0.684223764021438,0.0469818584926185,0.165882946033557,0.708599600575771,-0.105483990023123,0.0183294737108912,-0.0897225170839069,0
1168,2999326146,0.68440196756355,0.0469993301543468,0.164800435326492,0.708678930317801,-0.100330210393796,-0.00102998371655818,0.0954985233602673,0
1169,2999342813,0.684359308111817,0.0467733125131533,0.163851573698984,0.708955045425046,0.0150308301468333,0.0769238074177887,0.154040323909546,0
1170,2999359480,0.684304932730064,0.0464807507617002,0.162729403900526,0.709285161240604,0.0031955675559716,-0.0559473778127775,-0.0849031666325107,0
1172,2999392814,0.684505992581008,0.0466909786929605,0.161929230309372,0.709260476130454,-0.136176662350541,-0.108281991708734,0.0608098077475854,0
1173,2999409481,0.684574898678381,0.04699069340485,0.161401150244303,0.709294544975944,0.164212129056604,0.0157956479674468,0.175146091307239,0
1174,2999426148,0.68462581647412,0.0468656752678566,0.160492121915953,0.709459920433669,0.0439403246977812,0.109863322944308,0.0132253679109213,0
1176,2999459482,0.684825477313793,0.0472226601762941,0.159456005831169,0.709477179472448,0.10988697159359,-0.148357641961781,-0.0325764004006028,0
1177,2999476149,0.684977245180214,0.0477162054482429,0.158597351519331,0.709490110864132,0.20580363452849,0.0385228006250046,0.19083694659296,0
1180,2999526150,0.685499219081028,0.0473761263584835,0.15629233649888,0.709520280782929,-0.0222503429569476,-0.057176099745133,-0.0497767906280012,0
1181,2999542817,0.685714046164915,0.0479892028244938,0.155674295234246,0.709407356254312,0.21098467855723,0.042377614691417,-0.0498085148877229,0
1182,2999559484,0.685866755230211,0.0479423088399165,0.154884960614518,0.709435675779361,0.260110602221235,0.0619277443659656,-0.0909762565739677,0
1184,2999592818,0.686304114048619,0.0475714061020756,0.153341516777951,0.709372965085116,-0.0905338903034366,-0.0605820667283818,-0.137263273082921,0
1185,2999609485,0.686444497482432,0.0479807855516523,0.152677251888654,0.709352840869526,0.0979573138499086,0.0386545266299486,-0.15892900511965,0
1186,2999626152,0.686417166961573,0.0480480084925576,0.151898798425871,0.709541835846995,0.295464246318061,0.133002022638254,-0.174343525174159,0
1188,2999659486,0.686361698698196,0.0475834445398349,0.150476665625619,0.709929720090691,-0.0140644793885323,-0.0319036012424097,-0.163485071031267,0
1189,2999676153,0.686303599042922,0.0477835559124611,0.149934225396459,0.710087198715663,0.0202047614931864,0.0707006683744431,-0.251334966510554,0
1190,2999692820,0.686119583615779,0.0477546035862821,0.14916221584613,0.710429481496299,0.0792712970030875,0.16992172012825,-0.0194089273379668,0
1192,2999726154,0.685835245442305,0.0476838183044941,0.148113488932718,0.7109280300967,-0.134440942009219,-0.0768997101013945,-0.139687779707072,0
1193,2999742821,0.685751624525056,0.0482276607690532,0.147810054318176,0.711035153871065,-0.0525471395224112,0.0224839242541199,0.0205421868381165,0
1195,2999776155,0.685536053484927,0.0487151458124064,0.146185379880782,0.711545493029011,0.106507524898599,-0.10331519154339,0.0867722680450069,0
1196,2999792822,0.685570929747853,0.048720319559509,0.145342268612394,0.711684238761325,-0.0592397285668697,-0.0237352416068372,-0.0992148743832721,0
1197,2999809489,0.685606446101269,0.0488757822663581,0.144496482226739,0.711811580122392,-0.178527126382128,-0.0867554093062147,-0.133379644223614,0
1199,2999842823,0.685568635146131,0.050136327559327,0.142939694859478,0.712074601987892,-0.00188894902292613,-0.0543906607829338,-0.281352718405311,0
1200,2999859490,0.685509015965884,0.0507961307988034,0.142466322833566,0.712180095891228,-0.0287979580145131,-0.0779609041378826,-0.193133782416177,0
1201,2999876157,0.685367733840164,0.0516453134907124,0.141905267388292,0.712366988351301,0.104696723951982,-0.091394549702135,-0.101407750520172,0
1203,2999909491,0.684734485363763,0.0522447254861774,0.139266658143881,0.713452150562273,0.124389034989074,-0.0273536251744197,-0.251363610713525,0
1204,2999926158,0.684327506653153,0.0524543862091426,0.138265631851247,0.714021719595473,-0.075986607870873,-0.106848498798037,-0.450413727438155,0
1207,2999976159,0.68275623782568,0.055335489021652,0.136038654687602,0.715734160003311,0.22016812241133,0.0114683302466544,-0.182469599904112,0
1208,2999992826,0.682157296844014,0.0556560393669557,0.134899506721017,0.716495604125299,-0.130597276326394,0.0981845280322127,-0.121777489718268,0
1209,3000009493,0.681492910240648,0.0561111925810255,0.13383948733137,0.717290693505599,-0.265442652190449,0.0284164150516746,-0.135890834627584,0
1211,3000042827,0.679956926525309,0.058081189046273,0.131092650813896,0.719096565456832,0.160591544207365,-0.244490320989824,-0.221008025117647,0
1212,3000059494,0.679214869475342,0.05911310044073,0.130026005566335,0.719906966431317,0.188334621648277,0.140793178041943,-0.111309876313042,0
1213,3000076161,0.678434499564709,0.059770226642395,0.128847305052459,0.720799917999592,0.279776910141737,0.0922979975545899,0.104843064319379,0
1215,3000109495,0.676813812721169,0.0610007012234609,0.126609005629908,0.722614791609947,0.34683485297408,-0.0315999956451161,-0.44374960112331,0
1216,3000126162,0.676085178020975,0.062253125648885,0.126675214079126,0.723178242582904,0.374514484357238,0.189339991827436,-0.263107882900886,0
1217,3000142829,0.675468006511759,0.0635942294257793,0.127198633921582,0.72354630376449,0.411317996737778,0.347409945050342,0.245505710321747,0
1219,3000176163,0.67438956703044,0.0649172431119745,0.12732056598317,0.724412822156649,0.611018220802906,0.184869653218699,0.463424983677735,0
1221,3000209497,0.673792174679974,0.0649357922944711,0.126968414454262,0.725028599401493,0.394333146544805,0.0812095267281821,0.320972519519912,0
1223,3000242831,0.673568725868422,0.063977336235275,0.125629129836215,0.725554542206735,0.234549074919489,0.0706435968082574,0.479701338048297,0
1224,3000259498,0.673564767935393,0.0630751269516761,0.124497174183848,0.725832270828741,0.266364288005827,-0.157648279413014,0.291058053043386,0
1226,3000292832,0.673759462669349,0.0610925609243155,0.12165440155255,0.726303030453618,0.0469075631175395,0.0789145469812001,-0.0112961937566185,0
1227,3000309499,0.67382863582208,0.0602517538623295,0.12035609776167,0.726525364618642,0.0236195063626309,0.0135117370842258,-0.05348073965259,0
1228,3000326166,0.673900550580695,0.0594857184505589,0.119122510686523,0.726725068148331,0.212761809050614,0.0472746035017757,-0.143147806102899,0
1230,3000359500,0.673781817299958,0.0570219419281029,0.115933457101892,0.727547932674623,0.524946769835491,0.000451650095733693,-0.342752161994905,0
1231,3000376167,0.673619490859666,0.0563079420572337,0.114890194657196,0.727919254015771,0.267944164166787,-0.0192464565085579,-0.742539975904119,0
1232,3000392834,0.673533402583342,0.0561699428783945,0.114728929746464,0.728035003142551,0.028563314663912,0.127928059069195,-0.331668375306877,0
1234,3000426168,0.673135993633489,0.0557668506555708,0.115094902423605,0.728375696930586,0.52062416962169,0.0446819037003553,-0.16180942699001,0
1236,3000459502,0.672803740733187,0.0545471950556537,0.115592343109007,0.728696191963126,0.23357806571679,0.15397464243891,-0.0170156182305799,0
1238,3000492836,0.672426339510561,0.0529535142631906,0.115841814413849,0.729122360988135,0.201781834525701,-0.0764743324790189,0.128777302475202,0
1239,3000509503,0.672256377262178,0.0522166700854966,0.115984464427021,0.72930952729763,0.25723068073141,-0.0176352518844066,0.0802397291848979,0
