sep=,
DeviceTag:,Xsens_1,,,,,,,,,,,,,,,,,
FirmwareVersion:,2.2.1,,,,,,,,,,,,,,,,,
AppVersion:,2023.0.0,,,,,,,,,,,,,,,,,
StartTime:,2023-07-03 15:58:29.000 +0200,,,,,,,,,,,,,,,,,
© Movella Technologies B. V. 2005-2023,,,,,,,,,,,,,,,,,,,

PacketCounter,SampleTimeFine,Quat_W,Quat_X,Quat_Y,Quat_Z,Acc_X,Acc_Y,Acc_Z,Gyr_X,Gyr_Y,Gyr_Z,Mag_X,Mag_Y,Mag_Z,Status,
0, 844861702, 0.7259729, 0.08661121, -0.6696623, 0.13043907, 0.0, 0.0, 0.0, 0.0, 0.0, 0.0, -0.7763671875, 0.606201171875, -0.28271484375, 0, 
1, 844878369, 0.7279151, 0.08506123, -0.6680157, 0.12907034, 9.958431243896484, -0.4409828186035156, 0.9352514743804932, -16.125688552856445, 12.228038787841797, -1.8439891338348389, -0.77392578125, 0.60595703125, -0.281494140625, 0, 
2, 844895036, 0.72988725, 0.08334998, -0.6664734, 0.12700717, 9.969478607177734, -0.4192500710487366, 0.9245021343231201, -17.997079849243164, 13.716094970703125, -2.5660643577575684, -0.7724609375, 0.60986328125, -0.283203125, 0, 
3, 844911703, 0.7317447, 0.08166952, -0.6650994, 0.1245897, 9.881373405456543, -0.4280867576599121, 1.0291541814804077, -19.354612350463867, 15.215648651123047, -3.712338447570801, -0.7685546875, 0.609619140625, -0.283447265625, 0, 
4, 844928370, 0.73377264, 0.07982541, -0.663564, 0.12201862, 9.835927963256836, -0.4463575482368469, 1.1140217781066895, -21.178285598754883, 16.147714614868164, -4.8132405281066895, -0.7744140625, 0.60986328125, -0.2783203125, 0, 
5, 844945037, 0.7360346, 0.077433944, -0.6619059, 0.11890195, 9.815729141235352, -0.4239638149738312, 1.1182658672332764, -23.119691848754883, 16.95183563232422, -6.073416709899902, -0.7734375, 0.6103515625, -0.281005859375, 0, 
6, 844961704, 0.7382774, 0.07513189, -0.6602205, 0.11580402, 9.836371421813965, -0.46076101064682007, 1.123732089996338, -24.315088272094727, 17.362131118774414, -6.9746809005737305, -0.7705078125, 0.609619140625, -0.279052734375, 0, 
7, 844978371, 0.7404733, 0.07266625, -0.6585952, 0.112566955, 9.811286926269531, -0.4479561150074005, 1.195404291152954, -25.26937484741211, 17.609350204467773, -7.504944324493408, -0.772216796875, 0.614013671875, -0.280517578125, 0, 
8, 844995038, 0.74266577, 0.07007409, -0.6569632, 0.10925424, 9.776481628417969, -0.4698575437068939, 1.2762023210525513, -26.6829891204834, 17.90935707092285, -7.717813968658447, -0.772705078125, 0.612060546875, -0.2783203125, 0, 
9, 845011705, 0.74491316, 0.06724064, -0.6552759, 0.105814405, 9.824590682983398, -0.5279905796051025, 1.3084782361984253, -28.304044723510742, 18.47249984741211, -7.7038702964782715, -0.772216796875, 0.613037109375, -0.27880859375, 0, 
10, 845028372, 0.747183, 0.064292595, -0.65352726, 0.10240261, 9.83565902709961, -0.5658769607543945, 1.2751283645629883, -29.260141372680664, 19.121238708496094, -7.688557147979736, -0.77099609375, 0.613525390625, -0.276611328125, 0, 
11, 845045039, 0.74945176, 0.061215963, -0.65174943, 0.09898231, 9.798335075378418, -0.608144223690033, 1.2350903749465942, -29.685935974121094, 19.800125122070312, -7.592279434204102, -0.772705078125, 0.612548828125, -0.27392578125, 0, 
12, 845061706, 0.75169814, 0.05809905, -0.6499514, 0.095592365, 9.79484748840332, -0.639963686466217, 1.3019187450408936, -29.236324310302734, 20.429391860961914, -7.585748195648193, -0.77197265625, 0.613525390625, -0.2744140625, 0, 
13, 845078373, 0.75389355, 0.05515084, -0.648135, 0.09232688, 9.729952812194824, -0.6173297762870789, 1.3345052003860474, -28.244108200073242, 20.590993881225586, -8.056012153625488, -0.77099609375, 0.611328125, -0.27392578125, 0, 
14, 845095040, 0.7559929, 0.052367225, -0.6463592, 0.08917582, 9.622150421142578, -0.6313946843147278, 1.4661773443222046, -27.330177307128906, 20.144174575805664, -8.30756664276123, -0.769775390625, 0.614013671875, -0.27001953125, 0, 
15, 845111707, 0.7580094, 0.04946942, -0.6446607, 0.085950434, 9.625519752502441, -0.6173795461654663, 1.565738320350647, -26.60568618774414, 19.28590965270996, -7.922616481781006, -0.770751953125, 0.613525390625, -0.271240234375, 0, 
16, 845128374, 0.7599435, 0.046720825, -0.6429732, 0.08299761, 9.644685745239258, -0.5875499844551086, 1.649780035018921, -25.726388931274414, 18.754541397094727, -7.290797710418701, -0.773193359375, 0.613037109375, -0.273193359375, 0, 
17, 845145041, 0.76178414, 0.043987315, -0.6413418, 0.08019479, 9.581830024719238, -0.4515576660633087, 1.8035078048706055, -25.579021453857422, 17.933940887451172, -6.52032470703125, -0.77197265625, 0.614501953125, -0.272216796875, 0, 
18, 845161708, 0.76358473, 0.041193686, -0.639737, 0.077318214, 9.60309886932373, -0.3074202239513397, 1.9164384603500366, -26.005189895629883, 17.30832290649414, -6.267948150634766, -0.7724609375, 0.61572265625, -0.26953125, 0, 
19, 845178375, 0.76535463, 0.038354672, -0.6381505, 0.074333094, 9.589076042175293, -0.27586033940315247, 1.9831243753433228, -27.041194915771484, 16.75859832763672, -6.22089958190918, -0.77197265625, 0.6162109375, -0.27001953125, 0, 
20, 845195042, 0.7671406, 0.035459653, -0.6365331, 0.07115849, 9.61266040802002, -0.1486535370349884, 1.9809250831604004, -28.53727149963379, 16.715177536010742, -6.669330596923828, -0.770263671875, 0.614501953125, -0.267822265625, 0, 
21, 845211709, 0.7689396, 0.032307427, -0.63492346, 0.06753107, 9.57573413848877, -0.03016381710767746, 2.096656322479248, -31.884014129638672, 16.602039337158203, -7.480952739715576, -0.77099609375, 0.61767578125, -0.263916015625, 0, 
22, 845228376, 0.7707162, 0.029014895, -0.63334066, 0.06351576, 9.497800827026367, 0.07506737112998962, 2.0213425159454346, -34.420318603515625, 16.152973175048828, -8.442258834838867, -0.7744140625, 0.6162109375, -0.263427734375, 0, 
23, 845245043, 0.7723273, 0.02563307, -0.6319426, 0.059179697, 9.528044700622559, 0.023157255724072456, 2.1600170135498047, -36.56056213378906, 14.38702392578125, -9.220637321472168, -0.77197265625, 0.619384765625, -0.2578125, 0, 
24, 845261710, 0.7739326, 0.021830004, -0.6305611, 0.054264974, 9.534584045410156, 0.03662523627281189, 2.141113042831421, -40.95307159423828, 14.213168144226074, -10.065553665161133, -0.774658203125, 0.62109375, -0.25439453125, 0, 
25, 845278377, 0.775457, 0.017791132, -0.62924564, 0.04899056, 9.538140296936035, 0.1144527718424797, 2.184506416320801, -43.20518493652344, 13.481122016906738, -10.542088508605957, -0.775146484375, 0.619384765625, -0.248291015625, 0, 
26, 845295044, 0.7769194, 0.013912809, -0.62791085, 0.043940205, 9.624798774719238, 0.049907296895980835, 2.2908804416656494, -42.474361419677734, 13.290277481079102, -10.003227233886719, -0.776611328125, 0.62060546875, -0.247314453125, 0, 
27, 845311711, 0.77833617, 0.01002065, -0.6265539, 0.03902534, 9.723884582519531, -0.0970233753323555, 2.2854626178741455, -41.264190673828125, 13.139591217041016, -8.905828475952148, -0.777587890625, 0.62158203125, -0.239990234375, 0, 
28, 845328378, 0.77961946, 0.0062369932, -0.62528443, 0.03426493, 9.62859058380127, -0.1721082329750061, 2.326611042022705, -39.9941520690918, 12.06977367401123, -8.469085693359375, -0.778076171875, 0.618408203125, -0.23779296875, 0, 
29, 845345045, 0.78067756, 0.0028723634, -0.62421364, 0.029862154, 9.579455375671387, -0.18359072506427765, 2.348062515258789, -36.9426383972168, 9.957905769348145, -8.479270935058594, -0.7783203125, 0.62158203125, -0.2294921875, 0, 
30, 845361712, 0.7815355, -1.1662412E-4, -0.62332666, 0.02581034, 9.68570613861084, -0.2603229284286499, 2.451817512512207, -32.59589767456055, 8.002368927001953, -8.003849029541016, -0.781982421875, 0.622802734375, -0.223876953125, 0, 
31, 845378379, 0.7822897, -0.0028391806, -0.6225145, 0.022151317, 9.785079002380371, -0.35693496465682983, 2.511448860168457, -28.667387008666992, 7.047811985015869, -6.899353504180908, -0.781005859375, 0.62158203125, -0.224609375, 0, 
32, 845395046, 0.7829636, -0.005250638, -0.62175435, 0.019028515, 9.74965763092041, -0.3293200731277466, 2.534750461578369, -26.00096893310547, 6.38195276260376, -5.74992561340332, -0.781982421875, 0.622802734375, -0.219482421875, 0, 
33, 845411713, 0.7835854, -0.0075450307, -0.6210285, 0.016147567, 9.7571439743042, -0.28259792923927307, 2.6083145141601562, -23.893985748291016, 5.9096760749816895, -4.920568466186523, -0.78076171875, 0.623779296875, -0.21728515625, 0, 
34, 845428380, 0.78425723, -0.009675115, -0.6202123, 0.01355607, 9.741409301757812, -0.13144329190254211, 2.6805851459503174, -21.822467803955078, 6.536801338195801, -4.133679389953613, -0.783447265625, 0.622802734375, -0.2138671875, 0, 
35, 845445047, 0.78501546, -0.011706853, -0.6192664, 0.011096451, 9.641097068786621, -0.049464866518974304, 2.689574718475342, -20.555572509765625, 7.527015209197998, -3.7847695350646973, -0.7861328125, 0.622802734375, -0.212646484375, 0, 
36, 845461714, 0.7859552, -0.013595859, -0.6180732, 0.008676515, 9.601877212524414, 0.022567268460989, 2.7321202754974365, -19.275114059448242, 9.561537742614746, -4.054445743560791, -0.783203125, 0.62255859375, -0.210693359375, 0, 
37, 845478381, 0.7870374, -0.015324313, -0.61668265, 0.0063263974, 9.463031768798828, 0.11513373255729675, 2.7497856616973877, -18.758413314819336, 11.189419746398926, -4.448241710662842, -0.783203125, 0.624267578125, -0.208984375, 0, 
38, 845495048, 0.7882825, -0.017006075, -0.615066, 0.0039074593, 9.539502143859863, 0.24246439337730408, 2.7477173805236816, -17.956825256347656, 13.035613059997559, -4.7142558097839355, -0.784423828125, 0.623779296875, -0.207275390625, 0, 
39, 845511715, 0.78954905, -0.01839219, -0.6134099, 0.0015299659, 9.336386680603027, 0.19788993895053864, 2.838805675506592, -15.933098793029785, 13.297873497009277, -5.553060531616211, -0.785888671875, 0.62548828125, -0.207275390625, 0, 
40, 845528382, 0.7908966, -0.019391147, -0.61164224, -6.038827E-4, 9.232419967651367, 0.06495780497789383, 2.8547675609588623, -13.064992904663086, 14.171980857849121, -5.83171272277832, -0.78564453125, 0.62158203125, -0.20947265625, 0, 
41, 845545049, 0.79237324, -0.020220315, -0.6096962, -0.0025577524, 9.419939041137695, -0.06508368998765945, 2.827981948852539, -11.33355712890625, 15.623556137084961, -5.501973628997803, -0.78564453125, 0.62109375, -0.211181640625, 0, 
42, 845561716, 0.7939335, -0.021186749, -0.60762, -0.004338504, 9.490684509277344, -0.11777710914611816, 2.914184331893921, -11.501246452331543, 16.66364097595215, -4.016000747680664, -0.784423828125, 0.623779296875, -0.212890625, 0, 
43, 845578383, 0.79556096, -0.022463862, -0.6054276, -0.005981352, 9.55367660522461, -0.044826045632362366, 2.953056573867798, -12.233989715576172, 17.53593635559082, -1.8672070503234863, -0.7861328125, 0.622802734375, -0.211669921875, 0, 
44, 845595050, 0.79727405, -0.023877148, -0.6030998, -0.0073983585, 9.580011367797852, -0.028140252456068993, 2.9349143505096436, -12.973700523376465, 18.62613296508789, -0.298990398645401, -0.782958984375, 0.619384765625, -0.21337890625, 0, 
45, 845611717, 0.79895097, -0.025450928, -0.6007916, -0.0088978475, 9.554061889648438, 0.019044553861021996, 2.9107015132904053, -13.895108222961426, 18.391674041748047, -0.004866421688348055, -0.7822265625, 0.6220703125, -0.214111328125, 0, 
46, 845628384, 0.8006492, -0.027216593, -0.59841543, -0.010911224, 9.433208465576172, 0.13522692024707794, 2.8497636318206787, -15.547952651977539, 18.92255401611328, -1.562224268913269, -0.782470703125, 0.62158203125, -0.218994140625, 0, 
47, 845645051, 0.8023963, -0.028711917, -0.5959601, -0.012943866, 9.335296630859375, 0.07376992702484131, 2.8473386764526367, -15.859856605529785, 19.69574546813965, -3.233879566192627, -0.781982421875, 0.624267578125, -0.218505859375, 0, 
48, 845661718, 0.8041879, -0.030308085, -0.593401, -0.015452658, 9.180997848510742, -0.028853660449385643, 2.9100286960601807, -15.698369026184082, 20.506799697875977, -4.584863185882568, -0.781982421875, 0.6220703125, -0.218994140625, 0, 
49, 845678385, 0.8058125, -0.03145833, -0.59106916, -0.017719701, 8.96415901184082, -0.11680866777896881, 3.108182430267334, -14.682755470275879, 18.685060501098633, -5.871428966522217, -0.782470703125, 0.623291015625, -0.218994140625, 0, 
50, 845695052, 0.80711824, -0.032580543, -0.5891425, -0.02024623, 8.94248104095459, -0.22093574702739716, 3.2148492336273193, -14.038623809814453, 15.155898094177246, -7.0761847496032715, -0.781982421875, 0.623291015625, -0.22119140625, 0, 
51, 845711719, 0.8081651, -0.03342462, -0.58757794, -0.022457654, 9.034616470336914, -0.2962954044342041, 3.247361183166504, -14.015704154968262, 12.14134693145752, -7.510402679443359, -0.782958984375, 0.62158203125, -0.219482421875, 0, 
52, 845728386, 0.80904394, -0.034479223, -0.5862081, -0.024883727, 9.249212265014648, -0.40343520045280457, 3.19376802444458, -13.31518840789795, 10.314253807067871, -7.087542533874512, -0.783203125, 0.619384765625, -0.22119140625, 0, 
53, 845745053, 0.80989575, -0.035459958, -0.5848814, -0.026929926, 9.505815505981445, -0.44703900814056396, 3.2012581825256348, -12.553436279296875, 9.949446678161621, -5.751964569091797, -0.781494140625, 0.62158203125, -0.222900390625, 0, 
54, 845761720, 0.81080574, -0.0363254, -0.5834858, -0.028619053, 9.647205352783203, -0.426099568605423, 3.3097407817840576, -10.667481422424316, 10.552460670471191, -4.348297595977783, -0.785400390625, 0.617919921875, -0.22119140625, 0, 
55, 845778387, 0.81178206, -0.037141126, -0.5820004, -0.030101651, 9.670141220092773, -0.3956988751888275, 3.3483946323394775, -8.393889427185059, 11.277286529541016, -3.0218143463134766, -0.785888671875, 0.61962890625, -0.220947265625, 0, 
56, 845795054, 0.8127502, -0.03780342, -0.5805434, -0.031266026, 9.628642082214355, -0.3619368076324463, 3.3635308742523193, -6.70853328704834, 11.082731246948242, -2.0674455165863037, -0.783203125, 0.62060546875, -0.224365234375, 0, 
57, 845811721, 0.81372696, -0.038425826, -0.57908195, -0.032190084, 9.50607681274414, -0.37163442373275757, 3.447816848754883, -5.214197635650635, 11.114541053771973, -0.8264454007148743, -0.7822265625, 0.617919921875, -0.223876953125, 0, 
58, 845828388, 0.8147295, -0.03897588, -0.5775986, -0.03280974, 9.42980670928955, -0.38101744651794434, 3.435330629348755, -4.391772747039795, 11.312616348266602, 0.2913510203361511, -0.783447265625, 0.618408203125, -0.227783203125, 0, 
59, 845845055, 0.81577086, -0.039597627, -0.57605183, -0.03338176, 9.326109886169434, -0.38592615723609924, 3.441511869430542, -3.8917112350463867, 11.79265022277832, 1.0761756896972656, -0.78271484375, 0.618896484375, -0.228759765625, 0, 
60, 845861722, 0.8168527, -0.040126994, -0.5744586, -0.03374811, 9.139510154724121, -0.4114810526371002, 3.4844329357147217, -2.9027912616729736, 12.20474624633789, 1.732347846031189, -0.780029296875, 0.619384765625, -0.230712890625, 0, 
61, 845878389, 0.8179562, -0.040674817, -0.5728179, -0.03425151, 9.007954597473145, -0.3615155518054962, 3.5159690380096436, -2.7179954051971436, 12.572736740112305, 1.3185745477676392, -0.78125, 0.62158203125, -0.2333984375, 0, 
62, 845895056, 0.8190785, -0.041218054, -0.5711315, -0.034933485, 9.012859344482422, -0.28295648097991943, 3.508284568786621, -2.929191827774048, 12.93997859954834, 0.4656263291835785, -0.781982421875, 0.6201171875, -0.235595703125, 0, 
63, 845911723, 0.82028466, -0.04163053, -0.56932265, -0.035663933, 9.01047134399414, -0.2908655107021332, 3.527872323989868, -2.8748419284820557, 14.024768829345703, -0.44774237275123596, -0.77978515625, 0.6201171875, -0.23828125, 0, 
64, 845928390, 0.82153153, -0.042004146, -0.5674408, -0.03650713, 9.043209075927734, -0.2682364583015442, 3.646301031112671, -3.1520419120788574, 14.64954662322998, -1.2335342168807983, -0.77978515625, 0.62109375, -0.24169921875, 0, 
65, 845945057, 0.8226929, -0.042436585, -0.56565607, -0.037537657, 8.843974113464355, -0.22341595590114594, 3.7220537662506104, -4.056734085083008, 13.801981925964355, -2.056739330291748, -0.779296875, 0.61962890625, -0.243896484375, 0, 
66, 845961724, 0.82356405, -0.043053385, -0.56424505, -0.03894122, 8.904924392700195, -0.05337774381041527, 3.837908983230591, -6.453911304473877, 10.607685089111328, -3.596877098083496, -0.780517578125, 0.618896484375, -0.244873046875, 0, 
67, 845978391, 0.82415545, -0.04382249, -0.5632148, -0.040453516, 8.984013557434082, -0.012968407943844795, 3.9796202182769775, -9.022565841674805, 7.378082275390625, -4.290411472320557, -0.779296875, 0.622802734375, -0.245361328125, 0, 
68, 845995058, 0.82453984, -0.04502669, -0.56242734, -0.04221786, 9.06279182434082, -0.03152897581458092, 4.071013927459717, -11.369817733764648, 5.099190711975098, -3.7263681888580322, -0.77783203125, 0.62109375, -0.252685546875, 0, 
69, 846011725, 0.8248278, -0.046373244, -0.56177837, -0.04374871, 9.27223014831543, -0.12648260593414307, 4.054988861083984, -12.96319580078125, 3.858292818069458, -2.6213972568511963, -0.783203125, 0.62548828125, -0.24462890625, 0, 
70, 846028392, 0.82502866, -0.048008952, -0.5612212, -0.045318983, 9.35035228729248, -0.1487443894147873, 4.018187999725342, -13.736869812011719, 2.8688740730285645, -1.3283653259277344, -0.78271484375, 0.6201171875, -0.241943359375, 0, 
71, 846045059, 0.82519656, -0.049646314, -0.5607201, -0.046679955, 9.399188041687012, -0.16546152532100677, 4.003813743591309, -13.218582153320312, 2.3521885871887207, -0.26429760456085205, -0.78515625, 0.622314453125, -0.238525390625, 0, 
72, 846061726, 0.8253738, -0.051212717, -0.56021196, -0.047938958, 9.403314590454102, -0.22092734277248383, 3.9420888423919678, -11.539159774780273, 2.3806631565093994, 0.4129665195941925, -0.78125, 0.622802734375, -0.237548828125, 0, 
73, 846078393, 0.8255755, -0.052521545, -0.55971146, -0.048885766, 9.335770606994629, -0.2784459888935089, 3.9616031646728516, -9.468299865722656, 2.4323041439056396, 0.9419904351234436, -0.782470703125, 0.623779296875, -0.23583984375, 0, 
74, 846095060, 0.8258174, -0.053701315, -0.5591556, -0.049866747, 9.30614185333252, -0.3207104206085205, 3.8618547916412354, -7.572421550750732, 2.9097633361816406, 0.8023883700370789, -0.780029296875, 0.62548828125, -0.236083984375, 0, 
75, 846111727, 0.8261193, -0.054490715, -0.55856615, -0.050613977, 9.1982421875, -0.34268465638160706, 3.7883543968200684, -5.877551555633545, 3.442032814025879, 0.06895579397678375, -0.78173828125, 0.625, -0.236083984375, 0, 
76, 846128394, 0.8263939, -0.0550958, -0.5580328, -0.05135289, 9.034027099609375, -0.293791800737381, 3.798140525817871, -4.266167163848877, 3.0732367038726807, -0.4173462390899658, -0.782958984375, 0.62451171875, -0.238037109375, 0, 
77, 846145061, 0.8266129, -0.055616226, -0.5575922, -0.052047536, 8.967987060546875, -0.2695794999599457, 3.8930935859680176, -3.8919272422790527, 2.3658905029296875, -0.6781859397888184, -0.78076171875, 0.62548828125, -0.23486328125, 0, 
78, 846161728, 0.8266499, -0.05586152, -0.5574573, -0.05264008, 8.890811920166016, -0.27578145265579224, 3.6922478675842285, -1.5125577449798584, -0.032079897820949554, -1.1662741899490356, -0.782470703125, 0.6259765625, -0.2392578125, 0, 
79, 846178395, 0.82647604, -0.056092557, -0.55765074, -0.053074237, 9.024831771850586, -0.2798798382282257, 3.9125938415527344, -1.519575834274292, -2.7135629653930664, -0.8530052900314331, -0.782470703125, 0.62548828125, -0.236572265625, 0, 
80, 846195062, 0.826319, -0.05653073, -0.55778545, -0.053636834, 9.064384460449219, -0.26710525155067444, 3.8344693183898926, -3.158724784851074, -2.351207733154297, -0.7318061590194702, -0.782958984375, 0.622802734375, -0.233642578125, 0, 
81, 846211729, 0.8261157, -0.056967434, -0.5579802, -0.054274872, 9.099613189697266, -0.20032347738742828, 3.8405144214630127, -2.9968011379241943, -2.8546507358551025, -1.0151466131210327, -0.7861328125, 0.622314453125, -0.233642578125, 0, 
82, 846228396, 0.8259611, -0.057172794, -0.5581487, -0.05467862, 9.185523986816406, -0.258535772562027, 3.9435975551605225, -0.9766889810562134, -2.5138609409332275, -0.6194943189620972, -0.786865234375, 0.621826171875, -0.232421875, 0, 
83, 846245063, 0.82587975, -0.05730746, -0.55823493, -0.054885186, 9.160087585449219, -0.29323893785476685, 3.9548652172088623, 0.2085321843624115, -1.821421504020691, 0.304502934217453, -0.78564453125, 0.622802734375, -0.2353515625, 0, 
84, 846261730, 0.82585394, -0.05740876, -0.5582602, -0.05491187, 9.146075248718262, -0.21357394754886627, 3.919630765914917, 0.7947428226470947, -1.3067983388900757, 1.093361258506775, -0.783935546875, 0.62451171875, -0.233154296875, 0, 
85, 846278397, 0.8258695, -0.05751527, -0.55823445, -0.054827057, 9.117199897766113, -0.1745752990245819, 3.911731481552124, 1.2708574533462524, -0.9140020608901978, 1.8293808698654175, -0.7861328125, 0.62353515625, -0.234130859375, 0, 
86, 846295064, 0.8259236, -0.057601873, -0.5581635, -0.05464279, 9.139566421508789, -0.11044996231794357, 3.9020185470581055, 1.8880723714828491, -0.5499303340911865, 2.410942792892456, -0.78564453125, 0.62353515625, -0.233642578125, 0, 
87, 846311731, 0.8260536, -0.057652075, -0.5579892, -0.054403737, 9.096334457397461, -0.07042299211025238, 3.895902633666992, 2.3345532417297363, 0.31540122628211975, 2.6896345615386963, -0.78515625, 0.625, -0.2353515625, 0, 
88, 846328398, 0.8262378, -0.057674915, -0.55774987, -0.05403505, 9.098295211791992, -0.020083952695131302, 3.896848440170288, 2.4658944606781006, 0.870236337184906, 3.1678106784820557, -0.782958984375, 0.623779296875, -0.23486328125, 0, 
89, 846345065, 0.82647747, -0.05772314, -0.5574274, -0.05364592, 9.105809211730957, -0.003496962133795023, 3.884157657623291, 2.691786289215088, 1.521657109260559, 3.585874557495117, -0.782470703125, 0.62109375, -0.2353515625, 0, 
90, 846361732, 0.8267284, -0.057880916, -0.55708534, -0.05316146, 9.06224536895752, -0.06176013872027397, 3.8567214012145996, 2.6048178672790527, 1.589261770248413, 4.662184238433838, -0.78125, 0.62158203125, -0.235595703125, 0, 
91, 846378399, 0.8269165, -0.058111288, -0.5568321, -0.052635223, 9.04625415802002, -0.06675385683774948, 3.8748908042907715, 2.50244402885437, 0.7924249172210693, 5.2048659324646, -0.7802734375, 0.624267578125, -0.236083984375, 0, 
92, 846395066, 0.82706165, -0.058337364, -0.5566622, -0.051896915, 9.131251335144043, -0.07300139218568802, 3.881248950958252, 2.9526901245117188, 0.08630840480327606, 6.200496673583984, -0.779052734375, 0.62646484375, -0.236083984375, 0, 
93, 846411733, 0.82716787, -0.05855326, -0.5565607, -0.051040787, 9.115777015686035, -0.13738073408603668, 3.874974489212036, 3.598040819168091, -0.5012022256851196, 6.8661322593688965, -0.77685546875, 0.625244140625, -0.235595703125, 0, 
94, 846428400, 0.82722235, -0.058733724, -0.556542, -0.050149277, 9.16042423248291, -0.18247520923614502, 3.861783504486084, 4.156039237976074, -1.1836014986038208, 6.988382339477539, -0.7744140625, 0.624267578125, -0.232421875, 0, 
95, 846445067, 0.8272185, -0.05882918, -0.55662674, -0.049146857, 9.169623374938965, -0.2742965817451477, 3.8503284454345703, 5.13297176361084, -2.017141342163086, 7.294492721557617, -0.7734375, 0.625244140625, -0.233642578125, 0, 
96, 846461734, 0.8271381, -0.058762353, -0.55685234, -0.048009604, 9.20797061920166, -0.3660462498664856, 3.9109790325164795, 6.369988918304443, -3.0955135822296143, 7.265524864196777, -0.7734375, 0.62353515625, -0.234619140625, 0, 
97, 846478401, 0.8270015, -0.05858355, -0.55717534, -0.04682312, 9.239105224609375, -0.3133578598499298, 3.8989977836608887, 7.123733997344971, -3.844353199005127, 7.02365255355835, -0.77294921875, 0.6220703125, -0.238525390625, 0, 
98, 846495068, 0.8267861, -0.05823631, -0.55762464, -0.04569679, 9.225118637084961, -0.3639675974845886, 3.870540142059326, 7.842349052429199, -4.77779483795166, 5.9336771965026855, -0.769775390625, 0.62353515625, -0.237548828125, 0, 
99, 846511735, 0.82653075, -0.057745453, -0.558139, -0.04464813, 9.218047142028809, -0.3411441147327423, 3.7493999004364014, 8.317581176757812, -5.220241546630859, 4.882185935974121, -0.771240234375, 0.625732421875, -0.23486328125, 0, 
100, 846528402, 0.82619745, -0.05718521, -0.55876935, -0.04364233, 9.177992820739746, -0.3911287784576416, 3.7197611331939697, 9.404559135437012, -6.180066108703613, 4.669434547424316, -0.7685546875, 0.623046875, -0.236083984375, 0, 
101, 846545069, 0.8257393, -0.056411635, -0.5596121, -0.042507406, 9.135893821716309, -0.4694523811340332, 3.750492811203003, 10.228433609008789, -7.793194770812988, 4.081175327301025, -0.767578125, 0.621337890625, -0.2392578125, 0, 
102, 846561736, 0.8251467, -0.055696197, -0.56064135, -0.041380897, 9.075859069824219, -0.43109792470932007, 3.7001938819885254, 9.762042045593262, -9.368305206298828, 4.074009895324707, -0.769775390625, 0.619873046875, -0.23876953125, 0, 
103, 846578403, 0.8244386, -0.054999694, -0.56183016, -0.04028739, 9.122352600097656, -0.4295687675476074, 3.703749179840088, 9.621949195861816, -10.712570190429688, 3.9028594493865967, -0.769775390625, 0.620849609375, -0.23828125, 0, 
104, 846595070, 0.82369334, -0.05433709, -0.56307065, -0.039097544, 9.158002853393555, -0.46022677421569824, 3.6251702308654785, 9.70666217803955, -11.187199592590332, 4.505360126495361, -0.768798828125, 0.623046875, -0.240966796875, 0, 
105, 846611737, 0.82296526, -0.05364156, -0.5642891, -0.0378022, 9.225903511047363, -0.5302739143371582, 3.5780162811279297, 10.051617622375488, -11.004288673400879, 4.876079082489014, -0.770263671875, 0.6181640625, -0.237548828125, 0, 
106, 846628404, 0.8223243, -0.053006493, -0.5653686, -0.036491413, 9.275856018066406, -0.5458613038063049, 3.556313991546631, 10.09036922454834, -9.911867141723633, 5.3954033851623535, -0.770263671875, 0.621337890625, -0.237548828125, 0, 
107, 846645071, 0.8217935, -0.052435093, -0.56627744, -0.035159938, 9.300348281860352, -0.5069870948791504, 3.5305113792419434, 9.730737686157227, -8.526344299316406, 5.805896759033203, -0.768798828125, 0.61962890625, -0.2392578125, 0, 
108, 846661738, 0.8213622, -0.051929355, -0.56702936, -0.03384287, 9.290325164794922, -0.4376988112926483, 3.521608829498291, 9.1431303024292, -7.244977951049805, 5.991613864898682, -0.769775390625, 0.615966796875, -0.240478515625, 0, 
109, 846678405, 0.82105154, -0.05144353, -0.5675985, -0.03255881, 9.270899772644043, -0.3965924084186554, 3.5001184940338135, 9.000736236572266, -5.732944488525391, 6.013090133666992, -0.769287109375, 0.615966796875, -0.23876953125, 0, 
110, 846695072, 0.8208223, -0.050907787, -0.56805056, -0.031271506, 9.241514205932617, -0.4087302088737488, 3.5103650093078613, 9.338927268981934, -4.7367377281188965, 5.913930416107178, -0.765869140625, 0.621337890625, -0.240966796875, 0, 
111, 846711739, 0.8206317, -0.050366607, -0.5684413, -0.03002619, 9.233335494995117, -0.4126072824001312, 3.549247980117798, 8.999070167541504, -4.207797050476074, 5.609842777252197, -0.76708984375, 0.622314453125, -0.240478515625, 0, 
112, 846728406, 0.820457, -0.049898144, -0.56879, -0.028963141, 9.213876724243164, -0.40684735774993896, 3.515349864959717, 8.058174133300781, -3.8689918518066406, 4.95490026473999, -0.76708984375, 0.621337890625, -0.243896484375, 0, 
113, 846745073, 0.8202925, -0.049478345, -0.5691089, -0.028062038, 9.175789833068848, -0.3715435564517975, 3.512338876724243, 7.013700008392334, -3.604053497314453, 4.194957733154297, -0.768310546875, 0.61865234375, -0.241455078125, 0, 
114, 846761740, 0.8200773, -0.04919881, -0.5694777, -0.02734428, 9.128009796142578, -0.347965806722641, 3.5491955280303955, 5.644124507904053, -4.056271076202393, 3.744481325149536, -0.765380859375, 0.61962890625, -0.2421875, 0, 
115, 846778407, 0.81980145, -0.04900453, -0.56992024, -0.026739158, 9.133363723754883, -0.30124104022979736, 3.554842948913574, 4.636546611785889, -4.687010288238525, 3.3833298683166504, -0.7666015625, 0.620849609375, -0.243896484375, 0, 
116, 846795074, 0.8194506, -0.048867006, -0.570461, -0.026210388, 9.243401527404785, -0.3361968696117401, 3.5968194007873535, 3.9557735919952393, -5.5188212394714355, 3.118391513824463, -0.768310546875, 0.619140625, -0.244384765625, 0, 
117, 846811741, 0.81909144, -0.04886465, -0.57098997, -0.025921755, 9.319990158081055, -0.35093584656715393, 3.6285293102264404, 2.228734016418457, -5.43308162689209, 2.2999632358551025, -0.767578125, 0.619140625, -0.24267578125, 0, 
118, 846828408, 0.81870586, -0.04890833, -0.57154334, -0.025826946, 9.307716369628906, -0.31437259912490845, 3.614614725112915, 1.218274474143982, -5.625509262084961, 1.388304352760315, -0.767578125, 0.6240234375, -0.241455078125, 0, 
119, 846845075, 0.818278, -0.048910502, -0.57215464, -0.025845176, 9.3759765625, -0.3367980420589447, 3.5977320671081543, 0.9858648180961609, -6.077458381652832, 0.5645743608474731, -0.764892578125, 0.617919921875, -0.243408203125, 0, 
120, 846861742, 0.8178083, -0.04893345, -0.57281476, -0.026049323, 9.422846794128418, -0.2768981158733368, 3.5538723468780518, -0.05058508366346359, -6.4537482261657715, -0.4824920892715454, -0.767822265625, 0.616943359375, -0.2421875, 0, 
121, 846878409, 0.81727767, -0.0489372, -0.5735544, -0.026417261, 9.427068710327148, -0.19935458898544312, 3.5596113204956055, -0.5371304154396057, -7.086554050445557, -1.4834812879562378, -0.768798828125, 0.621337890625, -0.24267578125, 0, 
122, 846895076, 0.81670237, -0.048876658, -0.57436, -0.026816918, 9.367557525634766, -0.2404915690422058, 3.5567948818206787, -0.4439578056335449, -7.608445644378662, -1.979439616203308, -0.768798828125, 0.617431640625, -0.23779296875, 0, 
123, 846911743, 0.8161064, -0.048816662, -0.575189, -0.02729184, 9.34029483795166, -0.2178642898797989, 3.4518496990203857, -0.5839312076568604, -7.810786724090576, -2.3382351398468018, -0.774169921875, 0.620361328125, -0.240234375, 0, 
124, 846928410, 0.8155326, -0.04881497, -0.5759795, -0.0277721, 9.357711791992188, -0.23482009768486023, 3.4355623722076416, -1.0628248453140259, -7.511246204376221, -2.1529910564422607, -0.77294921875, 0.61767578125, -0.23486328125, 0, 
125, 846945077, 0.81498563, -0.048868347, -0.5767261, -0.028239332, 9.317737579345703, -0.19509516656398773, 3.2500126361846924, -1.2039510011672974, -7.1823410987854, -1.788765788078308, -0.77294921875, 0.61865234375, -0.23583984375, 0, 
126, 846961744, 0.8143235, -0.04875536, -0.57765776, -0.028492229, 9.303977012634277, -0.2802707254886627, 3.1130170822143555, 0.404110848903656, -8.697421073913574, -1.37838613986969, -0.7724609375, 0.6171875, -0.233642578125, 0, 
127, 846978411, 0.8136846, -0.048939206, -0.5785268, -0.028803425, 9.397860527038574, -0.3161415159702301, 3.1674516201019287, -1.4958842992782593, -8.278141021728516, -0.49418431520462036, -0.77685546875, 0.61767578125, -0.229248046875, 0, 
128, 846995078, 0.8130638, -0.04934766, -0.5793442, -0.02920239, 9.357439041137695, -0.29485267400741577, 2.9779202938079834, -2.9202961921691895, -7.930729866027832, -5.762858199886978E-4, -0.77685546875, 0.61669921875, -0.232421875, 0, 
129, 847011745, 0.8124972, -0.049611516, -0.5801018, -0.029478773, 9.408751487731934, -0.2600689232349396, 2.8712732791900635, -1.921119213104248, -7.354969024658203, 0.03982134908437729, -0.776123046875, 0.620849609375, -0.229736328125, 0, 
130, 847028412, 0.8119572, -0.04976754, -0.5808362, -0.029632486, 9.41802978515625, -0.3388107717037201, 2.866821527481079, -0.8014854788780212, -7.112928867340088, 0.32436564564704895, -0.77783203125, 0.61767578125, -0.22802734375, 0, 
131, 847045079, 0.81146514, -0.04990119, -0.5815072, -0.029727934, 9.527177810668945, -0.3207600712776184, 2.780010461807251, -0.40206819772720337, -6.559169769287109, 0.6078470349311829, -0.777099609375, 0.620849609375, -0.225830078125, 0, 
132, 847061746, 0.8111156, -0.049956776, -0.5819865, -0.029794093, 9.63823127746582, -0.32046717405319214, 2.7079408168792725, 0.16901181638240814, -4.880321502685547, 0.5621412396430969, -0.776611328125, 0.61669921875, -0.2275390625, 0, 
133, 847078413, 0.8109248, -0.04992833, -0.5822523, -0.029840158, 9.684642791748047, -0.361675500869751, 2.6876323223114014, 0.6355727314949036, -3.001629114151001, 0.41545718908309937, -0.780029296875, 0.619873046875, -0.227294921875, 0, 
134, 847095080, 0.8109611, -0.04978306, -0.5822129, -0.029866103, 9.727084159851074, -0.30952662229537964, 2.6601991653442383, 1.3685506582260132, -0.3327345848083496, 0.20916609466075897, -0.7783203125, 0.618896484375, -0.225830078125, 0, 
135, 847111747, 0.8112366, -0.049497537, -0.5818549, -0.029838061, 9.714983940124512, -0.3300023674964905, 2.65690279006958, 2.4360365867614746, 2.4509687423706055, 0.12926729023456573, -0.777099609375, 0.618896484375, -0.226806640625, 0, 
136, 847128414, 0.8117036, -0.049107872, -0.5812414, -0.029736377, 9.627076148986816, -0.3145442306995392, 2.7116682529449463, 3.2876462936401367, 4.68142557144165, 0.24138689041137695, -0.77783203125, 0.618896484375, -0.225830078125, 0, 
137, 847145081, 0.81243026, -0.048677325, -0.58027107, -0.029547269, 9.699993133544922, -0.3292269706726074, 2.7159416675567627, 3.990119695663452, 7.720188617706299, 0.7803230881690979, -0.77685546875, 0.61767578125, -0.232421875, 0, 
138, 847161748, 0.81344557, -0.048287816, -0.5788924, -0.029294245, 9.738390922546387, -0.25847452878952026, 2.8513343334198, 3.9051764011383057, 11.167546272277832, 1.4567294120788574, -0.778076171875, 0.61572265625, -0.23193359375, 0, 
139, 847178415, 0.81463355, -0.04798531, -0.5772561, -0.02906925, 9.4054536819458, -0.12507863342761993, 2.992370843887329, 3.5482900142669678, 13.307836532592773, 1.8563647270202637, -0.7763671875, 0.618896484375, -0.2373046875, 0, 
140, 847195082, 0.8159179, -0.047789626, -0.5754687, -0.028809637, 9.423824310302734, -0.04016299545764923, 2.9172661304473877, 2.9161040782928467, 14.531306266784668, 2.4995391368865967, -0.775390625, 0.61767578125, -0.240234375, 0, 
141, 847211749, 0.8172591, -0.047565795, -0.5736008, -0.02841505, 9.306082725524902, -0.09632501751184464, 2.9432287216186523, 3.679722309112549, 15.19210433959961, 3.2289772033691406, -0.77490234375, 0.6171875, -0.242431640625, 0, 
142, 847228416, 0.81852007, -0.04726258, -0.57184774, -0.02795116, 9.259572982788086, -0.21716293692588806, 3.174870491027832, 4.4386396408081055, 14.24630069732666, 3.2860031127929688, -0.771240234375, 0.61865234375, -0.246337890625, 0, 
143, 847245083, 0.81972986, -0.04694572, -0.57015747, -0.027558966, 9.289874076843262, -0.20739321410655975, 3.3092305660247803, 4.240883827209473, 13.728089332580566, 2.813563585281372, -0.77197265625, 0.6171875, -0.251220703125, 0, 
144, 847261750, 0.8209195, -0.046681557, -0.5684774, -0.02730091, 9.365154266357422, -0.2175399512052536, 3.4014084339141846, 3.3636162281036377, 13.634073257446289, 2.2495267391204834, -0.7685546875, 0.61767578125, -0.25244140625, 0, 
145, 847278417, 0.8220927, -0.04646842, -0.5668056, -0.027125357, 9.507488250732422, -0.21826107800006866, 3.353450059890747, 2.7925612926483154, 13.544076919555664, 2.005277395248413, -0.767578125, 0.619140625, -0.257080078125, 0, 
146, 847295084, 0.823249, -0.04617674, -0.56515753, -0.026945055, 9.547283172607422, -0.2324502021074295, 3.405513048171997, 3.226530075073242, 13.372636795043945, 1.7145472764968872, -0.764404296875, 0.6181640625, -0.2587890625, 0, 
147, 847311751, 0.8244386, -0.045930423, -0.5634493, -0.026768727, 9.5580415725708, -0.21828949451446533, 3.331883430480957, 2.9417293071746826, 13.849416732788086, 1.9003161191940308, -0.76318359375, 0.620361328125, -0.2626953125, 0, 
148, 847328418, 0.82566804, -0.045688964, -0.5616747, -0.026578441, 9.576970100402832, -0.20161691308021545, 3.3220269680023193, 3.0555012226104736, 14.390935897827148, 2.0700390338897705, -0.7646484375, 0.6181640625, -0.2685546875, 0, 
149, 847345085, 0.826935, -0.045436263, -0.5598405, -0.026321562, 9.312959671020508, -0.18234024941921234, 3.3451807498931885, 3.2808103561401367, 14.88626766204834, 2.403395414352417, -0.76025390625, 0.616455078125, -0.269287109375, 0, 
150, 847361752, 0.8280972, -0.045202326, -0.55815136, -0.026054272, 9.208683013916016, -0.15332213044166565, 3.3257572650909424, 3.2757062911987305, 13.667105674743652, 2.5115764141082764, -0.758544921875, 0.617431640625, -0.272705078125, 0, 
151, 847378419, 0.8291204, -0.045026936, -0.55665493, -0.025832657, 9.130175590515137, -0.1527363806962967, 3.292738437652588, 2.815272569656372, 12.058631896972656, 2.4279441833496094, -0.760498046875, 0.616455078125, -0.276611328125, 0, 
152, 847395086, 0.830034, -0.044871934, -0.5553138, -0.025627596, 9.067026138305664, -0.1538049876689911, 3.314906597137451, 2.6914796829223633, 10.774979591369629, 2.3837814331054688, -0.757080078125, 0.617431640625, -0.2783203125, 0, 
153, 847411753, 0.8308183, -0.044653606, -0.5541685, -0.025384484, 9.005751609802246, -0.2179921567440033, 3.386979341506958, 3.0706753730773926, 9.191920280456543, 2.2394022941589355, -0.756591796875, 0.617919921875, -0.2822265625, 0, 
154, 847428420, 0.83142835, -0.044383112, -0.5532839, -0.025183043, 8.959046363830566, -0.2762890160083771, 3.563852548599243, 3.1741507053375244, 7.081010341644287, 1.6873713731765747, -0.754150390625, 0.617431640625, -0.28662109375, 0, 
155, 847445087, 0.83183575, -0.04409764, -0.5527006, -0.02503723, 9.00086784362793, -0.3164864778518677, 3.617602825164795, 2.855361223220825, 4.624929904937744, 1.1104192733764648, -0.755126953125, 0.615966796875, -0.287109375, 0, 
156, 847461754, 0.832083, -0.043819685, -0.55235296, -0.02497921, 9.136953353881836, -0.29915890097618103, 3.6266977787017822, 2.551351308822632, 2.695333242416382, 0.5767531394958496, -0.75634765625, 0.617431640625, -0.28759765625, 0, 
157, 847478421, 0.8322582, -0.04359074, -0.55210507, -0.025022296, 9.15793514251709, -0.30972447991371155, 3.6813671588897705, 1.9461491107940674, 1.8798761367797852, 0.17368613183498383, -0.754638671875, 0.621337890625, -0.28662109375, 0, 
158, 847495088, 0.83237076, -0.043346733, -0.55195, -0.025125604, 9.149520874023438, -0.29902416467666626, 3.7501065731048584, 1.9324589967727661, 1.1331634521484375, -0.20779582858085632, -0.7529296875, 0.617431640625, -0.29052734375, 0, 
159, 847511755, 0.8324182, -0.04310613, -0.5518925, -0.025229154, 9.12724494934082, -0.32575130462646484, 3.7761070728302, 1.617525339126587, 0.3457138240337372, -0.36317530274391174, -0.755859375, 0.615966796875, -0.288818359375, 0, 
160, 847528422, 0.832404, -0.042954806, -0.5519162, -0.02543798, 9.181321144104004, -0.30134257674217224, 3.7744367122650146, 0.8663432598114014, -0.344016969203949, -0.5859289765357971, -0.754638671875, 0.616455078125, -0.288330078125, 0, 
161, 847545089, 0.83238083, -0.042854637, -0.5519444, -0.025752556, 9.205522537231445, -0.26072800159454346, 3.7420899868011475, 0.1882213056087494, -0.37959298491477966, -0.9909553527832031, -0.75537109375, 0.616455078125, -0.292236328125, 0, 
162, 847561756, 0.832342, -0.04273437, -0.55199796, -0.026056476, 9.194024085998535, -0.29265931248664856, 3.7009081840515137, 0.1547967493534088, -0.5683714151382446, -1.096992015838623, -0.754638671875, 0.615234375, -0.288330078125, 0, 
163, 847578423, 0.83227706, -0.042622607, -0.552089, -0.02638389, 9.209634780883789, -0.27326977252960205, 3.6785693168640137, 0.18490447103977203, -0.8779264688491821, -1.1353212594985962, -0.755859375, 0.6142578125, -0.287109375, 0, 
164, 847595090, 0.83222777, -0.04250964, -0.5521518, -0.02680138, 9.288418769836426, -0.21493829786777496, 3.661442995071411, -0.08470119535923004, -0.6254878044128418, -1.6117815971374512, -0.75537109375, 0.61376953125, -0.289306640625, 0, 
165, 847611757, 0.8322917, -0.042287562, -0.55204415, -0.027374752, 9.38205337524414, -0.17320911586284637, 3.630511999130249, -0.27498435974121094, 0.8669643402099609, -2.941932439804077, -0.75634765625, 0.615966796875, -0.28759765625, 0, 
166, 847628424, 0.8324807, -0.0420782, -0.5517425, -0.028030075, 9.375473022460938, -0.15104949474334717, 3.6257083415985107, -0.49062401056289673, 2.4808013439178467, -3.1986162662506104, -0.758056640625, 0.6142578125, -0.290283203125, 0, 
167, 847645091, 0.83276844, -0.04190966, -0.55128694, -0.028690018, 9.35023307800293, -0.10780005156993866, 3.641720771789551, -0.9174085259437561, 3.7530481815338135, -3.0745229721069336, -0.757568359375, 0.61328125, -0.289794921875, 0, 
168, 847661758, 0.8331248, -0.041803654, -0.5507208, -0.029361892, 9.291071891784668, -0.10385576635599136, 3.610750913619995, -1.2340710163116455, 4.64666223526001, -2.808675527572632, -0.757080078125, 0.611572265625, -0.291015625, 0, 
169, 847678425, 0.8335074, -0.04178407, -0.5501076, -0.030018928, 9.19129467010498, -0.030061179772019386, 3.588831901550293, -1.7080085277557373, 5.0102739334106445, -2.3831593990325928, -0.757080078125, 0.611572265625, -0.294189453125, 0, 
170, 847695092, 0.83390826, -0.0419225, -0.5494567, -0.030610964, 9.121574401855469, 0.006378417834639549, 3.5462582111358643, -2.42549729347229, 5.260279178619385, -1.4112727642059326, -0.756103515625, 0.60888671875, -0.291748046875, 0, 
171, 847711759, 0.8342403, -0.042250283, -0.54889625, -0.031164156, 9.124359130859375, -0.03238239884376526, 3.596994161605835, -3.3427135944366455, 4.444860458374023, -0.4819414019584656, -0.757568359375, 0.611572265625, -0.2919921875, 0, 
172, 847728426, 0.8345107, -0.04267285, -0.5484183, -0.031756118, 9.173249244689941, -0.04938412830233574, 3.6406309604644775, -4.04044246673584, 3.7425220012664795, -0.37137138843536377, -0.758056640625, 0.61279296875, -0.292724609375, 0, 
173, 847745093, 0.8347143, -0.043178912, -0.54803234, -0.032376826, 9.130294799804688, -0.08133495599031448, 3.6629021167755127, -4.584020614624023, 2.964791774749756, -0.2332676649093628, -0.757568359375, 0.61279296875, -0.293212890625, 0, 
174, 847761760, 0.8348531, -0.04376013, -0.5477387, -0.03298184, 9.178424835205078, -0.051393162459135056, 3.689089059829712, -5.058533191680908, 2.183450698852539, 0.06163055822253227, -0.756591796875, 0.612060546875, -0.293212890625, 0, 
175, 847778427, 0.8349888, -0.044387955, -0.5474425, -0.033619348, 9.24720573425293, -0.04833560064435005, 3.7125184535980225, -5.403286933898926, 2.1944706439971924, 0.08133313059806824, -0.756591796875, 0.61376953125, -0.292724609375, 0, 
176, 847795094, 0.835141, -0.04494457, -0.5471269, -0.034228373, 9.247450828552246, -0.07555735856294632, 3.7141692638397217, -5.019385814666748, 2.392232894897461, -0.05784629285335541, -0.758056640625, 0.61474609375, -0.290283203125, 0, 
177, 847811761, 0.8353341, -0.045412414, -0.5467534, -0.03486037, 9.23951244354248, -0.10743406414985657, 3.7499470710754395, -4.36244535446167, 2.9074196815490723, -0.37522611021995544, -0.75634765625, 0.612548828125, -0.29052734375, 0, 
178, 847828428, 0.8355776, -0.045879684, -0.5463013, -0.035499696, 9.282093048095703, -0.1376512050628662, 3.7423059940338135, -4.503365516662598, 3.5641798973083496, -0.4268356263637543, -0.757080078125, 0.6142578125, -0.29052734375, 0, 
179, 847845095, 0.83590937, -0.046416543, -0.5456968, -0.036274817, 9.29736614227295, -0.1191500723361969, 3.7920236587524414, -5.464271545410156, 4.810437202453613, -0.8855015635490417, -0.757568359375, 0.612060546875, -0.29150390625, 0, 
180, 847861762, 0.8362643, -0.0466742, -0.5450882, -0.03691704, 9.254996299743652, -0.11597809940576553, 3.6388399600982666, -3.3267054557800293, 4.956204891204834, -1.144003987312317, -0.757080078125, 0.612060546875, -0.29052734375, 0, 
181, 847878429, 0.83661366, -0.046916995, -0.54450256, -0.037330918, 9.054746627807617, -0.14933595061302185, 3.7622599601745605, -2.3430886268615723, 4.748819351196289, 0.13394802808761597, -0.757568359375, 0.615478515625, -0.291015625, 0, 
182, 847895096, 0.83688515, -0.04722626, -0.5440432, -0.037553098, 8.941808700561523, -0.15363569557666779, 3.724567413330078, -2.0877106189727783, 3.6626291275024414, 1.3908592462539673, -0.755859375, 0.6142578125, -0.291015625, 0, 
183, 847911763, 0.83703923, -0.047555853, -0.5437678, -0.037688576, 9.021805763244629, -0.07388178259134293, 3.716352701187134, -1.8183671236038208, 2.1365087032318115, 1.9038175344467163, -0.7548828125, 0.61376953125, -0.291748046875, 0, 
184, 847928430, 0.8371067, -0.04783963, -0.5436406, -0.037667297, 9.034643173217773, -0.13429538905620575, 3.7916111946105957, -0.9727895855903625, 0.9310856461524963, 2.5646250247955322, -0.75439453125, 0.612548828125, -0.292724609375, 0, 
185, 847945097, 0.8370985, -0.048058886, -0.54364383, -0.037523225, 9.104146957397461, -0.08833295851945877, 3.823838233947754, -0.33742809295654297, -0.10970558971166611, 2.87742018699646, -0.752685546875, 0.611572265625, -0.292236328125, 0, 
186, 847961764, 0.83709437, -0.048167504, -0.54365283, -0.037347123, 9.202249526977539, -0.05802033841609955, 3.855384588241577, 0.3556002974510193, -0.1003633588552475, 2.627805233001709, -0.75439453125, 0.61376953125, -0.292724609375, 0, 
187, 847978431, 0.8370983, -0.048314594, -0.5436434, -0.037207153, 9.225255012512207, 1.7332620336674154E-4, 3.9146602153778076, 0.1331668198108673, 0.038028448820114136, 2.646758556365967, -0.756103515625, 0.61474609375, -0.294921875, 0, 
188, 847995098, 0.83716285, -0.048548486, -0.5435321, -0.037074223, 9.241007804870605, -0.012125713750720024, 3.8410871028900146, -0.5534072518348694, 0.8440923094749451, 2.9213595390319824, -0.75537109375, 0.612060546875, -0.293212890625, 0, 
189, 848011765, 0.83729184, -0.04884328, -0.5433166, -0.03693385, 9.192258834838867, -0.038292743265628815, 3.8073902130126953, -0.7740990519523621, 1.668270468711853, 3.314040184020996, -0.7548828125, 0.61376953125, -0.2939453125, 0, 
190, 848028432, 0.8374389, -0.04909676, -0.54307604, -0.03679781, 9.1516695022583, -0.06324972212314606, 3.745872735977173, -0.6090571880340576, 1.9052327871322632, 3.134988307952881, -0.75439453125, 0.6142578125, -0.293212890625, 0, 
191, 848045099, 0.8375637, -0.04936642, -0.5428691, -0.036651935, 9.085999488830566, -0.0639958307147026, 3.7647464275360107, -0.5433478355407715, 1.6259520053863525, 3.304710626602173, -0.7548828125, 0.616455078125, -0.29443359375, 0, 
192, 848061766, 0.83763856, -0.04962938, -0.5427438, -0.03643943, 9.021921157836914, -0.08605663478374481, 3.764939308166504, -0.25524336099624634, 0.957050621509552, 3.631836175918579, -0.751953125, 0.61474609375, -0.292724609375, 0, 
193, 848078433, 0.83765024, -0.049831, -0.54271984, -0.036252942, 9.06438159942627, -0.19203922152519226, 3.7626681327819824, 0.04849124327301979, 0.16727015376091003, 3.236311674118042, -0.75146484375, 0.617919921875, -0.29443359375, 0, 
194, 848095100, 0.83761346, -0.049976543, -0.54276747, -0.03618873, 9.08690071105957, -0.21859882771968842, 3.7758853435516357, -0.2289007157087326, -0.35188010334968567, 2.2191035747528076, -0.749267578125, 0.617919921875, -0.29345703125, 0, 
195, 848111767, 0.8375447, -0.05011106, -0.542867, -0.036100928, 9.125594139099121, -0.215694859623909, 3.8072073459625244, -0.09704651683568954, -0.7675486207008362, 2.2811119556427, -0.752685546875, 0.616943359375, -0.292724609375, 0, 
196, 848128434, 0.8374576, -0.05025741, -0.542998, -0.03595051, 9.174633026123047, -0.24296632409095764, 3.8570539951324463, 0.21977615356445312, -1.0425009727478027, 2.750119209289551, -0.749755859375, 0.617919921875, -0.295166015625, 0, 
197, 848145101, 0.83738184, -0.05031141, -0.5431254, -0.035709243, 9.181107521057129, -0.27155953645706177, 3.832108497619629, 0.9369446635246277, -0.9723605513572693, 2.851750135421753, -0.749755859375, 0.62060546875, -0.292236328125, 0, 
198, 848161768, 0.8373352, -0.05028497, -0.54322106, -0.035385005, 9.181361198425293, -0.27687621116638184, 3.802431583404541, 1.7871838808059692, -0.6873937249183655, 3.0917797088623047, -0.7509765625, 0.61474609375, -0.29296875, 0, 
199, 848178435, 0.83730745, -0.05026684, -0.54328734, -0.03504892, 9.177034378051758, -0.30231577157974243, 3.791980028152466, 1.8369618654251099, -0.44792765378952026, 3.2328667640686035, -0.750244140625, 0.617919921875, -0.29345703125, 0, 
200, 848195102, 0.8372969, -0.050288904, -0.54332155, -0.034735635, 9.159960746765137, -0.2909974753856659, 3.7761874198913574, 1.5242695808410645, -0.19256910681724548, 3.265472173690796, -0.75048828125, 0.6162109375, -0.295654296875, 0, 
201, 848211769, 0.83726555, -0.050222978, -0.54339945, -0.034365546, 9.116607666015625, -0.2568301558494568, 3.772850513458252, 2.239875555038452, -0.5107685327529907, 3.236363649368286, -0.745361328125, 0.619873046875, -0.294677734375, 0, 
202, 848228436, 0.8372202, -0.050255783, -0.54349136, -0.033967774, 9.130090713500977, -0.27227431535720825, 3.8188936710357666, 1.529725193977356, -0.6551089286804199, 3.6456801891326904, -0.74609375, 0.619384765625, -0.29736328125, 0, 
203, 848245103, 0.837191, -0.050310068, -0.5435535, -0.033612788, 9.11876392364502, -0.26979196071624756, 3.803382396697998, 1.2927817106246948, -0.40938058495521545, 3.5122244358062744, -0.745361328125, 0.62109375, -0.29638671875, 0, 
204, 848261770, 0.8371956, -0.050264493, -0.5435755, -0.033207905, 9.147710800170898, -0.23277448117733002, 3.791881561279297, 1.8278183937072754, -0.029006382450461388, 3.352248191833496, -0.748779296875, 0.6201171875, -0.29736328125, 0, 
205, 848278437, 0.8372122, -0.050165948, -0.54358447, -0.032789916, 9.154179573059082, -0.23387983441352844, 3.7893741130828857, 2.3615610599517822, 0.09588754177093506, 3.325699806213379, -0.745849609375, 0.618408203125, -0.294677734375, 0, 
206, 848295104, 0.8372576, -0.049950812, -0.54356045, -0.03235089, 9.156469345092773, -0.22491338849067688, 3.747391939163208, 3.2923717498779297, 0.409150093793869, 3.1200497150421143, -0.747802734375, 0.6201171875, -0.299072265625, 0, 
207, 848311771, 0.83730495, -0.049600095, -0.5435575, -0.031710036, 9.155678749084473, -0.2416422814130783, 3.7633750438690186, 4.531296730041504, 0.2833661139011383, 3.629127025604248, -0.74658203125, 0.62109375, -0.299560546875, 0, 
208, 848328438, 0.8373104, -0.049320802, -0.5436108, -0.031086193, 9.183615684509277, -0.23491477966308594, 3.852969169616699, 4.196801662445068, -0.2061438262462616, 3.838095188140869, -0.74560546875, 0.617919921875, -0.30078125, 0, 
209, 848345105, 0.8372914, -0.04916183, -0.54368806, -0.030485755, 9.170495986938477, -0.20731806755065918, 3.907264471054077, 3.2993576526641846, -0.44172945618629456, 4.092583179473877, -0.740478515625, 0.620361328125, -0.298095703125, 0, 
210, 848361772, 0.83727586, -0.049054526, -0.5437496, -0.02998472, 9.197611808776855, -0.2096981704235077, 3.903954029083252, 2.6029739379882812, -0.3117065727710724, 3.71692156791687, -0.74560546875, 0.62158203125, -0.30126953125, 0, 
211, 848378439, 0.83726656, -0.049017336, -0.54379016, -0.02957153, 9.162042617797852, -0.22592677175998688, 3.879742383956909, 2.028416872024536, -0.1607324779033661, 3.5595695972442627, -0.743896484375, 0.62109375, -0.2998046875, 0, 
212, 848395106, 0.83724236, -0.04903673, -0.54384583, -0.02919535, 9.161081314086914, -0.22477243840694427, 3.870898962020874, 1.5916821956634521, -0.30105170607566833, 3.5723254680633545, -0.743408203125, 0.62060546875, -0.302490234375, 0, 
213, 848411773, 0.83722806, -0.049045518, -0.5438883, -0.028801074, 9.135722160339355, -0.24180957674980164, 3.844881057739258, 1.4161710739135742, -0.17082390189170837, 3.5058088302612305, -0.74169921875, 0.62255859375, -0.302001953125, 0, 
214, 848428440, 0.83719206, -0.049092416, -0.54395735, -0.028461343, 9.128700256347656, -0.23892739415168762, 3.8427367210388184, 1.2098864316940308, -0.4047703444957733, 3.425999641418457, -0.740478515625, 0.6220703125, -0.30322265625, 0, 
215, 848445107, 0.8371338, -0.049183536, -0.5440521, -0.028201282, 9.097841262817383, -0.2282666116952896, 3.877903938293457, 0.6095309853553772, -0.6114198565483093, 3.102107524871826, -0.744384765625, 0.6220703125, -0.302978515625, 0, 
216, 848461774, 0.8370551, -0.04934721, -0.54416376, -0.028100412, 9.127702713012695, -0.20360419154167175, 3.8416664600372314, -0.4795401692390442, -0.7408281564712524, 2.426252603530884, -0.740966796875, 0.6220703125, -0.2998046875, 0, 
217, 848478441, 0.8369812, -0.049557008, -0.54425484, -0.028167715, 9.134132385253906, -0.24348457157611847, 3.852778673171997, -1.225746989250183, -0.564132571220398, 1.7166721820831299, -0.7421875, 0.62255859375, -0.30029296875, 0, 
218, 848495108, 0.8369115, -0.04978104, -0.5443347, -0.02830016, 9.13234806060791, -0.2571806013584137, 3.8228816986083984, -1.6087976694107056, -0.4598120152950287, 1.3790709972381592, -0.740478515625, 0.6220703125, -0.30029296875, 0, 
219, 848511775, 0.8368528, -0.049987696, -0.544397, -0.028472168, 9.15697956085205, -0.27447089552879333, 3.826416492462158, -1.710082769393921, -0.29288122057914734, 1.0740236043930054, -0.740966796875, 0.623779296875, -0.302001953125, 0, 
220, 848528442, 0.8368342, -0.050161622, -0.54440016, -0.028647566, 9.175358772277832, -0.3081316649913788, 3.8129091262817383, -1.6198110580444336, 0.2122076004743576, 0.921141505241394, -0.743408203125, 0.623291015625, -0.30126953125, 0, 
221, 848545109, 0.83685523, -0.050334413, -0.5443412, -0.028852157, 9.187522888183594, -0.29571884870529175, 3.7880048751831055, -1.644027829170227, 0.7271637320518494, 0.8188571929931641, -0.7431640625, 0.6259765625, -0.30029296875, 0, 
222, 848561776, 0.83689404, -0.050494153, -0.5442559, -0.029055845, 9.181567192077637, -0.31692254543304443, 3.751939058303833, -1.6301969289779663, 0.9559106826782227, 0.7618817090988159, -0.74267578125, 0.623779296875, -0.302001953125, 0, 
223, 848578443, 0.8369439, -0.050634716, -0.54415613, -0.029243527, 9.180418014526367, -0.3209927976131439, 3.786273956298828, -1.5593458414077759, 1.0920742750167847, 0.744330644607544, -0.741455078125, 0.625732421875, -0.2998046875, 0, 
224, 848595110, 0.8370125, -0.050758496, -0.5440291, -0.029425738, 9.163073539733887, -0.30274635553359985, 3.7862210273742676, -1.279821515083313, 1.3144562244415283, 0.8014852404594421, -0.740966796875, 0.624755859375, -0.301513671875, 0, 
225, 848611777, 0.8371002, -0.050805274, -0.5438851, -0.029512929, 9.146646499633789, -0.308685302734375, 3.7646400928497314, -0.7147864103317261, 1.4858245849609375, 0.9648367762565613, -0.74169921875, 0.624267578125, -0.302490234375, 0, 
226, 848628444, 0.8371769, -0.050836083, -0.54376, -0.02958996, 9.117020606994629, -0.32400357723236084, 3.764871120452881, -0.40234991908073425, 1.3309447765350342, 1.0368084907531738, -0.740966796875, 0.625244140625, -0.301513671875, 0, 
227, 848645111, 0.8372466, -0.050840292, -0.54364777, -0.029676355, 9.127593040466309, -0.3006582260131836, 3.7768161296844482, -0.42148256301879883, 1.2502902746200562, 0.8187034726142883, -0.739990234375, 0.62255859375, -0.301513671875, 0, 
228, 848661778, 0.83729947, -0.050858483, -0.54355705, -0.029813977, 9.110142707824707, -0.29959234595298767, 3.7994914054870605, -0.5500966906547546, 1.0759319067001343, 0.631782054901123, -0.7421875, 0.623779296875, -0.302001953125, 0, 
229, 848678445, 0.83732843, -0.05089608, -0.54350066, -0.029963486, 9.156757354736328, -0.2801017165184021, 3.8279194831848145, -0.8129726648330688, 0.7982646226882935, 0.5756006240844727, -0.7421875, 0.623779296875, -0.302490234375, 0, 
230, 848695112, 0.83735484, -0.05093086, -0.5434486, -0.030111277, 9.152718544006348, -0.2668232321739197, 3.825734853744507, -0.7533206939697266, 0.7638282775878906, 0.5911602973937988, -0.739501953125, 0.6220703125, -0.301513671875, 0, 
231, 848711779, 0.83738405, -0.05096497, -0.54339194, -0.03026215, 9.148526191711426, -0.2795131206512451, 3.834017515182495, -0.7092285752296448, 0.8027085065841675, 0.6002528071403503, -0.739501953125, 0.62158203125, -0.305419921875, 0, 
232, 848728446, 0.8374162, -0.050985903, -0.54333055, -0.03044099, 9.176034927368164, -0.30429157614707947, 3.833390951156616, -0.6215817332267761, 0.850232720375061, 0.4417998194694519, -0.740478515625, 0.625732421875, -0.29931640625, 0, 
233, 848745113, 0.8374668, -0.050988022, -0.5432417, -0.03063193, 9.163232803344727, -0.2909224033355713, 3.8343141078948975, -0.45225629210472107, 1.078723669052124, 0.3753349184989929, -0.739501953125, 0.62353515625, -0.302490234375, 0, 
234, 848761780, 0.8375282, -0.050941695, -0.5431435, -0.030769229, 9.147080421447754, -0.2862589657306671, 3.815826416015625, -0.28935307264328003, 1.18881356716156, 0.36193305253982544, -0.7412109375, 0.624267578125, -0.30419921875, 0, 
235, 848778447, 0.837583, -0.050903738, -0.5430546, -0.030907726, 9.174797058105469, -0.2916198670864105, 3.8356847763061523, -0.4199073910713196, 1.1162077188491821, 0.3485056161880493, -0.74267578125, 0.624267578125, -0.302978515625, 0, 
236, 848795114, 0.8376276, -0.050863687, -0.54298073, -0.03106381, 9.158716201782227, -0.27663546800613403, 3.8462181091308594, -0.35957667231559753, 0.9930490255355835, 0.288571834564209, -0.743408203125, 0.620361328125, -0.302001953125, 0, 
237, 848811781, 0.8376704, -0.050835278, -0.5429084, -0.031221382, 9.14570426940918, -0.23952420055866241, 3.874915361404419, -0.29566019773483276, 0.9705739617347717, 0.38883277773857117, -0.742431640625, 0.62158203125, -0.30517578125, 0, 
238, 848828448, 0.8377276, -0.050784074, -0.5428189, -0.031325623, 9.150081634521484, -0.21383988857269287, 3.8658034801483154, -0.16243574023246765, 1.1220731735229492, 0.5289855003356934, -0.7412109375, 0.623046875, -0.3037109375, 0, 
239, 848845115, 0.8378029, -0.050827265, -0.5426921, -0.03143674, 9.14190673828125, -0.2129393070936203, 3.8720548152923584, -0.6985608339309692, 1.3852181434631348, 0.8813010454177856, -0.739501953125, 0.62158203125, -0.305908203125, 0, 
240, 848861782, 0.83789724, -0.051044803, -0.54251665, -0.031597946, 9.144013404846191, -0.16414707899093628, 3.8536367416381836, -2.168050765991211, 1.7355228662490845, 1.1432547569274902, -0.744384765625, 0.6220703125, -0.303955078125, 0, 
241, 848878449, 0.8379435, -0.051126827, -0.5424318, -0.031697456, 9.108599662780762, -0.1990971863269806, 3.789602756500244, -0.7700586915016174, 1.0203396081924438, 1.137184739112854, -0.74072265625, 0.624755859375, -0.30810546875, 0, 
242, 848895116, 0.83794755, -0.05129785, -0.54240453, -0.031780127, 9.156930923461914, -0.24165619909763336, 3.863276720046997, -1.4262624979019165, 0.5219228267669678, 1.4425712823867798, -0.739501953125, 0.625244140625, -0.302490234375, 0, 
243, 848911783, 0.8379867, -0.05160067, -0.54230684, -0.03192193, 9.100711822509766, -0.2548777461051941, 3.8166449069976807, -2.364084005355835, 1.0496084690093994, 1.6581916809082031, -0.740234375, 0.620849609375, -0.306884765625, 0, 
244, 848928450, 0.83801216, -0.05189841, -0.5422337, -0.03201555, 9.125128746032715, -0.23385760188102722, 3.768500566482544, -2.471888303756714, 0.8624565005302429, 1.7611292600631714, -0.739990234375, 0.623779296875, -0.305419921875, 0, 
245, 848945117, 0.83799803, -0.052157458, -0.5422316, -0.03199728, 9.14549446105957, -0.2564229369163513, 3.811842918395996, -1.7171969413757324, 0.27271121740341187, 2.2843708992004395, -0.73779296875, 0.6240234375, -0.302734375, 0, 
246, 848961784, 0.83796006, -0.05230382, -0.5422794, -0.031942613, 9.127946853637695, -0.25475114583969116, 3.7980704307556152, -0.7218555808067322, -0.09923641383647919, 2.1492836475372314, -0.73681640625, 0.621826171875, -0.30322265625, 0, 
247, 848978451, 0.8378962, -0.052358124, -0.54237753, -0.031862766, 9.116828918457031, -0.2515302002429962, 3.8453421592712402, -0.34623244404792786, -0.45620056986808777, 1.8175219297409058, -0.738525390625, 0.625732421875, -0.3076171875, 0, 
248, 848995118, 0.8378084, -0.052337207, -0.5425212, -0.03176277, 9.128783226013184, -0.2461826354265213, 3.8536007404327393, 0.10048502683639526, -0.7925081253051758, 1.6026827096939087, -0.738525390625, 0.6220703125, -0.304931640625, 0, 
249, 849011785, 0.8376977, -0.05234614, -0.54269403, -0.03171625, 9.19117546081543, -0.25143685936927795, 3.917769193649292, -0.039193831384181976, -1.0453886985778809, 1.5036062002182007, -0.740478515625, 0.624755859375, -0.302978515625, 0, 
250, 849028452, 0.8376011, -0.052414164, -0.5428361, -0.031720735, 9.1842679977417, -0.2582063376903534, 3.8784255981445312, -0.5222430229187012, -0.8138307332992554, 1.4725061655044556, -0.739501953125, 0.624755859375, -0.305419921875, 0, 
251, 849045119, 0.8375093, -0.052461218, -0.54297644, -0.03166959, 9.178508758544922, -0.2740567922592163, 3.8489973545074463, -0.4256190359592438, -0.7849907875061035, 1.6128636598587036, -0.739013671875, 0.62353515625, -0.3037109375, 0, 
252, 849061786, 0.83740306, -0.052510325, -0.54314154, -0.031563148, 9.144625663757324, -0.29756414890289307, 3.870565891265869, -0.08315163105726242, -1.0086665153503418, 1.99727201461792, -0.739990234375, 0.62158203125, -0.301025390625, 0, 
253, 849078453, 0.83729166, -0.052592512, -0.543312, -0.031447608, 9.115152359008789, -0.2849968671798706, 3.873574733734131, -0.11615359783172607, -1.0776927471160889, 2.230027437210083, -0.739501953125, 0.624267578125, -0.3037109375, 0, 
254, 849095120, 0.83716226, -0.052693818, -0.54351, -0.031299587, 9.08348274230957, -0.3226284086704254, 3.867478609085083, -0.3733755648136139, -1.3028348684310913, 2.3543195724487305, -0.739990234375, 0.62353515625, -0.30419921875, 0, 
255, 849111787, 0.8369971, -0.052874647, -0.54375345, -0.031184858, 9.08984375, -0.32007551193237305, 3.8698642253875732, -0.9412346482276917, -1.7040960788726807, 2.4433233737945557, -0.73779296875, 0.62744140625, -0.3037109375, 0, 
256, 849128454, 0.8368078, -0.053155176, -0.544022, -0.031099664, 9.082611083984375, -0.2961999475955963, 3.880377769470215, -1.5053095817565918, -1.9572969675064087, 2.6877903938293457, -0.739990234375, 0.626220703125, -0.30078125, 0, 
257, 849145121, 0.836582, -0.053538278, -0.5443376, -0.030999433, 9.067079544067383, -0.3222760558128357, 3.882534980773926, -2.0068702697753906, -2.3957479000091553, 3.153416633605957, -0.73876953125, 0.625732421875, -0.302001953125, 0, 
258, 849161788, 0.8363293, -0.053986784, -0.54468733, -0.03089758, 9.08877944946289, -0.3535985052585602, 3.8827593326568604, -2.439789056777954, -2.70668625831604, 3.362236976623535, -0.737548828125, 0.62841796875, -0.2998046875, 0, 
259, 849178455, 0.836044, -0.054496177, -0.5450805, -0.030794743, 9.08642292022705, -0.3400093615055084, 3.8643553256988525, -2.850437641143799, -3.08882737159729, 3.547666549682617, -0.7392578125, 0.626953125, -0.302001953125, 0, 
260, 849195122, 0.835721, -0.055000864, -0.5455302, -0.030693015, 9.04245376586914, -0.3635937571525574, 3.8715779781341553, -2.950801134109497, -3.5462961196899414, 3.4427249431610107, -0.736083984375, 0.62744140625, -0.301513671875, 0, 
261, 849211789, 0.8352952, -0.05545924, -0.5461413, -0.030593734, 8.980974197387695, -0.3717936873435974, 3.7944345474243164, -3.0323901176452637, -4.831733703613281, 3.027747869491577, -0.740478515625, 0.6279296875, -0.30078125, 0, 
262, 849228456, 0.83469373, -0.055821385, -0.54702586, -0.030553274, 8.981819152832031, -0.4467684030532837, 3.901231050491333, -2.423076868057251, -7.037807941436768, 2.3159070014953613, -0.73974609375, 0.630615234375, -0.29638671875, 0, 
263, 849245123, 0.8339292, -0.056241084, -0.5481486, -0.030534128, 9.085356712341309, -0.5115717053413391, 3.9576938152313232, -2.6310908794403076, -9.044549942016602, 2.377493143081665, -0.738525390625, 0.630615234375, -0.29541015625, 0, 
264, 849261790, 0.8331244, -0.05660756, -0.54933214, -0.030558845, 9.18840217590332, -0.5212959051132202, 3.9289088249206543, -2.515577793121338, -9.52225399017334, 1.8809782266616821, -0.739013671875, 0.631103515625, -0.293212890625, 0, 
265, 849278457, 0.8323196, -0.056913704, -0.5505182, -0.030574104, 9.238472938537598, -0.5199277997016907, 3.895115375518799, -2.486071825027466, -9.511919021606445, 1.5551587343215942, -0.74072265625, 0.630126953125, -0.2919921875, 0, 
266, 849295124, 0.83150804, -0.05723121, -0.55170596, -0.030657813, 9.29662036895752, -0.5093599557876587, 3.860825777053833, -2.754185914993286, -9.531538963317871, 1.2278157472610474, -0.74169921875, 0.6318359375, -0.289306640625, 0, 
267, 849311791, 0.8307151, -0.05761391, -0.55285084, -0.030809212, 9.298524856567383, -0.5014601349830627, 3.7935750484466553, -3.1916630268096924, -9.21970272064209, 1.1899662017822266, -0.74169921875, 0.6318359375, -0.2880859375, 0, 
268, 849328458, 0.8299406, -0.05800156, -0.55396664, -0.030913405, 9.258232116699219, -0.4725710451602936, 3.6849191188812256, -3.2633981704711914, -8.990859985351562, 1.3999905586242676, -0.7412109375, 0.631103515625, -0.28759765625, 0, 
269, 849345125, 0.8291841, -0.058444206, -0.5550481, -0.03097999, 9.222253799438477, -0.5065054893493652, 3.610922336578369, -3.462966203689575, -8.751490592956543, 1.832429051399231, -0.743896484375, 0.6318359375, -0.28466796875, 0, 
270, 849361792, 0.82842904, -0.058980502, -0.55611265, -0.03107068, 9.197115898132324, -0.526240348815918, 3.543095827102661, -3.882335901260376, -8.674985885620117, 2.1432008743286133, -0.744384765625, 0.630615234375, -0.282470703125, 0, 
271, 849378459, 0.8276431, -0.059548616, -0.5572159, -0.031165954, 9.183448791503906, -0.5373150110244751, 3.5388052463531494, -4.090112209320068, -9.0162935256958, 2.212771415710449, -0.744873046875, 0.630615234375, -0.2802734375, 0, 
272, 849395126, 0.8268524, -0.06010405, -0.5583231, -0.031272512, 9.220178604125977, -0.51594078540802, 3.4900715351104736, -4.096631050109863, -9.045775413513184, 2.0832223892211914, -0.74560546875, 0.63232421875, -0.27587890625, 0, 
273, 849411793, 0.82610637, -0.06061833, -0.5593648, -0.03137949, 9.286340713500977, -0.508030891418457, 3.4295027256011963, -3.790961980819702, -8.49664306640625, 1.9848757982254028, -0.743408203125, 0.6337890625, -0.275390625, 0, 
274, 849428460, 0.82542133, -0.06109601, -0.5603188, -0.03146127, 9.260531425476074, -0.5343384146690369, 3.369102954864502, -3.4786272048950195, -7.762901306152344, 2.0380218029022217, -0.748291015625, 0.634521484375, -0.274169921875, 0, 
275, 849445127, 0.8247437, -0.06150056, -0.56127113, -0.031474307, 9.249202728271484, -0.5402355194091797, 3.378962516784668, -2.8964896202087402, -7.726457118988037, 2.1093409061431885, -0.747802734375, 0.634033203125, -0.2724609375, 0, 
276, 849461794, 0.824074, -0.06185567, -0.5622154, -0.031466752, 9.271588325500488, -0.5273439884185791, 3.358511447906494, -2.460177183151245, -7.649324417114258, 2.0666956901550293, -0.74560546875, 0.63232421875, -0.271484375, 0, 
277, 849478461, 0.8234112, -0.062119886, -0.5631585, -0.031426884, 9.284945487976074, -0.5247719287872314, 3.3640296459198, -1.9175591468811035, -7.599583625793457, 1.8630874156951904, -0.74658203125, 0.63330078125, -0.270751953125, 0, 
278, 849495128, 0.8227816, -0.062342707, -0.56405497, -0.031398233, 9.32455825805664, -0.5571416616439819, 3.3649580478668213, -1.6852390766143799, -7.194826602935791, 1.6802510023117065, -0.748291015625, 0.635498046875, -0.2685546875, 0, 
279, 849511795, 0.82218456, -0.06251917, -0.5649062, -0.03138379, 9.338576316833496, -0.5687098503112793, 3.3620738983154297, -1.4889945983886719, -6.7931809425354, 1.4401319026947021, -0.74755859375, 0.63720703125, -0.26806640625, 0, 
280, 849528462, 0.8216417, -0.06262942, -0.5656866, -0.03132647, 9.339517593383789, -0.5715212821960449, 3.3324849605560303, -0.9112743735313416, -6.186389923095703, 1.4757720232009888, -0.748291015625, 0.6328125, -0.265869140625, 0, 
281, 849545129, 0.82112235, -0.06269088, -0.5664379, -0.031243723, 9.320859909057617, -0.5616023540496826, 3.3407905101776123, -0.5276857018470764, -5.930108547210693, 1.4471111297607422, -0.750244140625, 0.635009765625, -0.26513671875, 0, 
282, 849561796, 0.82060325, -0.06273329, -0.56718904, -0.031171499, 9.33639144897461, -0.5962315201759338, 3.3443777561187744, -0.4696216583251953, -5.9194536209106445, 1.3091356754302979, -0.750244140625, 0.635009765625, -0.261962890625, 0, 
283, 849578463, 0.8201307, -0.062788576, -0.5678702, -0.031095384, 9.407611846923828, -0.5797972679138184, 3.3454389572143555, -0.5233827233314514, -5.346561908721924, 1.4182459115982056, -0.7509765625, 0.635009765625, -0.26513671875, 0, 
284, 849595130, 0.81976026, -0.06283436, -0.56840324, -0.03103013, 9.402820587158203, -0.553588330745697, 3.2609810829162598, -0.5149689316749573, -4.104883670806885, 1.3980499505996704, -0.74853515625, 0.635498046875, -0.26416015625, 0, 
285, 849611797, 0.81943965, -0.06285775, -0.5688664, -0.030962287, 9.323939323425293, -0.5591827034950256, 3.220832109451294, -0.3085305988788605, -3.5152151584625244, 1.3867805004119873, -0.75146484375, 0.635009765625, -0.26171875, 0, 
286, 849628464, 0.81909555, -0.062828556, -0.5693702, -0.030865526, 9.299070358276367, -0.5671436786651611, 3.1945571899414062, 0.05392114445567131, -3.833146095275879, 1.3034496307373047, -0.75146484375, 0.63232421875, -0.259765625, 0, 
287, 849645131, 0.81872237, -0.06276899, -0.5699172, -0.030793421, 9.35154914855957, -0.5623751878738403, 3.2289276123046875, 0.11626242846250534, -4.168530464172363, 1.0152297019958496, -0.750732421875, 0.635009765625, -0.261962890625, 0, 
288, 849661798, 0.8184132, -0.062708944, -0.5703702, -0.030746236, 9.366378784179688, -0.5588005781173706, 3.159977436065674, 0.010533221997320652, -3.3757152557373047, 0.918721079826355, -0.749755859375, 0.634033203125, -0.26025390625, 0, 
289, 849678465, 0.81817067, -0.062625706, -0.5707289, -0.030715464, 9.346076965332031, -0.49839717149734497, 3.165154218673706, 0.06721413135528564, -2.568275213241577, 0.781629204750061, -0.754638671875, 0.63623046875, -0.2626953125, 0, 
290, 849695132, 0.817946, -0.06254079, -0.5710597, -0.030722672, 9.359026908874512, -0.5402246117591858, 3.148881196975708, -0.04607725143432617, -2.323456287384033, 0.5864988565444946, -0.751953125, 0.635009765625, -0.262451171875, 0, 
291, 849711799, 0.8177156, -0.062453397, -0.57139707, -0.030761432, 9.390585899353027, -0.5341466069221497, 3.136678457260132, -0.14028076827526093, -2.3671770095825195, 0.39966699481010437, -0.752197265625, 0.638916015625, -0.2578125, 0, 
292, 849728466, 0.81753236, -0.06237492, -0.57166404, -0.03083555, 9.378384590148926, -0.5166981816291809, 3.137617349624634, -0.32432082295417786, -1.7691717147827148, 0.27379336953163147, -0.75390625, 0.634521484375, -0.25634765625, 0, 
293, 849745133, 0.8173712, -0.062315643, -0.57189476, -0.030944938, 9.328003883361816, -0.5118443369865417, 3.1260368824005127, -0.6126942038536072, -1.4616656303405762, 0.15505288541316986, -0.751953125, 0.6357421875, -0.259521484375, 0, 
294, 849761800, 0.81718993, -0.062231496, -0.5721565, -0.031064397, 9.342876434326172, -0.5016727447509766, 3.1160809993743896, -0.5505962371826172, -1.7014390230178833, -0.029531443491578102, -0.75390625, 0.6357421875, -0.2578125, 0, 
295, 849778467, 0.81700224, -0.062168688, -0.57242465, -0.031187085, 9.35869026184082, -0.48640018701553345, 3.121890068054199, -0.6715649962425232, -1.7645612955093384, 0.03560805693268776, -0.750732421875, 0.634521484375, -0.259033203125, 0, 
296, 849795134, 0.81681025, -0.062114645, -0.5726964, -0.031332217, 9.408452033996582, -0.45124542713165283, 3.1217575073242188, -0.8442712426185608, -1.7895333766937256, -0.0698714330792427, -0.755126953125, 0.6357421875, -0.260009765625, 0, 
297, 849811801, 0.81667787, -0.062023796, -0.57288784, -0.031463943, 9.456440925598145, -0.44055062532424927, 3.0869364738464355, -0.5830795764923096, -1.1001231670379639, -0.09438920766115189, -0.75341796875, 0.634033203125, -0.258544921875, 0, 
298, 849828468, 0.8165969, -0.06192419, -0.5730075, -0.03158302, 9.431982040405273, -0.42131656408309937, 3.0368402004241943, -0.47278478741645813, -0.4942610561847687, -0.011961130425333977, -0.754638671875, 0.63525390625, -0.25732421875, 0, 
299, 849845135, 0.81652355, -0.0617738, -0.5731237, -0.031664703, 9.409369468688965, -0.44994768500328064, 3.08081316947937, -0.02504921890795231, -0.4444827437400818, 0.006460803095251322, -0.754638671875, 0.634521484375, -0.255615234375, 0, 
300, 849861802, 0.81646276, -0.0615847, -0.5732282, -0.03171057, 9.454691886901855, -0.45076337456703186, 3.1176085472106934, 0.31844907999038696, -0.33309313654899597, 0.0568665936589241, -0.754638671875, 0.633056640625, -0.259033203125, 0, 
301, 849878469, 0.81643444, -0.06140397, -0.5732836, -0.03178571, 9.460598945617676, -0.4417828321456909, 3.104529857635498, 0.10567799210548401, 0.08745455741882324, -0.0644095316529274, -0.754150390625, 0.633544921875, -0.2578125, 0, 
302, 849895136, 0.8164807, -0.061322644, -0.57321745, -0.031946335, 9.481292724609375, -0.44063979387283325, 3.1338093280792236, -0.7617856860160828, 1.0793254375457764, -0.07655634731054306, -0.754150390625, 0.633056640625, -0.259033203125, 0, 
303, 849911803, 0.81649053, -0.06104799, -0.57322836, -0.03202513, 9.434310913085938, -0.4204922616481781, 2.9741480350494385, 0.6583937406539917, 0.5109542012214661, -0.4157837927341461, -0.75634765625, 0.634765625, -0.25830078125, 0, 
304, 849928470, 0.81639665, -0.060816094, -0.5733836, -0.03208004, 9.488569259643555, -0.49540868401527405, 3.144447088241577, 0.48675018548965454, -0.7199346423149109, -0.2016616016626358, -0.755859375, 0.6318359375, -0.259033203125, 0, 
305, 849945137, 0.8163304, -0.060729504, -0.573478, -0.032246456, 9.397740364074707, -0.5181101560592651, 3.0419254302978516, -0.7649616003036499, -0.2536425292491913, -0.22231821715831757, -0.757568359375, 0.633544921875, -0.260498046875, 0, 
306, 849961804, 0.8161102, -0.060714, -0.57378143, -0.03244611, 9.2753267288208, -0.4602101445198059, 3.0230586528778076, -1.2997101545333862, -2.033104181289673, -0.24778369069099426, -0.757568359375, 0.63134765625, -0.260498046875, 0, 
307, 849978471, 0.8158273, -0.06057, -0.5741949, -0.032517977, 9.427311897277832, -0.47780200839042664, 3.030583143234253, -0.08730088919401169, -2.918849229812622, -0.1024123802781105, -0.755615234375, 0.6318359375, -0.2578125, 0, 
308, 849995138, 0.8155752, -0.060356196, -0.5745774, -0.03248279, 9.51200008392334, -0.5098735094070435, 3.0603139400482178, 0.699040949344635, -2.646496057510376, 0.23007243871688843, -0.7587890625, 0.632080078125, -0.264404296875, 0, 
309, 850011805, 0.81538934, -0.060061805, -0.5748754, -0.032423653, 9.456953048706055, -0.5106625556945801, 3.0401854515075684, 1.3235810995101929, -1.9048550128936768, 0.11824743449687958, -0.755859375, 0.633056640625, -0.259521484375, 0, 
310, 850028472, 0.8152103, -0.05973849, -0.57516515, -0.032382157, 9.406966209411621, -0.46952053904533386, 3.0710554122924805, 1.4281450510025024, -1.815415382385254, -0.09070737659931183, -0.755615234375, 0.632568359375, -0.25732421875, 0, 
311, 850045139, 0.815052, -0.059367158, -0.57543045, -0.032335248, 9.458580017089844, -0.444549560546875, 3.0684423446655273, 1.6257725954055786, -1.5798041820526123, -0.26913827657699585, -0.759033203125, 0.632568359375, -0.256591796875, 0, 
312, 850061806, 0.81497806, -0.05895995, -0.5755805, -0.03227435, 9.484543800354004, -0.4466255009174347, 3.04160737991333, 1.8735113143920898, -0.59576416015625, -0.2738765776157379, -0.758544921875, 0.631591796875, -0.25927734375, 0, 
313, 850078473, 0.81499726, -0.058563326, -0.57559764, -0.03220973, 9.461766242980957, -0.41903868317604065, 3.003756046295166, 1.8402403593063354, 0.516319990158081, -0.1358497589826584, -0.75634765625, 0.628662109375, -0.25732421875, 0, 
314, 850095140, 0.815026, -0.058214847, -0.5755944, -0.03216799, 9.399948120117188, -0.38110440969467163, 3.008608102798462, 1.4983110427856445, 0.6688820719718933, -0.05943427234888077, -0.7568359375, 0.629150390625, -0.2568359375, 0, 
315, 850111807, 0.81505376, -0.05789507, -0.5755876, -0.032164358, 9.382729530334473, -0.3426648676395416, 3.0059866905212402, 1.1666520833969116, 0.6978371143341064, -0.16372917592525482, -0.7607421875, 0.6298828125, -0.260986328125, 0, 
316, 850128474, 0.8150962, -0.057611503, -0.57555455, -0.032189663, 9.457847595214844, -0.3448941111564636, 2.9856412410736084, 0.8490802645683289, 0.9089115262031555, -0.16745583713054657, -0.755859375, 0.628173828125, -0.2607421875, 0, 
317, 850145141, 0.81519186, -0.057384178, -0.57544, -0.032221906, 9.476273536682129, -0.3220406472682953, 2.951671838760376, 0.4661319851875305, 1.572536587715149, 0.04557139798998833, -0.7568359375, 0.627685546875, -0.259033203125, 0, 
318, 850161808, 0.8153368, -0.0571825, -0.5752497, -0.032309543, 9.471513748168945, -0.3157579302787781, 2.9557509422302246, 0.13898731768131256, 2.2105681896209717, -0.11048679053783417, -0.760986328125, 0.62841796875, -0.260986328125, 0, 
319, 850178475, 0.81552553, -0.056993723, -0.57499415, -0.032427717, 9.486369132995605, -0.32899120450019836, 2.967263698577881, -0.06729736924171448, 2.7648844718933105, -0.19796057045459747, -0.759765625, 0.62939453125, -0.26220703125, 0, 
320, 850195142, 0.81574553, -0.056848206, -0.574688, -0.032579746, 9.468164443969727, -0.31741470098495483, 2.972416639328003, -0.5333075523376465, 3.186187982559204, -0.2215370535850525, -0.758056640625, 0.62939453125, -0.26318359375, 0, 
321, 850211809, 0.81598395, -0.05671867, -0.57435143, -0.03276667, 9.418301582336426, -0.31838005781173706, 2.968921184539795, -0.7773519158363342, 3.4442808628082275, -0.34253785014152527, -0.7587890625, 0.628173828125, -0.264404296875, 0, 
322, 850228476, 0.8162485, -0.056608126, -0.57397485, -0.032969687, 9.394770622253418, -0.3200274407863617, 3.001753568649292, -0.905709981918335, 3.7758631706237793, -0.3224319517612457, -0.756103515625, 0.6298828125, -0.26611328125, 0, 
323, 850245143, 0.8165048, -0.05645132, -0.5736132, -0.033185337, 9.379938125610352, -0.29903608560562134, 2.9848878383636475, -0.543411910533905, 3.670203924179077, -0.5301957130432129, -0.75927734375, 0.627197265625, -0.2626953125, 0, 
324, 850261810, 0.816792, -0.05634764, -0.57319933, -0.033442553, 9.354612350463867, -0.30662062764167786, 2.983701705932617, -1.099847674369812, 4.098857879638672, -0.5604186058044434, -0.757080078125, 0.6259765625, -0.264892578125, 0, 
325, 850278477, 0.8170429, -0.056140445, -0.5728504, -0.033642307, 9.368861198425293, -0.2833428382873535, 2.98983097076416, -0.3176230788230896, 3.595440626144409, -0.6871759295463562, -0.75830078125, 0.6259765625, -0.264404296875, 0, 
326, 850295144, 0.81727207, -0.055799257, -0.5725479, -0.033790085, 9.346163749694824, -0.29449009895324707, 3.0416715145111084, 0.6528035998344421, 3.264427900314331, -0.9414523839950562, -0.760498046875, 0.626708984375, -0.269287109375, 0, 
327, 850311811, 0.81748027, -0.055434022, -0.5722801, -0.03389104, 9.367783546447754, -0.28194060921669006, 3.106069564819336, 0.6389023065567017, 2.9948480129241943, -0.9070735573768616, -0.7578125, 0.626220703125, -0.269287109375, 0, 
328, 850328478, 0.8176844, -0.05507273, -0.57201576, -0.03401821, 9.386740684509277, -0.2526506781578064, 3.1308701038360596, 0.7418653964996338, 2.9561727046966553, -0.9606682658195496, -0.76123046875, 0.625732421875, -0.26806640625, 0, 
329, 850345145, 0.81790805, -0.054801818, -0.57171136, -0.03419751, 9.418024063110352, -0.23989897966384888, 3.1697280406951904, 0.10892440378665924, 3.253664493560791, -0.8497653007507324, -0.7578125, 0.625, -0.27099609375, 0, 
330, 850361812, 0.81817335, -0.054585136, -0.5713396, -0.034408208, 9.422966957092285, -0.21289026737213135, 3.2029926776885986, -0.3122444450855255, 3.794541120529175, -0.7727736830711365, -0.75732421875, 0.623291015625, -0.273193359375, 0, 
331, 850378479, 0.8184876, -0.054422185, -0.5708909, -0.03464089, 9.42370319366455, -0.20926116406917572, 3.2293481826782227, -0.6564919352531433, 4.41276741027832, -0.6278697848320007, -0.759033203125, 0.625732421875, -0.27197265625, 0, 
332, 850395146, 0.8187976, -0.05426632, -0.57044727, -0.034866758, 9.375411033630371, -0.211861714720726, 3.2319447994232178, -0.7786516547203064, 4.367855072021484, -0.6012068390846252, -0.758544921875, 0.62353515625, -0.272705078125, 0, 
333, 850411813, 0.8190641, -0.054127544, -0.5700624, -0.035118908, 9.347197532653809, -0.22549650073051453, 3.273218870162964, -1.003127932548523, 3.870668649673462, -0.7216827869415283, -0.759765625, 0.622314453125, -0.275390625, 0, 
334, 850428480, 0.81926495, -0.05405278, -0.5697603, -0.03544948, 9.322958946228027, -0.215130016207695, 3.3117682933807373, -1.7054345607757568, 3.161266803741455, -0.9681857228279114, -0.75732421875, 0.6240234375, -0.273193359375, 0, 
335, 850445147, 0.81940657, -0.054032303, -0.5695336, -0.035845168, 9.327582359313965, -0.20879043638706207, 3.30108904838562, -2.234746217727661, 2.509705066680908, -1.1512267589569092, -0.759033203125, 0.62451171875, -0.27099609375, 0, 
336, 850461814, 0.8194832, -0.054009125, -0.5693994, -0.036259655, 9.365959167480469, -0.22325251996517181, 3.2686009407043457, -2.2803759574890137, 1.7383534908294678, -1.311152696609497, -0.761474609375, 0.619873046875, -0.2763671875, 0, 
337, 850478481, 0.8195291, -0.053960364, -0.56931144, -0.036673263, 9.376130104064941, -0.24781405925750732, 3.2809581756591797, -2.2598342895507812, 1.367545247077942, -1.4740749597549438, -0.76025390625, 0.626220703125, -0.27587890625, 0, 
338, 850495148, 0.8195416, -0.05394416, -0.5692668, -0.03711146, 9.372407913208008, -0.2880145013332367, 3.2655084133148193, -2.500363349914551, 0.989937424659729, -1.4945908784866333, -0.761474609375, 0.621337890625, -0.274169921875, 0, 
339, 850511815, 0.81952405, -0.053953283, -0.5692629, -0.03754114, 9.368446350097656, -0.3173862397670746, 3.24995493888855, -2.560847043991089, 0.6307446956634521, -1.353848934173584, -0.76025390625, 0.620849609375, -0.274169921875, 0, 
340, 850528482, 0.81947887, -0.053962376, -0.56930196, -0.037918735, 9.367588996887207, -0.315294086933136, 3.2327919006347656, -2.4142658710479736, 0.26216521859169006, -1.105431318283081, -0.758544921875, 0.62060546875, -0.271728515625, 0, 
341, 850545149, 0.8194137, -0.053983945, -0.5693726, -0.03823545, 9.382305145263672, -0.3188544809818268, 3.186587333679199, -2.2298285961151123, -0.020887156948447227, -0.7267987132072449, -0.76123046875, 0.621826171875, -0.271484375, 0, 
342, 850561816, 0.81934893, -0.054001033, -0.5694473, -0.03848748, 9.362585067749023, -0.3544294238090515, 3.1927430629730225, -1.8982850313186646, -0.06658020615577698, -0.3646351397037506, -0.7607421875, 0.61865234375, -0.27197265625, 0, 
343, 850578483, 0.8192832, -0.05399461, -0.5695324, -0.038633663, 9.382607460021973, -0.3437664806842804, 3.1846258640289307, -1.5263632535934448, -0.15311270952224731, 0.0696217268705368, -0.759765625, 0.621826171875, -0.27587890625, 0, 
344, 850595150, 0.8192057, -0.053998496, -0.5696376, -0.03872177, 9.363743782043457, -0.33504804968833923, 3.182410478591919, -1.1918870210647583, -0.34299248456954956, 0.48390716314315796, -0.759765625, 0.61962890625, -0.272705078125, 0, 
345, 850611817, 0.81910765, -0.054005638, -0.5697759, -0.038749665, 9.348611831665039, -0.3181910514831543, 3.1720259189605713, -1.011189341545105, -0.6292271614074707, 0.8013253211975098, -0.76123046875, 0.622314453125, -0.273193359375, 0, 
346, 850628484, 0.81899244, -0.054010894, -0.5699404, -0.038757455, 9.380831718444824, -0.3143737316131592, 3.1944005489349365, -0.9234017729759216, -0.8499061465263367, 0.8896378874778748, -0.761962890625, 0.619140625, -0.273193359375, 0, 
347, 850645151, 0.8188711, -0.05401263, -0.5701159, -0.03873808, 9.376112937927246, -0.3062558174133301, 3.179553270339966, -0.7604795098304749, -0.9458258152008057, 1.0352396965026855, -0.762939453125, 0.62255859375, -0.269775390625, 0, 
348, 850661818, 0.8187286, -0.05399436, -0.5703242, -0.03870818, 9.383397102355957, -0.31150153279304504, 3.1398470401763916, -0.5743903517723083, -1.2107635736465454, 1.0068416595458984, -0.761962890625, 0.619140625, -0.273681640625, 0, 
349, 850678485, 0.8185957, -0.053964052, -0.5705223, -0.038643356, 9.407633781433105, -0.31131449341773987, 3.1255717277526855, -0.5118826031684875, -1.1186987161636353, 1.1117128133773804, -0.76171875, 0.623046875, -0.269287109375, 0, 
350, 850695152, 0.81848663, -0.053926177, -0.57068694, -0.03857731, 9.419705390930176, -0.29709258675575256, 3.140472173690796, -0.4309336543083191, -0.8330530524253845, 1.116425633430481, -0.76171875, 0.621826171875, -0.27099609375, 0, 
351, 850711819, 0.818404, -0.05390174, -0.57081234, -0.038509462, 9.41691780090332, -0.30017516016960144, 3.150301933288574, -0.5338966846466064, -0.5098720192909241, 1.1889350414276123, -0.76025390625, 0.620849609375, -0.273193359375, 0, 
352, 850728486, 0.8183573, -0.053859938, -0.57088906, -0.0384221, 9.401260375976562, -0.2932373583316803, 3.167332172393799, -0.7504905462265015, -0.07834924757480621, 1.1186667680740356, -0.7607421875, 0.620361328125, -0.27197265625, 0, 
353, 850745153, 0.8183139, -0.0538905, -0.5709472, -0.038441677, 9.35734748840332, -0.3015250563621521, 3.180224657058716, -1.0626835823059082, 0.0380924828350544, 0.9913074970245361, -0.761962890625, 0.619140625, -0.271484375, 0, 
354, 850761820, 0.8183013, -0.054084655, -0.5709389, -0.038556628, 9.371241569519043, -0.33757802844047546, 3.242779016494751, -2.4091947078704834, 0.5276408791542053, 1.1112134456634521, -0.762939453125, 0.619873046875, -0.27099609375, 0, 
355, 850778487, 0.8182534, -0.054178692, -0.57099247, -0.03864699, 9.279888153076172, -0.2677591145038605, 3.07283878326416, -1.8101133108139038, 0.059517502784729004, 0.7997500896453857, -0.762939453125, 0.62255859375, -0.27197265625, 0, 
356, 850795154, 0.8180763, -0.05426947, -0.5712357, -0.03867692, 9.372933387756348, -0.3583396375179291, 3.25738263130188, -1.616123080253601, -1.5312808752059937, 0.9991322755813599, -0.76025390625, 0.622314453125, -0.27099609375, 0, 
357, 850811821, 0.8179561, -0.05461984, -0.57136285, -0.03884816, 9.36507511138916, -0.353745698928833, 3.284287929534912, -3.678560256958008, -0.6706942319869995, 1.2671053409576416, -0.76123046875, 0.623046875, -0.27197265625, 0, 
358, 850828488, 0.81778365, -0.055120237, -0.571543, -0.039117686, 9.327007293701172, -0.27794814109802246, 3.2020633220672607, -4.854657173156738, -1.1818597316741943, 1.289605975151062, -0.76123046875, 0.6240234375, -0.270263671875, 0, 
359, 850845155, 0.81758964, -0.055514596, -0.5717704, -0.039291598, 9.358858108520508, -0.27328741550445557, 3.213407278060913, -3.768627405166626, -1.546213150024414, 1.4262111186981201, -0.759521484375, 0.6240234375, -0.27099609375, 0, 
360, 850861822, 0.81740004, -0.05578517, -0.572015, -0.03929525, 9.395621299743652, -0.3387434780597687, 3.2849762439727783, -2.9182279109954834, -1.6346089839935303, 1.7083030939102173, -0.76220703125, 0.623046875, -0.267578125, 0, 
361, 850878489, 0.817228, -0.056070846, -0.5722293, -0.03934513, 9.389896392822266, -0.29980650544166565, 3.247116804122925, -2.6976318359375, -1.4045363664627075, 1.694119930267334, -0.76171875, 0.62353515625, -0.265380859375, 0, 
362, 850895156, 0.81708163, -0.056332555, -0.57240814, -0.03941454, 9.389490127563477, -0.30196309089660645, 3.2152340412139893, -2.6663589477539062, -1.0901917219161987, 1.501051425933838, -0.76171875, 0.6240234375, -0.2666015625, 0, 
363, 850911823, 0.81697106, -0.056579255, -0.57253695, -0.039482377, 9.409997940063477, -0.284999817609787, 3.2046332359313965, -2.6149158477783203, -0.6652258634567261, 1.4666153192520142, -0.76123046875, 0.625244140625, -0.27099609375, 0, 
364, 850928490, 0.8168888, -0.05677758, -0.5726334, -0.039496027, 9.395610809326172, -0.3263333737850189, 3.231442928314209, -2.3050918579101562, -0.37125611305236816, 1.5409817695617676, -0.760986328125, 0.625, -0.265380859375, 0, 
365, 850945157, 0.8168241, -0.05695709, -0.5727058, -0.039525207, 9.382970809936523, -0.3455232083797455, 3.2047922611236572, -2.0692498683929443, -0.1667642742395401, 1.4575610160827637, -0.76318359375, 0.623046875, -0.26318359375, 0, 
366, 850961824, 0.8167548, -0.057167266, -0.5727788, -0.039594043, 9.365679740905762, -0.3354756832122803, 3.170427083969116, -2.2508952617645264, -0.18745936453342438, 1.4042354822158813, -0.76171875, 0.62451171875, -0.26708984375, 0, 
367, 850978491, 0.8166718, -0.057388768, -0.57287025, -0.03966722, 9.357492446899414, -0.302324503660202, 3.174037218093872, -2.473149538040161, -0.34143009781837463, 1.3653171062469482, -0.76171875, 0.625732421875, -0.266357421875, 0, 
368, 850995158, 0.81658626, -0.05755347, -0.5729715, -0.039727695, 9.352699279785156, -0.28549811244010925, 3.1755263805389404, -2.320894718170166, -0.387161523103714, 1.1323950290679932, -0.761962890625, 0.625, -0.261962890625, 0, 
369, 851011825, 0.8164941, -0.057706416, -0.5730783, -0.03985965, 9.344663619995117, -0.26685360074043274, 3.164977550506592, -2.284806489944458, -0.4230065643787384, 0.7669147253036499, -0.76220703125, 0.6240234375, -0.265869140625, 0, 
370, 851028492, 0.8164173, -0.05777523, -0.57317364, -0.039960705, 9.372040748596191, -0.27307620644569397, 3.1823575496673584, -1.9062250852584839, -0.2797034680843353, 0.5450830459594727, -0.760498046875, 0.6240234375, -0.264892578125, 0, 
371, 851045159, 0.81634593, -0.05779416, -0.57326597, -0.040068686, 9.38410472869873, -0.2649196684360504, 3.1825008392333984, -1.526901125907898, -0.23160283267498016, 0.35679131746292114, -0.760498046875, 0.622802734375, -0.263916015625, 0, 
372, 851061826, 0.81631386, -0.05777663, -0.57330596, -0.040176168, 9.388078689575195, -0.27037450671195984, 3.2016167640686035, -1.3154425621032715, 0.2255646288394928, 0.2495253086090088, -0.760009765625, 0.626220703125, -0.26708984375, 0, 
373, 851078493, 0.81630516, -0.057802588, -0.573305, -0.040328275, 9.4151611328125, -0.2739643454551697, 3.2303287982940674, -1.3224347829818726, 0.5332883596420288, 0.33997657895088196, -0.761962890625, 0.625732421875, -0.261962890625, 0, 
374, 851095160, 0.8163454, -0.057781793, -0.57324445, -0.040403586, 9.39551067352295, -0.23691298067569733, 3.1997129917144775, -1.1277142763137817, 1.0574650764465332, 0.4910274147987366, -0.760986328125, 0.6240234375, -0.26220703125, 0, 
375, 851111827, 0.8164159, -0.05773053, -0.5731451, -0.040461555, 9.399126052856445, -0.28096044063568115, 3.230931520462036, -0.8795145750045776, 1.3959243297576904, 0.496431827545166, -0.75927734375, 0.626220703125, -0.264892578125, 0, 
376, 851128494, 0.8165307, -0.057703935, -0.5729827, -0.04048104, 9.366140365600586, -0.26685452461242676, 3.1979074478149414, -1.2277061939239502, 1.9166432619094849, 0.7219387888908386, -0.75927734375, 0.626708984375, -0.26220703125, 0, 
377, 851145161, 0.8166243, -0.05772942, -0.57284385, -0.040520713, 9.38447380065918, -0.2698802053928375, 3.240291118621826, -1.2143877744674683, 1.6748594045639038, 0.9321935176849365, -0.760986328125, 0.6240234375, -0.26318359375, 0, 
378, 851161828, 0.81673396, -0.057667863, -0.5726934, -0.040528234, 9.340804100036621, -0.2723943293094635, 3.214524745941162, -0.6637850999832153, 1.8166446685791016, 0.7561509013175964, -0.761474609375, 0.625732421875, -0.26416015625, 0, 
379, 851178495, 0.816806, -0.057670444, -0.57258785, -0.040563777, 9.345954895019531, -0.2709052264690399, 3.2642626762390137, -1.199935793876648, 1.4109266996383667, 0.800473690032959, -0.7587890625, 0.62451171875, -0.264404296875, 0, 
380, 851195162, 0.81690776, -0.057726003, -0.57243216, -0.040629957, 9.348828315734863, -0.25170862674713135, 3.25457763671875, -1.807116985321045, 1.8128221035003662, 0.800684928894043, -0.760009765625, 0.626708984375, -0.265869140625, 0, 
381, 851211829, 0.8170172, -0.057798408, -0.572261, -0.04073819, 9.349517822265625, -0.2723962664604187, 3.242948055267334, -2.0310614109039307, 1.9375945329666138, 0.6526179909706116, -0.76171875, 0.625, -0.265869140625, 0, 
382, 851228496, 0.8171501, -0.057910293, -0.572049, -0.040891454, 9.360231399536133, -0.2941807210445404, 3.276890754699707, -2.3292698860168457, 2.259840488433838, 0.6127262115478516, -0.760498046875, 0.625, -0.2626953125, 0, 
383, 851245163, 0.8173113, -0.058093205, -0.57178444, -0.041113816, 9.36743450164795, -0.2937845289707184, 3.2808279991149902, -2.866983413696289, 2.6659302711486816, 0.5796474814414978, -0.7626953125, 0.626220703125, -0.265380859375, 0, 
384, 851261830, 0.81748635, -0.05826989, -0.5715011, -0.041321795, 9.375443458557129, -0.3054834306240082, 3.2685775756835938, -2.960507869720459, 2.828468084335327, 0.5819525122642517, -0.76171875, 0.6240234375, -0.264892578125, 0, 
385, 851278497, 0.8176571, -0.058444764, -0.5712231, -0.041539475, 9.368236541748047, -0.3040672540664673, 3.2831640243530273, -2.8048343658447266, 2.7750020027160645, 0.5802110433578491, -0.7578125, 0.625, -0.264404296875, 0, 
386, 851295164, 0.8178389, -0.058575094, -0.57093704, -0.041706357, 9.353364944458008, -0.30979636311531067, 3.2521355152130127, -2.6059515476226807, 2.865786075592041, 0.6071555614471436, -0.760498046875, 0.6240234375, -0.26318359375, 0, 
387, 851311831, 0.8180146, -0.058710195, -0.5706585, -0.0418821, 9.326074600219727, -0.3186153471469879, 3.277777671813965, -2.4528002738952637, 2.7914578914642334, 0.6456769704818726, -0.757080078125, 0.6259765625, -0.26611328125, 0, 
388, 851328498, 0.81818974, -0.058768608, -0.5703941, -0.04198044, 9.347573280334473, -0.3019580543041229, 3.2788591384887695, -2.1363422870635986, 2.7187814712524414, 0.6248025298118591, -0.760498046875, 0.625732421875, -0.265869140625, 0, 
389, 851345165, 0.81836236, -0.058831044, -0.57013065, -0.042108245, 9.362544059753418, -0.2979189157485962, 3.269731283187866, -1.9842028617858887, 2.6987268924713135, 0.5745760798454285, -0.7578125, 0.627197265625, -0.268310546875, 0, 
390, 851361832, 0.81854033, -0.058828373, -0.5698709, -0.042171612, 9.359128952026367, -0.29921990633010864, 3.2601311206817627, -1.833459496498108, 2.712916374206543, 0.5134257674217224, -0.760009765625, 0.627197265625, -0.26708984375, 0, 
391, 851378499, 0.8187193, -0.058846775, -0.5696035, -0.04227906, 9.35301399230957, -0.31565776467323303, 3.239593029022217, -1.8749394416809082, 2.7590320110321045, 0.43898245692253113, -0.76220703125, 0.625732421875, -0.267578125, 0, 
392, 851395166, 0.8189094, -0.058889985, -0.5693155, -0.042417202, 9.331003189086914, -0.2902596592903137, 3.248260021209717, -1.9047651290893555, 2.913041114807129, 0.45665520429611206, -0.7587890625, 0.62841796875, -0.268310546875, 0, 
393, 851411833, 0.8190916, -0.058943637, -0.56903666, -0.042566, 9.338475227355957, -0.30183637142181396, 3.2845442295074463, -2.0557265281677246, 2.8342692852020264, 0.41401007771492004, -0.7607421875, 0.626220703125, -0.270263671875, 0, 
394, 851428500, 0.8192429, -0.05898401, -0.5688037, -0.042711183, 9.339044570922852, -0.30343887209892273, 3.27445125579834, -2.184885025024414, 2.466451644897461, 0.274862676858902, -0.759521484375, 0.6240234375, -0.267578125, 0, 
395, 851445167, 0.819379, -0.05903977, -0.5685893, -0.0428777, 9.344411849975586, -0.30402183532714844, 3.314187526702881, -2.1459219455718994, 2.2961978912353516, 0.2762393653392792, -0.75634765625, 0.6240234375, -0.2705078125, 0, 
396, 851461834, 0.8194914, -0.05907183, -0.56841224, -0.043032814, 9.333044052124023, -0.31162571907043457, 3.304464817047119, -2.0163533687591553, 1.9957159757614136, 0.20862825214862823, -0.7578125, 0.62548828125, -0.26708984375, 0, 
397, 851478501, 0.8195861, -0.059105456, -0.5682593, -0.04320297, 9.335416793823242, -0.3197818994522095, 3.3164827823638916, -1.9393744468688965, 1.7896490097045898, 0.1643182784318924, -0.7578125, 0.6240234375, -0.268310546875, 0, 
398, 851495168, 0.8196714, -0.05910313, -0.56812614, -0.043337923, 9.3314208984375, -0.32368379831314087, 3.3318066596984863, -1.7976274490356445, 1.6457120180130005, 0.13650929927825928, -0.7568359375, 0.626708984375, -0.271484375, 0, 
399, 851511835, 0.81974393, -0.059064545, -0.5680179, -0.043440275, 9.33467960357666, -0.32617443799972534, 3.342317581176758, -1.5927257537841797, 1.4575482606887817, 0.12009153515100479, -0.760009765625, 0.625732421875, -0.268798828125, 0, 
400, 851528502, 0.81981087, -0.0590424, -0.5679131, -0.04357459, 9.325469017028809, -0.35367459058761597, 3.3564255237579346, -1.5284632444381714, 1.4097036123275757, 0.10044658929109573, -0.759521484375, 0.62353515625, -0.269775390625, 0, 
401, 851545169, 0.81987894, -0.05901782, -0.56780624, -0.043719042, 9.323126792907715, -0.33696892857551575, 3.335374593734741, -1.6172627210617065, 1.4315130710601807, 0.010353934019804, -0.756591796875, 0.62451171875, -0.267822265625, 0, 
402, 851561836, 0.8199515, -0.058969367, -0.5676982, -0.043828636, 9.314613342285156, -0.35690081119537354, 3.322828531265259, -1.3836491107940674, 1.449749231338501, 0.09930682927370071, -0.759033203125, 0.626708984375, -0.27099609375, 0, 
403, 851578503, 0.8200226, -0.058884904, -0.56759965, -0.043887924, 9.323368072509766, -0.3609153926372528, 3.3240487575531006, -1.2225068807601929, 1.3901612758636475, 0.14939245581626892, -0.76123046875, 0.625732421875, -0.2724609375, 0, 
404, 851595170, 0.82009953, -0.05881351, -0.567492, -0.043939795, 9.329216003417969, -0.3623811900615692, 3.358504295349121, -1.074785590171814, 1.4479048252105713, 0.3157213032245636, -0.759033203125, 0.626220703125, -0.2705078125, 0, 
405, 851611837, 0.82017434, -0.058731508, -0.5673904, -0.04396462, 9.332204818725586, -0.37215331196784973, 3.3647189140319824, -0.9163969159126282, 1.3977553844451904, 0.41818496584892273, -0.759521484375, 0.626220703125, -0.268798828125, 0, 
406, 851628504, 0.8202451, -0.058635995, -0.5672944, -0.04401248, 9.314634323120117, -0.3549112379550934, 3.340442419052124, -0.8243319392204285, 1.356775164604187, 0.2662504315376282, -0.7568359375, 0.6259765625, -0.272216796875, 0, 
407, 851645171, 0.82032675, -0.05867157, -0.56716365, -0.04412368, 9.33836555480957, -0.36407575011253357, 3.4127941131591797, -1.8790373802185059, 1.5817443132400513, 0.4158286154270172, -0.759033203125, 0.626708984375, -0.27099609375, 0, 
408, 851661838, 0.8203811, -0.05863786, -0.5670791, -0.044245686, 9.278182983398438, -0.27538546919822693, 3.2402379512786865, -1.531575322151184, 1.239443302154541, 0.05229472741484642, -0.7607421875, 0.625732421875, -0.271484375, 0, 
409, 851678505, 0.8203432, -0.05852607, -0.56714386, -0.04426769, 9.348397254943848, -0.36621370911598206, 3.4002504348754883, -0.8769531846046448, 0.029973264783620834, 0.15694820880889893, -0.7607421875, 0.620849609375, -0.27099609375, 0, 
410, 851695172, 0.8203472, -0.05859997, -0.5671207, -0.044393428, 9.30870532989502, -0.35206153988838196, 3.298734426498413, -2.373298406600952, 0.6742351651191711, 0.327900230884552, -0.7578125, 0.6240234375, -0.27001953125, 0, 
411, 851711839, 0.8203309, -0.058791142, -0.56710714, -0.044614103, 9.300156593322754, -0.33167216181755066, 3.3103983402252197, -3.260650396347046, 0.5362210869789124, 0.2932846248149872, -0.759033203125, 0.626220703125, -0.2705078125, 0, 
412, 851728506, 0.8202666, -0.05892549, -0.5671726, -0.044787608, 9.297121047973633, -0.30251654982566833, 3.289823055267334, -2.6613452434539795, -0.10163760185241699, 0.3242824077606201, -0.758544921875, 0.625, -0.271484375, 0, 
413, 851745173, 0.820164, -0.059004355, -0.56730866, -0.044837594, 9.319226264953613, -0.3474799692630768, 3.3432974815368652, -2.2454140186309814, -0.6664296984672546, 0.6225998997688293, -0.7568359375, 0.62451171875, -0.26953125, 0, 
414, 851761840, 0.82005906, -0.05903735, -0.56745297, -0.044888847, 9.326204299926758, -0.32374656200408936, 3.3041791915893555, -1.9120135307312012, -0.7116872668266296, 0.45992082357406616, -0.7568359375, 0.621826171875, -0.2705078125, 0, 
415, 851778507, 0.8199513, -0.05907247, -0.56759703, -0.044991665, 9.33810806274414, -0.3165660500526428, 3.2892796993255615, -1.8932522535324097, -0.7119945883750916, 0.2637019455432892, -0.760009765625, 0.62451171875, -0.26708984375, 0, 
416, 851795174, 0.8198424, -0.05913209, -0.56773806, -0.045116987, 9.332097053527832, -0.3361101746559143, 3.321449041366577, -2.0245816707611084, -0.6999823451042175, 0.2640092968940735, -0.759521484375, 0.62451171875, -0.2666015625, 0, 
417, 851811841, 0.81975156, -0.059204884, -0.56784916, -0.045270503, 9.352846145629883, -0.3425048589706421, 3.350799798965454, -2.2476937770843506, -0.4521026015281677, 0.16113589704036713, -0.75830078125, 0.62451171875, -0.265625, 0, 
418, 851828508, 0.81966496, -0.05926704, -0.5679541, -0.045439523, 9.324488639831543, -0.35241514444351196, 3.3313534259796143, -2.358443021774292, -0.38816049695014954, -0.004840800538659096, -0.75830078125, 0.622802734375, -0.268798828125, 0, 
419, 851845175, 0.8195618, -0.059352543, -0.56807697, -0.04565336, 9.29460620880127, -0.3136226534843445, 3.29427170753479, -2.3776462078094482, -0.5574156045913696, -0.07231105864048004, -0.75830078125, 0.625, -0.268310546875, 0, 
420, 851861842, 0.8194401, -0.059326746, -0.568249, -0.045731835, 9.312557220458984, -0.33920592069625854, 3.295492649078369, -2.2171316146850586, -0.8836445808410645, -0.13726487755775452, -0.760009765625, 0.62451171875, -0.269287109375, 0, 
421, 851878509, 0.81930804, -0.05935043, -0.5684284, -0.04583635, 9.312082290649414, -0.33895668387413025, 3.3174991607666016, -2.261806011199951, -0.9866139888763428, 0.027258317917585373, -0.760009765625, 0.62353515625, -0.265380859375, 0, 
422, 851895176, 0.8191795, -0.05940993, -0.5685966, -0.045969572, 9.335004806518555, -0.2933143377304077, 3.308029890060425, -2.296908378601074, -0.9216601848602295, 0.11025627702474594, -0.75927734375, 0.627197265625, -0.2666015625, 0, 
423, 851911843, 0.81906354, -0.059449572, -0.56875247, -0.046059348, 9.369660377502441, -0.32790178060531616, 3.29252290725708, -2.41357421875, -0.7984758615493774, 0.1416318118572235, -0.76171875, 0.6240234375, -0.2666015625, 0, 
424, 851928510, 0.8189495, -0.05953062, -0.56889695, -0.04619703, 9.354066848754883, -0.3142389953136444, 3.3175837993621826, -2.288328170776367, -0.7439081072807312, 0.23919060826301575, -0.76123046875, 0.6240234375, -0.268798828125, 0, 
425, 851945177, 0.81885284, -0.059498973, -0.5690394, -0.046198454, 9.348416328430176, -0.3307613730430603, 3.2777223587036133, -1.9491136074066162, -0.650421679019928, 0.26904216408729553, -0.760986328125, 0.625732421875, -0.264892578125, 0, 
426, 851961844, 0.8187566, -0.05947916, -0.56917626, -0.04624286, 9.335856437683105, -0.3453943431377411, 3.2912113666534424, -1.713105320930481, -0.6233618855476379, 0.24447958171367645, -0.760498046875, 0.622802734375, -0.26318359375, 0, 
427, 851978511, 0.81867796, -0.05943158, -0.56929064, -0.046289228, 9.347801208496094, -0.3426288068294525, 3.2944085597991943, -1.406674861907959, -0.4247097074985504, 0.19525200128555298, -0.76318359375, 0.62353515625, -0.264892578125, 0, 
428, 851995178, 0.81862193, -0.059392862, -0.5693703, -0.046347875, 9.369414329528809, -0.34978264570236206, 3.26139497756958, -1.3097821474075317, -0.14805419743061066, 0.25304707884788513, -0.760498046875, 0.625, -0.265869140625, 0, 
429, 852011845, 0.81857115, -0.05920858, -0.569469, -0.04626751, 9.347622871398926, -0.3224308490753174, 3.284785747528076, -0.48060306906700134, -0.2224911004304886, 0.26259419322013855, -0.760009765625, 0.622802734375, -0.26611328125, 0, 
430, 852028512, 0.8185447, -0.059061434, -0.5695285, -0.046191003, 9.310365676879883, -0.3091667890548706, 3.2132725715637207, -0.47097912430763245, 0.07231105118989944, 0.4958554208278656, -0.7626953125, 0.623046875, -0.26416015625, 0, 
431, 852045179, 0.8184808, -0.058847792, -0.569652, -0.046073075, 9.338886260986328, -0.34371644258499146, 3.263550281524658, 0.3523474931716919, -0.4412427544593811, 0.5298563241958618, -0.764404296875, 0.623046875, -0.265869140625, 0, 
432, 852061846, 0.8184538, -0.058616802, -0.56972873, -0.04589968, 9.369166374206543, -0.32553499937057495, 3.253730058670044, 0.4083496630191803, -0.03949478268623352, 0.7091580629348755, -0.760009765625, 0.622802734375, -0.264892578125, 0, 
433, 852078513, 0.81842923, -0.058363114, -0.5698057, -0.045705955, 9.402437210083008, -0.332676500082016, 3.2856574058532715, 0.6179832220077515, -0.03264978900551796, 0.7355839014053345, -0.764404296875, 0.6240234375, -0.265380859375, 0, 
434, 852095180, 0.8184258, -0.058140654, -0.56984746, -0.045528483, 9.392560958862305, -0.33846691250801086, 3.291825294494629, 0.37574470043182373, 0.245452880859375, 0.7847410440444946, -0.7626953125, 0.625732421875, -0.263671875, 0, 
435, 852111847, 0.8184465, -0.058009878, -0.56983835, -0.045435257, 9.392807006835938, -0.33694952726364136, 3.3241846561431885, -0.1062798947095871, 0.6159021854400635, 0.8283722400665283, -0.764892578125, 0.62353515625, -0.262451171875, 0, 
436, 852128514, 0.81849945, -0.057908528, -0.5697788, -0.04536182, 9.35856819152832, -0.303803950548172, 3.306497573852539, -0.3282267153263092, 1.023566722869873, 0.8692758083343506, -0.760986328125, 0.62451171875, -0.26318359375, 0, 
437, 852145181, 0.81856656, -0.05785264, -0.5696924, -0.045305472, 9.344269752502441, -0.31667280197143555, 3.3189008235931396, -0.8512893319129944, 1.2298898696899414, 0.8942994475364685, -0.75830078125, 0.622802734375, -0.268310546875, 0, 
438, 852161848, 0.8186359, -0.057821553, -0.5695997, -0.04525975, 9.302000999450684, -0.31175485253334045, 3.301109552383423, -1.3694981336593628, 1.2805900573730469, 0.8154377937316895, -0.75927734375, 0.6240234375, -0.264892578125, 0, 
439, 852178515, 0.81868815, -0.05781178, -0.5695245, -0.045270402, 9.303022384643555, -0.29828789830207825, 3.298055648803711, -1.5264527797698975, 1.124512791633606, 0.6335428953170776, -0.76171875, 0.62353515625, -0.267578125, 0, 
440, 852195182, 0.8187273, -0.057794556, -0.5694698, -0.04527287, 9.32943344116211, -0.3037552833557129, 3.2750377655029297, -1.7084308862686157, 0.9661301374435425, 0.5429956316947937, -0.76123046875, 0.62451171875, -0.26708984375, 0, 
441, 852211849, 0.81875145, -0.05778996, -0.5694363, -0.04526578, 9.322964668273926, -0.32204991579055786, 3.2789840698242188, -1.787574291229248, 0.781789243221283, 0.6159341931343079, -0.762939453125, 0.62451171875, -0.2685546875, 0, 
442, 852228516, 0.81876767, -0.057802428, -0.56941134, -0.045269337, 9.354780197143555, -0.30736368894577026, 3.3021202087402344, -1.793535590171814, 0.6951030492782593, 0.6650465726852417, -0.761474609375, 0.6240234375, -0.263671875, 0, 
443, 852245183, 0.8187767, -0.057848223, -0.5693917, -0.045291785, 9.366032600402832, -0.3273945152759552, 3.317030191421509, -1.7926580905914307, 0.6253531575202942, 0.7764424681663513, -0.760009765625, 0.622314453125, -0.264892578125, 0, 
444, 852261850, 0.8187854, -0.05789133, -0.5693716, -0.04533457, 9.348247528076172, -0.30339252948760986, 3.3065617084503174, -1.924960970878601, 0.6371223330497742, 0.6265186667442322, -0.7626953125, 0.6240234375, -0.264892578125, 0, 
445, 852278517, 0.8188001, -0.05796206, -0.56933737, -0.04540979, 9.34306812286377, -0.32099685072898865, 3.2869064807891846, -2.0426130294799805, 0.736499547958374, 0.6198209524154663, -0.76220703125, 0.62451171875, -0.26708984375, 0, 
446, 852295184, 0.81880885, -0.0579551, -0.5693267, -0.045392867, 9.334040641784668, -0.3079909682273865, 3.282569408416748, -1.9333235025405884, 0.5958858728408813, 0.5713873505592346, -0.76171875, 0.62451171875, -0.265869140625, 0, 
447, 852311851, 0.8187973, -0.057994246, -0.56933653, -0.04542979, 9.324784278869629, -0.33004724979400635, 3.3111677169799805, -2.0373620986938477, 0.3922649025917053, 0.565624475479126, -0.760986328125, 0.625732421875, -0.265869140625, 0, 
448, 852328518, 0.81876975, -0.058064733, -0.56936175, -0.04551873, 9.332025527954102, -0.33664631843566895, 3.3014209270477295, -2.317936658859253, 0.25019127130508423, 0.42139938473701477, -0.760009765625, 0.62548828125, -0.26611328125, 0, 
449, 852345185, 0.81874216, -0.058116313, -0.5693882, -0.0456177, 9.3381986618042, -0.32149064540863037, 3.317784547805786, -2.3827943801879883, 0.2563575208187103, 0.24065694212913513, -0.76220703125, 0.625244140625, -0.265869140625, 0, 
450, 852361852, 0.8187206, -0.058152698, -0.5694067, -0.045727815, 9.323803901672363, -0.3215385675430298, 3.3150200843811035, -2.249685287475586, 0.33096733689308167, 0.1568649858236313, -0.76220703125, 0.620849609375, -0.263671875, 0, 
451, 852378519, 0.8186844, -0.058200113, -0.5694432, -0.045861296, 9.329209327697754, -0.34048402309417725, 3.3012502193450928, -2.296780586242676, 0.17262320220470428, 0.09223774075508118, -0.76220703125, 0.62451171875, -0.26708984375, 0, 
452, 852395186, 0.81867945, -0.058217045, -0.5694421, -0.045939818, 9.348929405212402, -0.36169102787971497, 3.3031225204467773, -2.293181896209717, 0.5088923573493958, 0.16873006522655487, -0.760986328125, 0.622802734375, -0.26318359375, 0, 
453, 852411853, 0.8186971, -0.058292523, -0.56939995, -0.046052936, 9.372276306152344, -0.36407530307769775, 3.30788254737854, -2.3826212882995605, 0.8079718351364136, 0.3620675206184387, -0.761474609375, 0.622802734375, -0.26220703125, 0, 
454, 852428520, 0.8187441, -0.058375716, -0.56931525, -0.04615949, 9.376734733581543, -0.3524395823478699, 3.322244882583618, -2.3050148487091064, 1.153051733970642, 0.48776185512542725, -0.76123046875, 0.6201171875, -0.265380859375, 0, 
455, 852445187, 0.8188243, -0.058361657, -0.5692009, -0.046163496, 9.373059272766113, -0.36431872844696045, 3.337541341781616, -1.8720579147338867, 1.4599686861038208, 0.518202543258667, -0.760986328125, 0.625732421875, -0.2666015625, 0, 
456, 852461854, 0.81890196, -0.058358993, -0.5690861, -0.046202127, 9.354412078857422, -0.3530242145061493, 3.338900566101074, -1.5595316886901855, 1.4397283792495728, 0.5526196360588074, -0.7626953125, 0.62353515625, -0.264892578125, 0, 
457, 852478521, 0.8189619, -0.058317136, -0.5690052, -0.046192165, 9.351388931274414, -0.33856233954429626, 3.3854551315307617, -1.4562997817993164, 1.186028003692627, 0.5357216000556946, -0.76220703125, 0.622314453125, -0.26708984375, 0, 
458, 852495188, 0.8189975, -0.058328412, -0.5689508, -0.0462188, 9.40095043182373, -0.34509211778640747, 3.374720811843872, -1.8469830751419067, 0.9342296719551086, 0.5396019816398621, -0.76318359375, 0.625732421875, -0.266357421875, 0, 
459, 852511855, 0.8190161, -0.058362484, -0.5689174, -0.0462541, 9.425707817077637, -0.3165287375450134, 3.384000778198242, -2.381033420562744, 0.7612286806106567, 0.4281483292579651, -0.7626953125, 0.62353515625, -0.26416015625, 0, 
460, 852528522, 0.8190132, -0.05845491, -0.5688998, -0.046404686, 9.446979522705078, -0.2761806845664978, 3.376427412033081, -2.614121437072754, 0.5919542908668518, 0.192524254322052, -0.76171875, 0.62451171875, -0.264892578125, 0, 
461, 852545189, 0.81900644, -0.058534242, -0.5688929, -0.046507068, 9.423731803894043, -0.3014862537384033, 3.379664897918701, -2.67212176322937, 0.5140789151191711, 0.2911459803581238, -0.760986328125, 0.62451171875, -0.264404296875, 0, 
462, 852561856, 0.8189747, -0.05860158, -0.56892633, -0.046574067, 9.39838981628418, -0.2943703234195709, 3.3482871055603027, -2.4585630893707275, 0.17745117843151093, 0.420400470495224, -0.7626953125, 0.623046875, -0.26318359375, 0, 
463, 852578523, 0.8188839, -0.058674276, -0.569042, -0.04666456, 9.373251914978027, -0.30915361642837524, 3.34535551071167, -2.287163019180298, -0.5204628705978394, 0.36179858446121216, -0.76416015625, 0.6279296875, -0.261474609375, 0, 
464, 852595190, 0.8187354, -0.05871168, -0.5692449, -0.046747558, 9.342741012573242, -0.2942253053188324, 3.340686321258545, -2.127403736114502, -1.226938009262085, 0.18546797335147858, -0.76318359375, 0.623046875, -0.2626953125, 0, 
465, 852611857, 0.8184974, -0.058713272, -0.56958026, -0.04683511, 9.308671951293945, -0.26620370149612427, 3.310431718826294, -1.9014354944229126, -2.312122344970703, -0.04812626540660858, -0.763671875, 0.626220703125, -0.263671875, 0, 
466, 852628524, 0.8182213, -0.058627818, -0.56997836, -0.046920177, 9.309782028198242, -0.2627549171447754, 3.286738634109497, -1.3169795274734497, -2.7920150756835938, -0.3797595500946045, -0.763916015625, 0.621826171875, -0.26318359375, 0, 
467, 852645191, 0.8179474, -0.058401458, -0.57039523, -0.046913613, 9.291850090026855, -0.24344559013843536, 3.2931137084960938, -0.7172195911407471, -2.859862804412842, -0.6251163482666016, -0.76416015625, 0.621826171875, -0.2587890625, 0, 
468, 852661858, 0.8176755, -0.058291055, -0.570786, -0.04703659, 9.27087116241455, -0.24546164274215698, 3.345763683319092, -1.3496612310409546, -2.71087384223938, -0.6941810250282288, -0.76318359375, 0.62353515625, -0.260498046875, 0, 
469, 852678525, 0.8173575, -0.057806533, -0.5712966, -0.046963017, 9.229620933532715, -0.17098966240882874, 3.1382393836975098, 0.8407690525054932, -3.4990923404693604, -1.370779037475586, -0.7646484375, 0.6240234375, -0.25927734375, 0, 
470, 852695192, 0.8169831, -0.05740469, -0.5718741, -0.046942823, 9.336734771728516, -0.1970110982656479, 3.2886576652526855, 0.5664440989494324, -4.1178178787231445, -1.2450462579727173, -0.765869140625, 0.62255859375, -0.261962890625, 0, 
471, 852711859, 0.8166657, -0.057006437, -0.57236975, -0.046907466, 9.277141571044922, -0.19940955936908722, 3.224294662475586, -0.06289198994636536, -3.4202561378479004, -1.3260719776153564, -0.765869140625, 0.620361328125, -0.259765625, 0, 
472, 852728526, 0.8163278, -0.056655824, -0.5728793, -0.046995603, 9.259779930114746, -0.12683074176311493, 3.2083492279052734, -0.4393731355667114, -3.560486078262329, -1.7072659730911255, -0.767578125, 0.62353515625, -0.2568359375, 0, 
473, 852745193, 0.8159552, -0.056210186, -0.57345235, -0.04701335, 9.326860427856445, -0.13494546711444855, 3.2360992431640625, 0.532462477684021, -4.058095455169678, -1.6647934913635254, -0.76708984375, 0.621337890625, -0.258056640625, 0, 
474, 852761860, 0.8155355, -0.055681933, -0.57410014, -0.047015097, 9.385822296142578, -0.13339297473430634, 3.2319369316101074, 1.1876994371414185, -4.648660659790039, -1.8957946300506592, -0.767578125, 0.619873046875, -0.25634765625, 0, 
475, 852778527, 0.8150806, -0.0550725, -0.57480615, -0.04699491, 9.376964569091797, -0.10738000273704529, 3.1780905723571777, 1.3151161670684814, -5.084172248840332, -2.2716543674468994, -0.769775390625, 0.62158203125, -0.2568359375, 0, 
476, 852795194, 0.814603, -0.05448595, -0.57553315, -0.04706271, 9.369363784790039, -0.10132920742034912, 3.190551519393921, 1.2942291498184204, -5.284003257751465, -2.5245673656463623, -0.770263671875, 0.61767578125, -0.2529296875, 0, 
477, 852811861, 0.8141053, -0.053865597, -0.57628804, -0.047151256, 9.40160083770752, -0.14647524058818817, 3.2291672229766846, 1.413930058479309, -5.501391410827637, -2.7850868701934814, -0.77294921875, 0.61767578125, -0.254638671875, 0, 
478, 852828528, 0.8135726, -0.05330687, -0.57708114, -0.047280867, 9.396723747253418, -0.15264499187469482, 3.2494022846221924, 0.6991563439369202, -5.856331825256348, -2.8629367351531982, -0.771240234375, 0.615966796875, -0.251953125, 0, 
479, 852845195, 0.8130091, -0.052837677, -0.5779031, -0.047462244, 9.415901184082031, -0.1579689085483551, 3.1911401748657227, 0.057711824774742126, -6.154860496520996, -2.7938592433929443, -0.774169921875, 0.61669921875, -0.251220703125, 0, 
480, 852861862, 0.8124283, -0.052362334, -0.5787511, -0.0475994, 9.439952850341797, -0.14806056022644043, 3.157400608062744, 0.23756422102451324, -6.385169506072998, -2.593337059020996, -0.775146484375, 0.614501953125, -0.24951171875, 0, 
481, 852878529, 0.81185913, -0.05188326, -0.5795847, -0.047694765, 9.4514799118042, -0.15514110028743744, 3.1604137420654297, 0.7032352089881897, -6.282431125640869, -2.2677042484283447, -0.774658203125, 0.613525390625, -0.24951171875, 0, 
482, 852895196, 0.81124425, -0.051319856, -0.58049834, -0.047653295, 9.449585914611816, -0.17567549645900726, 3.163701295852661, 1.2962971925735474, -6.924656391143799, -2.024613857269287, -0.77685546875, 0.61572265625, -0.25048828125, 0, 
483, 852911863, 0.81064665, -0.05080178, -0.5813837, -0.04758498, 9.464510917663574, -0.1618853509426117, 3.175353765487671, 1.0595080852508545, -6.724661350250244, -1.7034947872161865, -0.779052734375, 0.613525390625, -0.25, 0, 
484, 852928530, 0.81009156, -0.050302833, -0.58220315, -0.04755067, 9.486601829528809, -0.15030142664909363, 3.124314069747925, 0.7534680366516113, -6.183444499969482, -1.795104742050171, -0.779052734375, 0.61181640625, -0.24609375, 0, 
485, 852945197, 0.8095542, -0.04983186, -0.5829899, -0.04755851, 9.526991844177246, -0.13019666075706482, 3.0882067680358887, 0.4982374906539917, -5.927343368530273, -1.8764760494232178, -0.780029296875, 0.612548828125, -0.243896484375, 0, 
486, 852961864, 0.80906135, -0.04939968, -0.58370304, -0.047647636, 9.572376251220703, -0.11891978979110718, 3.0907444953918457, 0.18608267605304718, -5.331104278564453, -2.0536391735076904, -0.78173828125, 0.61083984375, -0.243896484375, 0, 
487, 852978531, 0.80856663, -0.04899999, -0.5844104, -0.047786053, 9.568985939025879, -0.09426632523536682, 3.0694735050201416, -0.30065467953681946, -5.300778865814209, -2.227562189102173, -0.78173828125, 0.60986328125, -0.244873046875, 0, 
488, 852995198, 0.8080683, -0.048535943, -0.5851313, -0.047869492, 9.570130348205566, -0.06667981296777725, 3.0931241512298584, -0.4385407269001007, -5.377528190612793, -2.4150476455688477, -0.781494140625, 0.61083984375, -0.239990234375, 0, 
489, 853011865, 0.8075768, -0.048192017, -0.5858151, -0.048147373, 9.512277603149414, -0.040400415658950806, 3.051496982574463, -0.6358224749565125, -5.143491268157959, -2.588163137435913, -0.783935546875, 0.608154296875, -0.24169921875, 0, 
490, 853028532, 0.8070907, -0.047621664, -0.5865225, -0.048251707, 9.501287460327148, -0.008878332562744617, 2.9613845348358154, 0.25434696674346924, -5.220874309539795, -2.883650779724121, -0.784423828125, 0.607666015625, -0.23828125, 0, 
491, 853045199, 0.8066664, -0.047095206, -0.58712924, -0.048483245, 9.51574420928955, -0.10700365155935287, 2.880567789077759, 0.07465463131666183, -4.395741939544678, -3.1692776679992676, -0.78369140625, 0.60888671875, -0.23828125, 0, 
492, 853061866, 0.8062615, -0.046631645, -0.58769935, -0.048756257, 9.464314460754395, -0.11939392238855362, 2.8410162925720215, -0.5789878964424133, -4.123644828796387, -3.16583251953125, -0.78955078125, 0.606689453125, -0.241943359375, 0, 
493, 853078533, 0.80590355, -0.046169564, -0.588208, -0.04898285, 9.415289878845215, -0.0449100136756897, 2.779510736465454, -1.0664551258087158, -3.60345721244812, -3.0711612701416016, -0.787109375, 0.60498046875, -0.23828125, 0, 
494, 853095200, 0.80550045, -0.045823924, -0.58876866, -0.049199298, 9.414570808410645, -0.026717299595475197, 2.8287312984466553, -1.6390975713729858, -4.114897727966309, -2.568096160888672, -0.787109375, 0.603515625, -0.23828125, 0, 
495, 853111867, 0.8050914, -0.04560152, -0.5893286, -0.04940168, 9.402587890625, -0.05436066538095474, 2.809229850769043, -2.2533538341522217, -4.184641361236572, -1.983844518661499, -0.79150390625, 0.603515625, -0.233154296875, 0, 
496, 853128534, 0.8046851, -0.04552935, -0.5898667, -0.049661897, 9.437260627746582, -0.06078876554965973, 2.783695697784424, -2.605452060699463, -4.0897088050842285, -1.4687092304229736, -0.788818359375, 0.603515625, -0.232666015625, 0, 
497, 853145201, 0.80429626, -0.04541172, -0.59039044, -0.049844127, 9.455673217773438, -0.041007149964571, 2.7852964401245117, -2.2433013916015625, -3.946674108505249, -1.2701596021652222, -0.791015625, 0.603515625, -0.233642578125, 0, 
498, 853161868, 0.80391985, -0.04527571, -0.59089935, -0.050009497, 9.470048904418945, -0.03129604086279869, 2.7888283729553223, -2.1120107173919678, -3.816420793533325, -1.2493492364883423, -0.79248046875, 0.601318359375, -0.23095703125, 0, 
499, 853178535, 0.80357933, -0.04516928, -0.59135205, -0.050228223, 9.473374366760254, -0.034923505038022995, 2.810256004333496, -2.111651659011841, -3.3556089401245117, -1.2756403684616089, -0.7919921875, 0.6044921875, -0.229248046875, 0, 
500, 853195202, 0.80327564, -0.045026295, -0.5917602, -0.050407883, 9.482710838317871, -0.042222633957862854, 2.802208662033081, -2.042062520980835, -2.957191228866577, -1.2712993621826172, -0.79296875, 0.603515625, -0.229248046875, 0, 
501, 853211869, 0.80298585, -0.044850122, -0.5921566, -0.050528992, 9.483059883117676, -0.02224213443696499, 2.7961199283599854, -1.9402132034301758, -2.840524911880493, -1.171063780784607, -0.79248046875, 0.601806640625, -0.23095703125, 0, 
