sep=,
DeviceTag:,Xsens_2,,,,,,,,,,,,,,,,,
FirmwareVersion:,2.2.1,,,,,,,,,,,,,,,,,
AppVersion:,2023.0.0,,,,,,,,,,,,,,,,,
StartTime:,2023-07-04 14:47:22.000 +0200,,,,,,,,,,,,,,,,,
© Movella Technologies B. V. 2005-2023,,,,,,,,,,,,,,,,,,,

PacketCounter,SampleTimeFine,Quat_W,Quat_X,Quat_Y,Quat_Z,Acc_X,Acc_Y,Acc_Z,Gyr_X,Gyr_Y,Gyr_Z,Mag_X,Mag_Y,Mag_Z,Status,
0, 1764733737, 0.7417999, -0.06602676, -0.66694707, -0.023560658, 0.0, 0.0, 0.0, 0.0, 0.0, 0.0, -1.04248046875, 0.367919921875, -0.083984375, 0, 
1, 1764750404, 0.7418594, -0.06696351, -0.6668078, -0.022981055, 9.948999404907227, -0.8407363295555115, 1.0027977228164673, -1.6270849704742432, -0.15385548770427704, -1.1791445016860962, -1.04296875, 0.36669921875, -0.0830078125, 0, 
2, 1764767071, 0.7418247, -0.06804301, -0.6667672, -0.02209094, 9.976723670959473, -0.8165620565414429, 1.0005592107772827, 0.23166045546531677, -0.03972529247403145, -1.2123130559921265, -1.043701171875, 0.36474609375, -0.081787109375, 0, 
3, 1764783738, 0.74177223, -0.06882189, -0.66676563, -0.021474868, 9.966742515563965, -0.7451041340827942, 0.9918987154960632, 1.2452701330184937, 0.19329264760017395, -1.1041890382766724, -1.04296875, 0.365966796875, -0.081787109375, 0, 
4, 1764800405, 0.741713, -0.069126464, -0.66680944, -0.021183198, 9.969470024108887, -0.6831740736961365, 0.976453959941864, 1.3877664804458618, 0.30651360750198364, -1.0016999244689941, -1.0380859375, 0.3671875, -0.08154296875, 0, 
5, 1764817072, 0.74166465, -0.06913792, -0.6668616, -0.02119573, 9.964863777160645, -0.6519801020622253, 0.9629285931587219, 0.8897275328636169, 0.6803309321403503, -0.9539065957069397, -1.041259765625, 0.367919921875, -0.08203125, 0, 
6, 1764833739, 0.7416253, -0.06915521, -0.66688937, -0.02163449, 10.022265434265137, -0.5774216055870056, 1.05782949924469, -1.3945348262786865, 1.1850035190582275, -1.4658020734786987, -1.041748046875, 0.363525390625, -0.083251953125, 0, 
7, 1764850406, 0.74167925, -0.06924433, -0.6667919, -0.022493577, 9.996272087097168, -0.5167952179908752, 1.0495222806930542, -4.503135681152344, 1.562368392944336, -1.8715842962265015, -1.042724609375, 0.36376953125, -0.082275390625, 0, 
8, 1764867073, 0.7417946, -0.06945579, -0.66659987, -0.023695592, 9.982515335083008, -0.5604473352432251, 1.0299252271652222, -6.423628807067871, 2.0404810905456543, -2.0232632160186768, -1.0419921875, 0.363525390625, -0.08251953125, 0, 
9, 1764883740, 0.7419474, -0.069753595, -0.66634893, -0.025053116, 9.95942211151123, -0.5828694105148315, 1.046186923980713, -7.918694496154785, 2.52298641204834, -2.4198756217956543, -1.043212890625, 0.360595703125, -0.080322265625, 0, 
10, 1764900407, 0.7421406, -0.07025672, -0.66601926, -0.026641252, 9.931787490844727, -0.6341917514801025, 1.088893175125122, -8.827804565429688, 2.9953999519348145, -2.7708723545074463, -1.044189453125, 0.357666015625, -0.08349609375, 0, 
11, 1764917074, 0.7423848, -0.070494, -0.66566664, -0.02799012, 9.88638687133789, -0.6089641451835632, 1.0981547832489014, -7.6480183601379395, 3.1511635780334473, -3.407834768295288, -1.04541015625, 0.35791015625, -0.083251953125, 0, 
12, 1764933741, 0.74262494, -0.07054805, -0.6653428, -0.029158214, 9.789299964904785, -0.5775061845779419, 0.9936416149139404, -5.736515522003174, 2.779240608215332, -3.662923812866211, -1.046142578125, 0.354736328125, -0.080810546875, 0, 
13, 1764950408, 0.7427938, -0.07068656, -0.66509014, -0.03026304, 9.737616539001465, -0.5848767757415771, 0.8931931257247925, -5.022369384765625, 2.221421718597412, -3.1313705444335938, -1.0478515625, 0.354248046875, -0.081787109375, 0, 
14, 1764967075, 0.74287856, -0.070881814, -0.66492945, -0.031243593, 9.784611701965332, -0.6540055871009827, 0.8037070035934448, -4.768406391143799, 1.7232418060302734, -2.5343384742736816, -1.048095703125, 0.3515625, -0.0830078125, 0, 
15, 1764983742, 0.7428805, -0.07103229, -0.6648741, -0.032021195, 9.872248649597168, -0.7060909867286682, 0.8112496137619019, -4.464677810668945, 1.2821142673492432, -2.2173171043395996, -1.047119140625, 0.351318359375, -0.08056640625, 0, 
16, 1765000409, 0.74281657, -0.07128335, -0.6648771, -0.032876514, 9.928960800170898, -0.6675795316696167, 0.7989290356636047, -4.507490158081055, 0.9956234693527222, -2.4797451496124268, -1.04443359375, 0.351318359375, -0.08349609375, 0, 
17, 1765017076, 0.7426253, -0.071316406, -0.66506237, -0.033372022, 9.963312149047852, -0.6335158944129944, 0.7322136163711548, -4.03831672668457, -0.23617473244667053, -2.20438289642334, -1.048095703125, 0.348876953125, -0.080810546875, 0, 
18, 1765033743, 0.742305, -0.07165743, -0.66534203, -0.034189332, 10.02130126953125, -0.6467475295066833, 0.6616224646568298, -3.7392494678497314, -1.1493570804595947, -2.2656736373901367, -1.05078125, 0.348876953125, -0.0791015625, 0, 
19, 1765050410, 0.74194396, -0.07198149, -0.665666, -0.035022896, 10.017952919006348, -0.5800228714942932, 0.7402709722518921, -5.179605960845947, -1.171794056892395, -2.7153308391571045, -1.05029296875, 0.347412109375, -0.079345703125, 0, 
20, 1765067077, 0.74148226, -0.072467074, -0.6660786, -0.03594215, 10.018738746643066, -0.6018365025520325, 0.8036452531814575, -6.515000343322754, -1.9881091117858887, -2.493767738342285, -1.051025390625, 0.343994140625, -0.076171875, 0, 
21, 1765083744, 0.7409469, -0.072938934, -0.6665762, -0.036794703, 9.960025787353516, -0.714622974395752, 0.8068490624427795, -6.394134044647217, -2.8088037967681885, -2.337824821472168, -1.052001953125, 0.344482421875, -0.080078125, 0, 
22, 1765100411, 0.74031764, -0.07338603, -0.66718084, -0.03760621, 9.882696151733398, -0.7718642950057983, 0.7665258646011353, -4.424197673797607, -3.9635019302368164, -2.308511734008789, -1.053466796875, 0.342041015625, -0.076171875, 0, 
23, 1765117078, 0.7396638, -0.0734133, -0.6678867, -0.037888486, 9.911590576171875, -0.6519845128059387, 0.7739642858505249, -3.034336566925049, -4.605624675750732, -2.101214647293091, -1.052001953125, 0.3427734375, -0.07470703125, 0, 
24, 1765133745, 0.7389977, -0.07377319, -0.66855234, -0.038444933, 9.898957252502441, -0.521628737449646, 0.8141230344772339, -4.266961097717285, -4.57348108291626, -1.8256604671478271, -1.0546875, 0.3408203125, -0.07080078125, 0, 
25, 1765150412, 0.738296, -0.0743454, -0.6692207, -0.039188426, 9.86397647857666, -0.5339241027832031, 0.8304977416992188, -6.126558780670166, -4.829531192779541, -1.734786868095398, -1.054931640625, 0.33642578125, -0.069091796875, 0, 
26, 1765167079, 0.7375784, -0.07458851, -0.6699631, -0.03955329, 9.899279594421387, -0.5782485008239746, 0.836167573928833, -6.788570404052734, -5.27255392074585, -1.7070482969284058, -1.054931640625, 0.335693359375, -0.06640625, 0, 
27, 1765183746, 0.7368666, -0.07549494, -0.67057675, -0.040681783, 9.923970222473145, -0.5848172903060913, 0.856692910194397, -6.23761510848999, -4.933058261871338, -1.768582820892334, -1.05615234375, 0.333984375, -0.0625, 0, 
28, 1765200413, 0.73624647, -0.075874336, -0.67117816, -0.04128077, 9.925323486328125, -0.563517153263092, 0.891334593296051, -5.238758563995361, -4.466701507568359, -1.8616466522216797, -1.056640625, 0.333984375, -0.059814453125, 0, 
29, 1765217080, 0.7356706, -0.07627235, -0.67172456, -0.041922238, 9.940962791442871, -0.5355353951454163, 0.883492648601532, -5.1207733154296875, -4.132776260375977, -1.9067378044128418, -1.059326171875, 0.33203125, -0.055908203125, 0, 
30, 1765233747, 0.735178, -0.07656678, -0.6721894, -0.042571314, 9.949304580688477, -0.574251651763916, 0.840815007686615, -2.4144582748413086, -3.551534414291382, -2.1470744609832764, -1.058837890625, 0.331298828125, -0.05859375, 0, 
31, 1765250414, 0.734782, -0.07614745, -0.6726716, -0.042542934, 9.948938369750977, -0.6404643058776855, 0.7893053293228149, 0.7157790064811707, -3.228045701980591, -2.320549249649048, -1.0595703125, 0.328125, -0.05615234375, 0, 
32, 1765267081, 0.7344365, -0.07544748, -0.67314076, -0.042336978, 9.981232643127441, -0.6804085373878479, 0.771379292011261, 4.164106369018555, -3.067197561264038, -2.640220880508423, -1.061279296875, 0.328857421875, -0.053955078125, 0, 
33, 1765283748, 0.73416823, -0.07442318, -0.67357624, -0.041872222, 9.952142715454102, -0.6741520166397095, 0.7525124549865723, 7.524134635925293, -2.6556787490844727, -2.8098032474517822, -1.057861328125, 0.328125, -0.053955078125, 0, 
34, 1765300415, 0.73395824, -0.073215045, -0.6739798, -0.041187357, 9.994136810302734, -0.6079766154289246, 0.7539169788360596, 9.377446174621582, -2.319896697998047, -2.575690507888794, -1.058349609375, 0.328857421875, -0.055419921875, 0, 
35, 1765317082, 0.7337688, -0.071902245, -0.67437404, -0.040410787, 10.003361701965332, -0.5759240984916687, 0.7147939205169678, 9.646700859069824, -2.197493553161621, -2.6614036560058594, -1.06005859375, 0.32666015625, -0.05810546875, 0, 
36, 1765333749, 0.7335431, -0.070610285, -0.67480147, -0.03964547, 9.97080135345459, -0.6019893884658813, 0.7482343316078186, 8.37647533416748, -2.500542640686035, -2.7423393726348877, -1.0615234375, 0.330078125, -0.055908203125, 0, 
37, 1765350416, 0.7333015, -0.06976373, -0.67517, -0.039338678, 9.973504066467285, -0.5764716863632202, 0.7640079259872437, 6.270418643951416, -2.328463315963745, -2.8001339435577393, -1.0615234375, 0.32958984375, -0.055908203125, 0, 
38, 1765367083, 0.733078, -0.0690143, -0.67550457, -0.039081454, 9.951774597167969, -0.4985300302505493, 0.769670844078064, 5.0363850593566895, -2.0902907848358154, -2.627645254135132, -1.062255859375, 0.32373046875, -0.053955078125, 0, 
39, 1765383750, 0.7328111, -0.06863051, -0.6758342, -0.039064616, 9.971283912658691, -0.5031928420066833, 0.7659868001937866, 3.7359001636505127, -2.3726449012756348, -2.0049362182617188, -1.060302734375, 0.329345703125, -0.052734375, 0, 
40, 1765400417, 0.732554, -0.068256825, -0.67615235, -0.03903543, 10.004154205322266, -0.5220327973365784, 0.7780023217201233, 1.949273943901062, -2.227869749069214, -2.0175251960754395, -1.061767578125, 0.327880859375, -0.051513671875, 0, 
41, 1765417084, 0.73232263, -0.0680008, -0.6764243, -0.039113764, 9.991114616394043, -0.5403881669044495, 0.7847282886505127, 1.0657509565353394, -1.9058667421340942, -1.9647117853164673, -1.059814453125, 0.326904296875, -0.05419921875, 0, 
42, 1765433751, 0.73211336, -0.06751814, -0.676714, -0.03885317, 9.965520858764648, -0.5929558277130127, 0.7529823780059814, 3.2063324451446533, -1.9988025426864624, -1.3635306358337402, -1.06201171875, 0.32763671875, -0.0537109375, 0, 
43, 1765450418, 0.73193806, -0.06673619, -0.6770166, -0.038233448, 9.976759910583496, -0.6000664830207825, 0.702612578868866, 5.904566764831543, -1.998021125793457, -1.0025835037231445, -1.06396484375, 0.325927734375, -0.051513671875, 0, 
44, 1765467085, 0.73178965, -0.06586164, -0.67730415, -0.03748804, 9.982450485229492, -0.597392737865448, 0.6751564741134644, 7.37021541595459, -1.8633499145507812, -0.7767949104309082, -1.06201171875, 0.3271484375, -0.049560546875, 0, 
45, 1765483752, 0.73166156, -0.06497809, -0.67757046, -0.0367102, 10.01266098022461, -0.5141116380691528, 0.7205532193183899, 7.58340311050415, -1.6827418804168701, -0.6583489179611206, -1.06005859375, 0.327880859375, -0.050537109375, 0, 
46, 1765500419, 0.7315192, -0.06434723, -0.6778178, -0.036086407, 10.002302169799805, -0.42018717527389526, 0.7208911776542664, 6.52974796295166, -1.709558367729187, -0.17706063389778137, -1.060546875, 0.3271484375, -0.049560546875, 0, 
47, 1765517086, 0.7313369, -0.0638409, -0.6780926, -0.035514288, 9.989192962646484, -0.4196687638759613, 0.6778953671455383, 5.169686794281006, -2.037374973297119, 0.1095006987452507, -1.059326171875, 0.32763671875, -0.0517578125, 0, 
48, 1765533753, 0.73116076, -0.063440554, -0.67834604, -0.035015427, 9.985014915466309, -0.46680986881256104, 0.6522017121315002, 3.6642231941223145, -1.8757845163345337, 0.22306738793849945, -1.060791015625, 0.327392578125, -0.0517578125, 0, 
49, 1765550420, 0.7309999, -0.06329861, -0.6785483, -0.034709666, 9.965861320495605, -0.5135151147842407, 0.7105241417884827, 2.2399520874023438, -1.5640267133712769, 0.5501543283462524, -1.061767578125, 0.32763671875, -0.050048828125, 0, 
50, 1765567087, 0.7308324, -0.06318021, -0.67875636, -0.03438172, 9.962940216064453, -0.5079675912857056, 0.7423797845840454, 2.0759668350219727, -1.6485100984573364, 0.7562853693962097, -1.0595703125, 0.328857421875, -0.048095703125, 0, 
51, 1765583754, 0.73068, -0.063079916, -0.678946, -0.034057338, 9.981942176818848, -0.4670976400375366, 0.7289004921913147, 1.7605723142623901, -1.4999182224273682, 0.8200482726097107, -1.059814453125, 0.32763671875, -0.05126953125, 0, 
52, 1765600421, 0.7305271, -0.0629924, -0.6791344, -0.033740345, 9.974414825439453, -0.46063846349716187, 0.6737851500511169, 1.3254125118255615, -1.5002384185791016, 0.830344557762146, -1.059814453125, 0.32958984375, -0.044677734375, 0, 
53, 1765617088, 0.7304145, -0.062967405, -0.67927176, -0.033462007, 9.998888969421387, -0.48181694746017456, 0.6701471209526062, 1.7311432361602783, -1.1012564897537231, 1.0309560298919678, -1.06103515625, 0.330078125, -0.045166015625, 0, 
54, 1765633755, 0.73038554, -0.06290406, -0.67932135, -0.03320641, 10.016778945922852, -0.47386234998703003, 0.7038940787315369, 1.3871005773544312, -0.23842862248420715, 0.77088463306427, -1.061767578125, 0.3310546875, -0.045166015625, 0, 
55, 1765650422, 0.73038423, -0.06283793, -0.6793404, -0.032972097, 9.9639310836792, -0.49662283062934875, 0.7369003891944885, 1.4087047576904297, 0.03842544928193092, 0.6864395141601562, -1.06201171875, 0.328369140625, -0.04638671875, 0, 
56, 1765667089, 0.7303915, -0.06273027, -0.67935383, -0.032737736, 10.013975143432617, -0.4899492561817169, 0.6941696405410767, 1.8176755905151367, 0.08712799847126007, 0.5132976770401001, -1.059326171875, 0.328125, -0.04736328125, 0, 
57, 1765683756, 0.73048234, -0.06262104, -0.6792742, -0.032569647, 9.983097076416016, -0.48945024609565735, 0.6746801733970642, 1.2879154682159424, 0.9778352975845337, 0.22196604311466217, -1.060302734375, 0.329833984375, -0.046875, 0, 
58, 1765700423, 0.73062295, -0.062491607, -0.67914164, -0.032427896, 9.953108787536621, -0.4883904755115509, 0.6608429551124573, 1.319380521774292, 1.4837883710861206, 0.03549279645085335, -1.05859375, 0.331787109375, -0.042724609375, 0, 
59, 1765717090, 0.7307519, -0.06244186, -0.679009, -0.032394137, 9.93939208984375, -0.5524088144302368, 0.6412997245788574, 2.2024292945861816, 1.371783971786499, -0.007773453835397959, -1.060791015625, 0.329345703125, -0.048583984375, 0, 
60, 1765733757, 0.7309049, -0.062201794, -0.67887664, -0.032183457, 9.945955276489258, -0.5772116184234619, 0.6326473355293274, 2.4994089603424072, 1.5210551023483276, -0.11129999160766602, -1.06396484375, 0.330810546875, -0.046142578125, 0, 
61, 1765750424, 0.7310444, -0.062057745, -0.6787427, -0.032115754, 9.931435585021973, -0.5572130680084229, 0.636117160320282, 2.364481210708618, 1.459059476852417, -0.32074782252311707, -1.059814453125, 0.33056640625, -0.0478515625, 0, 
62, 1765767091, 0.73115855, -0.061828554, -0.6786493, -0.03193347, 9.891075134277344, -0.5403900742530823, 0.5749773383140564, 3.204077959060669, 1.1174372434616089, -0.1780978888273239, -1.05712890625, 0.330322265625, -0.048828125, 0, 
63, 1765783758, 0.7312524, -0.061616935, -0.67857665, -0.0317376, 9.92977523803711, -0.5247060060501099, 0.5713936686515808, 2.667184829711914, 0.9412859678268433, -0.08048790693283081, -1.0576171875, 0.32861328125, -0.049560546875, 0, 
64, 1765800425, 0.7312864, -0.06161298, -0.67854077, -0.031727545, 9.955363273620605, -0.5165192484855652, 0.6319053173065186, 0.6085512638092041, 0.5303045511245728, -0.0840480700135231, -1.056884765625, 0.3310546875, -0.04931640625, 0, 
65, 1765817092, 0.7312625, -0.06165057, -0.6785627, -0.03173498, 9.95862865447998, -0.5307484865188599, 0.644439697265625, 0.07697256654500961, -0.01864604465663433, -0.03191342204809189, -1.05859375, 0.330810546875, -0.048828125, 0, 
66, 1765833759, 0.73119926, -0.0616868, -0.6786255, -0.031779625, 9.922470092773438, -0.5205956697463989, 0.6350306868553162, 0.5019257068634033, -0.41857555508613586, -0.2093069851398468, -1.061767578125, 0.331298828125, -0.04638671875, 0, 
67, 1765850426, 0.7311605, -0.06166672, -0.6786728, -0.03169901, 9.923946380615234, -0.5061155557632446, 0.6293159127235413, 0.14694646000862122, -0.2055162936449051, 0.08035343885421753, -1.0625, 0.32763671875, -0.04541015625, 0, 
68, 1765867093, 0.73110986, -0.061889973, -0.6787, -0.03184909, 9.961793899536133, -0.5575879216194153, 0.6663976311683655, -0.1977684646844864, -0.20610539615154266, 0.20419085025787354, -1.0576171875, 0.328857421875, -0.046630859375, 0, 
69, 1765883760, 0.7310371, -0.061996266, -0.67876744, -0.031876102, 9.916264533996582, -0.6033812761306763, 0.6647525429725647, -0.32492268085479736, -0.4782659113407135, 0.15847216546535492, -1.056640625, 0.327880859375, -0.047119140625, 0, 
70, 1765900427, 0.73092544, -0.062007472, -0.67889047, -0.03179527, 9.904784202575684, -0.5602663159370422, 0.5497273206710815, 0.7166625261306763, -0.9694535732269287, 0.2199810892343521, -1.06201171875, 0.327880859375, -0.048095703125, 0, 
71, 1765917094, 0.7308643, -0.06204131, -0.6789537, -0.031783935, 9.950854301452637, -0.4430665373802185, 0.5768529772758484, 0.23560482263565063, -0.39529356360435486, 0.005513133481144905, -1.059814453125, 0.328125, -0.04638671875, 0, 
72, 1765933761, 0.7308709, -0.062381074, -0.6789022, -0.032066807, 9.916003227233887, -0.4343087077140808, 0.6320874691009521, -1.89560866355896, 0.5265009999275208, 0.08157004415988922, -1.059814453125, 0.330078125, -0.04443359375, 0, 
73, 1765950428, 0.7308575, -0.06270777, -0.67887455, -0.03231807, 9.921594619750977, -0.5502230525016785, 0.627154529094696, -2.577393054962158, 0.3469560146331787, 0.11268946528434753, -1.061279296875, 0.32763671875, -0.04345703125, 0, 
74, 1765967095, 0.7308313, -0.06303166, -0.67886084, -0.032569163, 9.930212020874023, -0.7113861441612244, 0.5719109773635864, -0.45831358432769775, 0.11901580542325974, 0.23664212226867676, -1.05908203125, 0.328369140625, -0.040283203125, 0, 
75, 1765983762, 0.73085976, -0.06285566, -0.6788606, -0.032273866, 9.956147193908691, -0.7300854921340942, 0.5236990451812744, 2.4099183082580566, 0.29497507214546204, 0.4776448607444763, -1.05712890625, 0.3291015625, -0.04345703125, 0, 
76, 1766000429, 0.7309452, -0.0626067, -0.67880875, -0.03191239, 9.96615219116211, -0.6045560836791992, 0.5617257356643677, 3.937063217163086, 0.7812963128089905, 0.5435848236083984, -1.060546875, 0.329345703125, -0.04345703125, 0, 
77, 1766017096, 0.7310196, -0.06250826, -0.6787466, -0.031721223, 9.966559410095215, -0.47164949774742126, 0.5865178108215332, 2.584315061569214, 0.8178455233573914, 0.4000895917415619, -1.061767578125, 0.331298828125, -0.04638671875, 0, 
78, 1766033763, 0.7310889, -0.062472146, -0.6786829, -0.03155886, 9.984296798706055, -0.5014048218727112, 0.5778040289878845, 1.4948662519454956, 0.8373368978500366, 0.5072147250175476, -1.05908203125, 0.328125, -0.045166015625, 0, 
79, 1766050430, 0.73115736, -0.062466223, -0.67861456, -0.03145392, 9.998517990112305, -0.5792224407196045, 0.5643541216850281, 1.1142996549606323, 0.87996906042099, 0.368150532245636, -1.05859375, 0.329833984375, -0.046142578125, 0, 
80, 1766067097, 0.73122483, -0.06250697, -0.67853963, -0.031419978, 9.98353385925293, -0.5820591449737549, 0.655154287815094, 0.5031550526618958, 0.9393136501312256, 0.2254621684551239, -1.060302734375, 0.33056640625, -0.045166015625, 0, 
81, 1766083764, 0.73125434, -0.06257142, -0.6785044, -0.03136512, 9.94751262664795, -0.5875102877616882, 0.6451117396354675, 0.8595685362815857, 0.529164731502533, 0.43868789076805115, -1.059326171875, 0.327880859375, -0.044677734375, 0, 
82, 1766100431, 0.7313183, -0.06260816, -0.6784354, -0.03129347, 9.995975494384766, -0.5615184307098389, 0.6387045979499817, 0.8688020706176758, 0.868597149848938, 0.39667028188705444, -1.057373046875, 0.330810546875, -0.0439453125, 0, 
83, 1766117098, 0.73142785, -0.062718004, -0.67830324, -0.03137835, 9.983969688415527, -0.5660043954849243, 0.7008342742919922, -0.26861315965652466, 1.4548206329345703, -0.018056953325867653, -1.056640625, 0.3310546875, -0.044189453125, 0, 
84, 1766133765, 0.73149705, -0.062894076, -0.67820376, -0.031562697, 9.96674919128418, -0.604703426361084, 0.7204316258430481, -0.6625492572784424, 1.1054633855819702, -0.20376183092594147, -1.059326171875, 0.328369140625, -0.044677734375, 0, 
85, 1766150432, 0.73156434, -0.06302846, -0.67811006, -0.031747922, 9.9572172164917, -0.5702417492866516, 0.7101752758026123, -0.3030494451522827, 1.0648671388626099, -0.39946845173835754, -1.059326171875, 0.32763671875, -0.043212890625, 0, 
86, 1766167099, 0.73165625, -0.06306047, -0.6780058, -0.031794112, 9.9254150390625, -0.5904714465141296, 0.6502514481544495, 0.7947813272476196, 1.1937118768692017, -0.17517805099487305, -1.06103515625, 0.32861328125, -0.0439453125, 0, 
87, 1766183766, 0.7317092, -0.06299627, -0.6779602, -0.03167361, 9.91811466217041, -0.6544625759124756, 0.5677615404129028, 2.0815377235412598, 0.6660390496253967, 0.17999966442584991, -1.059326171875, 0.330078125, -0.044189453125, 0, 
88, 1766200433, 0.7317703, -0.062827915, -0.67791814, -0.031495284, 9.935373306274414, -0.6941069960594177, 0.5638138651847839, 2.159797430038452, 0.7283163070678711, -0.07806751132011414, -1.0576171875, 0.329345703125, -0.045166015625, 0, 
89, 1766217100, 0.7318198, -0.062659115, -0.67788774, -0.031334393, 9.90682601928711, -0.697831392288208, 0.5546765327453613, 2.5845327377319336, 0.6074116230010986, -0.15021848678588867, -1.053955078125, 0.3291015625, -0.04541015625, 0, 
90, 1766233767, 0.7318128, -0.062449273, -0.67792666, -0.031076219, 9.916386604309082, -0.652392566204071, 0.483446329832077, 3.235607385635376, -0.028199579566717148, 0.09139250963926315, -1.0595703125, 0.328125, -0.046875, 0, 
91, 1766250434, 0.7317598, -0.062226914, -0.67801946, -0.030742763, 9.906878471374512, -0.6821434497833252, 0.47169896960258484, 3.3610973358154297, -0.5138420462608337, 0.3503497540950775, -1.058837890625, 0.32861328125, -0.045654296875, 0, 
92, 1766267101, 0.73167276, -0.062018253, -0.6781495, -0.030367145, 9.905817985534668, -0.7231624722480774, 0.5117955207824707, 3.3558590412139893, -0.85761559009552, 0.5815171003341675, -1.056884765625, 0.330078125, -0.046630859375, 0, 
93, 1766283768, 0.73157287, -0.061898917, -0.67828184, -0.0300601, 9.947182655334473, -0.707273006439209, 0.5998288989067078, 2.771083116531372, -0.9164608120918274, 0.6479565501213074, -1.054931640625, 0.328857421875, -0.043212890625, 0, 
94, 1766300435, 0.7314332, -0.061969344, -0.6784319, -0.02992148, 9.937508583068848, -0.5825465321540833, 0.6411350965499878, 1.3942208290100098, -1.1729592084884644, 0.684864342212677, -1.055419921875, 0.33349609375, -0.044677734375, 0, 
95, 1766317102, 0.7313004, -0.062224153, -0.6785505, -0.02995337, 9.993376731872559, -0.4985712766647339, 0.6505841016769409, -0.32000505924224854, -0.9466454386711121, 0.7011412978172302, -1.058349609375, 0.328857421875, -0.04345703125, 0, 
96, 1766333769, 0.7312458, -0.062562965, -0.6785711, -0.030114679, 9.95695686340332, -0.4672020971775055, 0.7079347372055054, -1.9655312299728394, -0.020182806998491287, 0.45970311760902405, -1.05810546875, 0.3291015625, -0.0439453125, 0, 
97, 1766350436, 0.73124015, -0.062977985, -0.6785277, -0.030361256, 9.931145668029785, -0.5035078525543213, 0.7099850177764893, -2.474839925765991, 0.5325712561607361, 0.4525187611579895, -1.05859375, 0.331787109375, -0.044189453125, 0, 
98, 1766367103, 0.73129815, -0.06332295, -0.67842424, -0.030562103, 9.943865776062012, -0.6093248128890991, 0.6774585843086243, -1.7938364744186401, 1.1178215742111206, 0.40647995471954346, -1.059326171875, 0.330322265625, -0.041259765625, 0, 
99, 1766383770, 0.731496, -0.0633145, -0.6782119, -0.030555036, 9.984607696533203, -0.6396968960762024, 0.7443434000015259, 1.2468069791793823, 2.2854018211364746, -0.10487119108438492, -1.060302734375, 0.327880859375, -0.041015625, 0, 
100, 1766400437, 0.7317642, -0.06331794, -0.67791533, -0.030706493, 9.955174446105957, -0.5197030901908875, 0.7839125394821167, 2.220384120941162, 3.0063486099243164, -0.672115683555603, -1.060302734375, 0.328125, -0.043701171875, 0, 
101, 1766417104, 0.73209214, -0.06319445, -0.6775697, -0.03077412, 9.987524032592773, -0.4524073302745819, 0.7181204557418823, 0.7782099843025208, 3.641838550567627, -0.9843986630439758, -1.057373046875, 0.329345703125, -0.041259765625, 0, 
102, 1766433771, 0.7325752, -0.063352846, -0.6770106, -0.031257346, 10.012895584106445, -0.34602054953575134, 0.8234729170799255, -1.947794795036316, 5.525844097137451, -1.5833643674850464, -1.06103515625, 0.328125, -0.0439453125, 0, 
103, 1766450438, 0.7331588, -0.06370614, -0.67630756, -0.03206219, 9.993246078491211, -0.32508590817451477, 0.8742992877960205, -4.501560211181641, 6.8131256103515625, -2.1998109817504883, -1.060546875, 0.33154296875, -0.04736328125, 0, 
104, 1766467105, 0.73377764, -0.06404635, -0.6755628, -0.03291361, 9.921079635620117, -0.43821588158607483, 0.7543197274208069, -4.610300540924072, 7.197176933288574, -2.446974039077759, -1.059814453125, 0.325439453125, -0.04833984375, 0, 
105, 1766483772, 0.7344013, -0.064034395, -0.67486537, -0.03333314, 9.87965202331543, -0.6868253946304321, 0.6179259419441223, -1.4345289468765259, 6.899133205413818, -1.964212417602539, -1.061767578125, 0.327392578125, -0.046630859375, 0, 
106, 1766500439, 0.7350744, -0.063694686, -0.6741598, -0.033426464, 9.929689407348633, -0.8166277408599854, 0.5687800049781799, 2.6672234535217285, 7.067408561706543, -1.759003758430481, -1.062255859375, 0.324951171875, -0.05517578125, 0, 
107, 1766517106, 0.73583746, -0.06317063, -0.6733751, -0.033446338, 9.989006996154785, -0.6515305042266846, 0.7202098965644836, 3.7847700119018555, 7.918890476226807, -2.222222328186035, -1.05908203125, 0.32421875, -0.055908203125, 0, 
108, 1766533773, 0.73660356, -0.06263755, -0.6725832, -0.03352384, 9.956195831298828, -0.46659958362579346, 0.8173695802688599, 3.2092018127441406, 8.01970386505127, -2.5892398357391357, -1.06201171875, 0.325439453125, -0.05859375, 0, 
109, 1766550440, 0.73726255, -0.06204969, -0.67192096, -0.03341008, 9.915475845336914, -0.4881073832511902, 0.6470829844474792, 4.4220662117004395, 6.795711040496826, -1.9431209564208984, -1.0595703125, 0.32373046875, -0.061279296875, 0, 
110, 1766567107, 0.7378044, -0.06145093, -0.6713972, -0.03308144, 9.927864074707031, -0.6991944313049316, 0.4833107888698578, 5.40047025680542, 5.478269100189209, -0.9924538135528564, -1.057861328125, 0.323486328125, -0.066162109375, 0, 
111, 1766583774, 0.7382701, -0.060755767, -0.6709743, -0.032551643, 9.967947006225586, -0.8201923370361328, 0.4298434257507324, 6.388237953186035, 4.59993314743042, -0.530375063419342, -1.0595703125, 0.325927734375, -0.06494140625, 0, 
112, 1766600441, 0.7386291, -0.060116768, -0.67066556, -0.031952396, 10.040265083312988, -0.751671314239502, 0.5032367706298828, 7.594841003417969, 3.463139057159424, 0.09738592803478241, -1.05908203125, 0.32666015625, -0.06591796875, 0, 
113, 1766617108, 0.738854, -0.059591487, -0.6704899, -0.03141728, 10.0794038772583, -0.6396587491035461, 0.5311003923416138, 6.427346706390381, 2.209972620010376, 0.16981862485408783, -1.05712890625, 0.328125, -0.06689453125, 0, 
114, 1766633775, 0.7388933, -0.059286334, -0.67049587, -0.030940622, 10.016214370727539, -0.6305708885192871, 0.44478294253349304, 4.517319202423096, 0.45657846331596375, 0.7181225419044495, -1.05810546875, 0.327880859375, -0.066650390625, 0, 
115, 1766650442, 0.7387277, -0.059146825, -0.6707158, -0.030390201, 10.026338577270508, -0.7793185114860535, 0.3676069676876068, 4.410449028015137, -1.630286693572998, 1.7573961019515991, -1.059326171875, 0.327880859375, -0.071533203125, 0, 
116, 1766667109, 0.7385086, -0.05884511, -0.6710199, -0.029575482, 10.043339729309082, -0.8677421808242798, 0.4956032633781433, 5.807635307312012, -2.3107523918151855, 2.2249436378479004, -1.056396484375, 0.3291015625, -0.068603515625, 0, 
117, 1766683776, 0.7382285, -0.058707446, -0.67136836, -0.028926311, 9.986943244934082, -0.7048290967941284, 0.7092910408973694, 4.348876476287842, -2.7664406299591064, 2.099735736846924, -1.056640625, 0.33203125, -0.06591796875, 0, 
118, 1766700443, 0.7379123, -0.058870718, -0.6717168, -0.028572468, 9.992423057556152, -0.43173500895500183, 0.8727160692214966, 1.33473539352417, -2.858428716659546, 1.9615933895111084, -1.0537109375, 0.3330078125, -0.06640625, 0, 
119, 1766717110, 0.7376932, -0.059426587, -0.6719042, -0.02867621, 9.980066299438477, -0.2592313885688782, 1.0166645050048828, -2.627734422683716, -1.494795322418213, 1.556298017501831, -1.053955078125, 0.331787109375, -0.066162109375, 0, 
120, 1766733777, 0.7375831, -0.060213063, -0.67193997, -0.029024633, 9.920928001403809, -0.3194534182548523, 1.1090351343154907, -4.5673980712890625, -0.19834478199481964, 1.515535593032837, -1.059814453125, 0.3310546875, -0.06103515625, 0, 
121, 1766750444, 0.7375385, -0.060715813, -0.6719394, -0.029124487, 9.847987174987793, -0.514732301235199, 1.097267746925354, -2.6109073162078857, 0.2565816044807434, 1.4531301259994507, -1.056640625, 0.330078125, -0.06494140625, 0, 
122, 1766767111, 0.7375075, -0.060679, -0.67199516, -0.028695513, 9.853663444519043, -0.7978882789611816, 0.9285856485366821, 2.9356954097747803, -0.11748544126749039, 1.6536904573440552, -1.054931640625, 0.333984375, -0.061767578125, 0, 
123, 1766783778, 0.73757493, -0.060075406, -0.6720118, -0.027829647, 9.933303833007812, -0.7690290808677673, 0.8512997627258301, 8.655102729797363, 0.41698119044303894, 1.3411259651184082, -1.05615234375, 0.33203125, -0.061279296875, 0, 
124, 1766800445, 0.7377279, -0.059159156, -0.6719696, -0.026737342, 9.961589813232422, -0.5744609236717224, 0.9246025085449219, 10.169890403747559, 1.1330870389938354, 0.9671934247016907, -1.05810546875, 0.3330078125, -0.062744140625, 0, 
125, 1766817112, 0.73783576, -0.058561508, -0.6719343, -0.025953123, 9.980627059936523, -0.39796775579452515, 0.9100490212440491, 7.511021614074707, 0.9301829934120178, 0.899691104888916, -1.056396484375, 0.333984375, -0.05908203125, 0, 
126, 1766833779, 0.73787475, -0.05857847, -0.6718975, -0.025754886, 9.988652229309082, -0.3926456868648529, 0.8423886895179749, 2.626845121383667, 0.6896668076515198, 0.8561109900474548, -1.05419921875, 0.33544921875, -0.063232421875, 0, 
127, 1766850446, 0.7378337, -0.058839757, -0.67192036, -0.02574295, 9.944894790649414, -0.547703742980957, 0.7449784874916077, -0.2686900198459625, 0.08974049240350723, 0.9409016966819763, -1.0546875, 0.335205078125, -0.062255859375, 0, 
128, 1766867113, 0.7377437, -0.059278432, -0.67197365, -0.02591627, 9.93696117401123, -0.6774781346321106, 0.7333129048347473, -2.048119306564331, -0.24109236896038055, 0.8014277815818787, -1.0537109375, 0.3349609375, -0.064453125, 0, 
129, 1766883780, 0.737633, -0.059793964, -0.6720407, -0.02615093, 9.926556587219238, -0.6723611950874329, 0.74071204662323, -2.939211130142212, -0.376289039850235, 0.8078951239585876, -1.057373046875, 0.335205078125, -0.061279296875, 0, 
130, 1766900447, 0.737486, -0.06032528, -0.67214453, -0.0264013, 9.95941162109375, -0.6269034743309021, 0.6963566541671753, -3.0259995460510254, -0.7235843539237976, 0.7809760570526123, -1.06103515625, 0.333740234375, -0.06103515625, 0, 
131, 1766917114, 0.7373282, -0.060848106, -0.67225933, -0.026687374, 9.952181816101074, -0.6733236908912659, 0.7082545757293701, -3.174617052078247, -0.801959216594696, 0.5488353371620178, -1.056640625, 0.33740234375, -0.0595703125, 0, 
132, 1766933781, 0.7371938, -0.061132103, -0.6723748, -0.02683931, 9.935979843139648, -0.7210893034934998, 0.6959351301193237, -1.1100480556488037, -0.7129871845245361, 0.14247065782546997, -1.056884765625, 0.3359375, -0.060791015625, 0, 
133, 1766950448, 0.7370901, -0.06114842, -0.6724907, -0.026743855, 9.926436424255371, -0.656656801700592, 0.6576623916625977, 1.2364466190338135, -0.6110422015190125, 0.14037680625915527, -1.056396484375, 0.33544921875, -0.05712890625, 0, 
134, 1766967115, 0.73704696, -0.061166745, -0.6725375, -0.026718566, 9.959993362426758, -0.5327233672142029, 0.7419443130493164, 1.1956713199615479, 0.04498230665922165, -0.14450685679912567, -1.056396484375, 0.332763671875, -0.057861328125, 0, 
135, 1766983782, 0.73705035, -0.06132572, -0.67251134, -0.02691928, 9.990679740905762, -0.48725029826164246, 0.8410745859146118, -0.6975233554840088, 0.7107843160629272, -0.6097230315208435, -1.05712890625, 0.334716796875, -0.05712890625, 0, 
136, 1767000449, 0.7371117, -0.061691664, -0.67239004, -0.027426224, 9.97321891784668, -0.48923206329345703, 0.8441427946090698, -2.714561700820923, 1.5271251201629639, -1.1065964698791504, -1.055908203125, 0.3349609375, -0.05712890625, 0, 
137, 1767017116, 0.73725957, -0.0619567, -0.67218226, -0.02794322, 9.956353187561035, -0.5186194181442261, 0.8392181396484375, -3.0095176696777344, 2.4298832416534424, -1.6332064867019653, -1.05859375, 0.330322265625, -0.057861328125, 0, 
138, 1767033783, 0.7374984, -0.062168546, -0.6718762, -0.02852531, 9.919562339782715, -0.5389271974563599, 0.9197320342063904, -2.846877098083496, 3.3764259815216064, -2.1286585330963135, -1.056396484375, 0.33154296875, -0.05810546875, 0, 
139, 1767050450, 0.737815, -0.062146734, -0.6715112, -0.028981902, 9.864225387573242, -0.5944938063621521, 0.8432931900024414, -0.9552255272865295, 4.016346454620361, -2.5179331302642822, -1.0625, 0.328369140625, -0.06005859375, 0, 
140, 1767067117, 0.73816735, -0.06180044, -0.67114866, -0.029147182, 9.831300735473633, -0.6533836722373962, 0.7553156018257141, 1.8208264112472534, 4.120373249053955, -2.5547006130218506, -1.0595703125, 0.329833984375, -0.06005859375, 0, 
141, 1767083784, 0.7385381, -0.061309293, -0.6707835, -0.02919255, 9.898396492004395, -0.6717373728752136, 0.6607481837272644, 3.6154184341430664, 4.176669597625732, -2.5686593055725098, -1.0576171875, 0.329345703125, -0.059814453125, 0, 
142, 1767100451, 0.7389542, -0.060720738, -0.67038095, -0.029139776, 10.008050918579102, -0.6236528158187866, 0.6442698836326599, 3.9236550331115723, 4.600650310516357, -2.5622692108154297, -1.05712890625, 0.330078125, -0.065185546875, 0, 
143, 1767117118, 0.7394329, -0.060296066, -0.6698863, -0.029254122, 10.058177947998047, -0.5802324414253235, 0.5474092960357666, 2.7577903270721436, 5.38693380355835, -2.5680832862854004, -1.060302734375, 0.325439453125, -0.0654296875, 0, 
144, 1767133785, 0.7399638, -0.05972938, -0.6693452, -0.029375752, 9.92689323425293, -0.7049769759178162, 0.3552986681461334, 3.293684959411621, 5.927311420440674, -3.2454497814178467, -1.057861328125, 0.32763671875, -0.0673828125, 0, 
145, 1767150452, 0.7405947, -0.058676623, -0.66874826, -0.029199373, 9.81428050994873, -0.9673933386802673, 0.25005900859832764, 7.1511383056640625, 6.682067394256592, -3.9360971450805664, -1.0625, 0.32861328125, -0.070556640625, 0, 
146, 1767167119, 0.74132204, -0.057035387, -0.6681121, -0.028548181, 9.75361156463623, -1.1053953170776367, 0.331981897354126, 12.22877311706543, 7.300232410430908, -4.230440139770508, -1.058349609375, 0.329345703125, -0.073486328125, 0, 
147, 1767183786, 0.74213773, -0.054869145, -0.6674325, -0.02747754, 9.713935852050781, -1.040558934211731, 0.46648064255714417, 16.50119972229004, 7.91791296005249, -4.545337677001953, -1.0595703125, 0.3291015625, -0.081298828125, 0, 
148, 1767200453, 0.7430072, -0.052647557, -0.6666854, -0.026445659, 9.734686851501465, -0.7965663075447083, 0.4993438422679901, 17.10260009765625, 8.541007041931152, -4.947457790374756, -1.0537109375, 0.331787109375, -0.0830078125, 0, 
149, 1767217120, 0.7439419, -0.050448988, -0.66585064, -0.025464077, 9.68752384185791, -0.6705138087272644, 0.5281156897544861, 16.196447372436523, 9.35186767578125, -5.136057376861572, -1.056884765625, 0.33154296875, -0.08935546875, 0, 
150, 1767233787, 0.7449166, -0.048580598, -0.66492206, -0.024856994, 9.676201820373535, -0.6732529401779175, 0.7222244739532471, 13.69189167022705, 10.076604843139648, -5.415606498718262, -1.055419921875, 0.33154296875, -0.0927734375, 0, 
151, 1767250454, 0.74590623, -0.047195327, -0.6639135, -0.02480923, 9.73767375946045, -0.6167545914649963, 1.1397067308425903, 10.042525291442871, 10.620475769042969, -5.897047996520996, -1.054443359375, 0.332275390625, -0.097900390625, 0, 
152, 1767267121, 0.74672407, -0.045919318, -0.6630843, -0.024784783, 9.834015846252441, -0.4723567068576813, 1.4857683181762695, 6.715364456176758, 8.99827766418457, -5.916447162628174, -1.054443359375, 0.331787109375, -0.102294921875, 0, 
153, 1767283788, 0.7472784, -0.045247614, -0.66249156, -0.025155392, 9.932464599609375, -0.3700924813747406, 1.5306570529937744, 2.318955421447754, 6.5571417808532715, -5.247467517852783, -1.05615234375, 0.331787109375, -0.10009765625, 0, 
154, 1767300455, 0.7476466, -0.045171257, -0.6620492, -0.02598215, 10.009552001953125, -0.3178993761539459, 1.5188367366790771, -2.277968168258667, 4.928415298461914, -4.884303569793701, -1.054443359375, 0.3291015625, -0.1083984375, 0, 
155, 1767317122, 0.7478986, -0.04556304, -0.66169214, -0.027118037, 10.075922012329102, -0.23279054462909698, 1.6135914325714111, -6.7890448570251465, 3.9724090099334717, -4.46570348739624, -1.05859375, 0.324951171875, -0.106201171875, 0, 
156, 1767333789, 0.7479747, -0.04649278, -0.66148007, -0.028573852, 10.121854782104492, -0.25451576709747314, 1.64866304397583, -10.998214721679688, 2.396357536315918, -3.722808361053467, -1.05712890625, 0.324951171875, -0.107666015625, 0, 
157, 1767350456, 0.7477207, -0.047837973, -0.6615991, -0.030195907, 10.183581352233887, -0.29420867562294006, 1.549037218093872, -13.718042373657227, -0.8711397051811218, -2.822777271270752, -1.060302734375, 0.323974609375, -0.107177734375, 0, 
158, 1767367123, 0.7471709, -0.04932306, -0.66203916, -0.031739287, 10.233586311340332, -0.36284345388412476, 1.455736517906189, -14.486235618591309, -3.932884454727173, -1.9868813753128052, -1.06494140625, 0.31884765625, -0.10400390625, 0, 
159, 1767383790, 0.7463543, -0.05103118, -0.66275036, -0.03336543, 10.18700885772705, -0.3924520015716553, 1.3350193500518799, -14.98153305053711, -6.610771179199219, -1.417561650276184, -1.064208984375, 0.31787109375, -0.098388671875, 0, 
160, 1767400457, 0.7453471, -0.052800506, -0.66367066, -0.034807608, 10.138760566711426, -0.3482358157634735, 1.2146810293197632, -15.32598876953125, -8.612969398498535, -0.4109433591365814, -1.0634765625, 0.314208984375, -0.091064453125, 0, 
161, 1767417124, 0.74427533, -0.054750156, -0.6646342, -0.036309563, 10.099530220031738, -0.37863191962242126, 1.1440761089324951, -15.490628242492676, -9.191767692565918, 0.1964944452047348, -1.067138671875, 0.310546875, -0.088623046875, 0, 
162, 1767433791, 0.7431119, -0.056603644, -0.66570616, -0.037633587, 10.08228588104248, -0.5428274869918823, 1.098999261856079, -12.849980354309082, -10.256869316101074, 0.7486406564712524, -1.066162109375, 0.3095703125, -0.0849609375, 0, 
163, 1767450458, 0.74196047, -0.057844535, -0.66684365, -0.038322017, 10.06705093383789, -0.5265488028526306, 0.9933785796165466, -9.576952934265137, -10.53234577178955, 0.8583269119262695, -1.0693359375, 0.31005859375, -0.077880859375, 0, 
164, 1767467125, 0.74078536, -0.059146583, -0.66799635, -0.03898576, 9.985576629638672, -0.3190213143825531, 0.9206085205078125, -7.521238803863525, -10.823626518249512, 1.4797300100326538, -1.06982421875, 0.306884765625, -0.074462890625, 0, 
165, 1767483792, 0.73961955, -0.060381077, -0.6691581, -0.03930112, 9.945514678955078, -0.24181486666202545, 0.8997801542282104, -6.636329650878906, -10.908581733703613, 2.8361401557922363, -1.072265625, 0.305908203125, -0.07080078125, 0, 
166, 1767500459, 0.73851144, -0.061710604, -0.6702484, -0.039497815, 9.971635818481445, -0.3230704665184021, 0.8526430130004883, -6.752805233001709, -10.348420143127441, 3.9127588272094727, -1.072509765625, 0.304931640625, -0.062744140625, 0, 
167, 1767517126, 0.7374704, -0.06297758, -0.6712736, -0.039538406, 9.9575834274292, -0.5071942806243896, 0.8112269639968872, -5.723480701446533, -9.754447937011719, 4.466236591339111, -1.0654296875, 0.30615234375, -0.06005859375, 0, 
168, 1767533793, 0.7364968, -0.06384162, -0.67228407, -0.03913022, 9.95258617401123, -0.6597355008125305, 0.7516523003578186, -1.696854829788208, -9.446455001831055, 4.890805244445801, -1.072021484375, 0.3056640625, -0.0546875, 0, 
169, 1767550460, 0.7356235, -0.06426065, -0.67324984, -0.03825431, 9.992981910705566, -0.5089321732521057, 0.7755609750747681, 1.9134807586669922, -8.80363941192627, 5.163003444671631, -1.072509765625, 0.307373046875, -0.05517578125, 0, 
170, 1767567127, 0.7348123, -0.06475763, -0.67413795, -0.037357327, 9.98009967803955, -0.41924619674682617, 0.7011897563934326, 2.9310991764068604, -8.209757804870605, 5.789170265197754, -1.06982421875, 0.310302734375, -0.044189453125, 0, 
171, 1767583794, 0.7341024, -0.06533483, -0.67490363, -0.036472082, 9.997323989868164, -0.4271813631057739, 0.6151571273803711, 2.125169515609741, -7.119436264038086, 6.154394149780273, -1.06982421875, 0.3095703125, -0.04296875, 0, 
172, 1767600461, 0.73350364, -0.06607719, -0.6755217, -0.035732795, 10.033071517944336, -0.44238409399986267, 0.6944451928138733, 0.6778723001480103, -5.829681873321533, 6.286414623260498, -1.068115234375, 0.3134765625, -0.041259765625, 0, 
173, 1767617128, 0.73295355, -0.06694579, -0.67606467, -0.035127655, 10.030717849731445, -0.46535906195640564, 0.731634795665741, -0.7991676330566406, -5.183255195617676, 6.23007869720459, -1.069091796875, 0.3154296875, -0.0390625, 0, 
174, 1767633795, 0.73242563, -0.06787542, -0.67657006, -0.034621958, 10.031656265258789, -0.44878727197647095, 0.7676532864570618, -1.6004739999771118, -4.860407829284668, 6.036434173583984, -1.06884765625, 0.31494140625, -0.034912109375, 0, 
175, 1767650462, 0.73191214, -0.06893343, -0.67703635, -0.03427817, 10.042675971984863, -0.3992011249065399, 0.7727872133255005, -3.261457920074463, -4.542438507080078, 5.8283820152282715, -1.067626953125, 0.3154296875, -0.034423828125, 0, 
176, 1767667129, 0.7314321, -0.070081376, -0.6774494, -0.034029488, 10.025744438171387, -0.49041393399238586, 0.7212891578674316, -3.938401460647583, -4.114130020141602, 5.828701972961426, -1.068115234375, 0.315185546875, -0.029052734375, 0, 
177, 1767683796, 0.7310169, -0.07112685, -0.6777999, -0.033803444, 10.003920555114746, -0.59036785364151, 0.6411096453666687, -3.6683661937713623, -3.456190824508667, 5.27824592590332, -1.06982421875, 0.316162109375, -0.029541015625, 0, 
178, 1767700463, 0.73069817, -0.07200176, -0.6780629, -0.03356586, 9.941357612609863, -0.6486555337905884, 0.5922877788543701, -2.664207696914673, -2.5371944904327393, 4.61426305770874, -1.0673828125, 0.31640625, -0.027587890625, 0, 
179, 1767717130, 0.7304838, -0.072670944, -0.67823434, -0.033331003, 9.909675598144531, -0.623332679271698, 0.5721455812454224, -1.5875648260116577, -1.540219783782959, 3.7112226486206055, -1.06884765625, 0.318115234375, -0.0244140625, 0, 
180, 1767733797, 0.7303507, -0.07318243, -0.67833644, -0.033047546, 9.885205268859863, -0.5912054777145386, 0.5490898489952087, -0.6833084225654602, -0.7902671098709106, 3.2656257152557373, -1.066650390625, 0.318115234375, -0.024169921875, 0, 
181, 1767750464, 0.73024935, -0.073533386, -0.6784236, -0.032717317, 9.881089210510254, -0.6136430501937866, 0.4941037893295288, 0.40504565834999084, -0.5535032749176025, 2.774322748184204, -1.0673828125, 0.3193359375, -0.024169921875, 0, 
182, 1767767131, 0.7302152, -0.0737178, -0.6784553, -0.032400876, 9.8915433883667, -0.6416319012641907, 0.5404582619667053, 1.2141125202178955, 0.08799883723258972, 1.975309133529663, -1.068603515625, 0.31787109375, -0.02294921875, 0, 
183, 1767783798, 0.73023087, -0.073830195, -0.6784384, -0.032146983, 9.870433807373047, -0.6471337080001831, 0.5913425087928772, 1.294869303703308, 0.6161966919898987, 1.3634471893310547, -1.06396484375, 0.322021484375, -0.020751953125, 0, 
184, 1767800465, 0.73026824, -0.07393417, -0.6783934, -0.032006525, 9.866146087646484, -0.6288853287696838, 0.6287182569503784, 0.8201377987861633, 0.9178246259689331, 0.7764169573783875, -1.0634765625, 0.322509765625, -0.024658203125, 0, 
185, 1767817132, 0.7303472, -0.07413557, -0.6782817, -0.032106694, 9.870672225952148, -0.5890567302703857, 0.6605749130249023, -0.723853349685669, 1.5433509349822998, 0.07346362620592117, -1.062255859375, 0.3193359375, -0.023193359375, 0, 
186, 1767833799, 0.73041236, -0.07435093, -0.67817885, -0.032298796, 9.867616653442383, -0.5382382273674011, 0.6947323083877563, -1.2463266849517822, 1.4766297340393066, -0.32644665241241455, -1.06591796875, 0.318359375, -0.020263671875, 0, 
187, 1767850466, 0.730494, -0.07452132, -0.6780612, -0.032526616, 9.87152099609375, -0.5638298988342285, 0.6733025908470154, -1.6273797750473022, 1.6803531646728516, -0.7249162793159485, -1.066162109375, 0.31982421875, -0.022216796875, 0, 
188, 1767867133, 0.7305767, -0.074668415, -0.6779431, -0.03279381, 9.858231544494629, -0.6133031845092773, 0.5605018138885498, -1.303404688835144, 1.6834266185760498, -0.9977426528930664, -1.069091796875, 0.31787109375, -0.0224609375, 0, 
189, 1767883800, 0.7307054, -0.07472988, -0.677784, -0.033074353, 9.88481330871582, -0.617949366569519, 0.5499399900436401, -0.96909499168396, 2.1367969512939453, -1.4308151006698608, -1.065673828125, 0.318115234375, -0.022216796875, 0, 
190, 1767900467, 0.7308894, -0.07475934, -0.6775659, -0.03341288, 9.888740539550781, -0.6268822550773621, 0.5770469903945923, -1.0100241899490356, 2.7296929359436035, -1.8202307224273682, -1.06591796875, 0.318115234375, -0.02294921875, 0, 
191, 1767917134, 0.7310998, -0.07462262, -0.6773409, -0.03367578, 9.883944511413574, -0.6561576128005981, 0.5780287981033325, 0.1794617623090744, 2.8893749713897705, -2.2018980979919434, -1.068359375, 0.317138671875, -0.025146484375, 0, 
192, 1767933801, 0.73130053, -0.074498214, -0.67712194, -0.03399257, 9.903568267822266, -0.6317989230155945, 0.5469580888748169, -0.1061902567744255, 2.840787887573242, -2.4178903102874756, -1.069091796875, 0.317626953125, -0.025390625, 0, 
193, 1767950468, 0.7315068, -0.07427019, -0.67691314, -0.034211278, 9.905266761779785, -0.657174825668335, 0.523263692855835, 0.8303957581520081, 2.798168182373047, -2.410705804824829, -1.067626953125, 0.316650390625, -0.025634765625, 0, 
194, 1767967135, 0.7317191, -0.07407425, -0.67669266, -0.03445955, 9.928314208984375, -0.5842264294624329, 0.568519115447998, 0.5710031390190125, 2.8957910537719727, -2.39967942237854, -1.068115234375, 0.31689453125, -0.0244140625, 0, 
195, 1767983802, 0.7319495, -0.073845156, -0.67645663, -0.03469208, 9.97730827331543, -0.6008539795875549, 0.642535388469696, 0.4070819318294525, 3.0883476734161377, -2.4883763790130615, -1.06884765625, 0.311279296875, -0.028076171875, 0, 
196, 1768000469, 0.73217046, -0.07371137, -0.6762138, -0.035044905, 10.011466979980469, -0.5748911499977112, 0.6553165316581726, -0.28555601835250854, 3.097414493560791, -2.6193857192993164, -1.068603515625, 0.31298828125, -0.02978515625, 0, 
197, 1768017136, 0.73236233, -0.07361363, -0.6759965, -0.03543002, 10.003596305847168, -0.5850312113761902, 0.6593915224075317, -0.5877475738525391, 2.839123249053955, -2.627671241760254, -1.06494140625, 0.312744140625, -0.03173828125, 0, 
198, 1768033803, 0.7325526, -0.07351799, -0.6757814, -0.035797887, 10.023042678833008, -0.619440495967865, 0.6550182700157166, -0.39727863669395447, 2.8045973777770996, -2.51902174949646, -1.0703125, 0.3115234375, -0.0322265625, 0, 
199, 1768050470, 0.73278123, -0.07328321, -0.675547, -0.036024112, 9.980535507202148, -0.6674453616142273, 0.671110987663269, 0.9466263651847839, 3.0481231212615967, -2.4335780143737793, -1.070068359375, 0.30908203125, -0.030517578125, 0, 
200, 1768067137, 0.73299915, -0.0728458, -0.67535484, -0.036075488, 9.95388412475586, -0.7079012989997864, 0.6089707016944885, 2.6414315700531006, 2.756317138671875, -2.530329942703247, -1.071533203125, 0.310302734375, -0.032958984375, 0, 
201, 1768083804, 0.7332057, -0.07231569, -0.6751904, -0.036022443, 9.967923164367676, -0.6796137690544128, 0.6207162141799927, 3.6577439308166504, 2.5351901054382324, -2.4516096115112305, -1.071533203125, 0.310546875, -0.034423828125, 0, 
202, 1768100471, 0.73339, -0.07182126, -0.67504656, -0.03595777, 9.933683395385742, -0.6335236430168152, 0.6398544311523438, 3.587486982345581, 2.3147666454315186, -2.2408547401428223, -1.06787109375, 0.309814453125, -0.037841796875, 0, 
203, 1768117138, 0.73356444, -0.07142243, -0.67489827, -0.03598014, 9.93015193939209, -0.5822051763534546, 0.6813161969184875, 2.7489662170410156, 2.3105664253234863, -2.233337640762329, -1.071533203125, 0.30908203125, -0.0361328125, 0, 
204, 1768133805, 0.73367685, -0.07115404, -0.6748008, -0.036046654, 9.916973114013672, -0.6223099827766418, 0.6841741800308228, 1.9540503025054932, 1.75240159034729, -1.882968783378601, -1.070556640625, 0.309814453125, -0.036865234375, 0, 
205, 1768150472, 0.7337667, -0.07095261, -0.67471975, -0.03613219, 9.922426223754883, -0.6344547867774963, 0.6548098921775818, 1.4234834909439087, 1.5638282299041748, -1.6905791759490967, -1.071533203125, 0.307373046875, -0.036376953125, 0, 
206, 1768167139, 0.7338549, -0.07082806, -0.6746315, -0.036234993, 9.948790550231934, -0.6637951731681824, 0.7062061429023743, 1.0252058506011963, 1.5812320709228516, -1.4146149158477783, -1.07373046875, 0.30615234375, -0.03759765625, 0, 
207, 1768183806, 0.733912, -0.070660345, -0.6745843, -0.03628269, 9.919792175292969, -0.6487025022506714, 0.6359162330627441, 1.4434869289398193, 1.217249870300293, -1.3715343475341797, -1.0703125, 0.3076171875, -0.037353515625, 0, 
208, 1768200473, 0.733992, -0.070455864, -0.6745185, -0.036286958, 9.940242767333984, -0.6412804126739502, 0.6923164129257202, 1.8161643743515015, 1.4109458923339844, -1.3129324913024902, -1.070068359375, 0.307373046875, -0.039306640625, 0, 
209, 1768217140, 0.7340439, -0.070296146, -0.674478, -0.03630024, 9.944404602050781, -0.677769124507904, 0.7841835618019104, 1.5224254131317139, 1.1478651762008667, -1.173919677734375, -1.068359375, 0.30859375, -0.038330078125, 0, 
210, 1768233807, 0.73404896, -0.07005691, -0.6745012, -0.03622652, 9.879270553588867, -0.6853766441345215, 0.7478317022323608, 2.347013235092163, 0.5820550322532654, -1.1496132612228394, -1.069580078125, 0.309326171875, -0.04150390625, 0, 
211, 1768250474, 0.73396444, -0.06984728, -0.67462087, -0.036113437, 9.878439903259277, -0.6318235993385315, 0.6754862070083618, 2.7130186557769775, -0.36663293838500977, -0.858819305896759, -1.07177734375, 0.306640625, -0.040283203125, 0, 
212, 1768267141, 0.73387945, -0.06981799, -0.67471844, -0.036077775, 9.916855812072754, -0.5448043942451477, 0.6729721426963806, 1.4594565629959106, -0.2644767463207245, -0.40318232774734497, -1.069580078125, 0.3076171875, -0.0361328125, 0, 
213, 1768283808, 0.7337833, -0.06999275, -0.67480123, -0.036145005, 9.905021667480469, -0.5703189373016357, 0.6712505221366882, 0.10746447741985321, -0.24858404695987701, 0.04288205876946449, -1.06982421875, 0.308349609375, -0.038330078125, 0, 
214, 1768300475, 0.7336402, -0.07025987, -0.674924, -0.03624157, 9.976533889770508, -0.6122259497642517, 0.7277899980545044, -0.9669433832168579, -0.6519328951835632, 0.2563639283180237, -1.06884765625, 0.3056640625, -0.037841796875, 0, 
215, 1768317142, 0.7334692, -0.070489876, -0.67508185, -0.036313504, 9.9704008102417, -0.6743127107620239, 0.7454588413238525, -0.6511899828910828, -0.9617440104484558, 0.18439221382141113, -1.068603515625, 0.3056640625, -0.038330078125, 0, 
216, 1768333809, 0.73324543, -0.07052786, -0.6753307, -0.036131587, 9.973976135253906, -0.6573169231414795, 0.7068749666213989, 1.2594468593597412, -1.7294591665267944, 0.4939345419406891, -1.073486328125, 0.304931640625, -0.037109375, 0, 
217, 1768350476, 0.7330259, -0.0706596, -0.6755626, -0.03599377, 9.983602523803711, -0.5760321021080017, 0.6566232442855835, 0.998658299446106, -1.6507384777069092, 0.7453103065490723, -1.072021484375, 0.306396484375, -0.036865234375, 0, 
218, 1768367143, 0.732864, -0.07080041, -0.67573255, -0.03582105, 9.955198287963867, -0.589375913143158, 0.6051281690597534, 0.8538057208061218, -1.0732104778289795, 0.9871325492858887, -1.07275390625, 0.306396484375, -0.03515625, 0, 
219, 1768383810, 0.7327077, -0.07089184, -0.6759062, -0.03556225, 9.924479484558105, -0.6728284358978271, 0.55682373046875, 1.4860937595367432, -1.0899100303649902, 1.1900620460510254, -1.0703125, 0.30712890625, -0.037353515625, 0, 
220, 1768400477, 0.7325583, -0.07078411, -0.6761025, -0.03511909, 9.906567573547363, -0.7266232371330261, 0.4831213653087616, 3.4638941287994385, -1.2140549421310425, 1.188768744468689, -1.069091796875, 0.306640625, -0.03271484375, 0, 
221, 1768417144, 0.7324154, -0.07039512, -0.67633456, -0.034410655, 9.9068603515625, -0.7119711637496948, 0.4763900935649872, 5.897830486297607, -1.4038320779800415, 1.1764874458312988, -1.068359375, 0.308349609375, -0.035400390625, 0, 
222, 1768433811, 0.7322848, -0.06992419, -0.6765659, -0.033592332, 9.915364265441895, -0.6353806853294373, 0.5682125687599182, 6.686791896820068, -1.3592662811279297, 1.3371047973632812, -1.069091796875, 0.311767578125, -0.03369140625, 0, 
223, 1768450478, 0.73217034, -0.06954105, -0.67676675, -0.032825906, 9.94239616394043, -0.5764780044555664, 0.5901941061019897, 6.795223236083984, -1.1687973737716675, 1.559807300567627, -1.072509765625, 0.310546875, -0.030517578125, 0, 
224, 1768467145, 0.7320641, -0.06912494, -0.67696345, -0.032009307, 9.9265775680542, -0.6283814311027527, 0.5772664546966553, 6.328790187835693, -1.073505163192749, 1.5987640619277954, -1.072265625, 0.31201171875, -0.032958984375, 0, 
225, 1768483812, 0.7319538, -0.06879083, -0.6771496, -0.031307623, 9.937026977539062, -0.6532416939735413, 0.6135702729225159, 5.714494705200195, -1.0201282501220703, 1.4312057495117188, -1.06884765625, 0.309326171875, -0.03564453125, 0, 
226, 1768500479, 0.73184735, -0.06843918, -0.6773324, -0.030602753, 9.910233497619629, -0.6002331972122192, 0.6456862092018127, 6.053696632385254, -0.9940290451049805, 1.3842320442199707, -1.06494140625, 0.3134765625, -0.032958984375, 0, 
227, 1768517146, 0.7317259, -0.06805835, -0.6775359, -0.029844046, 9.947880744934082, -0.5790826678276062, 0.6458444595336914, 6.406562328338623, -1.1866364479064941, 1.5036256313323975, -1.06689453125, 0.314453125, -0.033447265625, 0, 
228, 1768533813, 0.731572, -0.06769197, -0.67777, -0.029127186, 9.989509582519531, -0.602782130241394, 0.6962074041366577, 5.991778373718262, -1.4680432081222534, 1.3314955234527588, -1.06884765625, 0.314697265625, -0.03369140625, 0, 
229, 1768550480, 0.7313794, -0.06732346, -0.67804366, -0.02843141, 9.986767768859863, -0.6303969025611877, 0.6832383275032043, 5.940629005432129, -1.844165563583374, 1.1941602230072021, -1.0703125, 0.316650390625, -0.02880859375, 0, 
230, 1768567147, 0.73115796, -0.06695515, -0.67834735, -0.027747253, 10.014254570007324, -0.6284732222557068, 0.6931862235069275, 5.846810340881348, -2.1249067783355713, 1.1152091026306152, -1.0693359375, 0.313720703125, -0.03125, 0, 
231, 1768583814, 0.7309191, -0.06668604, -0.67865324, -0.027207885, 10.007610321044922, -0.6167008876800537, 0.7130159735679626, 4.665116786956787, -2.173186779022217, 0.8465830087661743, -1.067138671875, 0.318359375, -0.029296875, 0, 
232, 1768600481, 0.73065424, -0.06647369, -0.67897797, -0.026734836, 9.98879623413086, -0.5327260494232178, 0.7496820688247681, 2.975255012512207, -2.3089468479156494, 0.6900126338005066, -1.064697265625, 0.318603515625, -0.030029296875, 0, 
233, 1768617148, 0.73033744, -0.066627175, -0.67930657, -0.026661934, 9.952986717224121, -0.5176799893379211, 0.7661089301109314, 0.8615664839744568, -2.5599892139434814, 0.494062602519989, -1.0654296875, 0.31787109375, -0.028564453125, 0, 
234, 1768633815, 0.729949, -0.06686147, -0.6797044, -0.026576897, 9.958638191223145, -0.5974923968315125, 0.6845631003379822, -0.003380876500159502, -3.239532470703125, 0.8593508005142212, -1.065185546875, 0.3193359375, -0.02734375, 0, 
235, 1768650482, 0.72951204, -0.067015626, -0.68016475, -0.026408218, 9.971424102783203, -0.7057636380195618, 0.6310592293739319, 0.6813555359840393, -3.803256034851074, 0.8632954359054565, -1.06689453125, 0.3193359375, -0.02392578125, 0, 
236, 1768667149, 0.7290225, -0.06711154, -0.68068975, -0.026153006, 9.978422164916992, -0.7382146716117859, 0.667380154132843, 1.600467324256897, -4.41840934753418, 0.9982486963272095, -1.068115234375, 0.320556640625, -0.025634765625, 0, 
237, 1768683816, 0.7284676, -0.06703466, -0.68130857, -0.025691193, 9.975811004638672, -0.7220199108123779, 0.646661102771759, 2.9267630577087402, -5.233520030975342, 1.1347323656082153, -1.065185546875, 0.318115234375, -0.021484375, 0, 
238, 1768700483, 0.7278737, -0.066960625, -0.68196785, -0.0252226, 9.972926139831543, -0.6977831125259399, 0.600884735584259, 3.3527350425720215, -5.652825832366943, 1.1794328689575195, -1.0654296875, 0.3173828125, -0.0166015625, 0, 
239, 1768717150, 0.72724766, -0.066935256, -0.682655, -0.02476025, 9.94835090637207, -0.6817755103111267, 0.5768062472343445, 2.6331586837768555, -5.9255499839782715, 1.3295104503631592, -1.065673828125, 0.318359375, -0.015869140625, 0, 
240, 1768733817, 0.72657675, -0.06702229, -0.68337417, -0.02437555, 9.93832015991211, -0.7058178186416626, 0.5184578895568848, 2.232614278793335, -6.315823554992676, 1.477679967880249, -1.06494140625, 0.318603515625, -0.01611328125, 0, 
241, 1768750484, 0.72588474, -0.06718703, -0.68410367, -0.02407438, 9.959770202636719, -0.718322217464447, 0.5427153706550598, 1.4184378385543823, -6.441620349884033, 1.414915919303894, -1.07080078125, 0.318115234375, -0.009765625, 0, 
242, 1768767151, 0.7252191, -0.06738811, -0.68479824, -0.023822974, 9.943358421325684, -0.6485711336135864, 0.5619951486587524, -0.27893510460853577, -6.0462236404418945, 1.2838941812515259, -1.06787109375, 0.320068359375, -0.012451171875, 0, 
243, 1768783818, 0.72457933, -0.06773295, -0.6854453, -0.023702951, 9.939207077026367, -0.6537363529205322, 0.4560970664024353, -1.1014231443405151, -5.686647891998291, 1.3630119562149048, -1.067138671875, 0.31640625, -0.005615234375, 0, 
244, 1768800485, 0.7239757, -0.06799333, -0.6860644, -0.023496065, 9.919516563415527, -0.7694153189659119, 0.3095012903213501, 0.005769261159002781, -5.422054767608643, 1.4323455095291138, -1.065185546875, 0.31884765625, -0.005126953125, 0, 
245, 1768817152, 0.7234673, -0.06796015, -0.6866188, -0.023046577, 9.944671630859375, -0.8858936429023743, 0.30336910486221313, 2.494389057159424, -4.702235698699951, 1.2900413274765015, -1.066162109375, 0.317626953125, -0.00146484375, 0, 
246, 1768833819, 0.7230769, -0.067479156, -0.68710417, -0.02223428, 9.968541145324707, -0.8907179832458496, 0.3393142521381378, 6.114373207092285, -3.871346950531006, 1.006662368774414, -1.065673828125, 0.320068359375, -0.002197265625, 0, 
247, 1768850486, 0.72272146, -0.06669611, -0.6875866, -0.021215761, 9.963822364807129, -0.7949472665786743, 0.2981700599193573, 8.826798439025879, -3.7539262771606445, 0.6145321130752563, -1.066162109375, 0.321533203125, -0.001220703125, 0, 
248, 1768867153, 0.7223735, -0.06570791, -0.6880831, -0.020026503, 9.958281517028809, -0.7832597494125366, 0.24769853055477142, 10.845901489257812, -3.846184492111206, 0.49226993322372437, -1.065185546875, 0.322509765625, -0.0029296875, 0, 
249, 1768883820, 0.7220884, -0.06470965, -0.68850976, -0.018854022, 9.956689834594727, -0.7630842924118042, 0.26824328303337097, 10.908587455749512, -3.192739486694336, 0.4024204909801483, -1.064453125, 0.323974609375, -0.00146484375, 0, 
250, 1768900487, 0.72186, -0.063886635, -0.68884975, -0.017970346, 9.920991897583008, -0.6849789619445801, 0.34037068486213684, 8.823351860046387, -2.3961708545684814, -0.15245962142944336, -1.062744140625, 0.322998046875, -7.32421875E-4, 0, 
251, 1768917154, 0.72163653, -0.06330106, -0.68915516, -0.017297365, 9.892549514770508, -0.6483331918716431, 0.3604819178581238, 6.4503865242004395, -2.124279260635376, -0.06532520055770874, -1.064208984375, 0.32470703125, 0.00244140625, 0, 
252, 1768933821, 0.72139555, -0.06294091, -0.6894523, -0.016816588, 9.938806533813477, -0.6839599013328552, 0.3282192349433899, 3.999929189682007, -2.0825045108795166, 0.03576173260807991, -1.064208984375, 0.324462890625, 9.765625E-4, 0, 
253, 1768950488, 0.72113204, -0.06269954, -0.6897575, -0.01649696, 9.956387519836426, -0.743125319480896, 0.2982960641384125, 2.979429244995117, -2.1964426040649414, -0.18925224244594574, -1.064208984375, 0.325927734375, 0.001220703125, 0, 
254, 1768967155, 0.7208985, -0.0624941, -0.6900252, -0.016287798, 9.986262321472168, -0.7539242506027222, 0.2942483425140381, 2.334975481033325, -1.827543020248413, -0.5454608201980591, -1.064453125, 0.326171875, 4.8828125E-4, 0, 
255, 1768983822, 0.7207022, -0.062126882, -0.69027126, -0.015952287, 9.994905471801758, -0.792017936706543, 0.36272409558296204, 3.502722978591919, -1.562003493309021, -0.685229480266571, -1.063232421875, 0.32470703125, 0.00341796875, 0, 
256, 1769000489, 0.7205315, -0.0614876, -0.6905182, -0.015440323, 9.98431396484375, -0.8121860027313232, 0.37397924065589905, 5.629845142364502, -1.4872784614562988, -1.1045222282409668, -1.062255859375, 0.327880859375, 0.001708984375, 0, 
257, 1769017156, 0.7203654, -0.060726795, -0.69077134, -0.014864063, 9.923828125, -0.8143278956413269, 0.31242936849594116, 6.836381912231445, -1.5339574813842773, -1.3562564849853516, -1.060546875, 0.326904296875, 0.00244140625, 0, 
258, 1769033823, 0.7202128, -0.05995678, -0.6910098, -0.014290857, 9.948761940002441, -0.6562159061431885, 0.3437713384628296, 6.6327948570251465, -1.3798142671585083, -1.4219985008239746, -1.063232421875, 0.326904296875, 0.00390625, 0, 
259, 1769050490, 0.72010297, -0.05940446, -0.6911801, -0.013897189, 9.921549797058105, -0.603265106678009, 0.3509703576564789, 5.221502304077148, -0.822628915309906, -1.22161066532135, -1.06640625, 0.32470703125, 0.004150390625, 0, 
260, 1769067157, 0.7199516, -0.058939483, -0.6913842, -0.0135627305, 9.911237716674805, -0.6468273997306824, 0.3837851583957672, 4.289135456085205, -1.1598713397979736, -1.1212472915649414, -1.062255859375, 0.326904296875, 0.00439453125, 0, 
261, 1769083824, 0.7197512, -0.058525257, -0.6916333, -0.013291554, 9.926108360290527, -0.7118546962738037, 0.3750334084033966, 3.3698952198028564, -1.5765131711959839, -1.2262208461761475, -1.062744140625, 0.32373046875, 0.003662109375, 0, 
262, 1769100491, 0.71957344, -0.05814239, -0.69185495, -0.013060262, 9.926791191101074, -0.7707227468490601, 0.3540695011615753, 3.4913253784179688, -1.3540157079696655, -1.2441242933273315, -1.059814453125, 0.325927734375, 0.00537109375, 0, 
263, 1769117158, 0.71943736, -0.05768983, -0.69203967, -0.01278233, 9.953813552856445, -0.7114306688308716, 0.3411938548088074, 4.2260637283325195, -0.9971665143966675, -1.3231523036956787, -1.063232421875, 0.324462890625, 0.0048828125, 0, 
264, 1769133825, 0.7193075, -0.05729579, -0.6922108, -0.012584145, 9.96656608581543, -0.6920818090438843, 0.40122851729393005, 3.1862967014312744, -0.8533639907836914, -1.4468742609024048, -1.0615234375, 0.32568359375, 0.005859375, 0, 
265, 1769150492, 0.71917343, -0.057075053, -0.6923682, -0.012586077, 9.972613334655762, -0.6518144011497498, 0.3450861871242523, 1.62997305393219, -0.7625669240951538, -1.5973232984542847, -1.06298828125, 0.32666015625, 0.001953125, 0, 
266, 1769167159, 0.7190406, -0.05667488, -0.69254255, -0.012396371, 9.946353912353516, -0.7125241756439209, 0.27816930413246155, 2.9271793365478516, -0.8712544441223145, -1.5255436897277832, -1.063720703125, 0.324462890625, 0.006103515625, 0, 
267, 1769183826, 0.71893805, -0.056213927, -0.69268996, -0.012205871, 9.961288452148438, -0.7117047309875488, 0.23708677291870117, 3.373814344406128, -0.5976852178573608, -1.7951301336288452, -1.063232421875, 0.324462890625, 0.0048828125, 0, 
268, 1769200493, 0.71883076, -0.055790033, -0.6928379, -0.01207647, 9.949427604675293, -0.7149445414543152, 0.30687135457992554, 2.9899561405181885, -0.6074435710906982, -1.9172258377075195, -1.06298828125, 0.32568359375, 0.004638671875, 0, 
269, 1769217160, 0.71872544, -0.055376347, -0.6929827, -0.0119370455, 9.98865795135498, -0.6877015829086304, 0.3066275715827942, 2.2073023319244385, -0.539704442024231, -1.8478347063064575, -1.0634765625, 0.3232421875, 0.00244140625, 0, 
270, 1769233827, 0.7186472, -0.055181064, -0.6930779, -0.012019306, 10.00693416595459, -0.651153028011322, 0.29101812839508057, 1.261560082435608, -0.17593365907669067, -1.837749719619751, -1.064697265625, 0.32275390625, 0.008056640625, 0, 
271, 1769250494, 0.71854216, -0.05495442, -0.6932038, -0.012078523, 9.952929496765137, -0.7144739627838135, 0.27072158455848694, 0.49430587887763977, -0.39834150671958923, -1.9235776662826538, -1.065673828125, 0.32666015625, 0.004150390625, 0, 
272, 1769267161, 0.7184481, -0.054728337, -0.6933177, -0.012161205, 9.973538398742676, -0.7100651860237122, 0.26938724517822266, 0.35866743326187134, -0.2769052982330322, -2.0322587490081787, -1.067138671875, 0.32177734375, 0.00537109375, 0, 
273, 1769283828, 0.71839494, -0.054549564, -0.69338477, -0.012280164, 9.970160484313965, -0.6475045680999756, 0.26391521096229553, 0.01782003603875637, 0.15415643155574799, -1.9648396968841553, -1.065185546875, 0.322998046875, 0.005859375, 0, 
274, 1769300495, 0.7183606, -0.054546528, -0.69341516, -0.01256919, 9.983516693115234, -0.5957271456718445, 0.291728675365448, -0.9182409048080444, 0.42964664101600647, -1.9243847131729126, -1.063720703125, 0.322998046875, 0.00439453125, 0, 
275, 1769317162, 0.71834755, -0.054486264, -0.69342935, -0.01279538, 10.000226974487305, -0.649643063545227, 0.2559897303581238, -0.9409081935882568, 0.6272101998329163, -1.8974655866622925, -1.06689453125, 0.318359375, 0.006103515625, 0, 
276, 1769333829, 0.71837306, -0.0544148, -0.693404, -0.013050019, 9.993000984191895, -0.731770396232605, 0.21155455708503723, 0.10253404080867767, 0.951748788356781, -2.0329055786132812, -1.068115234375, 0.319091796875, 0.004150390625, 0, 
277, 1769350496, 0.71849984, -0.054122396, -0.6932939, -0.013133507, 9.969669342041016, -0.722490131855011, 0.2250097095966339, 1.4320892095565796, 1.8455805778503418, -2.223578929901123, -1.0673828125, 0.319580078125, 0.004150390625, 0, 
278, 1769367163, 0.71866876, -0.053722557, -0.6931506, -0.013099907, 9.97225570678711, -0.7117733359336853, 0.2823823094367981, 2.557908535003662, 2.177483081817627, -2.143527030944824, -1.0693359375, 0.320068359375, 0.00244140625, 0, 
279, 1769383830, 0.7188522, -0.053373426, -0.6929869, -0.013112918, 9.998516082763672, -0.6006924510002136, 0.36837708950042725, 1.7462291717529297, 2.3786449432373047, -2.1372392177581787, -1.06689453125, 0.314453125, 0.00537109375, 0, 
280, 1769400497, 0.71899885, -0.053270187, -0.6928389, -0.013320511, 9.97831916809082, -0.5606971979141235, 0.34827205538749695, 0.0017544700531288981, 2.1457293033599854, -1.9223676919937134, -1.064208984375, 0.3173828125, 0.0029296875, 0, 
281, 1769417164, 0.7191281, -0.053356685, -0.69269156, -0.013660641, 9.99275016784668, -0.5588776469230652, 0.2715526223182678, -1.5527572631835938, 2.0881078243255615, -1.6692053079605103, -1.066162109375, 0.31591796875, -4.8828125E-4, 0, 
282, 1769433831, 0.71930665, -0.0535481, -0.692482, -0.0141219385, 9.994837760925293, -0.5969211459159851, 0.25861507654190063, -2.7363455295562744, 2.671462297439575, -1.7400500774383545, -1.068359375, 0.317138671875, 0.00146484375, 0, 
283, 1769450498, 0.719505, -0.05368782, -0.692257, -0.01451566, 9.980704307556152, -0.6649810671806335, 0.31895989179611206, -2.2532646656036377, 2.828801393508911, -1.648932933807373, -1.06884765625, 0.315185546875, 0.00244140625, 0, 
284, 1769467165, 0.71970457, -0.05377999, -0.69203496, -0.014859927, 9.980137825012207, -0.6396937966346741, 0.2968848645687103, -1.3600343465805054, 2.781071901321411, -1.6158539056777954, -1.06982421875, 0.31494140625, -2.44140625E-4, 0, 
285, 1769483832, 0.7199212, -0.053863425, -0.6917965, -0.015169389, 10.004693984985352, -0.6016914248466492, 0.31171858310699463, -1.3361889123916626, 2.942610740661621, -1.483871579170227, -1.06787109375, 0.31298828125, -4.8828125E-4, 0, 
286, 1769500499, 0.72015435, -0.053821784, -0.691553, -0.015352307, 9.99599552154541, -0.6113601922988892, 0.3575986921787262, -0.7301155924797058, 3.046137571334839, -1.474138855934143, -1.066650390625, 0.316162109375, 7.32421875E-4, 0, 
287, 1769517166, 0.7203244, -0.05377812, -0.69137555, -0.01551388, 10.004228591918945, -0.577770471572876, 0.3770385980606079, -0.2869134545326233, 2.3903117179870605, -1.3949700593948364, -1.068115234375, 0.31396484375, -9.765625E-4, 0, 
288, 1769533833, 0.7204617, -0.053801626, -0.6912268, -0.015691275, 10.009832382202148, -0.576560378074646, 0.3009869456291199, -0.636001706123352, 2.0854244232177734, -1.1629060506820679, -1.06884765625, 0.308837890625, -2.44140625E-4, 0, 
289, 1769550500, 0.72058165, -0.054023057, -0.6910762, -0.016053705, 9.9862060546875, -0.524314820766449, 0.3228115141391754, -1.8213385343551636, 2.022148370742798, -1.1101633310317993, -1.072265625, 0.311767578125, -0.001220703125, 0, 
290, 1769567167, 0.7206909, -0.054291837, -0.69093204, -0.016438518, 9.95457649230957, -0.5248934030532837, 0.2998431622982025, -2.716111898422241, 1.9726965427398682, -1.0192701816558838, -1.068603515625, 0.311279296875, -0.001953125, 0, 
291, 1769583834, 0.7207797, -0.054633155, -0.69080216, -0.016866341, 9.934974670410156, -0.5664797425270081, 0.2434190958738327, -3.0648281574249268, 1.8025000095367432, -0.8823702931404114, -1.0703125, 0.3115234375, -0.001220703125, 0, 
292, 1769600501, 0.7208917, -0.054914832, -0.6906547, -0.017202165, 9.947187423706055, -0.5864802002906799, 0.2167728990316391, -3.0472962856292725, 2.0136895179748535, -0.7306150197982788, -1.070068359375, 0.311767578125, -0.001708984375, 0, 
293, 1769617168, 0.72104836, -0.05516791, -0.69046193, -0.017565802, 9.936433792114258, -0.5714804530143738, 0.2641656696796417, -2.8979427814483643, 2.4605352878570557, -0.9751204252243042, -1.072021484375, 0.308837890625, -0.00390625, 0, 
294, 1769633835, 0.7212152, -0.05546265, -0.6902533, -0.017974596, 9.934938430786133, -0.5793361067771912, 0.26722657680511475, -2.250434160232544, 2.5442440509796143, -0.9442890286445618, -1.0693359375, 0.306884765625, -0.00244140625, 0, 
295, 1769650502, 0.72140765, -0.05557622, -0.6900375, -0.01819181, 9.946617126464844, -0.5850744843482971, 0.24350690841674805, -1.462702751159668, 2.7104828357696533, -0.8943697810173035, -1.071533203125, 0.308349609375, -0.003173828125, 0, 
296, 1769667169, 0.7216108, -0.05578637, -0.68979836, -0.018557604, 9.949713706970215, -0.6309808492660522, 0.26073503494262695, -1.1840111017227173, 2.8453400135040283, -1.0942128896713257, -1.071044921875, 0.30712890625, -0.006103515625, 0, 
297, 1769683836, 0.72178197, -0.05572701, -0.6896232, -0.01858878, 9.969217300415039, -0.6726198196411133, 0.34174802899360657, -0.5665400624275208, 2.408163547515869, -0.8481389284133911, -1.0712890625, 0.306640625, -0.004150390625, 0, 
298, 1769700503, 0.72190267, -0.055657424, -0.6895014, -0.018625824, 9.978490829467773, -0.5762940645217896, 0.3820643126964569, 0.05234595015645027, 1.8755604028701782, -0.9290109872817993, -1.07080078125, 0.304931640625, -0.007080078125, 0, 
299, 1769717170, 0.72200817, -0.055582434, -0.689396, -0.018656744, 9.970656394958496, -0.43486133217811584, 0.32540565729141235, -0.9203090667724609, 1.7729495763778687, -0.9796793460845947, -1.071044921875, 0.3076171875, -0.005859375, 0, 
300, 1769733837, 0.7220915, -0.055789214, -0.68928504, -0.018913226, 9.995616912841797, -0.4496358633041382, 0.29690688848495483, -1.533342719078064, 1.6485166549682617, -0.6694647073745728, -1.072998046875, 0.304931640625, -0.005126953125, 0, 
301, 1769750504, 0.72217405, -0.056197803, -0.68915296, -0.019363891, 10.014941215515137, -0.6172279119491577, 0.3767506182193756, -2.606757879257202, 1.7562050819396973, -0.6217995285987854, -1.07275390625, 0.304931640625, -0.0087890625, 0, 
302, 1769767171, 0.7222567, -0.05609956, -0.689075, -0.01934558, 9.960173606872559, -0.7200707793235779, 0.40120816230773926, -2.250760555267334, 1.6045587062835693, -0.9318604469299316, -1.0693359375, 0.305419921875, -0.005615234375, 0, 
303, 1769783838, 0.7222407, -0.05618686, -0.6890793, -0.019531598, 9.930728912353516, -0.5865556597709656, 0.33734330534935, -1.1528147459030151, 0.6210502982139587, -0.969658374786377, -1.072265625, 0.303955078125, -0.005126953125, 0, 
304, 1769800505, 0.7222187, -0.056258384, -0.68909544, -0.01957213, 9.921693801879883, -0.532450795173645, 0.31150195002555847, -0.4736940562725067, 0.4871983528137207, -0.3311977982521057, -1.0693359375, 0.304443359375, -0.007080078125, 0, 
305, 1769817172, 0.7221384, -0.05637216, -0.6891698, -0.01959343, 9.932547569274902, -0.5222085118293762, 0.33411073684692383, -0.8321053385734558, -0.07866940647363663, -0.0740463063120842, -1.072998046875, 0.302734375, -0.005615234375, 0, 
306, 1769833839, 0.7220529, -0.056630343, -0.68923295, -0.019765858, 9.947087287902832, -0.4886469542980194, 0.36782288551330566, -2.033802032470703, -0.01954248920083046, -0.12304340302944183, -1.071533203125, 0.304443359375, -0.00390625, 0, 
307, 1769850506, 0.72192806, -0.05705276, -0.68932045, -0.02006283, 9.938637733459473, -0.5876842141151428, 0.3638721704483032, -2.143744468688965, -0.3698217570781708, 0.08979172259569168, -1.072509765625, 0.3017578125, -0.00634765625, 0, 
308, 1769867173, 0.72181946, -0.05731621, -0.6894092, -0.020173, 9.950177192687988, -0.5747413039207458, 0.3805989623069763, -1.4481676816940308, -0.2997966706752777, 0.21817538142204285, -1.073486328125, 0.30126953125, -0.00341796875, 0, 
309, 1769883840, 0.72170156, -0.057610154, -0.6895052, -0.020266633, 9.933426856994629, -0.6167777180671692, 0.35841822624206543, -0.09264113754034042, -0.4662279784679413, 0.5093660950660706, -1.0732421875, 0.302001953125, -4.8828125E-4, 0, 
310, 1769900507, 0.7216049, -0.057524774, -0.6896224, -0.019962804, 9.964726448059082, -0.5859222412109375, 0.3389493525028229, 0.34057843685150146, -0.39652296900749207, 0.5144630670547485, -1.072509765625, 0.3017578125, -0.002197265625, 0, 
311, 1769917174, 0.7215025, -0.057615153, -0.6897248, -0.019867819, 9.978450775146484, -0.5705495476722717, 0.3294524550437927, 0.8944017887115479, -0.42138007283210754, 0.43432092666625977, -1.070068359375, 0.302734375, -0.0029296875, 0, 
312, 1769933841, 0.7213695, -0.057701577, -0.68986034, -0.019738348, 9.974687576293945, -0.5606249570846558, 0.36107292771339417, 0.6153900027275085, -0.7205749154090881, 0.5494884848594666, -1.0703125, 0.301513671875, -0.002685546875, 0, 
313, 1769950508, 0.72120196, -0.057930864, -0.69001544, -0.019772146, 9.975110054016113, -0.5618060827255249, 0.3209824860095978, 0.19767239689826965, -0.994630753993988, 0.4579230546951294, -1.074951171875, 0.300537109375, 0.00146484375, 0, 
314, 1769967175, 0.72106445, -0.05794171, -0.6901637, -0.019581957, 9.997478485107422, -0.5222011804580688, 0.3423255383968353, 0.2153579741716385, -0.7603514194488525, 0.43745848536491394, -1.07666015625, 0.299072265625, -0.001220703125, 0, 
315, 1769983842, 0.72097087, -0.058176495, -0.6902396, -0.019651182, 10.011222839355469, -0.5544406771659851, 0.3743894398212433, -0.07977074384689331, -0.23260171711444855, 0.348057359457016, -1.072998046875, 0.3037109375, 7.32421875E-4, 0, 
316, 1770000509, 0.7208501, -0.05832631, -0.69035226, -0.019682838, 9.953804016113281, -0.6410673260688782, 0.3279060125350952, 0.26334336400032043, -0.5345370173454285, 0.10372503101825714, -1.0693359375, 0.30419921875, 4.8828125E-4, 0, 
317, 1770017176, 0.72072303, -0.058266982, -0.6904938, -0.019546755, 9.957932472229004, -0.6302230954170227, 0.32100388407707214, 1.4792423248291016, -0.7125837206840515, -0.1001584604382515, -1.070556640625, 0.3017578125, 7.32421875E-4, 0, 
318, 1770033843, 0.72063524, -0.058159426, -0.6905992, -0.019379096, 9.950860023498535, -0.5819340944290161, 0.3504612147808075, 2.206540584564209, -0.371486634016037, -0.1386287361383438, -1.0703125, 0.302001953125, -0.001220703125, 0, 
319, 1770050510, 0.7205467, -0.057909146, -0.69072115, -0.019070646, 9.922222137451172, -0.5707211494445801, 0.3612406253814697, 2.5958917140960693, -0.44028228521347046, -0.16903100907802582, -1.075927734375, 0.30224609375, 4.8828125E-4, 0, 
320, 1770067177, 0.7204249, -0.057702135, -0.6908726, -0.01881766, 9.932459831237793, -0.5288624167442322, 0.2962411642074585, 2.128485918045044, -0.731639564037323, -0.25260522961616516, -1.07177734375, 0.301025390625, 0.005126953125, 0, 
321, 1770083844, 0.7202982, -0.05776558, -0.6909982, -0.018858783, 9.924356460571289, -0.5951002240180969, 0.28577786684036255, 1.956573247909546, -0.6861386299133301, -0.2974402904510498, -1.07275390625, 0.303955078125, 0.003173828125, 0, 
322, 1770100511, 0.7202063, -0.057624742, -0.69110924, -0.018725868, 9.929268836975098, -0.6156636476516724, 0.2961316406726837, 2.4664454460144043, -0.41639846563339233, -0.45485591888427734, -1.073486328125, 0.302001953125, 0.00439453125, 0, 
323, 1770117178, 0.7201304, -0.057309628, -0.69122165, -0.018469824, 9.915173530578613, -0.5920180678367615, 0.38963016867637634, 2.2803051471710205, -0.28343015909194946, -0.7464181780815125, -1.071533203125, 0.30419921875, 0.006591796875, 0, 
324, 1770133845, 0.7200356, -0.057003442, -0.6913514, -0.018251609, 9.915966033935547, -0.5772157907485962, 0.40457841753959656, 2.2093706130981445, -0.45609816908836365, -0.8930635452270508, -1.074951171875, 0.301513671875, 0.0029296875, 0, 
325, 1770150512, 0.7199404, -0.056725405, -0.6914776, -0.01808606, 9.924099922180176, -0.5769320726394653, 0.37343430519104004, 2.3942174911499023, -0.4588770866394043, -0.9910193681716919, -1.072265625, 0.30126953125, 0.00634765625, 0, 
326, 1770167179, 0.7198471, -0.056364715, -0.6916101, -0.017867584, 9.904333114624023, -0.585442304611206, 0.3488607406616211, 2.5960586071014404, -0.4682898223400116, -1.1454640626907349, -1.073486328125, 0.300048828125, 0.0068359375, 0, 
327, 1770183846, 0.7197265, -0.056177646, -0.6917519, -0.017825719, 9.933032989501953, -0.5801113843917847, 0.3563796579837799, 2.7180392742156982, -0.6991499066352844, -1.1179560422897339, -1.07421875, 0.299072265625, 0.005615234375, 0, 
328, 1770200513, 0.719624, -0.056036465, -0.6918689, -0.01787044, 9.932884216308594, -0.593372642993927, 0.39493727684020996, 2.779663324356079, -0.5006771087646484, -1.2859625816345215, -1.0673828125, 0.302978515625, 0.003173828125, 0, 
329, 1770217180, 0.7195541, -0.05570652, -0.69197035, -0.017781656, 9.947606086730957, -0.5407412648200989, 0.4042406976222992, 1.7964684963226318, -0.16223084926605225, -1.6243447065353394, -1.07275390625, 0.30126953125, 0.00244140625, 0, 
330, 1770233847, 0.71948487, -0.05539344, -0.6920689, -0.017729003, 9.94594955444336, -0.5458506941795349, 0.3672325909137726, 1.994518518447876, -0.1613600105047226, -1.6996588706970215, -1.073974609375, 0.30029296875, 0.005126953125, 0, 
331, 1770250514, 0.7194193, -0.0549944, -0.6921722, -0.017602857, 9.932741165161133, -0.5769853591918945, 0.3343159556388855, 2.609095573425293, -0.17857174575328827, -1.754239559173584, -1.073486328125, 0.299072265625, 0.00537109375, 0, 
332, 1770267181, 0.71935916, -0.054629944, -0.6922659, -0.017508525, 9.925156593322754, -0.6048166751861572, 0.3728991746902466, 3.2866153717041016, -0.14959096908569336, -1.6978659629821777, -1.073974609375, 0.299560546875, 0.006591796875, 0, 
333, 1770283848, 0.7193123, -0.054251578, -0.69234717, -0.017393293, 9.958259582519531, -0.5940689444541931, 0.37786442041397095, 3.183703660964966, -0.020426128059625626, -1.6678736209869385, -1.075927734375, 0.2978515625, 0.004638671875, 0, 
334, 1770300515, 0.7192704, -0.05378186, -0.6924324, -0.017191561, 9.960708618164062, -0.5439614653587341, 0.36095717549324036, 2.7784976959228516, 0.026272224262356758, -1.7309061288833618, -1.0712890625, 0.30029296875, 0.002197265625, 0, 
335, 1770317182, 0.7192166, -0.053387884, -0.6925217, -0.017079499, 9.931593894958496, -0.5811872482299805, 0.3440414369106293, 3.1200239658355713, -0.08820374310016632, -1.7648240327835083, -1.07568359375, 0.300537109375, 0.005859375, 0, 
336, 1770333849, 0.7191827, -0.052997198, -0.6925897, -0.016956381, 9.937780380249023, -0.5715498328208923, 0.3249000608921051, 3.0442488193511963, 0.11235011368989944, -1.6913666725158691, -1.07568359375, 0.300537109375, 0.005859375, 0, 
337, 1770350516, 0.7191623, -0.052615684, -0.69264317, -0.01683265, 9.943205833435059, -0.5511258244514465, 0.3521421253681183, 3.0742921829223633, 0.24260346591472626, -1.635505199432373, -1.07470703125, 0.299072265625, 0.008056640625, 0, 
338, 1770367183, 0.71915233, -0.05229294, -0.69268006, -0.016741307, 9.941898345947266, -0.5408015251159668, 0.3337026834487915, 2.748748540878296, 0.3712625205516815, -1.502415418624878, -1.076171875, 0.29833984375, 0.00390625, 0, 
339, 1770383850, 0.7191483, -0.051991276, -0.6927098, -0.016625777, 9.956879615783691, -0.5777760744094849, 0.3276272118091583, 2.2723331451416016, 0.4465446472167969, -1.2995948791503906, -1.074951171875, 0.298828125, 0.00244140625, 0, 
340, 1770400517, 0.7191471, -0.05158234, -0.69274616, -0.016433854, 9.961660385131836, -0.600436270236969, 0.301329642534256, 2.895617961883545, 0.42417189478874207, -1.44745671749115, -1.073974609375, 0.29736328125, 0.004638671875, 0, 
341, 1770417184, 0.7191781, -0.05109559, -0.69275653, -0.016167708, 9.987390518188477, -0.5432984232902527, 0.2921180725097656, 4.156845569610596, 0.6640157103538513, -1.4173812866210938, -1.072998046875, 0.296630859375, 0.007080078125, 0, 
342, 1770433851, 0.7192251, -0.05058613, -0.69275254, -0.015841126, 9.99522590637207, -0.5665912628173828, 0.34412238001823425, 4.573552131652832, 0.7919000387191772, -1.2190879583358765, -1.07421875, 0.29736328125, 9.765625E-4, 0, 
343, 1770450518, 0.71924216, -0.049871106, -0.692799, -0.015293201, 10.015769004821777, -0.5909525752067566, 0.3260439932346344, 5.044895648956299, 0.41960009932518005, -1.1942882537841797, -1.07373046875, 0.29833984375, 0.0029296875, 0, 
344, 1770467185, 0.7192274, -0.049376257, -0.692857, -0.014971174, 9.947090148925781, -0.5795336961746216, 0.28830578923225403, 4.705161094665527, 0.17514602839946747, -1.1917204856872559, -1.07470703125, 0.29931640625, 0.00341796875, 0, 
345, 1770483852, 0.71918875, -0.048932236, -0.69293475, -0.0146758715, 9.948265075683594, -0.5292677283287048, 0.274795800447464, 3.7773678302764893, -0.006044597830623388, -1.1157279014587402, -1.07373046875, 0.297607421875, -2.44140625E-4, 0, 
346, 1770500519, 0.71918315, -0.04862741, -0.6929656, -0.014509369, 9.949517250061035, -0.4458668529987335, 0.32262781262397766, 2.6168429851531982, 0.40615975856781006, -1.0631959438323975, -1.073974609375, 0.29833984375, 0.001953125, 0, 
347, 1770517186, 0.71919584, -0.048450857, -0.69296634, -0.014437545, 9.985488891601562, -0.44978490471839905, 0.36955714225769043, 1.4445691108703613, 0.6650080680847168, -0.910832405090332, -1.07373046875, 0.2998046875, 0.003173828125, 0, 
348, 1770533853, 0.7192278, -0.048338767, -0.69294006, -0.0144786155, 9.955435752868652, -0.48844650387763977, 0.4157635271549225, 1.1243013143539429, 0.8933516144752502, -1.1247175931930542, -1.074462890625, 0.298095703125, -2.44140625E-4, 0, 
349, 1770550520, 0.71927714, -0.047952946, -0.6929194, -0.014294613, 9.9987211227417, -0.5645202994346619, 0.3846493065357208, 2.4658241271972656, 0.9505256414413452, -1.3625571727752686, -1.073486328125, 0.299560546875, 0.001220703125, 0, 
350, 1770567187, 0.71937823, -0.047389124, -0.6928607, -0.013928165, 9.981151580810547, -0.5598305463790894, 0.373990535736084, 4.561801433563232, 1.3221276998519897, -1.2776767015457153, -1.07470703125, 0.298095703125, -0.001220703125, 0, 
351, 1770583854, 0.71946615, -0.046703022, -0.69282615, -0.013413839, 9.952712059020996, -0.5832170248031616, 0.39607930183410645, 5.80424165725708, 1.105104923248291, -1.1410330533981323, -1.074462890625, 0.299072265625, 0.004638671875, 0, 
352, 1770600521, 0.71956044, -0.046286993, -0.69276094, -0.013172448, 9.991756439208984, -0.5252914428710938, 0.3845485746860504, 5.451241493225098, 1.2428820133209229, -1.0949623584747314, -1.0703125, 0.297119140625, 0.002685546875, 0, 
353, 1770617188, 0.71964085, -0.04575001, -0.6927199, -0.012807826, 9.97568130493164, -0.46733859181404114, 0.3677622079849243, 4.313684940338135, 1.134200930595398, -1.1742271184921265, -1.073486328125, 0.2978515625, -0.00341796875, 0, 
354, 1770633855, 0.71968436, -0.045223426, -0.69271624, -0.012431053, 9.984916687011719, -0.47800251841545105, 0.31456854939460754, 3.6487984657287598, 0.7954792976379395, -1.1082937717437744, -1.072998046875, 0.30078125, -0.002685546875, 0, 
355, 1770650522, 0.7197182, -0.044844445, -0.69270927, -0.012217508, 9.947566032409668, -0.483979731798172, 0.29084512591362, 2.641489267349243, 0.781136155128479, -1.1882820129394531, -1.075927734375, 0.299560546875, -0.00146484375, 0, 
356, 1770667189, 0.7197394, -0.044724647, -0.6926959, -0.012179326, 9.994668006896973, -0.5244727730751038, 0.3353988230228424, 2.3752963542938232, 0.7008275985717773, -0.7361154556274414, -1.072998046875, 0.299072265625, -0.0029296875, 0, 
357, 1770683856, 0.7197984, -0.044347536, -0.69266456, -0.01185626, 10.029203414916992, -0.5470288991928101, 0.3462071418762207, 2.2325308322906494, 1.0294255018234253, -0.6703419089317322, -1.074951171875, 0.29931640625, -0.003173828125, 0, 
358, 1770700523, 0.7198267, -0.044164192, -0.69264835, -0.011762441, 9.98803997039795, -0.5717010498046875, 0.3780372142791748, 2.616029977798462, 0.7506313920021057, -0.7776463627815247, -1.072998046875, 0.299560546875, -0.00146484375, 0, 
359, 1770717190, 0.7198418, -0.043876447, -0.6926543, -0.011571134, 9.993617057800293, -0.5462658405303955, 0.34021398425102234, 3.538593292236328, 0.5587859749794006, -0.8050840497016907, -1.06884765625, 0.300537109375, -0.005859375, 0, 
360, 1770733857, 0.7199024, -0.043139145, -0.69264823, -0.010901958, 9.98901081085205, -0.49433353543281555, 0.3412962555885315, 4.315208435058594, 0.8936718702316284, -0.7471352219581604, -1.072998046875, 0.298828125, -0.005859375, 0, 
361, 1770750524, 0.71998143, -0.04268361, -0.69260097, -0.010482577, 9.989852905273438, -0.4515661597251892, 0.3773660361766815, 4.014700889587402, 1.135244607925415, -0.5222429633140564, -1.073486328125, 0.30078125, -0.00341796875, 0, 
362, 1770767191, 0.7200651, -0.04223173, -0.69254756, -0.010073736, 9.987994194030762, -0.45285138487815857, 0.3687761425971985, 2.972853422164917, 1.2331618070602417, -0.5999710559844971, -1.073974609375, 0.299072265625, -0.004150390625, 0, 
363, 1770783858, 0.7201346, -0.041893523, -0.69250035, -0.009763886, 9.977621078491211, -0.4950496256351471, 0.3717806041240692, 2.411147356033325, 1.1329712867736816, -0.5279161334037781, -1.072509765625, 0.30078125, -0.006591796875, 0, 
364, 1770800525, 0.7201995, -0.041560035, -0.6924574, -0.009437149, 9.972275733947754, -0.5424463152885437, 0.3100438714027405, 3.1137804985046387, 1.0540459156036377, -0.3928091824054718, -1.073486328125, 0.300537109375, -0.00634765625, 0, 
365, 1770817192, 0.7202622, -0.041060533, -0.69242877, -0.008930534, 9.982253074645996, -0.5282466411590576, 0.29083967208862305, 3.563565254211426, 0.9869915843009949, -0.35652875900268555, -1.0712890625, 0.300048828125, -0.0048828125, 0, 
366, 1770833859, 0.72032696, -0.040643204, -0.69239193, -0.008474327, 9.980185508728027, -0.5232545733451843, 0.2974579334259033, 3.8636634349823, 1.005465030670166, -0.16832026839256287, -1.0703125, 0.302734375, -0.006591796875, 0, 
367, 1770850526, 0.7203723, -0.04041177, -0.69236195, -0.0081731, 9.981033325195312, -0.4803331196308136, 0.35588809847831726, 2.9408376216888428, 0.8786821365356445, -0.01874849572777748, -1.0732421875, 0.301513671875, -0.00390625, 0, 
368, 1770867193, 0.72038954, -0.040292267, -0.6923532, -0.007970208, 9.959244728088379, -0.45402204990386963, 0.35556650161743164, 2.730147123336792, 0.6240149736404419, 0.058998849242925644, -1.073486328125, 0.301025390625, -0.00634765625, 0, 
369, 1770883860, 0.72040415, -0.040123373, -0.692351, -0.0077004423, 9.94626235961914, -0.44521138072013855, 0.31234368681907654, 2.020829200744629, 0.620185911655426, 0.09387054294347763, -1.07421875, 0.300537109375, -0.006103515625, 0, 
370, 1770900527, 0.7203862, -0.040014062, -0.69237846, -0.007459337, 9.963294982910156, -0.47549203038215637, 0.29337838292121887, 2.1812031269073486, 0.2949942648410797, 0.2558068633079529, -1.072509765625, 0.30126953125, -0.006591796875, 0, 
371, 1770917194, 0.72037774, -0.039730407, -0.6924081, -0.00704496, 9.994837760925293, -0.47570767998695374, 0.3370450735092163, 2.2002463340759277, 0.36971932649612427, 0.20372341573238373, -1.07177734375, 0.3037109375, -0.00634765625, 0, 
372, 1770933861, 0.72034544, -0.03954863, -0.6924554, -0.0067206523, 9.965576171875, -0.506901741027832, 0.35835376381874084, 1.9915474653244019, 0.15496324002742767, 0.2728712856769562, -1.07177734375, 0.302734375, -0.008056640625, 0, 
373, 1770950528, 0.72028387, -0.039517786, -0.69252276, -0.0065382235, 9.999743461608887, -0.5314740538597107, 0.3429456055164337, 2.5962822437286377, -0.14891862869262695, 0.3805278241634369, -1.0732421875, 0.30126953125, -0.001953125, 0, 
374, 1770967195, 0.72021043, -0.03921923, -0.6926204, -0.006101352, 9.997090339660645, -0.4885108768939972, 0.3301469385623932, 3.351844072341919, -0.32661953568458557, 0.2708158791065216, -1.07177734375, 0.302978515625, -0.002197265625, 0, 
375, 1770983862, 0.72011495, -0.038732313, -0.69275224, -0.0054596122, 10.00106430053711, -0.4743250906467438, 0.3496975302696228, 3.7511658668518066, -0.5790519714355469, 0.30733323097229004, -1.070556640625, 0.30224609375, -0.00341796875, 0, 
376, 1771000529, 0.7200266, -0.03840175, -0.6928663, -0.0049711238, 9.998093605041504, -0.4521642327308655, 0.36250007152557373, 3.1114113330841064, -0.4616560637950897, 0.3395923674106598, -1.0712890625, 0.302978515625, -0.0048828125, 0, 
377, 1771017196, 0.71991587, -0.038263727, -0.69299066, -0.0046871025, 9.974376678466797, -0.47793594002723694, 0.3257010281085968, 2.5636584758758545, -0.6393954753875732, 0.3097407817840576, -1.0732421875, 0.304443359375, -0.0048828125, 0, 
378, 1771033863, 0.7198103, -0.038028453, -0.69311595, -0.004310687, 9.986231803894043, -0.4766716957092285, 0.3259240686893463, 2.1254186630249023, -0.57657390832901, 0.24028554558753967, -1.0703125, 0.30224609375, -0.0068359375, 0, 
379, 1771050530, 0.71969557, -0.037842836, -0.6932472, -0.0039825127, 9.95428466796875, -0.48670780658721924, 0.36726710200309753, 1.6655939817428589, -0.6400293111801147, 0.23781393468379974, -1.070556640625, 0.304443359375, -0.0029296875, 0, 
380, 1771067197, 0.7195525, -0.03788166, -0.6933942, -0.0038720325, 9.944522857666016, -0.5489676594734192, 0.3276337683200836, 2.1376423835754395, -0.9268467426300049, 0.3495941460132599, -1.07080078125, 0.302001953125, -0.005615234375, 0, 
381, 1771083864, 0.7194312, -0.037671477, -0.69353324, -0.0035197118, 10.003633499145508, -0.5433069467544556, 0.311638742685318, 2.3257484436035156, -0.7373576760292053, 0.2581504285335541, -1.06787109375, 0.302490234375, 0.00146484375, 0, 
382, 1771100531, 0.71932024, -0.03754133, -0.6936568, -0.003266329, 9.978442192077637, -0.5192650556564331, 0.31074580550193787, 2.6087048053741455, -0.6395683884620667, 0.20806477963924408, -1.0751953125, 0.30224609375, -0.00390625, 0, 
383, 1771117198, 0.7192431, -0.03736162, -0.6937477, -0.0029782401, 9.968265533447266, -0.49358487129211426, 0.3443715274333954, 2.691049337387085, -0.3105603754520416, 0.13696390390396118, -1.069091796875, 0.305419921875, -0.004638671875, 0, 
384, 1771133865, 0.71916336, -0.037195023, -0.69384044, -0.0027073096, 10.007829666137695, -0.5671442747116089, 0.387952595949173, 1.9611003398895264, -0.3024539351463318, 0.08804364502429962, -1.070556640625, 0.30517578125, 0.0, 0, 
385, 1771150532, 0.719082, -0.036738396, -0.69395113, -0.0021844967, 9.973410606384277, -0.6476551294326782, 0.34899142384529114, 2.6931369304656982, -0.3667290210723877, -0.14137569069862366, -1.071533203125, 0.306396484375, -0.002197265625, 0, 
386, 1771167199, 0.7189426, -0.036484256, -0.6941096, -0.0019074385, 9.920648574829102, -0.6391022205352783, 0.2647493779659271, 3.117436647415161, -0.9472408294677734, -0.28721439838409424, -1.07275390625, 0.3037109375, 2.44140625E-4, 0, 
387, 1771183866, 0.7188362, -0.03640542, -0.6942243, -0.00179283, 9.902249336242676, -0.5161181688308716, 0.2862294316291809, 2.5908658504486084, -0.5875105857849121, -0.1951879858970642, -1.06982421875, 0.306396484375, 0.0, 0, 
388, 1771200533, 0.71877813, -0.03640633, -0.6942847, -0.0016899102, 9.932707786560059, -0.44420337677001953, 0.32504498958587646, 1.2901630401611328, -0.04596839100122452, 0.10336005687713623, -1.072998046875, 0.306396484375, 7.32421875E-4, 0, 
389, 1771217200, 0.7187062, -0.036637995, -0.69434667, -0.0017723625, 9.909852981567383, -0.48686128854751587, 0.35659077763557434, -0.25443655252456665, -0.0996590107679367, 0.31251972913742065, -1.06884765625, 0.3037109375, 4.8828125E-4, 0, 
390, 1771233867, 0.7186417, -0.036695823, -0.6944106, -0.0017329667, 9.93235969543457, -0.5932937264442444, 0.2959286868572235, 1.2096174955368042, -0.10530662536621094, 0.08619314432144165, -1.072021484375, 0.30712890625, 4.8828125E-4, 0, 
391, 1771250534, 0.7186408, -0.03637257, -0.69442946, -0.0012977219, 9.932315826416016, -0.6408684849739075, 0.30199965834617615, 3.59844970703125, 0.3932766020298004, 0.17170113325119019, -1.07421875, 0.30322265625, 0.0029296875, 0, 
392, 1771267201, 0.7186673, -0.035969503, -0.6944238, -7.675873E-4, 9.933219909667969, -0.5861995220184326, 0.3348791301250458, 5.09893798828125, 0.5910643339157104, 0.29258671402931213, -1.069091796875, 0.305419921875, 0.0, 0, 
393, 1771283868, 0.7187049, -0.035675596, -0.6944004, -3.446007E-4, 9.94490909576416, -0.5045663118362427, 0.3302634656429291, 5.114293098449707, 0.7026972770690918, 0.33433541655540466, -1.066162109375, 0.305908203125, -0.001953125, 0, 
394, 1771300535, 0.7187629, -0.035509754, -0.6943491, -2.3382367E-5, 9.947924613952637, -0.48282110691070557, 0.32018181681632996, 4.237870693206787, 0.9492385983467102, 0.4617008864879608, -1.06298828125, 0.308837890625, -0.00341796875, 0, 
395, 1771317202, 0.7188445, -0.035209205, -0.6942798, 4.2347278E-4, 9.986738204956055, -0.4890621304512024, 0.33543723821640015, 3.712510108947754, 1.2080104351043701, 0.3644815683364868, -1.068115234375, 0.308837890625, 0.0, 0, 
396, 1771333869, 0.71892506, -0.035055898, -0.6942039, 6.716818E-4, 9.961191177368164, -0.5045279264450073, 0.3685585856437683, 3.2369582653045654, 1.2246840000152588, 0.14273956418037415, -1.067626953125, 0.307861328125, -0.00439453125, 0, 
397, 1771350536, 0.71897507, -0.03502225, -0.6941535, 7.947393E-4, 9.967920303344727, -0.509983241558075, 0.30994153022766113, 2.695781707763672, 0.9473434090614319, 0.12048855423927307, -1.0712890625, 0.308837890625, 7.32421875E-4, 0, 
398, 1771367203, 0.7190825, -0.035211794, -0.6940329, 6.767092E-4, 10.017580032348633, -0.49950721859931946, 0.3095369040966034, 2.375962018966675, 1.5336627960205078, 0.1011829674243927, -1.07177734375, 0.3056640625, -0.004638671875, 0, 
399, 1771383870, 0.719213, -0.035039734, -0.69390607, 8.8557875E-4, 9.953144073486328, -0.5574981570243835, 0.34126266837120056, 2.7275218963623047, 1.7427648305892944, -0.1440650224685669, -1.069580078125, 0.306884765625, -0.003173828125, 0, 
400, 1771400537, 0.71929497, -0.03464632, -0.6938404, 0.0012436484, 9.935812950134277, -0.5919999480247498, 0.3486492335796356, 3.4122393131256104, 1.226528286933899, -0.5283003449440002, -1.06884765625, 0.310546875, -0.00439453125, 0, 
401, 1771417204, 0.7194007, -0.03411451, -0.6937562, 0.0017123814, 9.959977149963379, -0.5495651960372925, 0.3407230079174042, 4.532135963439941, 1.4071170091629028, -0.6429429054260254, -1.066650390625, 0.308349609375, 0.001220703125, 0, 
402, 1771433871, 0.7195468, -0.03390251, -0.6936147, 0.0018379673, 9.947928428649902, -0.44789305329322815, 0.34588858485221863, 4.460874080657959, 1.812226414680481, -0.6509274840354919, -1.069580078125, 0.31005859375, -0.006103515625, 0, 
403, 1771450538, 0.7196762, -0.0337162, -0.6934895, 0.0019084029, 9.953700065612793, -0.4198002815246582, 0.34669312834739685, 3.0946545600891113, 1.7097630500793457, -0.8513981699943542, -1.072265625, 0.3095703125, -0.006103515625, 0, 
404, 1771467205, 0.71981764, -0.033437233, -0.6933556, 0.0020234934, 9.982682228088379, -0.47564220428466797, 0.3552584946155548, 1.8958330154418945, 1.8928872346878052, -1.156170129776001, -1.07177734375, 0.309814453125, -0.007080078125, 0, 
405, 1771483872, 0.71998537, -0.033278, -0.6931894, 0.0019588305, 9.991850852966309, -0.5390825271606445, 0.34709107875823975, 1.8525601625442505, 2.150320529937744, -1.399119257926941, -1.070556640625, 0.309814453125, -9.765625E-4, 0, 
406, 1771500539, 0.7201636, -0.032702588, -0.69303083, 0.0022525948, 9.941438674926758, -0.5360301733016968, 0.3429899215698242, 3.029245615005493, 2.204376220703125, -1.7338773012161255, -1.069580078125, 0.306884765625, -0.007568359375, 0, 
407, 1771517206, 0.72034, -0.032255072, -0.69286805, 0.002371957, 9.951312065124512, -0.513847827911377, 0.32047325372695923, 3.8711676597595215, 2.1428611278533936, -1.8758933544158936, -1.06884765625, 0.309326171875, -0.0087890625, 0, 
408, 1771533873, 0.72052985, -0.03186629, -0.6926884, 0.0024311147, 9.958914756774902, -0.4759909510612488, 0.35890910029411316, 3.697065830230713, 2.2853190898895264, -1.8705406188964844, -1.070068359375, 0.31005859375, -0.010498046875, 0, 
409, 1771550540, 0.7207118, -0.03142726, -0.6925189, 0.0025422282, 9.978099822998047, -0.4701240062713623, 0.35286352038383484, 3.4302830696105957, 2.22158145904541, -1.8918499946594238, -1.072509765625, 0.30908203125, -0.0068359375, 0, 
410, 1771567207, 0.72088176, -0.031288315, -0.69234926, 0.0022729824, 9.995756149291992, -0.4675523042678833, 0.3520287573337555, 3.4207234382629395, 2.0981862545013428, -2.175440549850464, -1.069580078125, 0.309326171875, -0.009033203125, 0, 
411, 1771583874, 0.72102976, -0.030519856, -0.692228, 0.0026535012, 9.995221138000488, -0.48324403166770935, 0.3329025208950043, 3.344602346420288, 1.9001870155334473, -2.2847681045532227, -1.0693359375, 0.310546875, -0.009521484375, 0, 
412, 1771600541, 0.72120166, -0.029757382, -0.6920807, 0.002995893, 9.961343765258789, -0.501203715801239, 0.3819727897644043, 3.175194025039673, 2.1489827632904053, -2.439283609390259, -1.068603515625, 0.30615234375, -0.014404296875, 0, 
413, 1771617208, 0.7213697, -0.029226625, -0.6919278, 0.0030705065, 9.951818466186523, -0.4597797393798828, 0.3415803909301758, 3.210577964782715, 2.101522207260132, -2.536919116973877, -1.07080078125, 0.30859375, -0.013916015625, 0, 
414, 1771633875, 0.72154236, -0.028583826, -0.69177365, 0.0032780366, 9.981649398803711, -0.48472434282302856, 0.39032870531082153, 3.7329230308532715, 2.132219076156616, -2.444700241088867, -1.069091796875, 0.30859375, -0.017578125, 0, 
415, 1771650542, 0.7217279, -0.028192129, -0.69159657, 0.0032017464, 9.97577953338623, -0.4678955078125, 0.4282884895801544, 3.499706745147705, 2.2615244388580322, -2.5289015769958496, -1.0703125, 0.30712890625, -0.014892578125, 0, 
416, 1771667209, 0.72187656, -0.027838247, -0.69145626, 0.0031146705, 9.97475814819336, -0.47310391068458557, 0.41351205110549927, 3.5031776428222656, 1.8980034589767456, -2.3922200202941895, -1.06787109375, 0.307861328125, -0.01416015625, 0, 
417, 1771683876, 0.72203237, -0.02756867, -0.69130504, 0.002953662, 10.013688087463379, -0.48530417680740356, 0.4099702537059784, 3.5348093509674072, 1.9677855968475342, -2.3121931552886963, -1.0703125, 0.306640625, -0.014892578125, 0, 
418, 1771700543, 0.72218245, -0.027132267, -0.6911655, 0.0029553024, 10.001983642578125, -0.5077513456344604, 0.4327733516693115, 3.296290636062622, 1.9276503324508667, -2.399967670440674, -1.069580078125, 0.306884765625, -0.0166015625, 0, 
419, 1771717210, 0.72231567, -0.026493093, -0.69105005, 0.0032203123, 9.989178657531738, -0.499712198972702, 0.4319620430469513, 3.2396225929260254, 1.7705292701721191, -2.1894760131835938, -1.066650390625, 0.3046875, -0.02001953125, 0, 
420, 1771733877, 0.72245485, -0.025868045, -0.6909267, 0.0035103047, 9.991039276123047, -0.4785515069961548, 0.44732990860939026, 2.601469039916992, 1.8593794107437134, -2.038296699523926, -1.067138671875, 0.306884765625, -0.01904296875, 0, 
421, 1771750544, 0.7225824, -0.0255306, -0.69080573, 0.0035275589, 9.980749130249023, -0.49669402837753296, 0.428824782371521, 2.877209424972534, 1.7241894006729126, -1.8582910299301147, -1.070556640625, 0.306396484375, -0.022216796875, 0, 
422, 1771767211, 0.7226761, -0.025233248, -0.6907184, 0.0035815956, 9.988274574279785, -0.5206723213195801, 0.43953365087509155, 3.0063934326171875, 1.3819715976715088, -1.4824824333190918, -1.072021484375, 0.303955078125, -0.0224609375, 0, 
423, 1771783878, 0.7227591, -0.024631847, -0.69065094, 0.0039903484, 10.00344181060791, -0.508987307548523, 0.412455677986145, 3.1755905151367188, 1.2864234447479248, -1.3410747051239014, -1.0712890625, 0.302734375, -0.021240234375, 0, 
424, 1771800545, 0.72284585, -0.024190774, -0.69057447, 0.0042437003, 9.977807998657227, -0.47854840755462646, 0.44073379039764404, 3.7428481578826904, 1.2957464456558228, -1.2308118343353271, -1.070556640625, 0.3037109375, -0.024169921875, 0, 
425, 1771817212, 0.72291523, -0.023552865, -0.69052017, 0.0048085204, 9.96377944946289, -0.4588305354118347, 0.49852684140205383, 3.7353439331054688, 1.1419551372528076, -0.7649298310279846, -1.06787109375, 0.3056640625, -0.023193359375, 0, 
426, 1771833879, 0.72294617, -0.023261527, -0.6904956, 0.005065151, 10.005069732666016, -0.5375412106513977, 0.5120142102241516, 3.5216054916381836, 0.753141462802887, -0.48184534907341003, -1.0712890625, 0.303955078125, -0.022216796875, 0, 
427, 1771850546, 0.7229343, -0.022880271, -0.6905185, 0.005389449, 9.96383285522461, -0.5756590366363525, 0.4851303994655609, 3.49399471282959, 0.3295714259147644, -0.6262496709823608, -1.072998046875, 0.306396484375, -0.024658203125, 0, 
428, 1771867213, 0.72287273, -0.022809435, -0.690585, 0.0054511055, 9.904284477233887, -0.5072911381721497, 0.4470464885234833, 3.229710340499878, -0.17159868776798248, -0.32035723328590393, -1.071533203125, 0.3056640625, -0.0234375, 0, 
429, 1771883880, 0.72280926, -0.022639045, -0.69065446, 0.0057494408, 9.942667007446289, -0.4241485893726349, 0.4409630596637726, 2.1846609115600586, -0.13093852996826172, 0.22984838485717773, -1.0693359375, 0.30517578125, -0.024658203125, 0, 
430, 1771900547, 0.72277296, -0.022460744, -0.69069463, 0.0061652316, 9.95276927947998, -0.3853432834148407, 0.4910637438297272, 0.4776064157485962, 0.21653614938259125, 0.6458305716514587, -1.07177734375, 0.30908203125, -0.0234375, 0, 
431, 1771917214, 0.72269756, -0.022484677, -0.6907702, 0.0064479755, 9.938536643981934, -0.43791842460632324, 0.48842692375183105, -0.3553825914859772, -0.14925159513950348, 0.9899308085441589, -1.06884765625, 0.305908203125, -0.021484375, 0, 
432, 1771933881, 0.7226104, -0.022612298, -0.6908556, 0.0066233524, 9.959759712219238, -0.5232034921646118, 0.4203716516494751, 0.38877516984939575, -0.3039395213127136, 1.0498902797698975, -1.072998046875, 0.304443359375, -0.02294921875, 0, 
433, 1771950548, 0.7225671, -0.0225256, -0.6908999, 0.0070010875, 9.967977523803711, -0.5547959804534912, 0.4289662539958954, 2.3035550117492676, 0.07095998525619507, 1.0335493087768555, -1.07275390625, 0.306884765625, -0.025146484375, 0, 
434, 1771967215, 0.72255236, -0.022129955, -0.6909204, 0.0077444366, 9.981294631958008, -0.5004517436027527, 0.47057610750198364, 3.844799757003784, 0.32616496086120605, 1.2827098369598389, -1.0693359375, 0.307373046875, -0.021484375, 0, 
435, 1771983882, 0.7225428, -0.02207587, -0.6909273, 0.008156562, 9.983304977416992, -0.4555123448371887, 0.47589045763015747, 3.494251251220703, 0.36469927430152893, 1.4288302659988403, -1.07177734375, 0.30908203125, -0.0234375, 0, 
436, 1772000549, 0.72252715, -0.02195933, -0.6909414, 0.008660527, 9.977524757385254, -0.4444752037525177, 0.41523826122283936, 2.9658992290496826, 0.33452746272087097, 1.5135695934295654, -1.0673828125, 0.30810546875, -0.019775390625, 0, 
437, 1772017216, 0.72251236, -0.022216491, -0.6909473, 0.008765111, 10.005677223205566, -0.4610552489757538, 0.39211463928222656, 2.8030858039855957, 0.30852416157722473, 1.5135631561279297, -1.068359375, 0.307373046875, -0.025146484375, 0, 
438, 1772033883, 0.7225005, -0.022156315, -0.6909562, 0.009190032, 9.99571704864502, -0.47153276205062866, 0.43543776869773865, 2.6646299362182617, 0.37805622816085815, 1.4090825319290161, -1.070556640625, 0.309326171875, -0.02001953125, 0, 
439, 1772050550, 0.7224662, -0.02226802, -0.6909851, 0.009423517, 9.976643562316895, -0.4253607392311096, 0.4349837601184845, 1.9632006883621216, 0.16608554124832153, 1.3379179239273071, -1.068115234375, 0.311767578125, -0.0234375, 0, 
440, 1772067217, 0.72245216, -0.022263912, -0.690995, 0.009783396, 10.010018348693848, -0.43677201867103577, 0.42566946148872375, 1.1789653301239014, 0.4157837927341461, 1.304416537284851, -1.068115234375, 0.3115234375, -0.02197265625, 0, 
441, 1772083884, 0.7224365, -0.022326363, -0.6910057, 0.010042862, 9.963998794555664, -0.4701501727104187, 0.43454229831695557, 1.086388349533081, 0.39232251048088074, 1.1645582914352417, -1.06689453125, 0.310546875, -0.020263671875, 0, 
442, 1772100551, 0.72240967, -0.022396764, -0.6910284, 0.010250475, 9.958584785461426, -0.504818320274353, 0.4095347225666046, 1.4840447902679443, 0.25756770372390747, 0.9834316968917847, -1.068603515625, 0.313232421875, -0.0224609375, 0, 
443, 1772117218, 0.722419, -0.02218453, -0.69101846, 0.0107204085, 9.960068702697754, -0.49093180894851685, 0.41939353942871094, 2.9705867767333984, 0.5834702253341675, 0.8791816830635071, -1.06787109375, 0.3115234375, -0.021240234375, 0, 
444, 1772133885, 0.7224391, -0.022031121, -0.6909966, 0.011091406, 9.961346626281738, -0.43011581897735596, 0.42814725637435913, 3.450472593307495, 0.6563702821731567, 0.7385486960411072, -1.06982421875, 0.311279296875, -0.02001953125, 0, 
445, 1772150552, 0.72243303, -0.02177627, -0.6910038, 0.01152957, 9.962522506713867, -0.4228488504886627, 0.40531104803085327, 3.385883331298828, 0.4112246632575989, 0.54105544090271, -1.066162109375, 0.31201171875, -0.018798828125, 0, 
446, 1772167219, 0.72243375, -0.02184789, -0.6910001, 0.011575532, 9.974248886108398, -0.46522462368011475, 0.39500609040260315, 2.957805633544922, 0.43956512212753296, 0.3195952773094177, -1.072509765625, 0.3134765625, -0.0185546875, 0, 
447, 1772183886, 0.72246903, -0.02194699, -0.6909606, 0.011535512, 9.974272727966309, -0.4965379238128662, 0.415901780128479, 2.7710702419281006, 0.780502200126648, 0.04703132063150406, -1.065673828125, 0.311767578125, -0.021484375, 0, 
448, 1772200553, 0.72250307, -0.021718819, -0.6909278, 0.011799073, 9.960765838623047, -0.4451754689216614, 0.46679550409317017, 2.277186870574951, 0.8352686166763306, -0.20349931716918945, -1.06591796875, 0.312744140625, -0.020751953125, 0, 
449, 1772217220, 0.7225377, -0.021587094, -0.69089425, 0.011890525, 9.95955753326416, -0.4547754228115082, 0.47139284014701843, 2.299802780151367, 0.8127294778823853, -0.5241703391075134, -1.06640625, 0.313232421875, -0.01953125, 0, 
450, 1772233887, 0.72255963, -0.021431796, -0.69087464, 0.011979341, 9.945100784301758, -0.43996042013168335, 0.406262069940567, 2.2178549766540527, 0.6900702118873596, -0.65830397605896, -1.06787109375, 0.313232421875, -0.025634765625, 0, 
451, 1772250554, 0.72256166, -0.021117557, -0.6908783, 0.012199639, 9.947731971740723, -0.43537455797195435, 0.41829851269721985, 1.6983652114868164, 0.5359712839126587, -0.8752948045730591, -1.06689453125, 0.31298828125, -0.021728515625, 0, 
452, 1772267221, 0.72257674, -0.020966018, -0.6908664, 0.012245135, 9.95555305480957, -0.4409801959991455, 0.4534493088722229, 1.2408137321472168, 0.6599816679954529, -0.8984294533729553, -1.06689453125, 0.3115234375, -0.02001953125, 0, 
453, 1772283888, 0.7225922, -0.020868646, -0.690854, 0.012195827, 9.953118324279785, -0.4563535749912262, 0.4618283212184906, 0.9203924536705017, 0.6637147665023804, -1.0870863199234009, -1.070068359375, 0.313720703125, -0.0224609375, 0, 
454, 1772300555, 0.72258115, -0.020774392, -0.69087017, 0.012088631, 9.95450210571289, -0.4578453004360199, 0.4503989517688751, 0.7374536395072937, 0.3984311521053314, -1.355891466140747, -1.067626953125, 0.310791015625, -0.01904296875, 0, 
455, 1772317222, 0.72254753, -0.020747319, -0.69090956, 0.01189955, 9.948472023010254, -0.49928566813468933, 0.44468218088150024, 1.4133086204528809, 0.12916482985019684, -1.361923098564148, -1.066650390625, 0.314453125, -0.017333984375, 0, 
456, 1772333889, 0.7225086, -0.020673532, -0.69095546, 0.011732069, 9.94919204711914, -0.44556882977485657, 0.40905171632766724, 1.2119414806365967, 0.08867115527391434, -1.506545066833496, -1.0673828125, 0.3115234375, -0.01953125, 0, 
457, 1772350556, 0.7224724, -0.020555833, -0.6909987, 0.011615984, 9.928255081176758, -0.44202399253845215, 0.41480523347854614, 0.9509483575820923, 0.1372968703508377, -1.5023194551467896, -1.070556640625, 0.3125, -0.02294921875, 0, 
458, 1772367223, 0.722413, -0.020346269, -0.69106686, 0.011630691, 9.95472526550293, -0.445561021566391, 0.41515859961509705, 0.6365780830383301, -0.060298699885606766, -1.3710285425186157, -1.068603515625, 0.31005859375, -0.022705078125, 0, 
459, 1772383890, 0.72237295, -0.020267881, -0.6911132, 0.011497104, 9.96513557434082, -0.4572364091873169, 0.4259774684906006, 0.24431952834129333, 0.12815313041210175, -1.4272996187210083, -1.066650390625, 0.3115234375, -0.020751953125, 0, 
460, 1772400557, 0.7223216, -0.020099184, -0.6911728, 0.011434229, 9.956890106201172, -0.4787087142467499, 0.42977556586265564, 0.7282330989837646, 0.005519537255167961, -1.52165687084198, -1.06689453125, 0.30908203125, -0.01904296875, 0, 
461, 1772417224, 0.7222871, -0.019985532, -0.69121444, 0.011300426, 9.966292381286621, -0.4721177816390991, 0.38153067231178284, 1.1932828426361084, 0.14048565924167633, -1.5501381158828735, -1.06494140625, 0.30908203125, -0.0205078125, 0, 
462, 1772433891, 0.7222881, -0.019774415, -0.69122016, 0.011254443, 9.968122482299805, -0.478414386510849, 0.38845309615135193, 1.583594799041748, 0.491315633058548, -1.6047958135604858, -1.068359375, 0.309814453125, -0.021728515625, 0, 
463, 1772450558, 0.72228545, -0.019374931, -0.69123125, 0.011441489, 9.973322868347168, -0.46758270263671875, 0.3926202952861786, 2.2484748363494873, 0.46271902322769165, -1.4219722747802734, -1.068359375, 0.308349609375, -0.017822265625, 0, 
464, 1772467225, 0.72228765, -0.01930843, -0.6912333, 0.011300711, 9.966901779174805, -0.4868506193161011, 0.3754092752933502, 2.469768524169922, 0.4523330628871918, -1.2708957195281982, -1.070068359375, 0.307861328125, -0.020263671875, 0, 
465, 1772483892, 0.7223028, -0.018982682, -0.69122404, 0.011441352, 9.992298126220703, -0.4909052848815918, 0.39508476853370667, 2.7277016639709473, 0.6149225831031799, -1.2396355867385864, -1.068603515625, 0.30712890625, -0.023193359375, 0, 
466, 1772500559, 0.7223334, -0.0185948, -0.69119936, 0.0116439555, 9.992344856262207, -0.4458162486553192, 0.3690715432167053, 3.2930121421813965, 0.7531286478042603, -1.2317724227905273, -1.068603515625, 0.305419921875, -0.022216796875, 0, 
467, 1772517226, 0.7223732, -0.01822337, -0.6911633, 0.011895358, 9.985109329223633, -0.429392009973526, 0.35900551080703735, 3.117283344268799, 0.86317378282547, -0.9268021583557129, -1.068359375, 0.30859375, -0.02490234375, 0, 
468, 1772533893, 0.72240186, -0.017885633, -0.6911378, 0.012148789, 10.017395973205566, -0.5099343061447144, 0.4267745912075043, 2.6856837272644043, 0.7718002796173096, -0.7754052877426147, -1.069091796875, 0.30712890625, -0.02197265625, 0, 
469, 1772550560, 0.722465, -0.017657794, -0.6910761, 0.012238484, 10.004082679748535, -0.5409731864929199, 0.4622717797756195, 3.045285701751709, 1.0742733478546143, -0.9672059416770935, -1.06884765625, 0.307373046875, -0.021240234375, 0, 
470, 1772567227, 0.7224675, -0.017349066, -0.69107836, 0.012407715, 9.93075180053711, -0.5101486444473267, 0.42198070883750916, 3.227328062057495, 0.47681882977485657, -0.9929978847503662, -1.07177734375, 0.30712890625, -0.025390625, 0, 
471, 1772583894, 0.7225064, -0.017024666, -0.6910418, 0.012620102, 9.943115234375, -0.39591896533966064, 0.409506231546402, 2.666768789291382, 0.8708829879760742, -0.9039554595947266, -1.067626953125, 0.30712890625, -0.025634765625, 0, 
472, 1772600561, 0.7226382, -0.016866086, -0.690907, 0.012684331, 9.947922706604004, -0.3475363254547119, 0.4393582344055176, 1.7860249280929565, 1.8059515953063965, -0.8116024732589722, -1.06494140625, 0.30908203125, -0.026123046875, 0, 
473, 1772617228, 0.72276866, -0.016651664, -0.6907721, 0.012869205, 9.919222831726074, -0.40955275297164917, 0.46628010272979736, 1.775875449180603, 1.8152039051055908, -0.525841474533081, -1.068603515625, 0.307373046875, -0.024658203125, 0, 
474, 1772633895, 0.72287613, -0.016366113, -0.6906622, 0.013099589, 9.932799339294434, -0.49626612663269043, 0.4722304940223694, 2.854708194732666, 1.5500997304916382, -0.6063293814659119, -1.066650390625, 0.30712890625, -0.0244140625, 0, 
475, 1772650562, 0.7230046, -0.015900046, -0.6905301, 0.013538767, 9.958189964294434, -0.5526920557022095, 0.44279593229293823, 4.872624397277832, 1.7140915393829346, -0.41840270161628723, -1.070556640625, 0.30615234375, -0.025146484375, 0, 
476, 1772667229, 0.7231672, -0.015355041, -0.6903615, 0.014077337, 9.986640930175781, -0.4934460520744324, 0.4876909554004669, 5.723426342010498, 2.0405125617980957, -0.3008787930011749, -1.068603515625, 0.308837890625, -0.027587890625, 0, 
477, 1772683896, 0.7233022, -0.014931018, -0.69022125, 0.014470104, 9.962018013000488, -0.40561825037002563, 0.464995801448822, 5.575987339019775, 1.7474265098571777, -0.38587450981140137, -1.064453125, 0.307373046875, -0.029052734375, 0, 
478, 1772700563, 0.72339445, -0.0144686345, -0.69012386, 0.01496416, 10.014894485473633, -0.3695315718650818, 0.4007760286331177, 4.40732479095459, 1.3913140296936035, -0.173193097114563, -1.06591796875, 0.3095703125, -0.030029296875, 0, 
479, 1772717230, 0.72348684, -0.014113016, -0.6900256, 0.01536443, 9.981642723083496, -0.41817450523376465, 0.4035293161869049, 2.971534252166748, 1.4368340969085693, -0.15868988633155823, -1.0654296875, 0.31005859375, -0.029541015625, 0, 
480, 1772733897, 0.72352064, -0.014060933, -0.6899893, 0.015452166, 9.947562217712402, -0.4575827717781067, 0.42860808968544006, 2.1230111122131348, 0.8249978423118591, -0.14433397352695465, -1.06787109375, 0.308349609375, -0.027587890625, 0, 
481, 1772750564, 0.7234841, -0.01384371, -0.69002646, 0.015698094, 9.950583457946777, -0.4498697519302368, 0.444724440574646, 2.419247627258301, 0.14608202874660492, -0.21328337490558624, -1.068603515625, 0.3095703125, -0.027587890625, 0, 
482, 1772767231, 0.7234478, -0.013610168, -0.6900629, 0.015971497, 10.008304595947266, -0.4510558843612671, 0.47901955246925354, 2.9064395427703857, 0.133416548371315, -0.13741853833198547, -1.069091796875, 0.310302734375, -0.026123046875, 0, 
483, 1772783898, 0.7234172, -0.013362767, -0.6900939, 0.016228244, 9.985301971435547, -0.4528771936893463, 0.5145468711853027, 2.8463010787963867, 0.19077618420124054, -0.28889206051826477, -1.067626953125, 0.309814453125, -0.029296875, 0, 
484, 1772800565, 0.72335887, -0.0129912, -0.6901535, 0.016589072, 9.957091331481934, -0.41820061206817627, 0.5309465527534485, 2.540510654449463, -0.04997677356004715, -0.44625645875930786, -1.06396484375, 0.308837890625, -0.027099609375, 0, 
485, 1772817232, 0.7233134, -0.0129243, -0.6902022, 0.016605943, 9.975653648376465, -0.3965207040309906, 0.44137686491012573, 2.9578568935394287, -0.017090072855353355, -0.4976099133491516, -1.067138671875, 0.31103515625, -0.030029296875, 0, 
486, 1772833899, 0.7232962, -0.012664325, -0.69021964, 0.016823446, 9.97131633758545, -0.3955274224281311, 0.4254838526248932, 2.4676170349121094, 0.3312874436378479, -0.5614111423492432, -1.06689453125, 0.312255859375, -0.030517578125, 0, 
487, 1772850566, 0.7232451, -0.012094083, -0.6902705, 0.017350428, 9.966630935668945, -0.3927914500236511, 0.43627744913101196, 2.419567823410034, 0.06873168051242828, -0.6746833920478821, -1.067626953125, 0.31005859375, -0.03076171875, 0, 
488, 1772867233, 0.7231823, -0.011917259, -0.6903364, 0.017457416, 9.970635414123535, -0.4404250979423523, 0.4068615138530731, 2.449547290802002, -0.1445772647857666, -0.6588418483734131, -1.0693359375, 0.30908203125, -0.0244140625, 0, 
489, 1772883900, 0.7231255, -0.011664597, -0.69039583, 0.017636336, 9.980103492736816, -0.4391742944717407, 0.3904390037059784, 2.519796371459961, -0.07065263390541077, -0.6941041350364685, -1.0673828125, 0.307861328125, -0.02734375, 0, 
490, 1772900567, 0.7230805, -0.011429844, -0.6904423, 0.017811853, 9.970575332641602, -0.4570411145687103, 0.40130218863487244, 2.838623523712158, 0.03535192459821701, -0.604715883731842, -1.06787109375, 0.31005859375, -0.027099609375, 0, 
491, 1772917234, 0.72306424, -0.011168325, -0.6904598, 0.017970487, 9.964139938354492, -0.43196019530296326, 0.43177905678749084, 2.8903679847717285, 0.3150746524333954, -0.8169618844985962, -1.0703125, 0.30908203125, -0.027099609375, 0, 
492, 1772933901, 0.7230515, -0.010967949, -0.69047445, 0.018041829, 9.952288627624512, -0.4177631735801697, 0.44163957238197327, 3.3043453693389893, 0.3139476478099823, -0.893735945224762, -1.06787109375, 0.31201171875, -0.02880859375, 0, 
493, 1772950568, 0.72303367, -0.010933401, -0.69049597, 0.017958097, 9.954700469970703, -0.3970297574996948, 0.4418858587741852, 3.464808940887451, 0.21579979360103607, -0.7790037989616394, -1.0693359375, 0.31201171875, -0.026611328125, 0, 
494, 1772967235, 0.7230384, -0.010691099, -0.6904911, 0.018099144, 9.960559844970703, -0.3767763376235962, 0.4705268144607544, 3.312387466430664, 0.505530595779419, -0.7782481908798218, -1.0673828125, 0.310546875, -0.02685546875, 0, 
495, 1772983902, 0.72301775, -0.0105680525, -0.6905133, 0.018150497, 9.961771965026855, -0.4021928310394287, 0.4724958539009094, 2.75241756439209, 0.2525412440299988, -0.6284523606300354, -1.06689453125, 0.309814453125, -0.028076171875, 0, 
496, 1773000569, 0.7230138, -0.010465753, -0.69051784, 0.018191108, 9.983078002929688, -0.42251840233802795, 0.4331992268562317, 2.8632564544677734, 0.41231322288513184, -0.569786548614502, -1.0693359375, 0.308837890625, -0.02880859375, 0, 
497, 1773017236, 0.7230282, -0.010191431, -0.690501, 0.01841255, 9.976003646850586, -0.4601413309574127, 0.43234238028526306, 3.8775203227996826, 0.5989402532577515, -0.5292417407035828, -1.063720703125, 0.310546875, -0.031494140625, 0, 
498, 1773033903, 0.72304773, -0.009993648, -0.6904805, 0.018529931, 9.994187355041504, -0.44618016481399536, 0.46059492230415344, 3.8884437084198, 0.6224399209022522, -0.6357393264770508, -1.0673828125, 0.312255859375, -0.03125, 0, 
499, 1773050570, 0.7230447, -0.00956782, -0.6904798, 0.018896217, 9.980033874511719, -0.37917399406433105, 0.47055643796920776, 3.505469560623169, 0.4784964919090271, -0.6363667845726013, -1.0673828125, 0.310302734375, -0.0283203125, 0, 
