sep=,
DeviceTag:,Xsens_2,,,,,,,,,,,,,,,,,
FirmwareVersion:,2.2.1,,,,,,,,,,,,,,,,,
AppVersion:,2023.0.0,,,,,,,,,,,,,,,,,
StartTime:,2023-07-03 13:19:10.000 +0200,,,,,,,,,,,,,,,,,
© Movella Technologies B. V. 2005-2023,,,,,,,,,,,,,,,,,,,

PacketCounter,SampleTimeFine,Quat_W,Quat_X,Quat_Y,Quat_Z,Acc_X,Acc_Y,Acc_Z,Gyr_X,Gyr_Y,Gyr_Z,Mag_X,Mag_Y,Mag_Z,Status,
0, 998595892, 0.7260841, 0.18756826, -0.5784654, 0.32093284, 0.0, 0.0, 0.0, 0.0, 0.0, 0.0, -0.2822265625, 0.585693359375, -0.6494140625, 0, 
1, 998612559, 0.7258556, 0.1887981, -0.5777431, 0.32202765, 9.660835266113281, -0.7335385084152222, 2.5912749767303467, 15.845612525939941, 3.712609052658081, 5.314685344696045, -0.279296875, 0.5859375, -0.65283203125, 0, 
2, 998629226, 0.72623813, 0.19071183, -0.57673436, 0.3218456, 9.648536682128906, -0.6003434658050537, 2.682992935180664, 11.20399284362793, 4.163609027862549, 3.7557525634765625, -0.277587890625, 0.58544921875, -0.656494140625, 0, 
3, 998645893, 0.7274192, 0.19211273, -0.5754473, 0.32064694, 9.701408386230469, -0.5335419774055481, 2.74253249168396, 2.3523666858673096, 5.346210479736328, 2.1673660278320312, -0.277099609375, 0.585205078125, -0.65283203125, 0, 
4, 998662560, 0.72917014, 0.19255319, -0.57420367, 0.318629, 9.653151512145996, -0.6087340116500854, 2.693150281906128, -4.645786285400391, 6.6905317306518555, 0.7337207794189453, -0.275634765625, 0.58642578125, -0.653076171875, 0, 
5, 998679227, 0.7307933, 0.1924401, -0.5732739, 0.31664672, 9.581155776977539, -0.8009829521179199, 2.6011974811553955, -6.87812614440918, 6.57643985748291, -0.09877539426088333, -0.275390625, 0.586669921875, -0.650146484375, 0, 
6, 998695894, 0.732089, 0.19199555, -0.5725589, 0.31521398, 9.576202392578125, -1.0155302286148071, 2.606917381286621, -4.771263122558594, 7.230216979980469, -0.3407258689403534, -0.2744140625, 0.589111328125, -0.650634765625, 0, 
7, 998712561, 0.7330533, 0.19150916, -0.5717844, 0.31467402, 9.533562660217285, -1.170378565788269, 2.609255075454712, 0.07238789647817612, 8.369853973388672, -0.1415870189666748, -0.273193359375, 0.588134765625, -0.650390625, 0, 
8, 998729228, 0.73364705, 0.1913066, -0.57089037, 0.31503662, 9.479515075683594, -1.186706781387329, 2.557204246520996, 5.982956886291504, 8.56638240814209, -0.018249057233333588, -0.27001953125, 0.58935546875, -0.6494140625, 0, 
9, 998745895, 0.73396003, 0.19137633, -0.5700057, 0.315866, 9.516992568969727, -0.9847723841667175, 2.4689619541168213, 10.671435356140137, 7.908016204833984, 0.07697901129722595, -0.267578125, 0.58837890625, -0.65625, 0, 
10, 998762562, 0.7341867, 0.19164015, -0.5691332, 0.31675115, 9.550753593444824, -0.7174721360206604, 2.449981689453125, 10.441292762756348, 8.104541778564453, -0.6026864647865295, -0.267333984375, 0.5869140625, -0.65283203125, 0, 
11, 998779229, 0.73456097, 0.19154704, -0.5686018, 0.3168945, 9.530029296875, -0.5845367908477783, 2.4225339889526367, 5.03725004196167, 7.311633110046387, -1.4349772930145264, -0.26416015625, 0.58837890625, -0.657470703125, 0, 
12, 998795896, 0.7350278, 0.19122224, -0.56839573, 0.3163777, 9.49127197265625, -0.7435525059700012, 2.4498465061187744, -0.5359970331192017, 6.137136459350586, -2.5934011936187744, -0.26025390625, 0.589111328125, -0.658447265625, 0, 
13, 998812563, 0.73550826, 0.19091807, -0.56830746, 0.31560242, 9.44217300415039, -0.9488049149513245, 2.5224618911743164, -2.410693407058716, 5.36643123626709, -3.72623872756958, -0.26318359375, 0.58837890625, -0.656982421875, 0, 
14, 998829230, 0.73588437, 0.19068387, -0.5682598, 0.31495222, 9.429638862609863, -1.0861191749572754, 2.569453001022339, -1.4870480298995972, 4.567545413970947, -3.4298479557037354, -0.26416015625, 0.58837890625, -0.657470703125, 0, 
15, 998845897, 0.73608166, 0.19057956, -0.56822157, 0.3146234, 9.459511756896973, -1.0827800035476685, 2.650956392288208, 0.41988182067871094, 3.701906204223633, -2.5391852855682373, -0.26220703125, 0.589111328125, -0.6572265625, 0, 
16, 998862564, 0.7361737, 0.19055688, -0.56818384, 0.3144895, 9.49345874786377, -0.9506852030754089, 2.737874984741211, 1.6737966537475586, 2.9994845390319824, -2.019369602203369, -0.262451171875, 0.588134765625, -0.658203125, 0, 
17, 998879231, 0.7361875, 0.19060184, -0.56818783, 0.31442297, 9.462296485900879, -0.8055127859115601, 2.7391552925109863, 1.833504319190979, 2.029672145843506, -1.8362001180648804, -0.262939453125, 0.587158203125, -0.6591796875, 0, 
18, 998895898, 0.7361166, 0.19070452, -0.5682936, 0.31433544, 9.42715835571289, -0.7454716563224792, 2.7365028858184814, 1.5036383867263794, 0.7132560610771179, -1.7152824401855469, -0.262939453125, 0.587646484375, -0.6591796875, 0, 
19, 998912565, 0.73602486, 0.19081008, -0.5684928, 0.3141257, 9.424793243408203, -0.7862595915794373, 2.6970224380493164, 0.8051031827926636, -0.29859283566474915, -1.9042785167694092, -0.263916015625, 0.5849609375, -0.657470703125, 0, 
20, 998929232, 0.7358654, 0.19092612, -0.5687641, 0.3139376, 9.476727485656738, -0.8446605801582336, 2.70524001121521, 0.543130099773407, -1.0845696926116943, -1.5227516889572144, -0.26318359375, 0.586669921875, -0.66015625, 0, 
21, 998945899, 0.7356359, 0.19095057, -0.5691168, 0.31382143, 9.550296783447266, -0.8985872864723206, 2.7966859340667725, 0.1218460276722908, -1.6196320056915283, -0.5189261436462402, -0.26416015625, 0.586669921875, -0.66064453125, 0, 
22, 998962566, 0.7353772, 0.19097833, -0.56947994, 0.31375217, 9.566216468811035, -0.88581782579422, 2.7732396125793457, 0.10108692198991776, -1.9170976877212524, -0.2783588469028473, -0.26513671875, 0.586669921875, -0.657470703125, 0, 
23, 998979233, 0.7350919, 0.19109434, -0.5698725, 0.313637, 9.597221374511719, -0.8070028424263, 2.7044968605041504, 0.6769309043884277, -2.5957958698272705, -0.6329538226127625, -0.265869140625, 0.586669921875, -0.65869140625, 0, 
24, 998995900, 0.73479176, 0.19116701, -0.57036537, 0.31340024, 9.606968879699707, -0.7475463151931763, 2.631113290786743, -0.5068240761756897, -3.271817207336426, -0.8940497040748596, -0.267333984375, 0.5849609375, -0.658935546875, 0, 
25, 999012567, 0.73452765, 0.19116235, -0.5709255, 0.3130023, 9.662422180175781, -0.8095008134841919, 2.5332283973693848, -2.109820604324341, -3.4927268028259277, -1.3722642660140991, -0.267333984375, 0.587158203125, -0.655517578125, 0, 
26, 999029234, 0.73432523, 0.19101909, -0.5715383, 0.31244564, 9.71737003326416, -0.8593695163726807, 2.490460157394409, -3.0334081649780273, -3.4131038188934326, -1.4542187452316284, -0.267578125, 0.585693359375, -0.65673828125, 0, 
27, 999045901, 0.7340128, 0.19091739, -0.57222825, 0.31197903, 9.745427131652832, -0.9772046208381653, 2.4296483993530273, -3.0073537826538086, -4.089247703552246, -0.9505001306533813, -0.26806640625, 0.587158203125, -0.6552734375, 0, 
28, 999062568, 0.73355246, 0.19093624, -0.5729733, 0.31168216, 9.802154541015625, -1.0393586158752441, 2.3215112686157227, -1.6545807123184204, -4.894459247589111, -0.23088568449020386, -0.26904296875, 0.588134765625, -0.65185546875, 0, 
29, 999079235, 0.7329263, 0.19110161, -0.5738011, 0.31153113, 9.861071586608887, -0.9854603409767151, 2.242601156234741, 0.22532135248184204, -5.998264312744141, 0.46148326992988586, -0.27294921875, 0.5849609375, -0.651611328125, 0, 
30, 999095902, 0.73213035, 0.19122303, -0.5748283, 0.31143454, 9.854928970336914, -1.065857172012329, 2.1825742721557617, -0.3229506015777588, -7.33629846572876, 1.4119069576263428, -0.278564453125, 0.585693359375, -0.649658203125, 0, 
31, 999112569, 0.7309793, 0.19125894, -0.5762373, 0.31151232, 9.687918663024902, -1.1981186866760254, 1.9528015851974487, -0.22782501578330994, -10.132438659667969, 3.879319429397583, -0.27490234375, 0.5869140625, -0.647216796875, 0, 
32, 999129236, 0.7287355, 0.19193654, -0.57864225, 0.31189415, 9.408329010009766, -1.3855295181274414, 1.2989269495010376, 3.614201068878174, -20.272409439086914, 6.4232659339904785, -0.28173828125, 0.58935546875, -0.6455078125, 0, 
33, 999145903, 0.7249511, 0.19403233, -0.5822413, 0.3127182, 9.26742172241211, -1.3139123916625977, 0.4757682681083679, 12.599248886108398, -34.52022171020508, 7.840872764587402, -0.28515625, 0.585205078125, -0.64306640625, 0, 
34, 999162570, 0.71936035, 0.19743973, -0.5871441, 0.31432503, 9.33380126953125, -1.0813030004501343, -0.14911852777004242, 21.54556655883789, -49.395442962646484, 11.869660377502441, -0.292236328125, 0.58447265625, -0.639892578125, 0, 
35, 999179237, 0.71197504, 0.20132057, -0.5939411, 0.3159046, 9.49213981628418, -0.8879997134208679, -0.44212159514427185, 21.871164321899414, -66.34038543701172, 16.16754722595215, -0.298095703125, 0.581787109375, -0.636962890625, 0, 
36, 999195904, 0.7031777, 0.20434567, -0.60314935, 0.31621993, 9.744345664978027, -0.7856948971748352, -0.34543731808662415, 10.177775382995605, -83.22676086425781, 20.1230525970459, -0.315673828125, 0.580810546875, -0.628173828125, 0, 
37, 999212571, 0.6935769, 0.20542853, -0.61459726, 0.31467572, 10.025574684143066, -0.8105677366256714, 0.044172078371047974, -10.904495239257812, -95.2835922241211, 24.131956100463867, -0.3330078125, 0.58154296875, -0.615966796875, 0, 
38, 999229238, 0.683607, 0.2044292, -0.6276996, 0.31126156, 10.330534934997559, -1.1157827377319336, 0.11605323851108551, -32.046051025390625, -102.6434097290039, 27.24658203125, -0.354736328125, 0.585205078125, -0.59326171875, 0, 
39, 999245905, 0.67289495, 0.2022209, -0.64209604, 0.30664623, 10.333251953125, -1.7090615034103394, -0.06375068426132202, -44.44736862182617, -110.99195861816406, 30.328027725219727, -0.374755859375, 0.59130859375, -0.572021484375, 0, 
40, 999262572, 0.6610807, 0.19974925, -0.65729433, 0.30172303, 10.290252685546875, -2.3215982913970947, -0.2957301139831543, -47.61322784423828, -119.3894271850586, 33.392127990722656, -0.39599609375, 0.5966796875, -0.54248046875, 0, 
41, 999279239, 0.6481553, 0.19754939, -0.6725425, 0.29758328, 10.447993278503418, -2.555495262145996, -0.4731425642967224, -41.31462478637695, -124.1876220703125, 37.891746520996094, -0.4169921875, 0.6025390625, -0.5146484375, 0, 
42, 999295906, 0.6343701, 0.19567256, -0.6873572, 0.29466438, 10.510453224182129, -2.1994686126708984, -0.48964062333106995, -32.25346374511719, -125.33462524414062, 42.783939361572266, -0.434814453125, 0.605712890625, -0.48681640625, 0, 
43, 999312573, 0.62021095, 0.19415055, -0.7013773, 0.29276922, 10.576139450073242, -1.5460524559020996, -0.566902756690979, -23.909313201904297, -123.16632843017578, 45.1888542175293, -0.45654296875, 0.611572265625, -0.4560546875, 0, 
44, 999329240, 0.60630304, 0.19284227, -0.71440846, 0.29125455, 10.723302841186523, -1.3131002187728882, -0.7831110954284668, -19.23975944519043, -117.98981475830078, 44.06364440917969, -0.47021484375, 0.61572265625, -0.430908203125, 0, 
45, 999345907, 0.5930178, 0.19226253, -0.726036, 0.29023597, 10.591378211975098, -1.5489133596420288, -1.1551066637039185, -12.416091918945312, -110.06661224365234, 39.715763092041016, -0.47998046875, 0.619140625, -0.405029296875, 0, 
46, 999362574, 0.58049446, 0.19337472, -0.73565865, 0.2905841, 10.349244117736816, -1.7158244848251343, -1.4257173538208008, 4.281875133514404, -99.92644500732422, 32.828548431396484, -0.4951171875, 0.62255859375, -0.3828125, 0, 
47, 999379241, 0.56878215, 0.1970798, -0.74279726, 0.29308495, 10.340119361877441, -1.588845133781433, -1.6328521966934204, 29.38248062133789, -88.48168182373047, 23.48632049560547, -0.498779296875, 0.62841796875, -0.369873046875, 0, 
48, 999395908, 0.558256, 0.2027281, -0.74745363, 0.29759827, 10.404104232788086, -1.8266706466674805, -1.536009430885315, 50.63671875, -74.15460968017578, 15.802940368652344, -0.505615234375, 0.62646484375, -0.36279296875, 0, 
49, 999412575, 0.5488472, 0.20971014, -0.74985456, 0.30414966, 10.187752723693848, -2.418635845184326, -1.4519309997558594, 69.25068664550781, -59.941707611083984, 11.41731071472168, -0.5048828125, 0.62451171875, -0.363037109375, 0, 
50, 999429242, 0.54012513, 0.21765408, -0.7504389, 0.31262314, 10.097200393676758, -2.5144572257995605, -1.2397472858428955, 85.53319549560547, -49.099910736083984, 9.61340045928955, -0.505859375, 0.624755859375, -0.366943359375, 0, 
51, 999445909, 0.53229964, 0.22562991, -0.74973845, 0.32193252, 9.970220565795898, -2.1373372077941895, -0.9382700324058533, 91.30597686767578, -38.867279052734375, 8.661651611328125, -0.506103515625, 0.62255859375, -0.3759765625, 0, 
52, 999462576, 0.52569026, 0.23242266, -0.748684, 0.33030593, 9.6921968460083, -1.7108656167984009, -0.8776591420173645, 80.97669982910156, -30.512218475341797, 8.14652156829834, -0.50537109375, 0.62109375, -0.385009765625, 0, 
53, 999479243, 0.52053374, 0.23688062, -0.7480761, 0.3366224, 9.3597993850708, -1.552112102508545, -1.0369397401809692, 60.463035583496094, -23.49178695678711, 9.815723419189453, -0.5, 0.62158203125, -0.388916015625, 0, 
54, 999495910, 0.51644593, 0.2393828, -0.7479914, 0.34130394, 9.092641830444336, -1.6451733112335205, -1.1677908897399902, 40.17943572998047, -17.76861000061035, 13.034111022949219, -0.4921875, 0.622802734375, -0.39208984375, 0, 
55, 999512577, 0.5134136, 0.24039194, -0.7481838, 0.344731, 9.109026908874512, -1.750355839729309, -1.252683162689209, 26.014047622680664, -12.110663414001465, 14.378554344177246, -0.4921875, 0.624755859375, -0.39306640625, 0, 
56, 999529244, 0.51154613, 0.24025583, -0.74842024, 0.34708062, 9.284127235412598, -1.5114636421203613, -1.117667555809021, 14.377435684204102, -5.54000997543335, 13.905943870544434, -0.493408203125, 0.6279296875, -0.39306640625, 0, 
57, 999545911, 0.5113079, 0.23904322, -0.7486155, 0.34784696, 9.406421661376953, -0.944769024848938, -0.8978749513626099, 1.281051754951477, 2.3021790981292725, 9.723884582519531, -0.48974609375, 0.626220703125, -0.393798828125, 0, 
58, 999562578, 0.51270103, 0.23754229, -0.7485617, 0.34693938, 9.511235237121582, -0.13268129527568817, -0.9876317977905273, -11.887895584106445, 9.708450317382812, 1.633528232574463, -0.48828125, 0.63134765625, -0.388427734375, 0, 
59, 999579245, 0.5160348, 0.23536782, -0.74833894, 0.34394637, 9.662688255310059, 0.20034722983837128, -1.2416086196899414, -26.39697265625, 17.884986877441406, -7.13922119140625, -0.489013671875, 0.63037109375, -0.390380859375, 0, 
60, 999595912, 0.5209397, 0.23244074, -0.7479797, 0.33929276, 9.68436336517334, 0.07523881644010544, -1.2413349151611328, -39.70452117919922, 25.358789443969727, -12.73599624633789, -0.492919921875, 0.632080078125, -0.38623046875, 0, 
61, 999612579, 0.5270548, 0.22858813, -0.7476621, 0.33311003, 9.363008499145508, -0.31898558139801025, -1.3230098485946655, -52.80623245239258, 30.973764419555664, -15.899408340454102, -0.4931640625, 0.631103515625, -0.3828125, 0, 
62, 999629246, 0.53411996, 0.22427778, -0.74717027, 0.3258098, 9.05502700805664, -0.5027980208396912, -1.5105897188186646, -61.117210388183594, 35.61581802368164, -19.853790283203125, -0.49658203125, 0.631103515625, -0.381591796875, 0, 
63, 999645913, 0.5421318, 0.21996427, -0.74614877, 0.31775966, 9.271041870117188, -0.6086401343345642, -1.668331503868103, -65.09017181396484, 41.16257095336914, -25.390941619873047, -0.4990234375, 0.627685546875, -0.375, 0, 
64, 999662580, 0.5510865, 0.21588862, -0.7443248, 0.30931613, 10.021980285644531, -0.8342664241790771, -1.7258172035217285, -67.75421905517578, 48.28895950317383, -30.797910690307617, -0.50439453125, 0.62646484375, -0.374267578125, 0, 
65, 999679247, 0.56101847, 0.21176234, -0.74169993, 0.3004939, 10.618500709533691, -1.23055100440979, -1.7514573335647583, -69.64659118652344, 55.80202865600586, -35.13964080810547, -0.507568359375, 0.625732421875, -0.375244140625, 0, 
66, 999695914, 0.5715899, 0.20751938, -0.7385209, 0.29121763, 10.54318904876709, -1.5445199012756348, -1.643356204032898, -70.08607482910156, 60.26404571533203, -38.793025970458984, -0.5146484375, 0.6201171875, -0.37890625, 0, 
67, 999712581, 0.58227944, 0.2033777, -0.7349805, 0.2817659, 10.293766021728516, -1.8338361978530884, -1.6872355937957764, -70.47138214111328, 61.89337158203125, -40.66414260864258, -0.517578125, 0.616943359375, -0.37744140625, 0, 
68, 999729248, 0.59288216, 0.19949964, -0.7309209, 0.27284697, 9.908428192138672, -2.1374967098236084, -1.9652644395828247, -65.91865539550781, 63.8245735168457, -40.42666244506836, -0.5224609375, 0.615478515625, -0.380615234375, 0, 
69, 999745915, 0.6032324, 0.19626611, -0.7262161, 0.26495412, 9.811921119689941, -2.3779141902923584, -2.1683666706085205, -57.15571594238281, 65.53912353515625, -39.92481231689453, -0.52490234375, 0.61279296875, -0.387939453125, 0, 
70, 999762582, 0.6131479, 0.19369428, -0.7210589, 0.2580827, 9.944905281066895, -2.4760947227478027, -2.227773666381836, -48.70847702026367, 65.63680267333984, -38.86687088012695, -0.530517578125, 0.608154296875, -0.392822265625, 0, 
71, 999779249, 0.622388, 0.19162206, -0.7156496, 0.25250712, 9.960482597351074, -2.5284512042999268, -2.3286614418029785, -39.4465446472168, 64.38785552978516, -35.134246826171875, -0.52734375, 0.602783203125, -0.400390625, 0, 
72, 999795916, 0.63059896, 0.19024658, -0.71030605, 0.24822707, 9.866113662719727, -2.6623096466064453, -2.3645975589752197, -29.331823348999023, 59.74201965332031, -31.300994873046875, -0.523681640625, 0.5986328125, -0.40869140625, 0, 
73, 999812583, 0.6375587, 0.18963146, -0.7053346, 0.24507612, 9.8364839553833, -3.003437042236328, -2.2786595821380615, -19.863101959228516, 52.39576721191406, -27.693151473999023, -0.523193359375, 0.5986328125, -0.4169921875, 0, 
74, 999829250, 0.64330775, 0.19030751, -0.70060503, 0.2430862, 9.682945251464844, -2.9745750427246094, -1.810891032218933, -7.565669059753418, 44.98216247558594, -26.761436462402344, -0.520751953125, 0.596923828125, -0.42822265625, 0, 
75, 999845917, 0.64803505, 0.19181164, -0.6963543, 0.24155647, 9.494707107543945, -2.619704008102417, -1.3082795143127441, -1.2606920003890991, 37.2944450378418, -26.630054473876953, -0.524169921875, 0.59228515625, -0.43359375, 0, 
76, 999862584, 0.6521462, 0.19344093, -0.6926149, 0.23993854, 9.465044021606445, -2.110032796859741, -0.8872988820075989, -1.1928160190582275, 31.822797775268555, -26.14014434814453, -0.521484375, 0.588623046875, -0.441650390625, 0, 
77, 999879251, 0.6558833, 0.19458239, -0.68942755, 0.23800074, 9.569713592529297, -1.941846489906311, -0.4366625249385834, -5.408584117889404, 27.991662979125977, -24.05862808227539, -0.5234375, 0.58740234375, -0.45263671875, 0, 
78, 999895918, 0.6592702, 0.19516674, -0.68674153, 0.23592162, 9.855772018432617, -1.8332139253616333, -0.051483552902936935, -9.083349227905273, 24.804645538330078, -20.949874877929688, -0.521240234375, 0.5830078125, -0.4560546875, 0, 
79, 999912585, 0.6623509, 0.19544674, -0.68444777, 0.23371617, 10.17065143585205, -1.6222208738327026, 0.2253524661064148, -11.384846687316895, 21.880151748657227, -19.191509246826172, -0.526123046875, 0.58056640625, -0.458251953125, 0, 
80, 999929252, 0.66514176, 0.19576329, -0.68235934, 0.23162246, 10.422324180603027, -1.1529512405395508, 0.5686483383178711, -10.568137168884277, 19.61716079711914, -18.22113037109375, -0.5263671875, 0.579345703125, -0.462158203125, 0, 
81, 999945919, 0.6677288, 0.1961607, -0.6803424, 0.2297689, 10.390497207641602, -0.8022375106811523, 0.7818434834480286, -8.999248504638672, 18.455228805541992, -17.142108917236328, -0.526123046875, 0.57568359375, -0.46142578125, 0, 
82, 999962586, 0.67009956, 0.19655663, -0.67841977, 0.2282076, 10.152755737304688, -0.5631386041641235, 0.9809871912002563, -7.494535446166992, 17.31881332397461, -15.355279922485352, -0.527099609375, 0.57470703125, -0.467041015625, 0, 
83, 999979253, 0.6721926, 0.19684568, -0.67674375, 0.2267755, 9.722091674804688, -0.403831422328949, 1.1288959980010986, -7.386124610900879, 15.130810737609863, -13.5062255859375, -0.530029296875, 0.574951171875, -0.47119140625, 0, 
84, 999995920, 0.67401856, 0.19700935, -0.675342, 0.22538759, 9.385392189025879, -0.5325474143028259, 1.177759051322937, -7.861660480499268, 12.7740478515625, -11.933341979980469, -0.529296875, 0.571533203125, -0.47021484375, 0, 
85, 1000012587, 0.67565393, 0.19726673, -0.67405504, 0.22411546, 9.314963340759277, -0.7355253100395203, 1.2294573783874512, -6.749900817871094, 11.265507698059082, -11.398738861083984, -0.527587890625, 0.569580078125, -0.47607421875, 0, 
86, 1000029254, 0.6772289, 0.19742191, -0.67287225, 0.22277506, 9.370399475097656, -0.7645838856697083, 1.300135612487793, -7.586206912994385, 10.465327262878418, -11.044321060180664, -0.5302734375, 0.56787109375, -0.473388671875, 0, 
87, 1000045921, 0.67874354, 0.19730274, -0.6718745, 0.22127707, 9.451065063476562, -0.6760461330413818, 1.2828887701034546, -9.922012329101562, 9.435479164123535, -10.209615707397461, -0.52880859375, 0.568359375, -0.47607421875, 0, 
88, 1000062588, 0.6801819, 0.19696528, -0.67108554, 0.21954839, 9.572158813476562, -0.6468450427055359, 1.0679700374603271, -12.165533065795898, 8.035204887390137, -9.91174030303955, -0.5302734375, 0.56787109375, -0.47900390625, 0, 
89, 1000079255, 0.6814186, 0.19649279, -0.6705754, 0.2176889, 9.684216499328613, -0.5892964601516724, 0.9204932451248169, -13.581981658935547, 5.760295391082764, -9.252815246582031, -0.533203125, 0.564453125, -0.476318359375, 0, 
90, 1000095922, 0.682451, 0.1957393, -0.67036635, 0.21576807, 9.791925430297852, -0.7760215401649475, 0.8070970177650452, -15.346274375915527, 3.6968703269958496, -7.560286998748779, -0.5361328125, 0.562744140625, -0.4736328125, 0, 
91, 1000112589, 0.6833426, 0.19478095, -0.67033774, 0.21389475, 9.821551322937012, -1.0230995416641235, 0.7493505477905273, -16.16057777404785, 2.5307483673095703, -5.986154556274414, -0.53466796875, 0.56494140625, -0.4716796875, 0, 
92, 1000129256, 0.68411833, 0.19389462, -0.67033815, 0.21221192, 9.811609268188477, -1.1369749307632446, 0.6392504572868347, -14.838794708251953, 1.9812016487121582, -5.279819011688232, -0.5361328125, 0.564208984375, -0.471923828125, 0, 
93, 1000145923, 0.68482435, 0.1931894, -0.6702804, 0.21075471, 9.849666595458984, -0.9961902499198914, 0.48105907440185547, -12.733733177185059, 1.9502995014190674, -5.102514266967773, -0.540283203125, 0.565185546875, -0.469970703125, 0, 
94, 1000162590, 0.6854062, 0.19263454, -0.6702351, 0.2095118, 9.97978401184082, -0.8277615308761597, 0.22814658284187317, -10.89493179321289, 1.3829777240753174, -4.651383876800537, -0.541259765625, 0.56494140625, -0.46484375, 0, 
95, 1000179257, 0.68593764, 0.19208534, -0.67018396, 0.20843811, 10.128498077392578, -0.7724002003669739, 0.07049669325351715, -10.042973518371582, 1.4116636514663696, -3.862230062484741, -0.540283203125, 0.5634765625, -0.466064453125, 0, 
96, 1000195924, 0.6864972, 0.1916483, -0.66998917, 0.20762278, 10.253851890563965, -0.7865296602249146, -0.10019751638174057, -8.097789764404297, 2.4277961254119873, -3.4302327632904053, -0.541259765625, 0.563232421875, -0.46533203125, 0, 
97, 1000212591, 0.6869866, 0.19162467, -0.66958815, 0.20731905, 10.33682632446289, -0.8533884286880493, -0.3369394540786743, -3.3781232833862305, 3.2062430381774902, -3.1333811283111572, -0.541748046875, 0.563232421875, -0.465576171875, 0, 
98, 1000229258, 0.68728393, 0.19236016, -0.6689564, 0.20769145, 10.206496238708496, -0.7868497967720032, -0.3631057143211365, 3.761564016342163, 3.2834904193878174, -3.5163800716400146, -0.543212890625, 0.56103515625, -0.463134765625, 0, 
99, 1000245925, 0.6874484, 0.19381356, -0.66804343, 0.20873255, 9.883012771606445, -0.6643512845039368, -0.3285796046257019, 10.817277908325195, 3.9210562705993652, -3.88193941116333, -0.5419921875, 0.5625, -0.468505859375, 0, 
100, 1000262592, 0.6874954, 0.19560255, -0.66698617, 0.21028398, 9.583589553833008, -0.5408453941345215, -0.3860994875431061, 15.147292137145996, 4.316249370574951, -3.0639474391937256, -0.540283203125, 0.55908203125, -0.4677734375, 0, 
101, 1000279259, 0.6874198, 0.19729634, -0.6659836, 0.21211885, 9.504737854003906, -0.39246925711631775, -0.3785872757434845, 16.07900619506836, 4.07217264175415, -1.060558557510376, -0.5380859375, 0.56103515625, -0.47705078125, 0, 
102, 1000295926, 0.68725616, 0.19889787, -0.6650113, 0.21419372, 9.61499309539795, -0.24173779785633087, -0.3917178809642792, 16.76397132873535, 4.045369625091553, 0.6527978777885437, -0.535400390625, 0.560546875, -0.473876953125, 0, 
103, 1000312593, 0.6870159, 0.20033383, -0.6641219, 0.21637434, 9.859639167785645, -0.11404671519994736, -0.32714590430259705, 16.490734100341797, 3.750131607055664, 2.1367223262786865, -0.53173828125, 0.55908203125, -0.480224609375, 0, 
104, 1000329260, 0.6867066, 0.20156421, -0.66334856, 0.21857457, 10.101853370666504, -0.042176418006420135, -0.24933776259422302, 15.479207992553711, 3.276552677154541, 3.4377331733703613, -0.533447265625, 0.556640625, -0.4814453125, 0, 
105, 1000345927, 0.68634045, 0.20255108, -0.66275555, 0.22060199, 10.322569847106934, -0.0740961953997612, -0.059041183441877365, 13.33997917175293, 2.3439412117004395, 4.083979606628418, -0.530029296875, 0.5576171875, -0.4853515625, 0, 
106, 1000362594, 0.6858928, 0.2032108, -0.6624748, 0.22222432, 10.490185737609863, 0.0065714712254703045, 0.08154934644699097, 9.599406242370605, 0.4694361388683319, 4.235080718994141, -0.530517578125, 0.560302734375, -0.484375, 0, 
107, 1000379261, 0.68539554, 0.2035047, -0.6624983, 0.2234164, 10.600532531738281, 0.21699747443199158, 0.2236049771308899, 5.597380638122559, -1.206025242805481, 4.399281978607178, -0.528076171875, 0.561767578125, -0.48486328125, 0, 
108, 1000395928, 0.684945, 0.20341395, -0.66278964, 0.22401634, 10.587876319885254, 0.391117125749588, 0.2598954439163208, 0.5780722498893738, -2.4741485118865967, 3.701528310775757, -0.528076171875, 0.562255859375, -0.48486328125, 0, 
109, 1000412595, 0.6846735, 0.2027297, -0.663337, 0.22384574, 10.473034858703613, 0.29175689816474915, 0.25626954436302185, -6.356407165527344, -3.011887311935425, 2.9128365516662598, -0.529541015625, 0.562255859375, -0.4814453125, 0, 
110, 1000429262, 0.684673, 0.20156506, -0.6639475, 0.22308779, 10.311275482177734, 0.22309406101703644, 0.267753541469574, -11.772896766662598, -2.137291193008423, 2.054197072982788, -0.530517578125, 0.5634765625, -0.479248046875, 0, 
111, 1000445929, 0.68495107, 0.20005676, -0.66457236, 0.22172794, 10.033834457397461, 0.02270366996526718, 0.1935032159090042, -16.510665893554688, -1.2264012098312378, 0.4222065210342407, -0.5302734375, 0.5634765625, -0.47509765625, 0, 
112, 1000462596, 0.6854178, 0.19891623, -0.66492546, 0.22024782, 9.823904037475586, -0.13018597662448883, 0.06752514094114304, -15.261687278747559, 0.2076871693134308, -2.4673118591308594, -0.534423828125, 0.565185546875, -0.4736328125, 0, 
113, 1000479263, 0.68618107, 0.19809428, -0.66487813, 0.21874934, 9.727198600769043, -0.0811765044927597, -0.002401270903646946, -13.613096237182617, 2.9642434120178223, -4.9961323738098145, -0.53173828125, 0.565673828125, -0.470458984375, 0, 
114, 1000495930, 0.6872659, 0.19730818, -0.6645136, 0.21715632, 9.56736946105957, -0.12078128755092621, -0.10148356854915619, -13.775429725646973, 5.774394512176514, -6.5091657638549805, -0.53564453125, 0.564208984375, -0.46826171875, 0, 
115, 1000512597, 0.6885512, 0.19667448, -0.66386694, 0.2156325, 9.551117897033691, -0.21474118530750275, -0.3041479289531708, -12.638188362121582, 7.922624111175537, -7.556279182434082, -0.53515625, 0.562744140625, -0.4697265625, 0, 
116, 1000529264, 0.6898885, 0.19626571, -0.6630047, 0.21437918, 9.656314849853516, -0.35757943987846375, -0.37369224429130554, -10.120649337768555, 9.261157035827637, -7.678105354309082, -0.539306640625, 0.560791015625, -0.469970703125, 0, 
117, 1000545931, 0.69119376, 0.19626854, -0.6618991, 0.21358734, 9.7706880569458, -0.557607889175415, -0.3277953267097473, -5.70217227935791, 10.338605880737305, -7.664234638214111, -0.536376953125, 0.5625, -0.46826171875, 0, 
118, 1000562598, 0.69246864, 0.19684705, -0.66046107, 0.21337733, 9.93731689453125, -0.49326276779174805, -0.31431135535240173, 0.3267862796783447, 11.76815414428711, -7.949854373931885, -0.537353515625, 0.562255859375, -0.470703125, 0, 
119, 1000579265, 0.693667, 0.19785608, -0.6587732, 0.21376847, 9.968788146972656, -0.3968985974788666, -0.29427099227905273, 5.517870903015137, 12.842738151550293, -7.3014960289001465, -0.535400390625, 0.559814453125, -0.476806640625, 0, 
120, 1000595932, 0.6947011, 0.19927248, -0.65695214, 0.21469738, 9.97421646118164, -0.35394883155822754, -0.16733495891094208, 10.26406478881836, 12.916594505310059, -6.550224304199219, -0.535888671875, 0.556640625, -0.47900390625, 0, 
121, 1000612599, 0.6956348, 0.20116624, -0.6548904, 0.2162011, 9.932474136352539, -0.29425671696662903, 0.03441067412495613, 15.741584777832031, 13.737656593322754, -6.159979820251465, -0.5322265625, 0.556640625, -0.48388671875, 0, 
122, 1000629266, 0.6964893, 0.20367098, -0.6525336, 0.2182218, 9.828957557678223, -0.1780761480331421, 0.28047820925712585, 21.519968032836914, 14.62840461730957, -6.752460479736328, -0.53076171875, 0.55419921875, -0.49072265625, 0, 
123, 1000645933, 0.6973746, 0.20650046, -0.649942, 0.22045814, 9.721041679382324, -0.11631587147712708, 0.5312883257865906, 24.30037498474121, 15.71827507019043, -7.569779872894287, -0.530029296875, 0.5556640625, -0.497802734375, 0, 
124, 1000662600, 0.6983098, 0.20937619, -0.64726794, 0.22264193, 9.617762565612793, -0.028401728719472885, 0.6905275583267212, 24.533571243286133, 16.18868064880371, -8.219718933105469, -0.522216796875, 0.55126953125, -0.50439453125, 0, 
125, 1000679267, 0.6992402, 0.2120375, -0.6447063, 0.22462635, 9.473617553710938, 0.11590355634689331, 0.8071083426475525, 22.414323806762695, 15.656981468200684, -8.063798904418945, -0.522705078125, 0.547119140625, -0.51171875, 0, 
126, 1000695934, 0.70014054, 0.21431713, -0.6424032, 0.22625145, 9.402313232421875, 0.10604384541511536, 0.958785355091095, 18.574155807495117, 14.330802917480469, -7.679445743560791, -0.52099609375, 0.546142578125, -0.515380859375, 0, 
127, 1000712601, 0.7009798, 0.21628219, -0.6403413, 0.22762346, 9.470467567443848, 0.05924046412110329, 1.0658440589904785, 15.809547424316406, 12.99616527557373, -7.044540882110596, -0.5166015625, 0.5458984375, -0.52197265625, 0, 
128, 1000729268, 0.701777, 0.21778725, -0.638586, 0.22866096, 9.563249588012695, 0.023886697366833687, 1.0962294340133667, 11.73196792602539, 11.528679847717285, -6.108891487121582, -0.513916015625, 0.5439453125, -0.527587890625, 0, 
129, 1000745935, 0.70257235, 0.21879089, -0.6371446, 0.22928077, 9.780811309814453, -0.06198576092720032, 1.063136100769043, 6.893669128417969, 10.143589973449707, -5.465382099151611, -0.511962890625, 0.54248046875, -0.5263671875, 0, 
130, 1000762602, 0.7034502, 0.21942897, -0.63587356, 0.22950727, 10.088491439819336, -0.11324460059404373, 1.0555371046066284, 3.22833514213562, 9.653846740722656, -5.628469944000244, -0.5126953125, 0.541015625, -0.533935546875, 0, 
131, 1000779269, 0.70447916, 0.21972647, -0.6346871, 0.22935091, 10.453365325927734, -0.05073997378349304, 0.8685846924781799, -0.6524838209152222, 9.849323272705078, -6.139584064483643, -0.50927734375, 0.54296875, -0.536376953125, 0, 
132, 1000795936, 0.70568216, 0.21967724, -0.6335217, 0.22892167, 10.845505714416504, -0.013614206574857235, 0.7657279968261719, -3.8049097061157227, 10.647607803344727, -6.202989101409912, -0.51025390625, 0.5439453125, -0.535888671875, 0, 
133, 1000812603, 0.7071011, 0.21934864, -0.63228756, 0.22826903, 11.225663185119629, -0.015321601182222366, 0.6311714053153992, -6.187341213226318, 12.044605255126953, -6.509677410125732, -0.510498046875, 0.541259765625, -0.53857421875, 0, 
134, 1000829270, 0.708695, 0.21866068, -0.6310834, 0.22731617, 11.388141632080078, 0.0666104331612587, 0.4733203649520874, -9.73725414276123, 12.797162055969238, -6.673908710479736, -0.50927734375, 0.540771484375, -0.5380859375, 0, 
135, 1000845937, 0.71035314, 0.21770436, -0.62998796, 0.22609425, 11.182541847229004, 0.07859580963850021, 0.38095971941947937, -12.429986953735352, 12.609346389770508, -6.763579368591309, -0.509521484375, 0.541748046875, -0.540283203125, 0, 
136, 1000862604, 0.71197635, 0.21671481, -0.6289411, 0.22485036, 10.71908950805664, 0.028378259390592575, 0.4962824583053589, -12.80648136138916, 12.289097785949707, -6.623222351074219, -0.509765625, 0.5390625, -0.54296875, 0, 
137, 1000879271, 0.71336293, 0.21588245, -0.6279971, 0.22389264, 10.150879859924316, -0.04408460110425949, 0.7288864850997925, -10.726161003112793, 10.987608909606934, -5.412211894989014, -0.50830078125, 0.537841796875, -0.54052734375, 0, 
138, 1000895938, 0.71427494, 0.21573082, -0.6271073, 0.22362462, 9.66360855102539, -0.17094798386096954, 1.0032083988189697, -3.7459096908569336, 8.674901962280273, -4.172207832336426, -0.507080078125, 0.53955078125, -0.54296875, 0, 
139, 1000912605, 0.7146466, 0.21634747, -0.6262917, 0.22412741, 9.394076347351074, -0.0578136220574379, 1.262292742729187, 3.951406717300415, 5.944766521453857, -2.79544734954834, -0.509033203125, 0.54052734375, -0.54443359375, 0, 
140, 1000929272, 0.7146472, 0.21725181, -0.62566364, 0.22500251, 9.302345275878906, 0.21667081117630005, 1.496246337890625, 7.298680305480957, 3.5241739749908447, -1.362339973449707, -0.507568359375, 0.5400390625, -0.543212890625, 0, 
141, 1000945939, 0.71449083, 0.21800885, -0.6252912, 0.22580051, 9.381560325622559, 0.31789520382881165, 1.6836857795715332, 6.151319980621338, 1.6790603399276733, -0.47228550910949707, -0.50439453125, 0.538330078125, -0.5400390625, 0, 
142, 1000962606, 0.71425563, 0.21845512, -0.62521124, 0.22633448, 9.619481086730957, 0.24864450097084045, 1.7777780294418335, 3.390167236328125, -0.041274864226579666, 0.16810253262519836, -0.5068359375, 0.541748046875, -0.543212890625, 0, 
143, 1000979273, 0.71394765, 0.21867354, -0.6253408, 0.22673695, 9.803244590759277, 0.1615917831659317, 1.7889281511306763, 1.5216186046600342, -1.2680463790893555, 0.938775897026062, -0.505615234375, 0.538818359375, -0.544677734375, 0, 
144, 1000995940, 0.713463, 0.21901189, -0.62556154, 0.22732688, 9.861433029174805, 0.0234743133187294, 1.6248924732208252, 2.847562551498413, -2.4238195419311523, 1.7289788722991943, -0.50732421875, 0.537841796875, -0.544189453125, 0, 
145, 1001012607, 0.7127029, 0.2197225, -0.6258208, 0.22830947, 9.835159301757812, -0.05786031112074852, 1.47190260887146, 6.7982330322265625, -3.8162927627563477, 2.5448336601257324, -0.50927734375, 0.537353515625, -0.541748046875, 0, 
146, 1001029274, 0.7117145, 0.22080532, -0.62607396, 0.2296498, 9.790400505065918, 0.02247157320380211, 1.4821014404296875, 10.690136909484863, -4.827291965484619, 3.0549111366271973, -0.50537109375, 0.54052734375, -0.544921875, 0, 
147, 1001045941, 0.7106305, 0.22197127, -0.6263316, 0.23117544, 9.75817584991455, 0.1268598586320877, 1.3334295749664307, 12.140511512756348, -5.130598068237305, 3.7672016620635986, -0.5078125, 0.5380859375, -0.54150390625, 0, 
148, 1001062608, 0.7094209, 0.22310555, -0.6267102, 0.23276648, 9.766586303710938, 0.14303964376449585, 1.1581387519836426, 12.488358497619629, -6.120005130767822, 4.634947776794434, -0.508056640625, 0.537353515625, -0.54541015625, 0, 
149, 1001079275, 0.70814985, 0.22445004, -0.62700707, 0.23453823, 9.946168899536133, 0.1960591971874237, 1.121139645576477, 14.29033088684082, -6.056910037994385, 4.553948879241943, -0.50732421875, 0.53857421875, -0.544189453125, 0, 
150, 1001095942, 0.7070008, 0.22600171, -0.6270411, 0.23641613, 10.098211288452148, 0.3230897784233093, 1.118505597114563, 16.302940368652344, -4.413649082183838, 3.6205573081970215, -0.50732421875, 0.54052734375, -0.546630859375, 0, 
151, 1001112609, 0.70603806, 0.22746395, -0.6269219, 0.23820043, 10.195237159729004, 0.35530245304107666, 1.1147581338882446, 15.814838409423828, -2.859609365463257, 3.0691022872924805, -0.5048828125, 0.53857421875, -0.54638671875, 0, 
152, 1001129276, 0.7052121, 0.22864866, -0.62680364, 0.23981848, 10.229551315307617, 0.3788028359413147, 1.028749942779541, 13.279531478881836, -2.0871286392211914, 3.2177700996398926, -0.5078125, 0.538818359375, -0.550537109375, 0, 
153, 1001145943, 0.7045376, 0.22957538, -0.62667465, 0.24124879, 10.216318130493164, 0.3800209164619446, 1.0291815996170044, 11.050956726074219, -1.249375343322754, 3.1722562313079834, -0.5068359375, 0.539306640625, -0.54931640625, 0, 
154, 1001162610, 0.7039154, 0.23033613, -0.62660867, 0.24250796, 10.06482982635498, 0.3756103813648224, 1.1000096797943115, 9.66919994354248, -1.3121517896652222, 3.128432273864746, -0.50439453125, 0.541015625, -0.548583984375, 0, 
155, 1001179277, 0.70315933, 0.23108682, -0.6266996, 0.24374919, 9.868608474731445, 0.4273957312107086, 1.072975993156433, 9.730314254760742, -2.6593806743621826, 3.5982460975646973, -0.501220703125, 0.536376953125, -0.54833984375, 0, 
156, 1001195944, 0.7021941, 0.23179454, -0.62703097, 0.24500412, 9.700709342956543, 0.5394971370697021, 1.0730127096176147, 9.35128402709961, -4.637385845184326, 4.580327033996582, -0.502685546875, 0.538330078125, -0.5478515625, 0, 
157, 1001212611, 0.70106095, 0.23236272, -0.6276256, 0.24618544, 9.574438095092773, 0.5639049410820007, 1.0716150999069214, 8.357460021972656, -6.5149126052856445, 5.575841903686523, -0.5029296875, 0.541015625, -0.550048828125, 0, 
158, 1001229278, 0.6998753, 0.23279959, -0.62836915, 0.24724716, 9.576706886291504, 0.6185532212257385, 1.05031156539917, 7.147861480712891, -7.4332966804504395, 5.932154178619385, -0.502685546875, 0.5400390625, -0.548095703125, 0, 
159, 1001245945, 0.6987937, 0.23292807, -0.62920773, 0.24805151, 9.660849571228027, 0.5753313302993774, 1.0171396732330322, 4.263664245605469, -7.334211349487305, 6.037895202636719, -0.501708984375, 0.54052734375, -0.54541015625, 0, 
160, 1001262612, 0.6980069, 0.23260148, -0.6300413, 0.24845757, 9.840453147888184, 0.5459334850311279, 1.0097756385803223, 0.030190974473953247, -5.899515151977539, 5.6265153884887695, -0.50341796875, 0.5400390625, -0.54345703125, 0, 
161, 1001279279, 0.69759387, 0.23222168, -0.63053846, 0.24871103, 9.995448112487793, 0.3834575116634369, 0.9490538835525513, -0.9047557711601257, -2.8237361907958984, 3.977492332458496, -0.505126953125, 0.542724609375, -0.543701171875, 0, 
162, 1001295946, 0.69740444, 0.2321786, -0.6306156, 0.24908689, 10.143967628479004, 0.2179950475692749, 0.8418775200843811, 1.6183832883834839, -0.2193984091281891, 2.0723681449890137, -0.49755859375, 0.543212890625, -0.540283203125, 0, 
163, 1001312613, 0.6972635, 0.23261823, -0.6303228, 0.24981101, 10.242613792419434, -0.02930603362619877, 0.7533507943153381, 6.219423294067383, 1.501307725906372, 1.0086218118667603, -0.503662109375, 0.544921875, -0.541748046875, 0, 
164, 1001329280, 0.69710475, 0.23339422, -0.6298228, 0.25078967, 10.259760856628418, -0.07110811024904251, 0.8096411824226379, 9.397309303283691, 2.2603533267974854, 0.47312432527542114, -0.5068359375, 0.542236328125, -0.5458984375, 0, 
165, 1001345947, 0.69696295, 0.23415066, -0.6292841, 0.2518292, 10.224299430847168, 0.16626271605491638, 0.9861554503440857, 9.456242561340332, 2.658515453338623, 0.7338615655899048, -0.5009765625, 0.5439453125, -0.54638671875, 0, 
166, 1001362614, 0.6970099, 0.23444971, -0.62881863, 0.2525821, 10.144949913024902, 0.5162469744682312, 1.204885721206665, 5.803294658660889, 3.4534573554992676, 1.1599034070968628, -0.497802734375, 0.54345703125, -0.547119140625, 0, 
167, 1001379281, 0.6974427, 0.23390989, -0.6285614, 0.25252813, 9.998292922973633, 0.7756558656692505, 1.30958890914917, -2.671212911605835, 4.266967296600342, 0.6159151196479797, -0.498779296875, 0.54248046875, -0.545166015625, 0, 
168, 1001395948, 0.698211, 0.23223913, -0.62875986, 0.2514512, 9.834789276123047, 0.9133049249649048, 1.1983617544174194, -13.840139389038086, 3.8303115367889404, 0.7934628129005432, -0.4970703125, 0.544921875, -0.54443359375, 0, 
169, 1001412615, 0.6993432, 0.2291454, -0.62950975, 0.24925728, 9.80887222290039, 0.5917725563049316, 1.1972260475158691, -27.073286056518555, 3.4183502197265625, 1.8836843967437744, -0.5029296875, 0.546142578125, -0.5419921875, 0, 
170, 1001429282, 0.7007405, 0.22501615, -0.63059723, 0.24632858, 9.816499710083008, 0.0342809297144413, 1.299005389213562, -36.433658599853516, 3.547023296356201, 2.920969009399414, -0.504150390625, 0.5498046875, -0.533203125, 0, 
171, 1001445949, 0.7022906, 0.2211555, -0.631274, 0.2436625, 9.927005767822266, -0.4689555764198303, 1.3347104787826538, -33.444454193115234, 6.12068510055542, 2.1396360397338867, -0.505615234375, 0.554443359375, -0.53076171875, 0, 
172, 1001462616, 0.70366836, 0.2187143, -0.6311665, 0.24216503, 9.961408615112305, -0.623403012752533, 1.029344916343689, -20.08699607849121, 8.540011405944824, 0.6734293699264526, -0.505126953125, 0.5537109375, -0.528564453125, 0, 
173, 1001479283, 0.70479447, 0.21730696, -0.6305326, 0.24180816, 10.118870735168457, -0.23366792500019073, 0.6962543725967407, -9.070781707763672, 9.989952087402344, 1.274815320968628, -0.5009765625, 0.556640625, -0.525390625, 0, 
174, 1001495950, 0.7057844, 0.21601132, -0.62978154, 0.24203923, 10.121257781982422, -0.39420026540756226, 0.7235867381095886, -5.347012519836426, 10.682812690734863, 3.7076256275177, -0.5009765625, 0.555419921875, -0.525634765625, 0, 
175, 1001512617, 0.70656407, 0.21555458, -0.6287484, 0.24285567, 10.041184425354004, -0.8240702748298645, 0.8612836003303528, 1.9464058876037598, 10.637079238891602, 2.8135368824005127, -0.49755859375, 0.559326171875, -0.531005859375, 0, 
176, 1001529284, 0.7070392, 0.21597877, -0.62761664, 0.24402116, 10.0713472366333, -0.4152958393096924, 0.6998913884162903, 8.321602821350098, 8.861109733581543, 1.014321208000183, -0.4931640625, 0.558349609375, -0.5283203125, 0, 
177, 1001545951, 0.70740366, 0.2162422, -0.6267121, 0.24505453, 10.064842224121094, -0.006638603284955025, 0.7969155311584473, 7.085620880126953, 7.376581192016602, 1.6109944581985474, -0.493408203125, 0.55908203125, -0.529052734375, 0, 
178, 1001562618, 0.70792806, 0.21540348, -0.62637335, 0.24514422, 10.068585395812988, -0.018803048878908157, 0.8722885251045227, -3.4962234497070312, 5.789334774017334, 2.349574565887451, -0.491455078125, 0.561767578125, -0.53125, 0, 
179, 1001579285, 0.70850253, 0.21373622, -0.6265639, 0.24445641, 9.985589981079102, -0.3909682631492615, 0.8283958435058594, -11.839452743530273, 3.69087553024292, 2.8360257148742676, -0.49169921875, 0.5625, -0.532470703125, 0, 
180, 1001595952, 0.7090031, 0.2120434, -0.62686455, 0.24370743, 9.882264137268066, -0.5664936900138855, 0.8979499936103821, -12.487656593322754, 2.812384605407715, 2.892385721206665, -0.491455078125, 0.563720703125, -0.528076171875, 0, 
181, 1001612619, 0.70943695, 0.21097232, -0.6268563, 0.24339534, 9.746793746948242, -0.5443428754806519, 1.0205999612808228, -6.872003555297852, 3.640737295150757, 1.9898061752319336, -0.48974609375, 0.5654296875, -0.522705078125, 0, 
182, 1001629286, 0.70973897, 0.21105461, -0.6261847, 0.24417077, 9.602818489074707, -0.6651701331138611, 0.9706377387046814, 4.948649883270264, 5.960773944854736, 1.584152102470398, -0.49169921875, 0.5673828125, -0.52587890625, 0, 
183, 1001645953, 0.7098817, 0.21221285, -0.62495977, 0.24588424, 9.54538345336914, -0.384073942899704, 0.9061592221260071, 15.448715209960938, 7.540340900421143, 0.9689099192619324, -0.490478515625, 0.563720703125, -0.52734375, 0, 
184, 1001662620, 0.7100085, 0.21380499, -0.62340486, 0.24807706, 9.549369812011719, -0.26680776476860046, 1.0993499755859375, 20.256601333618164, 9.06043815612793, 0.9817557334899902, -0.4853515625, 0.565185546875, -0.533447265625, 0, 
185, 1001679287, 0.7101804, 0.21574733, -0.62148756, 0.25069985, 9.508584022521973, -0.28446269035339355, 1.2038395404815674, 24.44416046142578, 11.06004524230957, 0.9740725159645081, -0.48193359375, 0.564208984375, -0.536376953125, 0, 
186, 1001695954, 0.7101185, 0.21907493, -0.6189299, 0.2542906, 9.597264289855957, -0.29836606979370117, 1.1469303369522095, 36.98355484008789, 12.230928421020508, -0.7469726800918579, -0.47607421875, 0.5634765625, -0.54638671875, 0, 
187, 1001712621, 0.7097653, 0.22326154, -0.61604035, 0.25861537, 9.775104522705078, -0.02981313318014145, 1.1075493097305298, 45.317176818847656, 12.220022201538086, -0.820009708404541, -0.471435546875, 0.5615234375, -0.55322265625, 0, 
188, 1001729288, 0.7093305, 0.22747749, -0.613168, 0.26292512, 10.007838249206543, 0.20669694244861603, 1.2202935218811035, 45.677459716796875, 11.722953796386719, -0.8137602210044861, -0.465087890625, 0.557861328125, -0.56298828125, 0, 
189, 1001745955, 0.7088936, 0.23136778, -0.61051345, 0.26685667, 10.057877540588379, 0.27187520265579224, 1.2476354837417603, 42.14311599731445, 10.65616512298584, -0.918118953704834, -0.463623046875, 0.553466796875, -0.571044921875, 0, 
190, 1001762622, 0.7085277, 0.23470576, -0.60821915, 0.27013156, 10.194168090820312, 0.40138566493988037, 1.2489266395568848, 36.00664138793945, 9.175531387329102, -1.3259118795394897, -0.457275390625, 0.55517578125, -0.57861328125, 0, 
191, 1001779289, 0.7083353, 0.2372059, -0.606415, 0.27249846, 10.120160102844238, 0.3833865225315094, 1.327657699584961, 27.006099700927734, 7.615631103515625, -1.7412842512130737, -0.4521484375, 0.552490234375, -0.585205078125, 0, 
192, 1001795956, 0.7081609, 0.23941207, -0.604932, 0.27431267, 9.942770004272461, 0.18490974605083466, 1.3103837966918945, 22.627601623535156, 5.784595012664795, -2.6963565349578857, -0.450439453125, 0.54833984375, -0.589599609375, 0, 
193, 1001812623, 0.7077945, 0.24182202, -0.603578, 0.2761209, 9.806015968322754, -0.043166350573301315, 1.3751475811004639, 23.66248893737793, 3.9726340770721436, -2.990980386734009, -0.44921875, 0.548828125, -0.59326171875, 0, 
194, 1001829290, 0.7072029, 0.24435401, -0.60240966, 0.27795345, 9.729559898376465, -0.1177046075463295, 1.5674270391464233, 24.489118576049805, 1.9492137432098389, -2.6295721530914307, -0.4453125, 0.546630859375, -0.59765625, 0, 
195, 1001845957, 0.70660347, 0.2466197, -0.60144097, 0.2795697, 9.769125938415527, 0.1634862869977951, 1.5682001113891602, 21.894176483154297, 1.086562991142273, -2.245213270187378, -0.44677734375, 0.543701171875, -0.602294921875, 0, 
196, 1001862624, 0.7061145, 0.24809533, -0.6008884, 0.2806856, 9.803694725036621, 0.3360960781574249, 1.3581035137176514, 15.073143005371094, 0.1863645613193512, -0.8990321159362793, -0.443115234375, 0.54345703125, -0.602783203125, 0, 
197, 1001879291, 0.70583653, 0.24857092, -0.600816, 0.28111842, 9.968968391418457, 0.22915969789028168, 1.4680780172348022, 6.055258750915527, -0.5030206441879272, 0.33117860555648804, -0.44384765625, 0.542724609375, -0.60546875, 0, 
198, 1001895958, 0.7056509, 0.24904472, -0.60065436, 0.28151008, 9.986515998840332, -0.32157501578330994, 1.4801318645477295, 6.0133442878723145, 0.24709215760231018, -0.16481775045394897, -0.4462890625, 0.542236328125, -0.608154296875, 0, 
199, 1001912625, 0.7053223, 0.25020137, -0.6001721, 0.28233564, 9.927912712097168, -0.18889841437339783, 1.413751482963562, 11.943791389465332, 0.6335240602493286, -1.1826926469802856, -0.4453125, 0.54345703125, -0.605224609375, 0, 
200, 1001929292, 0.7048428, 0.25173193, -0.59953415, 0.28352538, 9.89478874206543, 0.025726718828082085, 1.3281036615371704, 15.774791717529297, 0.6689722537994385, -0.9577493071556091, -0.4423828125, 0.540771484375, -0.61083984375, 0, 
201, 1001945959, 0.7043671, 0.2531915, -0.59900904, 0.284516, 9.912599563598633, 0.22367121279239655, 1.2186800241470337, 14.408605575561523, -0.06004900857806206, -1.4424697160720825, -0.44140625, 0.537109375, -0.61328125, 0, 
202, 1001962626, 0.70394504, 0.2543147, -0.5987352, 0.28513455, 9.946504592895508, 0.31268367171287537, 1.2600903511047363, 10.743898391723633, -1.030412197113037, -1.5091007947921753, -0.441650390625, 0.540283203125, -0.610595703125, 0, 
203, 1001979293, 0.7036371, 0.25506973, -0.59864074, 0.2854181, 9.976482391357422, 0.16496369242668152, 1.3299634456634521, 6.952932834625244, -1.2818772792816162, -1.5290783643722534, -0.44287109375, 0.537353515625, -0.61181640625, 0, 
204, 1001995960, 0.7035491, 0.25528643, -0.59878874, 0.28513092, 9.971589088439941, 0.13994143903255463, 1.3949819803237915, 1.2313882112503052, -1.4856518507003784, -2.064537286758423, -0.443115234375, 0.536376953125, -0.61279296875, 0, 
205, 1002012627, 0.7035592, 0.25533515, -0.59893894, 0.28474674, 9.956695556640625, 0.05281982570886612, 1.452242136001587, -0.1528950035572052, -0.9286139607429504, -2.0309078693389893, -0.4462890625, 0.5361328125, -0.610107421875, 0, 
206, 1002029294, 0.70350295, 0.25581962, -0.5987596, 0.28482816, 9.89361572265625, -0.246066153049469, 1.4916706085205078, 4.641963005065918, 0.3570730984210968, -2.0249531269073486, -0.447509765625, 0.5361328125, -0.610595703125, 0, 
207, 1002045961, 0.70325273, 0.25714126, -0.5981212, 0.28559646, 9.952481269836426, -0.15280534327030182, 1.4744579792022705, 12.765074729919434, 1.3454934358596802, -2.5965654850006104, -0.443603515625, 0.53662109375, -0.614501953125, 0, 
208, 1002062628, 0.703058, 0.2584346, -0.59742993, 0.28635418, 9.942862510681152, 0.24365846812725067, 1.4879947900772095, 12.601166725158691, 1.8670322895050049, -2.748295307159424, -0.44580078125, 0.53564453125, -0.619140625, 0, 
209, 1002079295, 0.7030233, 0.25927615, -0.59693164, 0.28671727, 9.839239120483398, 0.3195998966693878, 1.493243932723999, 8.178462982177734, 1.779820442199707, -2.7619330883026123, -0.440673828125, 0.531982421875, -0.619873046875, 0, 
210, 1002095962, 0.7029928, 0.2600912, -0.5964559, 0.28704393, 9.85019588470459, 0.2236758917570114, 1.5300720930099487, 7.848328113555908, 1.6736812591552734, -2.7874817848205566, -0.442138671875, 0.531494140625, -0.621337890625, 0, 
211, 1002112629, 0.7030625, 0.26033008, -0.59633654, 0.2869052, 9.867384910583496, 0.18885467946529388, 1.5977671146392822, 2.2780001163482666, 0.6626709699630737, -2.2322492599487305, -0.44091796875, 0.52978515625, -0.62109375, 0, 
212, 1002129296, 0.7031364, 0.26047194, -0.59628433, 0.28670293, 9.888117790222168, 0.06885243207216263, 1.675126552581787, 1.346914291381836, 0.4263041615486145, -2.0391039848327637, -0.442138671875, 0.531494140625, -0.621337890625, 0, 
213, 1002145963, 0.7030529, 0.26089814, -0.59624803, 0.28659576, 9.983051300048828, 0.20674896240234375, 1.6375404596328735, 3.4924135208129883, -0.6948469877243042, -2.3936991691589355, -0.439697265625, 0.531982421875, -0.62353515625, 0, 
214, 1002162630, 0.7028533, 0.2612501, -0.59639, 0.28646907, 10.027915954589844, 0.33700495958328247, 1.725373387336731, 2.891949415206909, -1.9282013177871704, -1.63825261592865, -0.443603515625, 0.53125, -0.621337890625, 0, 
215, 1002179297, 0.7027799, 0.26098588, -0.5968989, 0.28583017, 10.130158424377441, 0.3166005611419678, 1.798799753189087, -3.1705832481384277, -2.904006242752075, -1.176929235458374, -0.44384765625, 0.531005859375, -0.62353515625, 0, 
216, 1002195964, 0.7027376, 0.26028493, -0.59776264, 0.28476584, 10.150650024414062, 0.0697220116853714, 1.7769980430603027, -7.696541786193848, -4.4081902503967285, -0.8485104441642761, -0.442138671875, 0.529541015625, -0.6201171875, 0, 
217, 1002212631, 0.7027239, 0.25934687, -0.598791, 0.2834918, 10.181713104248047, 0.1324850618839264, 1.7482761144638062, -10.124564170837402, -5.013688087463379, -0.6654182076454163, -0.4482421875, 0.531005859375, -0.61572265625, 0, 
218, 1002229298, 0.70262045, 0.2583425, -0.5999427, 0.28222767, 10.10294246673584, 0.17809414863586426, 1.6126368045806885, -10.369307518005371, -5.843412399291992, 0.060311537235975266, -0.44970703125, 0.531982421875, -0.615478515625, 0, 
219, 1002245965, 0.702408, 0.2575017, -0.6010684, 0.2811274, 9.991228103637695, 0.2962605357170105, 1.5580978393554688, -8.705133438110352, -6.203501224517822, 0.33174222707748413, -0.450439453125, 0.534912109375, -0.6123046875, 0, 
220, 1002262632, 0.7020754, 0.25692075, -0.60208875, 0.2803053, 9.887618064880371, 0.169377863407135, 1.4875078201293945, -5.894495487213135, -6.208033084869385, 0.6473675966262817, -0.4541015625, 0.53271484375, -0.6123046875, 0, 
221, 1002279299, 0.7016338, 0.25652882, -0.6030398, 0.27972507, 9.839653968811035, 0.08318455517292023, 1.3978441953659058, -3.6770362854003906, -6.267927646636963, 1.1134289503097534, -0.45654296875, 0.533935546875, -0.60546875, 0, 
222, 1002295966, 0.70123136, 0.25606388, -0.60396034, 0.2791738, 9.909184455871582, 0.11828392744064331, 1.3516587018966675, -3.891069173812866, -5.7692484855651855, 1.4214602708816528, -0.45458984375, 0.535888671875, -0.606201171875, 0, 
223, 1002312633, 0.7008733, 0.25547647, -0.6049065, 0.27856192, 9.871651649475098, 0.1466912031173706, 1.2299690246582031, -4.797054290771484, -5.581584453582764, 1.602170467376709, -0.45703125, 0.534423828125, -0.6025390625, 0, 
224, 1002329300, 0.7005368, 0.25481588, -0.6058585, 0.27794343, 9.888582229614258, 0.06403271108865738, 1.174298882484436, -5.296873569488525, -5.3882341384887695, 1.8288174867630005, -0.45751953125, 0.536865234375, -0.599609375, 0, 
225, 1002345967, 0.70030093, 0.25397915, -0.606811, 0.2772248, 9.900711059570312, -0.019670987501740456, 1.1005778312683105, -6.690678596496582, -4.805006980895996, 1.888559103012085, -0.458740234375, 0.538330078125, -0.598388671875, 0, 
226, 1002362634, 0.7001514, 0.253171, -0.607676, 0.2764462, 9.89741039276123, 0.009382850490510464, 0.9665111303329468, -6.802606582641602, -4.1743974685668945, 1.1512205600738525, -0.460693359375, 0.53759765625, -0.594482421875, 0, 
227, 1002379301, 0.70004594, 0.25245383, -0.60843676, 0.27569467, 9.885724067687988, -0.13620498776435852, 0.9214522838592529, -6.082658290863037, -3.599494457244873, 0.6348428726196289, -0.461669921875, 0.53955078125, -0.59375, 0, 
228, 1002395968, 0.6999691, 0.25179052, -0.60915107, 0.2749179, 9.895580291748047, -0.28768110275268555, 0.923511266708374, -5.932504177093506, -3.387113571166992, 0.13294914364814758, -0.462646484375, 0.54052734375, -0.592529296875, 0, 
229, 1002412635, 0.6999388, 0.25118786, -0.60983974, 0.27401826, 9.8176851272583, -0.15149983763694763, 0.9116945266723633, -6.112139701843262, -3.380864381790161, -0.8555924892425537, -0.464599609375, 0.5400390625, -0.591552734375, 0, 
230, 1002429302, 0.6999612, 0.2506367, -0.610484, 0.27302966, 9.793791770935059, -0.0719728022813797, 0.9052050113677979, -6.274548053741455, -3.1821858882904053, -1.6928457021713257, -0.462646484375, 0.53857421875, -0.58740234375, 0, 
231, 1002445969, 0.70004994, 0.25003147, -0.6111219, 0.2719273, 9.805782318115234, -0.17273108661174774, 0.8245735764503479, -7.159493446350098, -2.952901601791382, -2.16525936126709, -0.4658203125, 0.54248046875, -0.588623046875, 0, 
232, 1002462636, 0.70014906, 0.24947093, -0.61176246, 0.27074388, 9.811860084533691, -0.22283634543418884, 0.7383479475975037, -7.380325794219971, -3.1264655590057373, -2.7801308631896973, -0.46826171875, 0.54150390625, -0.5849609375, 0, 
233, 1002479303, 0.7002521, 0.24908853, -0.61234313, 0.26951423, 9.780704498291016, -0.22090332210063934, 0.6197434067726135, -6.463442802429199, -3.210360288619995, -3.860128879547119, -0.468505859375, 0.54052734375, -0.584716796875, 0, 
234, 1002495970, 0.7003384, 0.24877779, -0.61294234, 0.26821166, 9.834182739257812, -0.11895328015089035, 0.5911118388175964, -6.494651794433594, -3.60151743888855, -4.474616527557373, -0.46826171875, 0.540283203125, -0.583984375, 0, 
235, 1002512637, 0.70043105, 0.24864839, -0.61333805, 0.26718336, 9.839874267578125, -0.3438592851161957, 0.8853227496147156, -4.1414713859558105, -2.4333345890045166, -4.294250965118408, -0.470947265625, 0.539306640625, -0.58251953125, 0, 
236, 1002529304, 0.7005063, 0.24937078, -0.61308116, 0.26690215, 9.966531753540039, -0.5546431541442871, 1.020799994468689, 4.32946252822876, 0.36232373118400574, -5.394138336181641, -0.473876953125, 0.53759765625, -0.579833984375, 0, 
237, 1002545971, 0.70053506, 0.2510851, -0.6121549, 0.2673454, 10.051493644714355, -0.1527983695268631, 0.9296876788139343, 13.534575462341309, 2.8194034099578857, -7.173099040985107, -0.474853515625, 0.53759765625, -0.585205078125, 0, 
238, 1002562638, 0.700699, 0.25297868, -0.6109333, 0.2679239, 10.07734489440918, 0.2492821216583252, 0.9061445593833923, 15.231242179870605, 4.727949619293213, -8.053384780883789, -0.47412109375, 0.534423828125, -0.587158203125, 0, 
239, 1002579305, 0.7011424, 0.25438967, -0.60976875, 0.26808092, 9.950968742370605, 0.4137822687625885, 0.8514487147331238, 10.628861427307129, 5.7974066734313965, -8.457050323486328, -0.47119140625, 0.53125, -0.5908203125, 0, 
240, 1002595972, 0.70167434, 0.25549307, -0.6087551, 0.26794395, 9.909860610961914, 0.2679625153541565, 0.8782280683517456, 7.429690361022949, 5.5095438957214355, -8.477678298950195, -0.467041015625, 0.52783203125, -0.5986328125, 0, 
241, 1002612639, 0.7022027, 0.25652695, -0.60776025, 0.26783028, 9.930624008178711, 0.24555373191833496, 0.9540280699729919, 6.9437665939331055, 5.584000110626221, -8.058233261108398, -0.472412109375, 0.52880859375, -0.598876953125, 0, 
242, 1002629306, 0.7028118, 0.25747606, -0.6067161, 0.26768875, 10.02245807647705, 0.3011370301246643, 0.9379200339317322, 6.536945819854736, 6.282342910766602, -8.050650596618652, -0.47021484375, 0.528564453125, -0.599365234375, 0, 
243, 1002645973, 0.7035226, 0.258333, -0.6055939, 0.26753712, 10.070996284484863, 0.2778371572494507, 0.9400282502174377, 6.081796646118164, 7.252194881439209, -8.027792930603027, -0.4716796875, 0.52490234375, -0.602294921875, 0, 
244, 1002662640, 0.7042986, 0.2591688, -0.6044075, 0.26737, 10.131518363952637, 0.24943840503692627, 0.8733932971954346, 5.872040748596191, 7.857884407043457, -8.252211570739746, -0.468994140625, 0.52392578125, -0.60546875, 0, 
245, 1002679307, 0.70513314, 0.25999135, -0.6031249, 0.26726833, 10.161798477172852, 0.2640235722064972, 0.8439238667488098, 6.127579212188721, 8.727142333984375, -8.163105010986328, -0.468505859375, 0.520751953125, -0.606689453125, 0, 
246, 1002695974, 0.7060583, 0.260688, -0.60180146, 0.26713017, 10.098427772521973, 0.22195202112197876, 0.912361204624176, 5.213053226470947, 9.485126495361328, -8.066035270690918, -0.466796875, 0.52001953125, -0.607421875, 0, 
247, 1002712641, 0.70709574, 0.26126567, -0.60044974, 0.26686412, 10.01663875579834, 0.19391903281211853, 0.8976507186889648, 4.091047763824463, 10.100226402282715, -8.434866905212402, -0.468994140625, 0.52001953125, -0.610595703125, 0, 
248, 1002729308, 0.70803964, 0.26200184, -0.5990713, 0.26673678, 9.94454288482666, 0.2381165772676468, 0.9087287783622742, 5.6355719566345215, 9.82094669342041, -8.29808521270752, -0.46484375, 0.515625, -0.615234375, 0, 
249, 1002745975, 0.7088681, 0.26275572, -0.5977715, 0.26671094, 9.93492317199707, 0.36035874485969543, 1.0838234424591064, 6.010721206665039, 9.125343322753906, -7.55364990234375, -0.463623046875, 0.513671875, -0.617919921875, 0, 
250, 1002762642, 0.70966566, 0.26325786, -0.59668386, 0.26653045, 9.92214298248291, 0.4267527759075165, 1.2584477663040161, 3.8260974884033203, 8.159370422363281, -6.831882953643799, -0.462646484375, 0.514892578125, -0.62158203125, 0, 
251, 1002779309, 0.7104914, 0.2634493, -0.5957934, 0.26613292, 9.894379615783691, 0.45404133200645447, 1.3101660013198853, 1.029650092124939, 7.495462417602539, -6.305105686187744, -0.463623046875, 0.513916015625, -0.622802734375, 0, 
252, 1002795976, 0.71129805, 0.26346827, -0.5950318, 0.2656629, 9.890032768249512, 0.3902922570705414, 1.2522802352905273, -0.380118191242218, 6.972745895385742, -5.69195032119751, -0.46240234375, 0.513427734375, -0.623779296875, 0, 
253, 1002812643, 0.7120605, 0.26355657, -0.5942411, 0.2653026, 9.903117179870605, 0.23337318003177643, 1.3316764831542969, 0.5188558101654053, 7.011343479156494, -5.4156270027160645, -0.461181640625, 0.51318359375, -0.620361328125, 0, 
254, 1002829310, 0.71272045, 0.26386663, -0.5933845, 0.26513895, 9.906652450561523, 0.23102226853370667, 1.3386785984039307, 2.900299310684204, 6.880192756652832, -5.270991325378418, -0.461181640625, 0.51171875, -0.62646484375, 0, 
255, 1002845977, 0.7132629, 0.26454172, -0.59237385, 0.26526776, 9.800612449645996, 0.22776882350444794, 1.2669878005981445, 6.186282157897949, 7.015263080596924, -5.430803298950195, -0.462158203125, 0.509765625, -0.625, 0, 
256, 1002862644, 0.7136966, 0.2655689, -0.59119153, 0.2657122, 9.720003128051758, 0.19112733006477356, 1.2747946977615356, 9.783833503723145, 7.356914043426514, -5.4298319816589355, -0.45849609375, 0.509033203125, -0.6298828125, 0, 
257, 1002879311, 0.71402496, 0.26690346, -0.5898594, 0.2664529, 9.667540550231934, 0.15134532749652863, 1.2160462141036987, 12.960761070251465, 7.649514675140381, -5.319404125213623, -0.461669921875, 0.509765625, -0.63330078125, 0, 
258, 1002895978, 0.7141741, 0.26878297, -0.58835065, 0.2674969, 9.587015151977539, 0.07803644984960556, 1.3187693357467651, 17.560199737548828, 7.3589677810668945, -6.044349670410156, -0.46044921875, 0.50537109375, -0.63671875, 0, 
259, 1002912645, 0.7141581, 0.27080628, -0.5869663, 0.26853833, 9.767779350280762, 0.4588591456413269, 1.5947248935699463, 18.381790161132812, 5.819257736206055, -6.1181135177612305, -0.4541015625, 0.5029296875, -0.638427734375, 0, 
260, 1002929312, 0.714106, 0.27242988, -0.58597386, 0.26920173, 9.86629581451416, 0.9067391157150269, 1.5912320613861084, 14.239925384521484, 3.77790904045105, -5.569371700286865, -0.451904296875, 0.50048828125, -0.64501953125, 0, 
261, 1002945979, 0.7140227, 0.27377927, -0.5852001, 0.269736, 9.90870475769043, 0.8095924854278564, 1.5499086380004883, 11.90744686126709, 2.833937883377075, -4.637066841125488, -0.454345703125, 0.498779296875, -0.64599609375, 0, 
262, 1002962646, 0.7137921, 0.27510232, -0.584566, 0.27037454, 9.921563148498535, 0.4595940411090851, 1.6384693384170532, 12.269430160522461, 1.8012077808380127, -3.4688706398010254, -0.449951171875, 0.497802734375, -0.648193359375, 0, 
263, 1002979313, 0.7133972, 0.2767238, -0.5838802, 0.27124244, 9.903364181518555, 0.3723702132701874, 1.6140029430389404, 15.089855194091797, 1.2701539993286133, -3.339232921600342, -0.453369140625, 0.49560546875, -0.651611328125, 0, 
264, 1002995980, 0.7127954, 0.27857554, -0.5832211, 0.27234527, 9.908235549926758, 0.6157262325286865, 1.6692767143249512, 17.4771728515625, 0.3192306458950043, -2.693203926086426, -0.4541015625, 0.4951171875, -0.65283203125, 0, 
265, 1003012647, 0.71210045, 0.2803219, -0.5826915, 0.27350155, 9.92496395111084, 0.755387544631958, 1.6296151876449585, 17.292633056640625, -0.38498491048812866, -1.5620179176330566, -0.45263671875, 0.49560546875, -0.654296875, 0, 
266, 1003029314, 0.7113762, 0.28185916, -0.5822897, 0.27466002, 9.930119514465332, 0.720279335975647, 1.5668877363204956, 16.195621490478516, -0.7301034331321716, -0.39706119894981384, -0.448974609375, 0.492431640625, -0.65673828125, 0, 
267, 1003045981, 0.71064407, 0.2833163, -0.5819162, 0.27584493, 9.934670448303223, 0.6072332859039307, 1.5626091957092285, 15.766033172607422, -0.7089729905128479, 0.10623518377542496, -0.44873046875, 0.490234375, -0.662109375, 0, 
268, 1003062648, 0.70994574, 0.28485218, -0.5813991, 0.27714902, 9.897804260253906, 0.5240948796272278, 1.5158953666687012, 16.822978973388672, 0.20521552860736847, 0.02121373638510704, -0.44970703125, 0.48974609375, -0.659912109375, 0, 
269, 1003079315, 0.7092363, 0.28647602, -0.58079284, 0.27855912, 9.831144332885742, 0.5365816354751587, 1.460024356842041, 17.942424774169922, 0.6386212706565857, 0.036145955324172974, -0.447998046875, 0.48779296875, -0.659423828125, 0, 
270, 1003095982, 0.70851153, 0.28810745, -0.58015925, 0.28003734, 9.835173606872559, 0.6277779340744019, 1.4370648860931396, 18.434654235839844, 0.8338673114776611, 0.3213949501514435, -0.448486328125, 0.48681640625, -0.661376953125, 0, 
271, 1003112649, 0.70780927, 0.28967994, -0.57951, 0.2815314, 9.810320854187012, 0.6251142621040344, 1.4221627712249756, 18.23815155029297, 1.1469701528549194, 0.5585944056510925, -0.4453125, 0.482177734375, -0.667236328125, 0, 
272, 1003129316, 0.70709443, 0.2913059, -0.5788287, 0.28304747, 9.794999122619629, 0.5692249536514282, 1.3932335376739502, 18.583206176757812, 1.1866953372955322, 0.39668357372283936, -0.4453125, 0.4814453125, -0.673828125, 0, 
273, 1003145983, 0.70636785, 0.29302508, -0.57808673, 0.2845993, 9.799200057983398, 0.5775293707847595, 1.440572738647461, 19.373798370361328, 1.328026533126831, 0.1005747988820076, -0.44580078125, 0.48095703125, -0.675537109375, 0, 
274, 1003162650, 0.70563483, 0.29477727, -0.57731885, 0.28616205, 9.784688949584961, 0.6368144750595093, 1.483428716659546, 19.68282699584961, 1.388498067855835, -0.017455074936151505, -0.443115234375, 0.48095703125, -0.677001953125, 0, 
275, 1003179317, 0.7049008, 0.2964367, -0.57662845, 0.28764555, 9.7798490524292, 0.7282218933105469, 1.4674925804138184, 18.850065231323242, 1.0311107635498047, 0.13253946602344513, -0.443603515625, 0.478515625, -0.6806640625, 0, 
276, 1003195984, 0.70418376, 0.29793254, -0.5760547, 0.28900295, 9.827427864074707, 0.7377623319625854, 1.4934697151184082, 17.231273651123047, 0.5933763980865479, 0.3632972538471222, -0.440673828125, 0.474609375, -0.68310546875, 0, 
277, 1003212651, 0.70350987, 0.2992604, -0.57559097, 0.29019347, 9.894651412963867, 0.7262247204780579, 1.4963750839233398, 15.472060203552246, 0.22065997123718262, 0.362131804227829, -0.4384765625, 0.4765625, -0.68310546875, 0, 
278, 1003229318, 0.7028073, 0.3005126, -0.57522196, 0.29133108, 9.907541275024414, 0.699846625328064, 1.5104631185531616, 14.82723617553711, -0.30745506286621094, 0.6642467379570007, -0.438232421875, 0.474853515625, -0.685302734375, 0, 
279, 1003245985, 0.7020995, 0.30185932, -0.57477486, 0.29252598, 9.93819808959961, 0.629353404045105, 1.5031931400299072, 15.712406158447266, -0.025234932079911232, 0.4182429313659668, -0.4375, 0.473876953125, -0.686767578125, 0, 
280, 1003262652, 0.70138276, 0.30334562, -0.5742234, 0.29378724, 9.924662590026855, 0.5374720692634583, 1.5070949792861938, 16.85746955871582, 0.2969859540462494, -0.02059263177216053, -0.4365234375, 0.47412109375, -0.6875, 0, 
281, 1003279319, 0.70062625, 0.30486968, -0.5736694, 0.29509485, 9.933144569396973, 0.6429274678230286, 1.4665645360946655, 17.352745056152344, 0.170574352145195, 0.12507334351539612, -0.433349609375, 0.47119140625, -0.691650390625, 0, 
282, 1003295986, 0.69990224, 0.30626675, -0.5731584, 0.29635635, 9.930764198303223, 0.6867571473121643, 1.502271056175232, 16.433256149291992, 0.2519587576389313, 0.4261636734008789, -0.435302734375, 0.47119140625, -0.69482421875, 0, 
283, 1003312653, 0.69927055, 0.30744788, -0.57272506, 0.29746035, 9.986150741577148, 0.7416220903396606, 1.697259783744812, 14.451298713684082, 0.34819215536117554, 0.49483776092529297, -0.435791015625, 0.468017578125, -0.69580078125, 0, 
284, 1003329320, 0.69878006, 0.30829805, -0.5723989, 0.29835978, 10.002532005310059, 0.803242564201355, 1.7149569988250732, 11.488523483276367, 0.6183740496635437, 0.7429159283638, -0.435791015625, 0.466552734375, -0.694580078125, 0, 
285, 1003345987, 0.6984483, 0.3087726, -0.5721744, 0.29907516, 10.012189865112305, 0.8714548945426941, 1.6874260902404785, 8.438599586486816, 1.1260435581207275, 1.231350064277649, -0.429931640625, 0.46728515625, -0.694580078125, 0, 
286, 1003362654, 0.69822806, 0.30894724, -0.5720344, 0.2996763, 9.972389221191406, 0.7825389504432678, 1.7091292142868042, 6.19697380065918, 1.5256909132003784, 1.8247064352035522, -0.433837890625, 0.4677734375, -0.697021484375, 0, 
287, 1003379321, 0.6980282, 0.30893967, -0.5719959, 0.3002228, 9.964249610900879, 0.7808535695075989, 1.7222962379455566, 4.823070049285889, 1.3639212846755981, 2.448913812637329, -0.43212890625, 0.467529296875, -0.69775390625, 0, 
288, 1003395988, 0.6978638, 0.30871597, -0.5720847, 0.3006656, 9.936497688293457, 0.8593716025352478, 1.7027051448822021, 3.068254232406616, 1.1085625886917114, 3.0042994022369385, -0.43017578125, 0.467529296875, -0.696044921875, 0, 
289, 1003412655, 0.69776684, 0.30824405, -0.5722962, 0.3009723, 9.880690574645996, 0.8689945340156555, 1.634866714477539, 0.9403446912765503, 0.9970768094062805, 3.452617645263672, -0.430908203125, 0.46875, -0.697021484375, 0, 
290, 1003429322, 0.6976973, 0.30763587, -0.57260907, 0.3011605, 9.82730770111084, 0.791590690612793, 1.5564584732055664, -0.44931715726852417, 0.6396642923355103, 3.5831010341644287, -0.42822265625, 0.46923828125, -0.6982421875, 0, 
291, 1003445989, 0.69759923, 0.3069915, -0.57300967, 0.30128357, 9.80178451538086, 0.7488678097724915, 1.5375287532806396, -1.0119258165359497, 0.03713841736316681, 3.6596837043762207, -0.4287109375, 0.46923828125, -0.69580078125, 0, 
292, 1003462656, 0.6974886, 0.30636102, -0.57342243, 0.30139554, 9.846460342407227, 0.7246856093406677, 1.4994889497756958, -0.9239077568054199, -0.12535496056079865, 3.615079164505005, -0.431640625, 0.47119140625, -0.6953125, 0, 
293, 1003479323, 0.69737315, 0.3057807, -0.573805, 0.3015244, 9.913634300231934, 0.7584260106086731, 1.495545744895935, -0.5329939126968384, -0.07131215929985046, 3.447187662124634, -0.428955078125, 0.47216796875, -0.691650390625, 0, 
294, 1003495990, 0.69731164, 0.30515376, -0.5741605, 0.30162472, 9.96649169921875, 0.7056442499160767, 1.5269378423690796, -0.9830025434494019, 0.29998230934143066, 3.3201420307159424, -0.428466796875, 0.470703125, -0.693115234375, 0, 
295, 1003512657, 0.6972717, 0.30458206, -0.57448244, 0.3016819, 9.95267105102539, 0.6472102999687195, 1.4315603971481323, -0.8175573348999023, 0.3402967154979706, 2.789344549179077, -0.427490234375, 0.47509765625, -0.696044921875, 0, 
296, 1003529324, 0.69720954, 0.3040768, -0.5748225, 0.30168754, 9.913053512573242, 0.6688204407691956, 1.3727991580963135, -0.7136083245277405, -0.08290831744670868, 2.361177444458008, -0.428955078125, 0.47509765625, -0.693115234375, 0, 
297, 1003545991, 0.69714266, 0.30356658, -0.5752138, 0.30161023, 9.895391464233398, 0.6857320666313171, 1.4267103672027588, -1.0987143516540527, -0.5066255927085876, 2.110025644302368, -0.42822265625, 0.474609375, -0.691650390625, 0, 
298, 1003562658, 0.697092, 0.303049, -0.57561946, 0.30147374, 9.868474960327148, 0.6626436710357666, 1.4206966161727905, -1.4227920770645142, -0.6192190051078796, 1.8537577390670776, -0.42724609375, 0.4755859375, -0.69091796875, 0, 
299, 1003579325, 0.697038, 0.30253857, -0.57605404, 0.30128118, 9.886502265930176, 0.6098856329917908, 1.3703925609588623, -1.6610091924667358, -0.9040130972862244, 1.6259263753890991, -0.42724609375, 0.476318359375, -0.692138671875, 0, 
300, 1003595992, 0.69697094, 0.30209327, -0.57646775, 0.30109194, 9.851430892944336, 0.5439432263374329, 1.366646647453308, -1.3039170503616333, -0.985000491142273, 1.3625253438949585, -0.429443359375, 0.477294921875, -0.688720703125, 0, 
301, 1003612659, 0.6968921, 0.301808, -0.576821, 0.3008838, 9.823897361755371, 0.5472978353500366, 1.3215051889419556, -0.4530310332775116, -1.1113414764404297, 0.5354719758033752, -0.430419921875, 0.478271484375, -0.688232421875, 0, 
302, 1003629326, 0.6967406, 0.3016434, -0.5771928, 0.30068654, 9.796241760253906, 0.5408467650413513, 1.2878165245056152, 0.3722933828830719, -1.7069393396377563, 0.3077237904071808, -0.431396484375, 0.474853515625, -0.68798828125, 0, 
303, 1003645993, 0.6965463, 0.30154172, -0.5776053, 0.30044645, 9.80737018585205, 0.503018856048584, 1.284737229347229, 0.44499507546424866, -2.2922792434692383, 0.014599239453673363, -0.4326171875, 0.480224609375, -0.688720703125, 0, 
304, 1003662660, 0.6963127, 0.30147517, -0.5780587, 0.30018234, 9.785276412963867, 0.4864257276058197, 1.309125304222107, 0.5469272136688232, -2.761894702911377, -0.07335477322340012, -0.431396484375, 0.477783203125, -0.685791015625, 0, 
305, 1003679327, 0.6960796, 0.30141416, -0.57848847, 0.2999563, 9.858195304870605, 0.4978548586368561, 1.393865704536438, 0.7610493302345276, -2.579134941101074, 0.030831286683678627, -0.433349609375, 0.478271484375, -0.6875, 0, 
306, 1003695994, 0.6959278, 0.30130184, -0.578877, 0.29967165, 9.897159576416016, 0.5107164978981018, 1.349094033241272, 0.19112837314605713, -2.0733609199523926, -0.30319035053253174, -0.43359375, 0.478759765625, -0.685302734375, 0, 
307, 1003712661, 0.6958614, 0.30121088, -0.5791719, 0.29934743, 9.966497421264648, 0.544951856136322, 1.3461494445800781, 0.13908979296684265, -1.4128607511520386, -0.9531254768371582, -0.433837890625, 0.478759765625, -0.686767578125, 0, 
308, 1003729328, 0.69588935, 0.30105862, -0.5794091, 0.29897663, 10.044200897216797, 0.46194925904273987, 1.4023281335830688, -0.3748674988746643, -0.7277080416679382, -1.2413579225540161, -0.434326171875, 0.477783203125, -0.687255859375, 0, 
309, 1003745995, 0.69600713, 0.30074757, -0.5796508, 0.2985462, 10.018949508666992, 0.50888592004776, 1.4106582403182983, -1.60265052318573, -0.19159579277038574, -1.0781922340393066, -0.434326171875, 0.478515625, -0.685546875, 0, 
310, 1003762662, 0.69614637, 0.30032447, -0.57996815, 0.29803085, 9.912884712219238, 0.5862188339233398, 1.3195821046829224, -2.5941309928894043, -0.4085994064807892, -0.9174981713294983, -0.435302734375, 0.47900390625, -0.680419921875, 0, 
311, 1003779329, 0.69629204, 0.29980195, -0.58037657, 0.29742154, 9.864618301391602, 0.5817839503288269, 1.3057774305343628, -3.656111001968384, -0.8091821074485779, -0.7974643707275391, -0.43798828125, 0.47900390625, -0.68359375, 0, 
312, 1003795996, 0.6964596, 0.29924327, -0.5807954, 0.29677343, 9.825481414794922, 0.5541720390319824, 1.2932276725769043, -4.076235771179199, -0.7776143550872803, -0.8653249740600586, -0.43603515625, 0.479736328125, -0.681884765625, 0, 
313, 1003812663, 0.69665307, 0.2986409, -0.58124256, 0.2960496, 9.865948677062988, 0.5544396638870239, 1.3199810981750488, -4.721227645874023, -0.8765947222709656, -1.0509531497955322, -0.436279296875, 0.482177734375, -0.680908203125, 0, 
314, 1003829330, 0.69689655, 0.2979994, -0.58167624, 0.29527023, 9.86451244354248, 0.5870263576507568, 1.3101816177368164, -5.173407554626465, -0.642533004283905, -1.2860522270202637, -0.43359375, 0.48291015625, -0.6787109375, 0, 
315, 1003845997, 0.6971505, 0.2973615, -0.58209664, 0.2944843, 9.856209754943848, 0.5784070491790771, 1.3016115427017212, -5.194858074188232, -0.5574988126754761, -1.3821253776550293, -0.439208984375, 0.479736328125, -0.67626953125, 0, 
316, 1003862664, 0.6973839, 0.29673612, -0.5825215, 0.29372147, 9.855005264282227, 0.5545150637626648, 1.258453369140625, -5.055806636810303, -0.640893816947937, -1.2755893468856812, -0.441650390625, 0.482177734375, -0.6767578125, 0, 
317, 1003879331, 0.6975874, 0.29616204, -0.5829426, 0.2929812, 9.852149963378906, 0.5557669401168823, 1.3033100366592407, -4.6080827713012695, -0.7952742576599121, -1.3149685859680176, -0.441650390625, 0.482421875, -0.67822265625, 0, 
318, 1003895998, 0.697769, 0.2956634, -0.5833232, 0.29229409, 9.862971305847168, 0.5882121920585632, 1.2829384803771973, -3.946648120880127, -0.7329459190368652, -1.4057787656784058, -0.440673828125, 0.482421875, -0.67724609375, 0, 
319, 1003912665, 0.69790137, 0.2952591, -0.5836746, 0.2916845, 9.903377532958984, 0.6207009553909302, 1.3220621347427368, -3.0359244346618652, -0.8211686611175537, -1.3732248544692993, -0.442626953125, 0.47998046875, -0.673583984375, 0, 
320, 1003929332, 0.6980343, 0.2948436, -0.5840334, 0.2910675, 9.93535327911377, 0.593523383140564, 1.3136343955993652, -3.1139793395996094, -0.8461410999298096, -1.3461905717849731, -0.4443359375, 0.482421875, -0.67236328125, 0, 
321, 1003945999, 0.6981756, 0.29438466, -0.58442104, 0.2904145, 9.93262004852295, 0.5890651941299438, 1.3459320068359375, -3.5624327659606934, -0.9369767904281616, -1.3048136234283447, -0.444091796875, 0.482177734375, -0.670166015625, 0, 
322, 1003962666, 0.6983388, 0.29386592, -0.5847986, 0.2897876, 9.954093933105469, 0.5855003595352173, 1.4435681104660034, -3.76263427734375, -0.6279466152191162, -1.002148151397705, -0.44287109375, 0.484619140625, -0.674072265625, 0, 
323, 1003979333, 0.6985647, 0.293279, -0.5851173, 0.28919327, 9.92965030670166, 0.5749315619468689, 1.429142713546753, -4.007260322570801, 0.10203458368778229, -0.8186330795288086, -0.442626953125, 0.482421875, -0.670166015625, 0, 
324, 1003996000, 0.6988474, 0.2926605, -0.58537394, 0.2886169, 9.957551002502441, 0.5531371831893921, 1.402466058731079, -4.136585235595703, 0.7224574089050293, -0.8506681323051453, -0.4462890625, 0.484130859375, -0.6728515625, 0, 
325, 1004012667, 0.6991712, 0.2919648, -0.58559775, 0.28808284, 9.951866149902344, 0.5783688426017761, 1.437764286994934, -4.368009567260742, 1.2798283100128174, -0.4856104552745819, -0.4462890625, 0.48388671875, -0.666748046875, 0, 
326, 1004029334, 0.6995317, 0.29117194, -0.5858557, 0.28748488, 9.996179580688477, 0.6130359768867493, 1.3950172662734985, -5.170436382293701, 1.3284733295440674, -0.3972914516925812, -0.4443359375, 0.48486328125, -0.669189453125, 0, 
327, 1004046001, 0.69986, 0.2903658, -0.5861595, 0.2868814, 9.941733360290527, 0.584362268447876, 1.3669862747192383, -5.284765243530273, 0.9907122254371643, -0.21238695085048676, -0.4482421875, 0.486083984375, -0.66845703125, 0, 
328, 1004062668, 0.70009995, 0.2896584, -0.586483, 0.28634924, 9.941625595092773, 0.572957456111908, 1.4277973175048828, -4.471202373504639, 0.48300424218177795, -0.06279592961072922, -0.444580078125, 0.484375, -0.665771484375, 0, 
329, 1004079335, 0.7003546, 0.28888816, -0.5868275, 0.28579834, 9.900246620178223, 0.5707119107246399, 1.4001917839050293, -4.938352108001709, 0.5240998268127441, 0.11195310950279236, -0.44287109375, 0.48828125, -0.6640625, 0, 
330, 1004096002, 0.70060885, 0.28809223, -0.5871954, 0.28522244, 9.87165355682373, 0.5682244896888733, 1.3560092449188232, -5.1343674659729, 0.41132721304893494, 0.15184491872787476, -0.4482421875, 0.486328125, -0.6669921875, 0, 
331, 1004112669, 0.7008178, 0.28733888, -0.5875865, 0.28466308, 9.858428955078125, 0.5313709378242493, 1.3207749128341675, -4.991083145141602, 0.05639275535941124, 0.17535094916820526, -0.448486328125, 0.489501953125, -0.661376953125, 0, 
332, 1004129336, 0.7010003, 0.2866244, -0.58795965, 0.28416315, 9.865511894226074, 0.47588926553726196, 1.3453489542007446, -4.2919840812683105, 0.08618033677339554, 0.3438057005405426, -0.451416015625, 0.491455078125, -0.660888671875, 0, 
333, 1004146003, 0.70117086, 0.28599417, -0.58824027, 0.2837959, 9.881806373596191, 0.4577123820781708, 1.3601676225662231, -3.1434848308563232, 0.5791863203048706, 0.4819093942642212, -0.448974609375, 0.490966796875, -0.664306640625, 0, 
334, 1004162670, 0.7013317, 0.28546333, -0.58844864, 0.2835015, 9.88974666595459, 0.493391752243042, 1.3243130445480347, -2.334770441055298, 0.8318620920181274, 0.2919463515281677, -0.44970703125, 0.4892578125, -0.659912109375, 0, 
335, 1004179337, 0.7014834, 0.28496122, -0.58864236, 0.28322875, 9.880165100097656, 0.490023672580719, 1.2851436138153076, -2.066042184829712, 0.8510075211524963, 0.26761430501937866, -0.4482421875, 0.4892578125, -0.654296875, 0, 
336, 1004196004, 0.7016344, 0.28443298, -0.58886224, 0.28292823, 9.842133522033691, 0.4454706907272339, 1.250504970550537, -2.2835066318511963, 0.7219196557998657, 0.30106449127197266, -0.45068359375, 0.491943359375, -0.6591796875, 0, 
337, 1004212671, 0.7017543, 0.28396043, -0.5890701, 0.28267288, 9.80859661102295, 0.43049827218055725, 1.2520604133605957, -1.8042737245559692, 0.6330114006996155, 0.32188114523887634, -0.44384765625, 0.4931640625, -0.65869140625, 0, 
338, 1004229338, 0.7018319, 0.28356382, -0.5892603, 0.28248215, 9.811868667602539, 0.44186994433403015, 1.2903382778167725, -1.067780613899231, 0.5273975729942322, 0.37087830901145935, -0.451171875, 0.49365234375, -0.65966796875, 0, 
339, 1004246005, 0.7018896, 0.2832251, -0.58942026, 0.2823446, 9.84837818145752, 0.42179933190345764, 1.2811297178268433, -0.4710431396961212, 0.5838991403579712, 0.3721461296081543, -0.451416015625, 0.491455078125, -0.657470703125, 0, 
340, 1004262672, 0.701948, 0.2829014, -0.58956444, 0.2822229, 9.881407737731934, 0.42320123314857483, 1.2986854314804077, -0.34259548783302307, 0.6638364195823669, 0.3490050733089447, -0.451904296875, 0.492919921875, -0.6552734375, 0, 
341, 1004279339, 0.7020108, 0.28262058, -0.5896768, 0.2821132, 9.894479751586914, 0.44994404911994934, 1.3126648664474487, 0.02390945516526699, 0.7790230512619019, 0.16745582222938538, -0.448486328125, 0.49462890625, -0.65625, 0, 
342, 1004296006, 0.70207334, 0.2823525, -0.5897968, 0.28197515, 9.895896911621094, 0.4492574632167816, 1.3120745420455933, 0.013606743887066841, 0.6625300645828247, 6.339142564684153E-4, -0.4501953125, 0.49365234375, -0.65576171875, 0, 
343, 1004312673, 0.70215523, 0.2820561, -0.58994675, 0.28175423, 9.864938735961914, 0.4537241458892822, 1.2827497720718384, -0.5969551801681519, 0.4893369972705841, -0.2692022919654846, -0.45068359375, 0.495361328125, -0.655517578125, 0, 
344, 1004329340, 0.70224994, 0.2816852, -0.59018093, 0.281398, 9.881102561950684, 0.42926159501075745, 1.2641099691390991, -1.707496166229248, 0.017179716378450394, -0.4845537841320038, -0.453369140625, 0.49072265625, -0.656494140625, 0, 
345, 1004346007, 0.7023378, 0.28126273, -0.59050643, 0.28091884, 9.882073402404785, 0.44976162910461426, 1.2134069204330444, -2.7919890880584717, -0.5951110124588013, -0.7015318274497986, -0.453857421875, 0.4921875, -0.656982421875, 0, 
346, 1004362674, 0.7024718, 0.28079164, -0.59087074, 0.280288, 9.864444732666016, 0.4684610068798065, 1.2616199254989624, -3.8450677394866943, -0.7922648191452026, -1.2553935050964355, -0.451171875, 0.496337890625, -0.65478515625, 0, 
347, 1004379341, 0.7026564, 0.28037196, -0.59120524, 0.2795393, 9.914290428161621, 0.42898643016815186, 1.306583046913147, -4.017851829528809, -0.7642318606376648, -2.1764137744903564, -0.4521484375, 0.494140625, -0.65283203125, 0, 
348, 1004396008, 0.7026598, 0.28019136, -0.5915936, 0.27888906, 9.890491485595703, 0.46572989225387573, 1.4546887874603271, -2.2640087604522705, -2.03149676322937, -2.2282280921936035, -0.453369140625, 0.492919921875, -0.651611328125, 0, 
349, 1004412675, 0.70258933, 0.28025454, -0.5919037, 0.27834487, 9.87109088897705, 0.4378023147583008, 1.4315204620361328, -0.41875478625297546, -2.2214276790618896, -2.7241153717041016, -0.45751953125, 0.494140625, -0.6533203125, 0, 
350, 1004429342, 0.70248586, 0.2805508, -0.59209687, 0.277896, 9.878629684448242, 0.47164854407310486, 1.4495177268981934, 1.357972502708435, -2.057621717453003, -3.379915714263916, -0.45654296875, 0.492919921875, -0.65087890625, 0, 
351, 1004446009, 0.7021225, 0.28111574, -0.59238905, 0.27762073, 9.791338920593262, 0.5090306401252747, 1.4768773317337036, 3.7099034786224365, -3.774172306060791, -2.9447944164276123, -0.459716796875, 0.49072265625, -0.655029296875, 0, 
352, 1004462676, 0.70154434, 0.28195286, -0.5927222, 0.27752215, 9.792699813842773, 0.6329078674316406, 1.46711266040802, 5.851491451263428, -5.0397796630859375, -2.7387731075286865, -0.458740234375, 0.491455078125, -0.6494140625, 0, 
353, 1004479343, 0.70074326, 0.28308457, -0.5931023, 0.277582, 9.791116714477539, 0.5923531651496887, 1.467496633529663, 8.478774070739746, -6.424794673919678, -2.633549928665161, -0.45849609375, 0.490478515625, -0.651611328125, 0, 
354, 1004496010, 0.6997065, 0.2844944, -0.5935258, 0.27785045, 9.885008811950684, 0.6982423663139343, 1.5233060121536255, 10.966629028320312, -7.730084419250488, -2.238013505935669, -0.46044921875, 0.490234375, -0.65185546875, 0, 
355, 1004512677, 0.69857025, 0.2858248, -0.59413034, 0.2780526, 9.881624221801758, 0.6385645866394043, 1.4714996814727783, 10.317229270935059, -8.9847993850708, -1.6710118055343628, -0.4609375, 0.48583984375, -0.651611328125, 0, 
356, 1004529344, 0.69733393, 0.28726557, -0.594757, 0.27833116, 9.891843795776367, 0.610125720500946, 1.4273368120193481, 11.150639533996582, -9.577569007873535, -1.5381333827972412, -0.4619140625, 0.48583984375, -0.6494140625, 0, 
357, 1004546011, 0.6959725, 0.28882802, -0.5954042, 0.2787377, 9.875568389892578, 0.6433879137039185, 1.3398263454437256, 12.484493255615234, -10.170633316040039, -1.1433135271072388, -0.465576171875, 0.484375, -0.650634765625, 0, 
358, 1004562678, 0.6946579, 0.29005063, -0.59628737, 0.27885982, 9.862062454223633, 0.6362360715866089, 1.2447272539138794, 9.356793403625488, -11.018937110900879, -0.7144923806190491, -0.46875, 0.485107421875, -0.649658203125, 0, 
359, 1004579345, 0.6932166, 0.29121, -0.5973849, 0.27888834, 9.742926597595215, 0.5677394270896912, 1.19989812374115, 8.55135726928711, -12.629471778869629, -0.23108437657356262, -0.4697265625, 0.48095703125, -0.653076171875, 0, 
360, 1004596012, 0.69157547, 0.29264072, -0.59847945, 0.27911863, 9.687642097473145, 0.3317384123802185, 1.157378911972046, 10.63489818572998, -13.578216552734375, -0.050405845046043396, -0.4755859375, 0.478515625, -0.64794921875, 0, 
361, 1004612679, 0.6898631, 0.2940694, -0.5995783, 0.2794963, 9.752041816711426, 0.5892031788825989, 1.1447612047195435, 11.587461471557617, -13.584683418273926, 0.8136075139045715, -0.4736328125, 0.4765625, -0.648193359375, 0, 
362, 1004629346, 0.68830657, 0.29489934, -0.60096836, 0.2794739, 9.712176322937012, 0.532636821269989, 1.092130422592163, 6.1880011558532715, -13.988426208496094, 1.666792631149292, -0.47705078125, 0.478515625, -0.646484375, 0, 
363, 1004646013, 0.6868391, 0.2955698, -0.6023568, 0.2793867, 9.77734661102295, 0.41553691029548645, 1.0824223756790161, 5.083963871002197, -13.43817138671875, 1.8473106622695923, -0.481201171875, 0.474609375, -0.645751953125, 0, 
364, 1004662680, 0.6853, 0.29644698, -0.60362387, 0.27950242, 9.795546531677246, 0.2822612524032593, 1.0266196727752686, 7.10552453994751, -13.16004467010498, 1.8226711750030518, -0.480712890625, 0.478271484375, -0.643310546875, 0, 
365, 1004679347, 0.68356705, 0.29786262, -0.60458887, 0.28015408, 9.80133056640625, 0.24078786373138428, 0.9769961833953857, 13.125082969665527, -12.474909782409668, 1.8764333724975586, -0.482421875, 0.47705078125, -0.644287109375, 0, 
366, 1004696014, 0.6817643, 0.29949906, -0.6053741, 0.28110474, 9.85383415222168, 0.4816296696662903, 0.9045029282569885, 15.841841697692871, -11.74218463897705, 2.115157127380371, -0.483154296875, 0.475341796875, -0.644287109375, 0, 
367, 1004712681, 0.6798841, 0.30137748, -0.6059732, 0.2823575, 9.862133026123047, 0.42112159729003906, 0.9247660636901855, 18.777376174926758, -11.040385246276855, 2.287057876586914, -0.487548828125, 0.470947265625, -0.64013671875, 0, 
368, 1004729348, 0.67820096, 0.30300966, -0.6065292, 0.28346258, 9.881139755249023, 0.5392954349517822, 0.9404744505882263, 16.82062339782715, -9.847601890563965, 2.1510980129241943, -0.484619140625, 0.47216796875, -0.6435546875, 0, 
369, 1004746015, 0.67651904, 0.30471343, -0.60699046, 0.28466582, 9.833707809448242, 0.3475083112716675, 0.8492071628570557, 17.684402465820312, -9.344942092895508, 2.1040732860565186, -0.4853515625, 0.470703125, -0.640625, 0, 
370, 1004762682, 0.6745249, 0.30729616, -0.60701025, 0.2865726, 9.924734115600586, 0.22267185151576996, 0.7317640781402588, 26.324665069580078, -8.844134330749512, 1.3911447525024414, -0.48681640625, 0.468017578125, -0.643310546875, 0, 
371, 1004779349, 0.6724782, 0.3099017, -0.60699546, 0.28860134, 9.911227226257324, 0.5649772882461548, 0.6859103441238403, 27.058961868286133, -8.696913719177246, 1.87892746925354, -0.489501953125, 0.468505859375, -0.645263671875, 0, 
372, 1004796016, 0.67053825, 0.31208327, -0.60721374, 0.29029968, 9.872776985168457, 0.6660251617431641, 0.5916943550109863, 23.15050506591797, -9.190906524658203, 2.4072980880737305, -0.488525390625, 0.46484375, -0.646240234375, 0, 
373, 1004812683, 0.66864204, 0.31416735, -0.6075247, 0.29177153, 9.845686912536621, 0.5754467248916626, 0.5548076033592224, 21.438901901245117, -9.729681015014648, 1.8807379007339478, -0.48828125, 0.462890625, -0.648681640625, 0, 
374, 1004829350, 0.6666741, 0.3162425, -0.6079424, 0.2931596, 9.881468772888184, 0.6667593121528625, 0.543938934803009, 21.016586303710938, -10.685408592224121, 1.9058127403259277, -0.490966796875, 0.460693359375, -0.6474609375, 0, 
375, 1004846017, 0.6646737, 0.3181219, -0.60856754, 0.29436895, 9.868992805480957, 0.5171027779579163, 0.5719503164291382, 19.010648727416992, -11.768332481384277, 2.420109748840332, -0.48974609375, 0.460693359375, -0.650390625, 0, 
376, 1004862684, 0.6626422, 0.3199486, -0.6093049, 0.29544166, 9.906288146972656, 0.5302056074142456, 0.5336403846740723, 18.06601333618164, -12.606290817260742, 2.320847511291504, -0.49169921875, 0.456298828125, -0.648193359375, 0, 
377, 1004879351, 0.6606979, 0.3215359, -0.61016625, 0.29629442, 10.00327205657959, 0.5871092081069946, 0.5345351099967957, 15.628507614135742, -12.806656837463379, 2.4145638942718506, -0.491455078125, 0.456787109375, -0.647216796875, 0, 
378, 1004896018, 0.6588577, 0.3229603, -0.6110613, 0.29699722, 9.999039649963379, 0.5508573055267334, 0.4861702024936676, 13.970218658447266, -12.527935028076172, 2.276395082473755, -0.492431640625, 0.456298828125, -0.649658203125, 0, 
379, 1004912685, 0.6570677, 0.32436767, -0.6119765, 0.2975441, 9.97324275970459, 0.5041561126708984, 0.40526437759399414, 13.089306831359863, -12.722719192504883, 1.5806125402450562, -0.495361328125, 0.453125, -0.6484375, 0, 
380, 1004929352, 0.6553038, 0.32571235, -0.6129282, 0.29800573, 9.963785171508789, 0.5208474397659302, 0.3096500039100647, 12.366576194763184, -12.841876983642578, 1.4834444522857666, -0.498291015625, 0.454345703125, -0.64794921875, 0, 
381, 1004946019, 0.6536119, 0.32683173, -0.61400527, 0.29827875, 9.999847412109375, 0.4868534803390503, 0.2631763517856598, 10.116710662841797, -13.065010070800781, 1.7128572463989258, -0.498046875, 0.451416015625, -0.641357421875, 0, 
382, 1004962686, 0.6518911, 0.32804233, -0.61503536, 0.2985928, 10.020339965820312, 0.43760961294174194, 0.19432464241981506, 10.864404678344727, -13.071651458740234, 1.4616156816482544, -0.503173828125, 0.45068359375, -0.645263671875, 0, 
383, 1004979353, 0.6502213, 0.3292997, -0.6159496, 0.29896516, 10.0856351852417, 0.6059992909431458, 0.23818981647491455, 11.466304779052734, -12.301509857177734, 1.1541733741760254, -0.50244140625, 0.45166015625, -0.640625, 0, 
384, 1004996020, 0.64869505, 0.3303663, -0.6168441, 0.29925942, 10.041834831237793, 0.5573733448982239, 0.22027377784252167, 10.017382621765137, -11.392574310302734, 1.271383285522461, -0.504150390625, 0.44921875, -0.643310546875, 0, 
385, 1005012687, 0.64727724, 0.3313753, -0.6176652, 0.29952037, 10.01311206817627, 0.5119678974151611, 0.16635502874851227, 9.462970733642578, -10.566104888916016, 0.9769395589828491, -0.507568359375, 0.44921875, -0.6435546875, 0, 
386, 1005029354, 0.6459062, 0.33240035, -0.61840314, 0.29982162, 10.052754402160645, 0.4768904149532318, 0.17551901936531067, 9.832504272460938, -9.938995361328125, 0.7992319464683533, -0.509033203125, 0.447265625, -0.642333984375, 0, 
387, 1005046021, 0.64460534, 0.33342028, -0.61903167, 0.3001914, 10.054205894470215, 0.5030000805854797, 0.09605558216571808, 10.155813217163086, -8.991837501525879, 0.7283104658126831, -0.508056640625, 0.445556640625, -0.6416015625, 0, 
388, 1005062688, 0.6433885, 0.33448952, -0.61946917, 0.3007095, 10.079756736755371, 0.545946478843689, 0.09219398349523544, 11.21003246307373, -7.5508527755737305, 0.5626729726791382, -0.51171875, 0.443115234375, -0.638916015625, 0, 
389, 1005079355, 0.64224565, 0.33560908, -0.61975217, 0.30132157, 10.065832138061523, 0.5054104924201965, 0.0415777787566185, 11.995197296142578, -6.4418158531188965, 0.25516030192375183, -0.511474609375, 0.443115234375, -0.642333984375, 0, 
390, 1005096022, 0.64114386, 0.33680323, -0.61990327, 0.3020232, 10.114181518554688, 0.5083791017532349, 0.033280447125434875, 12.872112274169922, -5.634042263031006, -0.05665532499551773, -0.5126953125, 0.442626953125, -0.640869140625, 0, 
391, 1005112689, 0.64017534, 0.33798534, -0.61993015, 0.30270126, 10.13006591796875, 0.5599783062934875, -0.019575035199522972, 12.67265510559082, -4.550240516662598, -0.6741268038749695, -0.511962890625, 0.441162109375, -0.6416015625, 0, 
392, 1005129356, 0.63931453, 0.3390988, -0.6199304, 0.3032746, 10.17771053314209, 0.5984598398208618, -0.04942143335938454, 11.740714073181152, -4.075514316558838, -1.1265815496444702, -0.513427734375, 0.441650390625, -0.642822265625, 0, 
393, 1005146023, 0.63857025, 0.3400127, -0.61999536, 0.30368653, 10.229768753051758, 0.6213235259056091, 0.009349996224045753, 9.812568664550781, -3.822619676589966, -1.0768734216690063, -0.512939453125, 0.4404296875, -0.640869140625, 0, 
394, 1005162690, 0.6379837, 0.34071425, -0.6200958, 0.3039274, 10.255743980407715, 0.5843085050582886, 0.053337350487709045, 7.725425720214844, -3.2625973224639893, -1.1668635606765747, -0.512939453125, 0.436767578125, -0.642822265625, 0, 
395, 1005179357, 0.63749033, 0.3413054, -0.62023133, 0.30402303, 10.247084617614746, 0.58293616771698, 0.031223855912685394, 6.311225891113281, -3.132798433303833, -1.4429363012313843, -0.513671875, 0.439453125, -0.642578125, 0, 
396, 1005196024, 0.63704693, 0.34182703, -0.62042093, 0.3039796, 10.219291687011719, 0.5739268064498901, 0.03753181919455528, 5.1911444664001465, -3.340927839279175, -1.7317453622817993, -0.51416015625, 0.43896484375, -0.644287109375, 0, 
397, 1005212691, 0.63669324, 0.34226248, -0.62063956, 0.3037841, 10.120687484741211, 0.6144258975982666, -0.0074495188891887665, 3.9386444091796875, -3.2626547813415527, -2.149834156036377, -0.513916015625, 0.43603515625, -0.64208984375, 0, 
398, 1005229358, 0.63641346, 0.3426022, -0.62087345, 0.3035093, 9.987460136413574, 0.6322280168533325, -0.028887804597616196, 2.968390703201294, -3.0024492740631104, -2.202615737915039, -0.516845703125, 0.436767578125, -0.643310546875, 0, 
399, 1005246025, 0.6362038, 0.3427313, -0.6212228, 0.30308822, 9.913108825683594, 0.5715799927711487, -0.11706860363483429, 1.0237587690353394, -3.1143381595611572, -1.815543532371521, -0.51513671875, 0.4345703125, -0.645751953125, 0, 
400, 1005262692, 0.6360865, 0.34262285, -0.62166893, 0.30254117, 9.965916633605957, 0.5669256448745728, -0.18356387317180634, -1.0517854690551758, -2.9460878372192383, -1.3105378150939941, -0.515625, 0.43505859375, -0.640380859375, 0, 
401, 1005279359, 0.6361107, 0.34229952, -0.6221738, 0.30181807, 10.04267692565918, 0.5680890083312988, -0.23609879612922668, -3.1682591438293457, -2.5631206035614014, -1.3177926540374756, -0.51806640625, 0.43603515625, -0.64111328125, 0, 
402, 1005296026, 0.63628507, 0.34195703, -0.62251115, 0.3011424, 10.06541633605957, 0.536138117313385, -0.2228393405675888, -3.0447285175323486, -1.0345544815063477, -1.7325645685195923, -0.518310546875, 0.434814453125, -0.642333984375, 0, 
403, 1005312693, 0.636461, 0.3418003, -0.6226298, 0.30070278, 10.113019943237305, 0.48359763622283936, -0.22158381342887878, -0.7506378293037415, 0.10351373255252838, -2.0100784301757812, -0.517822265625, 0.4345703125, -0.639892578125, 0, 
404, 1005329360, 0.6366101, 0.3417613, -0.62263924, 0.30041194, 10.193825721740723, 0.4719744920730591, -0.24059483408927917, 0.6430004239082336, 0.5738333463668823, -2.0624496936798096, -0.5185546875, 0.43505859375, -0.638671875, 0, 
405, 1005346027, 0.63685113, 0.34164003, -0.6226066, 0.30010656, 10.357523918151855, 0.4947085976600647, -0.1300550103187561, 0.13798201084136963, 1.2915525436401367, -2.062987804412842, -0.519287109375, 0.4345703125, -0.641357421875, 0, 
406, 1005362694, 0.63721335, 0.34134844, -0.62265265, 0.2995736, 10.452651977539062, 0.6558912992477417, -0.1166163831949234, -2.08815860748291, 1.281518578529358, -2.391758441925049, -0.5185546875, 0.435791015625, -0.64013671875, 0, 
407, 1005379361, 0.6376544, 0.34083188, -0.6229029, 0.2987013, 10.414283752441406, 0.8104904294013977, -0.1023624837398529, -5.073574542999268, 0.3933214247226715, -2.5969674587249756, -0.5234375, 0.433349609375, -0.638671875, 0, 
408, 1005396028, 0.6382223, 0.33991194, -0.6234408, 0.2974119, 10.20958423614502, 0.795170247554779, -0.03362727537751198, -9.544651985168457, -0.47359171509742737, -2.2758681774139404, -0.525146484375, 0.435791015625, -0.637939453125, 0, 
409, 1005412695, 0.6389133, 0.33854234, -0.6242488, 0.29579115, 9.901007652282715, 0.7158586978912354, -0.013905332423746586, -13.757503509521484, -0.9860703945159912, -1.4174013137817383, -0.521484375, 0.43603515625, -0.636474609375, 0, 
410, 1005429362, 0.6397858, 0.33683297, -0.6251378, 0.29397357, 9.712761878967285, 0.7082325220108032, -0.21879497170448303, -16.71772575378418, -0.33193451166152954, -0.9980958700180054, -0.5244140625, 0.438720703125, -0.63427734375, 0, 
411, 1005446029, 0.6409326, 0.33473116, -0.6260304, 0.2919702, 9.717353820800781, 0.6592759490013123, -0.4982161521911621, -19.971372604370117, 1.1950390338897705, -0.6654893755912781, -0.52587890625, 0.438720703125, -0.630126953125, 0, 
412, 1005462696, 0.6423558, 0.3324329, -0.6267789, 0.2898548, 9.85945987701416, 0.46106892824172974, -0.7189856767654419, -21.73194694519043, 3.163691759109497, -1.1917990446090698, -0.527099609375, 0.438232421875, -0.627197265625, 0, 
413, 1005479363, 0.64388007, 0.33039767, -0.6271731, 0.28794032, 9.963583946228027, 0.3241015076637268, -0.9304193258285522, -19.3048038482666, 5.111181259155273, -2.4436726570129395, -0.525634765625, 0.439453125, -0.627685546875, 0, 
414, 1005496030, 0.645219, 0.3290274, -0.6271185, 0.2866285, 9.970063209533691, 0.3062625229358673, -0.9637730717658997, -12.550772666931152, 6.365952491760254, -3.2922208309173584, -0.525390625, 0.443115234375, -0.6259765625, 0, 
415, 1005512697, 0.64626884, 0.32828096, -0.6267601, 0.28590232, 9.95445728302002, 0.5404446721076965, -0.8064324855804443, -5.928060531616211, 6.584661483764648, -3.506251096725464, -0.525390625, 0.440673828125, -0.62451171875, 0, 
416, 1005529364, 0.6471815, 0.32780623, -0.62627953, 0.28543496, 9.902667045593262, 0.8150396347045898, -0.5994163155555725, -3.1467254161834717, 6.598453521728516, -3.5253961086273193, -0.526611328125, 0.44189453125, -0.624755859375, 0, 
417, 1005546031, 0.6481508, 0.3272851, -0.6257554, 0.28498283, 9.890608787536621, 1.0259346961975098, -0.37629076838493347, -3.286916971206665, 7.173625469207764, -3.4615445137023926, -0.52490234375, 0.44287109375, -0.627197265625, 0, 
418, 1005562698, 0.6492885, 0.3265439, -0.6251958, 0.2844714, 9.829864501953125, 1.0649536848068237, -0.24397233128547668, -4.891834735870361, 8.35927677154541, -3.172684669494629, -0.52685546875, 0.443603515625, -0.625732421875, 0, 
419, 1005579365, 0.6505354, 0.32562467, -0.6246136, 0.28395447, 9.73440170288086, 1.040663480758667, -0.2524234354496002, -5.959770202636719, 9.268579483032227, -2.68450665473938, -0.525390625, 0.44384765625, -0.630126953125, 0, 
420, 1005596032, 0.65180004, 0.32463917, -0.6239736, 0.28358963, 9.66549015045166, 1.0192586183547974, -0.2751646935939789, -5.63026237487793, 10.073652267456055, -1.8639904260635376, -0.5224609375, 0.443115234375, -0.62744140625, 0, 
421, 1005612699, 0.6531265, 0.32349277, -0.6233217, 0.28328174, 9.676752090454102, 1.149470329284668, -0.33295097947120667, -6.175487518310547, 10.840285301208496, -1.0557622909545898, -0.52294921875, 0.447998046875, -0.630126953125, 0, 
422, 1005629366, 0.6545819, 0.32199454, -0.62279016, 0.2827975, 9.767281532287598, 1.1979048252105713, -0.35843464732170105, -8.890437126159668, 11.157194137573242, -0.3134932518005371, -0.520263671875, 0.44677734375, -0.632080078125, 0, 
423, 1005646033, 0.6562243, 0.32015464, -0.6223223, 0.28210896, 10.041055679321289, 1.1457585096359253, -0.27260249853134155, -12.072500228881836, 11.882562637329102, 0.03345021978020668, -0.519287109375, 0.44873046875, -0.627685546875, 0, 
424, 1005662700, 0.6581226, 0.3178486, -0.6219656, 0.28107935, 10.414113998413086, 1.0127394199371338, -0.1739749163389206, -16.360904693603516, 12.63822078704834, 0.24601034820079803, -0.52001953125, 0.45068359375, -0.6318359375, 0, 
425, 1005679367, 0.6601952, 0.3152627, -0.62171704, 0.27967814, 10.862300872802734, 0.8916549682617188, -0.05975537747144699, -19.947057723999023, 12.623903274536133, -0.3189171850681305, -0.51904296875, 0.453369140625, -0.62939453125, 0, 
426, 1005696034, 0.66230464, 0.31267062, -0.6215842, 0.27789006, 11.093362808227539, 0.7090927958488464, 0.08998646587133408, -22.067153930664062, 11.42941665649414, -1.8611252307891846, -0.516845703125, 0.455810546875, -0.629150390625, 0, 
427, 1005712701, 0.6643909, 0.310161, -0.6215401, 0.27581298, 10.933820724487305, 0.5496665239334106, 0.257795125246048, -23.110048294067383, 10.148170471191406, -3.2866733074188232, -0.51513671875, 0.455322265625, -0.62646484375, 0, 
428, 1005729368, 0.6664892, 0.30777776, -0.62138945, 0.27375206, 10.521717071533203, 0.3249606490135193, 0.31900516152381897, -22.709972381591797, 10.466941833496094, -3.9987151622772217, -0.515625, 0.457763671875, -0.62548828125, 0, 
429, 1005746035, 0.66872936, 0.3055026, -0.6209519, 0.27182353, 10.116584777832031, 0.3021021783351898, 0.30652934312820435, -21.27938461303711, 12.468795776367188, -4.730727195739746, -0.514892578125, 0.46142578125, -0.62646484375, 0, 
430, 1005762702, 0.6711253, 0.3033321, -0.6202146, 0.27002692, 9.749040603637695, 0.3141727149486542, 0.25562772154808044, -19.70012664794922, 14.60529613494873, -5.491208076477051, -0.515869140625, 0.462890625, -0.622314453125, 0, 
431, 1005779369, 0.6735529, 0.30140308, -0.6191839, 0.2685035, 9.550300598144531, 0.2846996784210205, 0.13371507823467255, -17.06941032409668, 16.212671279907227, -5.947049617767334, -0.51513671875, 0.46435546875, -0.623779296875, 0, 
432, 1005796036, 0.675924, 0.29972336, -0.617895, 0.26739222, 9.48662281036377, 0.28081583976745605, 0.12147358804941177, -13.717597961425781, 17.56310272216797, -5.543405055999756, -0.514892578125, 0.464111328125, -0.6259765625, 0, 
433, 1005812703, 0.67813027, 0.29835677, -0.6164082, 0.26676506, 9.505694389343262, 0.39103230834007263, 0.19865691661834717, -9.60009765625, 18.206945419311523, -4.740501880645752, -0.515625, 0.464599609375, -0.6259765625, 0, 
434, 1005829370, 0.6800846, 0.29724768, -0.6148767, 0.2665625, 9.655072212219238, 0.5002480745315552, 0.414459228515625, -5.9334259033203125, 17.75336265563965, -3.485745429992676, -0.50927734375, 0.46533203125, -0.625732421875, 0, 
435, 1005846037, 0.68176436, 0.29625767, -0.61350864, 0.26652643, 9.840049743652344, 0.5678274631500244, 0.6752878427505493, -4.3785080909729, 15.954558372497559, -2.373403310775757, -0.508056640625, 0.467041015625, -0.6328125, 0, 
436, 1005862704, 0.68319476, 0.2952456, -0.6124354, 0.2664545, 10.01203441619873, 0.5314597487449646, 0.9329315423965454, -4.823976039886475, 13.480210304260254, -1.3997093439102173, -0.505859375, 0.46826171875, -0.6328125, 0, 
437, 1005879371, 0.6845121, 0.2939482, -0.61166763, 0.26627162, 10.08965015411377, 0.39591240882873535, 1.0970282554626465, -6.896172523498535, 11.863201141357422, 0.10828416049480438, -0.50390625, 0.46875, -0.634033203125, 0, 
438, 1005896038, 0.68566483, 0.29250267, -0.611124, 0.26614586, 10.005946159362793, 0.37725651264190674, 1.249152660369873, -7.498122215270996, 10.491436004638672, 1.7451928853988647, -0.50341796875, 0.469970703125, -0.634765625, 0, 
439, 1005912705, 0.686718, 0.29112434, -0.6105766, 0.2661981, 9.853837013244629, 0.18605057895183563, 1.2903624773025513, -6.264869213104248, 10.314796447753906, 2.4692001342773438, -0.499267578125, 0.47021484375, -0.633056640625, 0, 
440, 1005929372, 0.68756074, 0.29009774, -0.60988885, 0.26671925, 9.659944534301758, 0.007471979595720768, 1.3079203367233276, -1.9487941265106201, 10.380234718322754, 3.3020098209381104, -0.499755859375, 0.47265625, -0.634765625, 0, 
441, 1005946039, 0.6879249, 0.28967077, -0.60909355, 0.26805848, 9.509727478027344, 0.06568346917629242, 1.3536062240600586, 5.510415077209473, 9.405314445495605, 5.3087663650512695, -0.498046875, 0.4736328125, -0.636474609375, 0, 
442, 1005962706, 0.6877655, 0.28995302, -0.6081679, 0.2702556, 9.550408363342285, 0.29501208662986755, 1.5126667022705078, 13.783111572265625, 8.220476150512695, 7.0943989753723145, -0.494873046875, 0.474853515625, -0.6376953125, 0, 
443, 1005979373, 0.6871125, 0.29078117, -0.60726464, 0.2730429, 9.649886131286621, 0.48041996359825134, 1.6394319534301758, 19.91360855102539, 6.203873157501221, 8.566944122314453, -0.491455078125, 0.477294921875, -0.641357421875, 0, 
444, 1005996040, 0.6860127, 0.2920254, -0.6064526, 0.27626634, 9.746332168579102, 0.545914351940155, 1.7909578084945679, 24.604318618774414, 3.9885666370391846, 9.920418739318848, -0.48388671875, 0.48046875, -0.640625, 0, 
445, 1006012707, 0.68456036, 0.29344916, -0.60581326, 0.27974102, 9.808038711547852, 0.536356508731842, 1.905625343322754, 27.153757095336914, 1.8547875881195068, 11.39080810546875, -0.487548828125, 0.476318359375, -0.646728515625, 0, 
446, 1006029374, 0.68301016, 0.294654, -0.60536444, 0.28321394, 9.847792625427246, 0.5144997835159302, 1.9565354585647583, 25.918001174926758, 0.9464048147201538, 12.863887786865234, -0.48193359375, 0.4775390625, -0.646728515625, 0, 
447, 1006046041, 0.6817189, 0.29525852, -0.60507095, 0.28630584, 9.917881965637207, 0.5144039392471313, 1.840564489364624, 20.99881935119629, 1.676533818244934, 13.404908180236816, -0.477783203125, 0.48046875, -0.649169921875, 0, 
448, 1006062708, 0.68087345, 0.2951615, -0.6049033, 0.28876156, 9.915526390075684, 0.5355166792869568, 1.5032947063446045, 13.740391731262207, 3.006070137023926, 12.707788467407227, -0.475830078125, 0.48095703125, -0.654541015625, 0, 
449, 1006079375, 0.68038815, 0.29461157, -0.6047382, 0.29080552, 9.915505409240723, 0.418819785118103, 1.045632004737854, 9.273719787597656, 4.543984413146973, 11.963016510009766, -0.47265625, 0.486572265625, -0.65185546875, 0, 
450, 1006096042, 0.68010634, 0.29381898, -0.604498, 0.2927594, 9.991943359375, 0.11313078552484512, 0.7823769450187683, 7.7445244789123535, 6.041368007659912, 12.010259628295898, -0.4677734375, 0.486328125, -0.65478515625, 0, 
451, 1006112709, 0.6798758, 0.2932865, -0.6039978, 0.29485366, 10.099011421203613, -0.11959223449230194, 0.6522331237792969, 9.84621524810791, 7.227685928344727, 10.947000503540039, -0.4677734375, 0.487060546875, -0.650390625, 0, 
452, 1006129376, 0.679535, 0.29364327, -0.60293293, 0.29745233, 10.293900489807129, -0.1855531632900238, 0.6271834373474121, 17.555234909057617, 8.627171516418457, 8.698298454284668, -0.462890625, 0.486328125, -0.654541015625, 0, 
453, 1006146043, 0.6790713, 0.2949113, -0.6013014, 0.30054313, 10.317256927490234, -0.09357429295778275, 0.7679126262664795, 25.28909683227539, 9.89852237701416, 6.324029922485352, -0.458984375, 0.48974609375, -0.658447265625, 0, 
454, 1006162710, 0.6784935, 0.29697278, -0.5992287, 0.30393893, 10.105706214904785, -0.06564867496490479, 0.8668640851974487, 31.493101119995117, 10.467503547668457, 3.8125927448272705, -0.45458984375, 0.486083984375, -0.662109375, 0, 
455, 1006179377, 0.6779549, 0.2993274, -0.59695214, 0.30729258, 9.852203369140625, -0.06667006760835648, 0.9215152263641357, 33.06005096435547, 10.881742477416992, 1.909498929977417, -0.451171875, 0.484619140625, -0.66943359375, 0, 
456, 1006196044, 0.67755544, 0.30166987, -0.5946317, 0.31036642, 9.504180908203125, 0.0028319295961409807, 0.9367858171463013, 31.679950714111328, 11.107508659362793, 0.2711819112300873, -0.443359375, 0.484130859375, -0.67578125, 0, 
457, 1006212711, 0.6772451, 0.30395466, -0.5924215, 0.31302986, 9.256332397460938, -0.003811223665252328, 0.923719048500061, 29.30116081237793, 10.231175422668457, -1.3694771528244019, -0.43994140625, 0.48046875, -0.67919921875, 0, 
458, 1006229378, 0.6769474, 0.3062132, -0.5902972, 0.31547594, 9.281661987304688, -0.06733621656894684, 1.0013577938079834, 28.0674991607666, 9.485211372375488, -2.1235299110412598, -0.4365234375, 0.476806640625, -0.68701171875, 0, 
459, 1006246045, 0.676716, 0.30841687, -0.58818775, 0.31775713, 9.385671615600586, -0.1275777667760849, 1.1304774284362793, 27.010709762573242, 9.457555770874023, -2.7802603244781494, -0.43359375, 0.475830078125, -0.688720703125, 0, 
460, 1006262712, 0.676583, 0.31068975, -0.58600193, 0.31985778, 9.553009033203125, 0.005540000274777412, 1.13777494430542, 26.53977394104004, 9.6755952835083, -4.282538414001465, -0.431640625, 0.471923828125, -0.696533203125, 0, 
461, 1006279379, 0.6765732, 0.3129158, -0.5837459, 0.32182813, 9.754335403442383, 0.3486868739128113, 1.170233130455017, 25.72239112854004, 10.325057029724121, -5.120421409606934, -0.427001953125, 0.470458984375, -0.698974609375, 0, 
462, 1006296046, 0.67671263, 0.31487507, -0.5816008, 0.32350346, 10.125736236572266, 0.6317776441574097, 1.27178156375885, 22.708600997924805, 10.363652229309082, -5.510706424713135, -0.42431640625, 0.468017578125, -0.703857421875, 0, 
463, 1006312713, 0.6770889, 0.31626242, -0.57977897, 0.32463104, 10.435315132141113, 0.6933319568634033, 1.5318968296051025, 16.584348678588867, 9.892483711242676, -5.596107006072998, -0.421630859375, 0.461669921875, -0.708984375, 0, 
464, 1006329380, 0.6779538, 0.31669825, -0.57841474, 0.3248344, 10.617513656616211, 0.8013529777526855, 1.5639482736587524, 6.475867748260498, 9.823834419250488, -6.1845293045043945, -0.42041015625, 0.4619140625, -0.717529296875, 0, 
465, 1006346047, 0.67925054, 0.31610918, -0.57755226, 0.32423323, 10.591755867004395, 0.7878801822662354, 1.5029950141906738, -4.720256805419922, 9.718571662902832, -5.853157997131348, -0.415771484375, 0.461181640625, -0.712646484375, 0, 
466, 1006362714, 0.68091714, 0.31477755, -0.5769574, 0.3230901, 10.44905948638916, 0.4877300560474396, 1.3947771787643433, -10.603622436523438, 10.432777404785156, -5.539000988006592, -0.419677734375, 0.461669921875, -0.714599609375, 0, 
467, 1006379381, 0.68263805, 0.31349617, -0.57619905, 0.3220564, 10.215654373168945, 0.2975603938102722, 1.3023035526275635, -9.600582122802734, 11.542724609375, -5.68393611907959, -0.41845703125, 0.46435546875, -0.7138671875, 0, 
468, 1006396048, 0.6842151, 0.3127327, -0.5751107, 0.3213967, 9.946028709411621, 0.2906642556190491, 1.32612144947052, -4.702847480773926, 12.184712409973145, -6.380249500274658, -0.413330078125, 0.461669921875, -0.71435546875, 0, 
469, 1006412715, 0.685714, 0.31224242, -0.5738494, 0.32093322, 9.672197341918945, 0.5495427846908569, 1.3931188583374023, -2.0423262119293213, 12.511993408203125, -6.7266621589660645, -0.411865234375, 0.461181640625, -0.718017578125, 0, 
470, 1006429382, 0.6872402, 0.31153527, -0.57265675, 0.3204859, 9.325872421264648, 0.7585548162460327, 1.3265938758850098, -3.232222318649292, 12.809718132019043, -5.7050018310546875, -0.41259765625, 0.460693359375, -0.71923828125, 0, 
471, 1006446049, 0.6888443, 0.31043813, -0.5715684, 0.32004896, 9.106185913085938, 0.6507975459098816, 1.2619835138320923, -5.396317958831787, 13.509961128234863, -4.052751541137695, -0.40966796875, 0.46240234375, -0.7197265625, 0, 
472, 1006462716, 0.69044185, 0.3094297, -0.5702876, 0.3198677, 9.055021286010742, 0.34661123156547546, 1.1476523876190186, -3.5419321060180664, 14.748297691345215, -3.5798258781433105, -0.404052734375, 0.46337890625, -0.718994140625, 0, 
473, 1006479383, 0.69185144, 0.30912888, -0.5685023, 0.3202906, 9.187232971191406, 0.19046291708946228, 0.9768871068954468, 3.674471855163574, 16.140016555786133, -4.144804954528809, -0.404296875, 0.462890625, -0.723388671875, 0, 
474, 1006496050, 0.6928959, 0.30992118, -0.56610036, 0.3215194, 9.430127143859863, 0.17124471068382263, 0.8701947927474976, 14.132997512817383, 16.96086311340332, -5.093087673187256, -0.3994140625, 0.460693359375, -0.72802734375, 0, 
475, 1006512717, 0.69341886, 0.31189534, -0.56321204, 0.32354906, 9.630770683288574, 0.3040224015712738, 0.9417431950569153, 25.06948471069336, 16.353260040283203, -5.760154724121094, -0.39599609375, 0.4609375, -0.732177734375, 0, 
476, 1006529384, 0.69337815, 0.31480837, -0.56002605, 0.32633293, 9.797236442565918, 0.600967288017273, 1.2472275495529175, 33.19858169555664, 15.094236373901367, -5.363791465759277, -0.38818359375, 0.453857421875, -0.7392578125, 0, 
477, 1006546051, 0.6930504, 0.31785032, -0.5569591, 0.3293162, 9.881697654724121, 1.0489498376846313, 1.6563830375671387, 34.93498611450195, 13.567140579223633, -4.007312297821045, -0.387939453125, 0.447998046875, -0.746826171875, 0, 
478, 1006562718, 0.69285345, 0.32024905, -0.5542718, 0.3319301, 9.894601821899414, 1.4255121946334839, 2.0101401805877686, 29.3090763092041, 12.906400680541992, -2.7648046016693115, -0.380859375, 0.445556640625, -0.75048828125, 0, 
479, 1006579385, 0.6931074, 0.32136494, -0.5522899, 0.33362043, 9.707681655883789, 1.6117973327636719, 2.0479671955108643, 17.07518196105957, 12.15384578704834, -1.7391880750656128, -0.376220703125, 0.444580078125, -0.7529296875, 0, 
480, 1006596052, 0.69376206, 0.3212782, -0.55104285, 0.33440462, 9.341165542602539, 1.5993889570236206, 1.8542660474777222, 5.3304667472839355, 10.924591064453125, -0.7724857926368713, -0.378662109375, 0.445556640625, -0.753662109375, 0, 
481, 1006612719, 0.6946214, 0.32028553, -0.5504716, 0.33451396, 9.203875541687012, 1.372557520866394, 1.7458335161209106, -3.555985450744629, 9.065912246704102, 0.47850939631462097, -0.373779296875, 0.44580078125, -0.75927734375, 0, 
482, 1006629386, 0.69539803, 0.31889972, -0.550432, 0.33428913, 9.306258201599121, 1.0828497409820557, 1.747158408164978, -7.740678310394287, 6.3824944496154785, 1.7428807020187378, -0.37255859375, 0.449462890625, -0.760009765625, 0, 
483, 1006646053, 0.6959191, 0.31755182, -0.5506624, 0.3341088, 9.562591552734375, 0.8528400659561157, 1.8322073221206665, -7.453112602233887, 4.134979724884033, 2.998659133911133, -0.371337890625, 0.44775390625, -0.758544921875, 0, 
484, 1006662720, 0.6961617, 0.31647602, -0.55094105, 0.3341644, 9.964083671569824, 0.5779750943183899, 1.9916154146194458, -4.760127544403076, 2.738740921020508, 3.8463878631591797, -0.373291015625, 0.451171875, -0.752197265625, 0, 
485, 1006679387, 0.69614613, 0.31587347, -0.55102223, 0.3346329, 10.235581398010254, 0.49232468008995056, 2.2157952785491943, 0.08434261381626129, 2.516357898712158, 4.191722393035889, -0.37158203125, 0.45166015625, -0.754150390625, 0, 
486, 1006696054, 0.69589585, 0.31577957, -0.5508902, 0.3354584, 10.324360847473145, 0.5784025192260742, 2.272810697555542, 4.872483253479004, 2.2496533393859863, 4.047819137573242, -0.3681640625, 0.451416015625, -0.754150390625, 0, 
487, 1006712721, 0.6954521, 0.31605622, -0.55067396, 0.33647156, 10.228729248046875, 0.8057020902633667, 2.2819511890411377, 7.97052001953125, 1.4679282903671265, 3.8049468994140625, -0.366943359375, 0.453369140625, -0.755126953125, 0, 
488, 1006729388, 0.69484615, 0.3164523, -0.5505109, 0.33761624, 9.908636093139648, 0.9427648782730103, 2.1868982315063477, 9.269660949707031, 0.6052026152610779, 4.474668025970459, -0.367431640625, 0.455810546875, -0.7568359375, 0, 
489, 1006746055, 0.6941899, 0.3166214, -0.5505433, 0.33875272, 9.685272216796875, 0.8864148855209351, 2.0781850814819336, 7.809366226196289, -0.015028256922960281, 5.841810703277588, -0.365478515625, 0.455810546875, -0.754638671875, 0, 
490, 1006762722, 0.6936189, 0.31632134, -0.5508876, 0.33964178, 9.644190788269043, 0.7242708206176758, 2.009636640548706, 3.7207319736480713, -0.6300917863845825, 6.921296119689941, -0.364990234375, 0.455322265625, -0.756103515625, 0, 
491, 1006779389, 0.69310725, 0.31576678, -0.55141985, 0.3403379, 9.770859718322754, 0.5777366757392883, 1.814889669418335, 1.2081385850906372, -1.1295267343521118, 7.237293243408203, -0.364013671875, 0.457275390625, -0.756591796875, 0, 
492, 1006796056, 0.69262797, 0.3152981, -0.55189747, 0.3409736, 9.946146965026855, 0.482255756855011, 1.7570531368255615, 1.4460930824279785, -1.0772254467010498, 6.429416179656982, -0.363037109375, 0.45703125, -0.75390625, 0, 
493, 1006812723, 0.6921839, 0.31480852, -0.5523726, 0.34155777, 10.073907852172852, 0.480726420879364, 1.7597250938415527, 1.0793321132659912, -0.9909746646881104, 6.175631999969482, -0.36279296875, 0.458740234375, -0.754150390625, 0, 
494, 1006829390, 0.69158757, 0.31451717, -0.5528275, 0.34229746, 10.157096862792969, 0.6164177656173706, 1.7453798055648804, 2.991115093231201, -1.5995581150054932, 6.475889682769775, -0.364013671875, 0.461669921875, -0.755615234375, 0, 
495, 1006846057, 0.69089276, 0.31431064, -0.5533285, 0.34307963, 10.256304740905762, 0.8455355763435364, 1.834800362586975, 3.6600427627563477, -2.2989771366119385, 6.6882452964782715, -0.36181640625, 0.4638671875, -0.752685546875, 0, 
496, 1006862724, 0.6902067, 0.3137734, -0.5540763, 0.3437449, 10.281217575073242, 0.9033622145652771, 1.9227827787399292, 1.0412204265594482, -2.9091358184814453, 7.909945487976074, -0.360595703125, 0.46240234375, -0.75390625, 0, 
497, 1006879391, 0.68955004, 0.3128986, -0.5551235, 0.3441704, 10.420368194580078, 0.8375314474105835, 2.044184923171997, -2.245818614959717, -3.936962127685547, 8.640204429626465, -0.360595703125, 0.465087890625, -0.7490234375, 0, 
498, 1006896058, 0.6889244, 0.31171966, -0.55641264, 0.34441116, 10.448064804077148, 0.7812122106552124, 2.1327154636383057, -5.032430648803711, -4.64466667175293, 9.377619743347168, -0.362548828125, 0.4658203125, -0.747802734375, 0, 
499, 1006912725, 0.6883413, 0.31034708, -0.55782783, 0.34452736, 10.345989227294922, 0.8230287432670593, 2.049877405166626, -6.817348957061768, -4.89009428024292, 9.702608108520508, -0.365478515625, 0.47021484375, -0.743896484375, 0, 
500, 1006929392, 0.6876956, 0.30891916, -0.5593386, 0.3446507, 10.174921035766602, 0.7192353010177612, 1.9600374698638916, -7.146503925323486, -5.438046932220459, 10.307029724121094, -0.36279296875, 0.4736328125, -0.741943359375, 0, 
501, 1006946059, 0.6869566, 0.3074023, -0.56091636, 0.34491664, 9.98083209991455, 0.4530443251132965, 1.8389256000518799, -6.9784088134765625, -5.600854873657227, 11.691987991333008, -0.3681640625, 0.474853515625, -0.739013671875, 0, 
502, 1006962726, 0.6861428, 0.30589497, -0.56248844, 0.34531572, 9.834007263183594, 0.2588707506656647, 1.7772361040115356, -6.250482559204102, -5.603620529174805, 12.451251029968262, -0.367919921875, 0.476318359375, -0.736572265625, 0, 
503, 1006979393, 0.68533957, 0.30457452, -0.5638693, 0.34582612, 9.688677787780762, 0.08866874128580093, 1.648927092552185, -4.5059494972229, -4.869457721710205, 11.82589054107666, -0.36474609375, 0.482177734375, -0.731689453125, 0, 
504, 1006996060, 0.68461555, 0.30346435, -0.56500906, 0.3463754, 9.669023513793945, -0.09722033888101578, 1.4997494220733643, -1.7491625547409058, -3.855987071990967, 10.70122241973877, -0.3662109375, 0.482421875, -0.731689453125, 0, 
505, 1007012727, 0.6838151, 0.3028218, -0.56583154, 0.34717536, 9.668508529663086, -0.21255744993686676, 1.3696905374526978, 2.297280788421631, -3.249016761779785, 9.571405410766602, -0.366943359375, 0.48681640625, -0.73095703125, 0, 
506, 1007029394, 0.682881, 0.30262253, -0.5663866, 0.3482809, 9.71835994720459, -0.18626917898654938, 1.324841022491455, 5.331657409667969, -2.915309190750122, 8.849308013916016, -0.364501953125, 0.48779296875, -0.7275390625, 0, 
507, 1007046061, 0.68200463, 0.3024737, -0.56687206, 0.3493358, 9.79885482788086, -0.23838628828525543, 1.4247493743896484, 6.512607097625732, -2.6032052040100098, 8.307507514953613, -0.365234375, 0.488037109375, -0.72998046875, 0, 
508, 1007062728, 0.6811962, 0.3024677, -0.56715304, 0.35046032, 9.896373748779297, -0.29434171319007874, 1.4505974054336548, 6.713040351867676, -1.5555174350738525, 7.3055901527404785, -0.364013671875, 0.4912109375, -0.730712890625, 0, 
509, 1007079395, 0.68054795, 0.30264384, -0.5671192, 0.35162097, 10.026092529296875, -0.33289507031440735, 1.4808642864227295, 8.133456230163574, 0.18333575129508972, 5.718523025512695, -0.36279296875, 0.48974609375, -0.727783203125, 0, 
