sep=,
DeviceTag:,Xsens_3,,,,,,,,,,,,,,,,,
FirmwareVersion:,2.2.1,,,,,,,,,,,,,,,,,
AppVersion:,2023.0.0,,,,,,,,,,,,,,,,,
StartTime:,2023-07-03 13:19:10.000 +0200,,,,,,,,,,,,,,,,,
© Movella Technologies B. V. 2005-2023,,,,,,,,,,,,,,,,,,,

PacketCounter,SampleTimeFine,Quat_W,Quat_X,Quat_Y,Quat_Z,Acc_X,Acc_Y,Acc_Z,Gyr_X,Gyr_Y,Gyr_Z,Mag_X,Mag_Y,Mag_Z,Status,
0, 998679611, 0.64863336, 0.42690155, -0.17351483, 0.6057413, 0.0, 0.0, 0.0, 0.0, 0.0, 0.0, 0.254638671875, -0.180908203125, -0.659423828125, 0, 
1, 998696278, 0.647889, 0.4268602, -0.174286, 0.6063452, 7.245448589324951, 3.171382188796997, 5.6570916175842285, 6.737978458404541, 1.269704818725586, 3.711351156234741, 0.257080078125, -0.183349609375, -0.6611328125, 0, 
2, 998712945, 0.6469152, 0.4263662, -0.17504717, 0.60751235, 7.2511396408081055, 3.103759527206421, 5.660782814025879, 6.565464496612549, 0.2432374507188797, 4.030292987823486, 0.255126953125, -0.185302734375, -0.661376953125, 0, 
3, 998729612, 0.645961, 0.4257776, -0.17586336, 0.60870355, 7.342414855957031, 3.163635730743408, 5.57360315322876, 5.650053977966309, -0.6984456777572632, 3.6200296878814697, 0.255859375, -0.1884765625, -0.662841796875, 0, 
4, 998746279, 0.64496464, 0.42551443, -0.17688487, 0.6096476, 7.366154670715332, 3.1379826068878174, 5.512906551361084, 1.90799880027771, -1.711812138557434, 3.731597423553467, 0.252197265625, -0.18701171875, -0.66259765625, 0, 
5, 998762946, 0.6441069, 0.4254951, -0.1781112, 0.6102104, 7.506744861602783, 2.890882730484009, 5.379693031311035, 0.9108197093009949, -2.2612173557281494, 4.110422611236572, 0.252197265625, -0.1865234375, -0.662353515625, 0, 
6, 998779613, 0.6429871, 0.42589933, -0.17937608, 0.61073893, 7.6006269454956055, 2.8387155532836914, 5.39678430557251, 3.799452066421509, -1.9488576650619507, 3.077711820602417, 0.2509765625, -0.185791015625, -0.66455078125, 0, 
7, 998796280, 0.64181703, 0.426477, -0.18066937, 0.61118495, 7.5808868408203125, 2.9168663024902344, 5.444302558898926, 5.529193878173828, -1.7308299541473389, 2.712475299835205, 0.248779296875, -0.188232421875, -0.660400390625, 0, 
8, 998812947, 0.6405969, 0.42701364, -0.1817143, 0.61178017, 7.49457311630249, 2.9978702068328857, 5.566145896911621, 4.973224639892578, -1.0967743396759033, 2.5687813758850098, 0.252197265625, -0.1865234375, -0.6630859375, 0, 
9, 998829614, 0.6398499, 0.4273276, -0.18259276, 0.612081, 7.458636283874512, 3.0293798446655273, 5.6001386642456055, 3.668654680252075, -0.693476676940918, 1.273021936416626, 0.247802734375, -0.1884765625, -0.663330078125, 0, 
10, 998846281, 0.6394384, 0.42744774, -0.1832772, 0.61222255, 7.448613166809082, 2.9891514778137207, 5.61948823928833, 1.6569048166275024, -0.5364708304405212, -0.2913316786289215, 0.250732421875, -0.1884765625, -0.662353515625, 0, 
11, 998862948, 0.63917434, 0.42747742, -0.18392462, 0.6122834, 7.4216694831848145, 2.8832600116729736, 5.540693759918213, 0.4217451214790344, -1.1271637678146362, -0.7066416144371033, 0.25048828125, -0.18896484375, -0.663818359375, 0, 
12, 998879615, 0.6389489, 0.42744443, -0.18464494, 0.612325, 7.462084770202637, 2.9001657962799072, 5.507786750793457, -0.42542698979377747, -1.725002646446228, -0.3849332630634308, 0.246826171875, -0.18896484375, -0.666748046875, 0, 
13, 998896282, 0.6388064, 0.42729488, -0.18545982, 0.6123316, 7.468306064605713, 2.8534560203552246, 5.524636268615723, -1.432454228401184, -1.7267696857452393, 0.11004497110843658, 0.247314453125, -0.185791015625, -0.66162109375, 0, 
14, 998912949, 0.63861805, 0.4270889, -0.18622284, 0.61244047, 7.474794387817383, 2.837822914123535, 5.593332290649414, -1.1765320301055908, -1.197944164276123, 0.9311431646347046, 0.24755859375, -0.18603515625, -0.65966796875, 0, 
15, 998929616, 0.6383769, 0.4269311, -0.18677914, 0.6126324, 7.46301794052124, 2.9597787857055664, 5.6844072341918945, -0.2984392046928406, -0.7886406779289246, 0.6963516473770142, 0.247314453125, -0.1845703125, -0.66357421875, 0, 
16, 998946283, 0.63838106, 0.42671108, -0.1873309, 0.6126129, 7.40519905090332, 3.091808557510376, 5.673460006713867, -1.0134433507919312, -0.9078806042671204, -0.3269076943397522, 0.24658203125, -0.185302734375, -0.6611328125, 0, 
17, 998962950, 0.63848275, 0.42643222, -0.18785153, 0.6125416, 7.502095699310303, 3.138972759246826, 5.640249252319336, -2.0980515480041504, -1.0036721229553223, -0.7104963660240173, 0.244140625, -0.182861328125, -0.660888671875, 0, 
18, 998979617, 0.6387105, 0.42606536, -0.18841872, 0.6123852, 7.528115749359131, 3.096571922302246, 5.593623638153076, -3.481419086456299, -1.045971393585205, -0.980902373790741, 0.2470703125, -0.185302734375, -0.662353515625, 0, 
19, 998996284, 0.638851, 0.42577994, -0.18882744, 0.6123113, 7.582452774047852, 2.978978157043457, 5.568016052246094, -3.390903949737549, -1.014749526977539, -1.3534775972366333, 0.24560546875, -0.182373046875, -0.66357421875, 0, 
20, 999012951, 0.6391109, 0.4255569, -0.18916117, 0.612092, 7.615293025970459, 2.9430582523345947, 5.634134292602539, -2.1076819896698, -0.6136546730995178, -1.7233633995056152, 0.24658203125, -0.179443359375, -0.664306640625, 0, 
21, 999029618, 0.63947767, 0.42533424, -0.18947913, 0.61176544, 7.6651291847229, 2.9685158729553223, 5.644092559814453, -1.9045733213424683, -0.45476633310317993, -2.190692663192749, 0.246337890625, -0.1796875, -0.6611328125, 0, 
22, 999046285, 0.63989234, 0.42502832, -0.18980552, 0.61144304, 7.732212066650391, 2.9520068168640137, 5.654585838317871, -3.1491196155548096, -0.3094269931316376, -2.6861701011657715, 0.2470703125, -0.179931640625, -0.66357421875, 0, 
23, 999062952, 0.64041156, 0.42469984, -0.19010073, 0.6110359, 7.847259998321533, 2.7665393352508545, 5.581568717956543, -3.788515567779541, -0.22586560249328613, -3.712548017501831, 0.24853515625, -0.178955078125, -0.66162109375, 0, 
24, 999079619, 0.64100295, 0.42437014, -0.19046134, 0.61053246, 7.961117267608643, 2.7329649925231934, 5.469555377960205, -4.4797258377075195, -0.5915126204490662, -4.467368125915527, 0.247802734375, -0.175537109375, -0.661376953125, 0, 
25, 999096286, 0.64161354, 0.42426124, -0.19052911, 0.60994536, 8.1574125289917, 2.4668264389038086, 5.3954033851623535, -2.3075637817382812, -0.1561734676361084, -6.1182990074157715, 0.24462890625, -0.175048828125, -0.662841796875, 0, 
26, 999112953, 0.64259934, 0.4242754, -0.19012886, 0.60902196, 8.432270050048828, 2.315239429473877, 5.244303226470947, -0.788333535194397, 1.4048378467559814, -10.674070358276367, 0.245849609375, -0.177490234375, -0.660888671875, 0, 
27, 999129620, 0.64426696, 0.42453226, -0.18858433, 0.6075595, 8.733258247375488, 2.1219165325164795, 4.948991775512695, 2.409332513809204, 5.176148891448975, -20.00873374938965, 0.249755859375, -0.177001953125, -0.66162109375, 0, 
28, 999146287, 0.6470593, 0.4250324, -0.18580757, 0.60509306, 8.887894630432129, 2.1985137462615967, 4.305835723876953, 3.0646307468414307, 8.308725357055664, -34.35080337524414, 0.249267578125, -0.1787109375, -0.66259765625, 0, 
29, 999162954, 0.65156114, 0.42566016, -0.18224809, 0.60088885, 9.32386302947998, 2.7517824172973633, 3.653604745864868, -0.9147539138793945, 8.99061393737793, -52.4467887878418, 0.25048828125, -0.180419921875, -0.66064453125, 0, 
30, 999179621, 0.65806144, 0.42534423, -0.1800181, 0.594669, 9.778695106506348, 3.6056134700775146, 3.475879430770874, -18.99846076965332, 4.831228256225586, -64.58904266357422, 0.258056640625, -0.17919921875, -0.66162109375, 0, 
31, 999196288, 0.6671826, 0.42220968, -0.18092848, 0.5864054, 9.718338966369629, 4.3986687660217285, 3.5233371257781982, -57.24571990966797, -0.29217293858528137, -73.25563049316406, 0.25634765625, -0.168701171875, -0.6650390625, 0, 
32, 999212955, 0.6782105, 0.41573575, -0.18530615, 0.57693666, 9.977213859558105, 3.376715660095215, 4.331437110900879, -95.76775360107422, -3.589137315750122, -73.0362548828125, 0.26220703125, -0.152587890625, -0.6650390625, 0, 
33, 999229622, 0.6896034, 0.407304, -0.19152667, 0.56733435, 9.818172454833984, 1.170472264289856, 4.555654048919678, -115.9687728881836, -4.755726337432861, -69.2589340209961, 0.25927734375, -0.124755859375, -0.669677734375, 0, 
34, 999246289, 0.7002836, 0.40048352, -0.19721659, 0.5570655, 9.730103492736816, 0.4002231955528259, 4.853523254394531, -101.44304656982422, -9.200109481811523, -71.17359161376953, 0.25537109375, -0.102294921875, -0.667724609375, 0, 
35, 999262956, 0.70952135, 0.39596668, -0.20191137, 0.5468286, 9.483365058898926, 1.3015590906143188, 5.6404547691345215, -81.85382080078125, -14.636373519897461, -71.9435806274414, 0.25048828125, -0.0830078125, -0.669677734375, 0, 
36, 999279623, 0.7182236, 0.39212033, -0.20700401, 0.5362333, 8.820610046386719, 2.1944189071655273, 6.115739345550537, -79.07470703125, -20.8750057220459, -72.07930755615234, 0.2451171875, -0.072021484375, -0.6708984375, 0, 
37, 999296290, 0.7264376, 0.38844714, -0.2128201, 0.52545685, 8.531599044799805, 2.429488182067871, 6.26281213760376, -79.78577423095703, -26.510738372802734, -69.49518585205078, 0.233642578125, -0.05322265625, -0.672119140625, 0, 
38, 999312957, 0.7334307, 0.38545737, -0.21840295, 0.51556027, 8.409829139709473, 2.081728219985962, 6.308193683624268, -70.89253997802734, -27.524187088012695, -62.168663024902344, 0.220458984375, -0.041015625, -0.6728515625, 0, 
39, 999329624, 0.7385658, 0.38393024, -0.2233463, 0.5071831, 7.593615531921387, 1.6740235090255737, 6.355374336242676, -53.71097183227539, -28.459434509277344, -51.62016296386719, 0.21240234375, -0.02880859375, -0.676025390625, 0, 
40, 999346291, 0.74131024, 0.38439074, -0.22725374, 0.50105757, 6.860879898071289, 1.3346104621887207, 6.420276641845703, -30.05328369140625, -28.34502601623535, -37.67588424682617, 0.200927734375, -0.023681640625, -0.6796875, 0, 
41, 999362958, 0.7409409, 0.3873726, -0.22974531, 0.4981629, 6.61108922958374, 1.1409295797348022, 6.4506916999816895, 1.3078981637954712, -26.723392486572266, -18.14853286743164, 0.1865234375, -0.0263671875, -0.68310546875, 0, 
42, 999379625, 0.737188, 0.3926957, -0.23086064, 0.49904662, 6.255324840545654, 1.9993584156036377, 6.955472946166992, 33.26061248779297, -23.668628692626953, 5.245454788208008, 0.178466796875, -0.036865234375, -0.688232421875, 0, 
43, 999396292, 0.73133534, 0.39791104, -0.23178306, 0.5030827, 5.93278169631958, 3.7922396659851074, 7.331718444824219, 44.372745513916016, -17.90084457397461, 28.259428024291992, 0.167724609375, -0.04345703125, -0.694091796875, 0, 
44, 999412959, 0.72468317, 0.40138137, -0.23304324, 0.5093312, 5.67632532119751, 4.68648624420166, 7.228683948516846, 40.07321548461914, -9.672306060791016, 46.278541564941406, 0.16357421875, -0.0537109375, -0.69873046875, 0, 
45, 999429626, 0.71835506, 0.40337047, -0.23479606, 0.515877, 5.165915012359619, 4.91654634475708, 6.575291633605957, 30.546905517578125, -6.325878620147705, 51.08966064453125, 0.156982421875, -0.056640625, -0.703125, 0, 
46, 999446293, 0.712498, 0.40551183, -0.23726705, 0.5211634, 4.7334065437316895, 4.373643398284912, 5.663829326629639, 25.442005157470703, -13.693062782287598, 45.80183029174805, 0.153076171875, -0.062255859375, -0.70166015625, 0, 
47, 999462960, 0.7064673, 0.40902418, -0.24060875, 0.52508163, 4.75000524520874, 3.9827229976654053, 5.141119480133057, 27.239259719848633, -27.395030975341797, 40.60298538208008, 0.144775390625, -0.06640625, -0.707275390625, 0, 
48, 999479627, 0.7005689, 0.41267955, -0.245939, 0.52764857, 4.936014175415039, 4.686502933502197, 5.157869815826416, 18.26706314086914, -41.38735580444336, 39.61216354370117, 0.1318359375, -0.072509765625, -0.705322265625, 0, 
49, 999496294, 0.69575423, 0.41451398, -0.25428528, 0.5286242, 5.239986419677734, 5.233442783355713, 5.1784868240356445, -7.395230293273926, -52.27634048461914, 40.25577163696289, 0.116943359375, -0.06982421875, -0.70849609375, 0, 
50, 999512961, 0.69250023, 0.41434947, -0.26529837, 0.5276125, 5.430301189422607, 4.7646355628967285, 4.953624248504639, -34.496421813964844, -60.825260162353516, 37.005210876464844, 0.09912109375, -0.06005859375, -0.70703125, 0, 
51, 999529628, 0.69019, 0.4139098, -0.27744243, 0.5247305, 5.448457717895508, 4.049139022827148, 4.749564170837402, -45.809486389160156, -68.87456512451172, 29.146804809570312, 0.0830078125, -0.0478515625, -0.70458984375, 0, 
52, 999546295, 0.6877803, 0.41438216, -0.28989872, 0.520773, 5.503396987915039, 3.906817674636841, 4.717997074127197, -44.069313049316406, -76.93755340576172, 24.16926383972168, 0.06103515625, -0.03564453125, -0.703857421875, 0, 
53, 999562962, 0.6844222, 0.41563377, -0.3023939, 0.517081, 5.7759199142456055, 3.9310741424560547, 4.818353176116943, -36.80567932128906, -81.05452728271484, 28.030366897583008, 0.035888671875, -0.02490234375, -0.695068359375, 0, 
54, 999579629, 0.6800562, 0.41718614, -0.31485927, 0.514143, 6.088685512542725, 3.88212513923645, 4.744237422943115, -31.012611389160156, -82.15827178955078, 34.684913635253906, 0.017822265625, -0.014892578125, -0.6904296875, 0, 
55, 999596296, 0.6749031, 0.4185359, -0.32756186, 0.5118954, 6.58331298828125, 4.123828411102295, 4.548183441162109, -29.121747970581055, -82.45542907714844, 42.07931900024414, -0.004638671875, -0.006103515625, -0.68701171875, 0, 
56, 999612963, 0.6691571, 0.41941413, -0.34062302, 0.5101927, 7.065105438232422, 3.8921122550964355, 4.314789772033691, -29.725988388061523, -82.35765075683594, 49.068843841552734, -0.02490234375, 0.00390625, -0.678955078125, 0, 
57, 999629630, 0.6629247, 0.41980487, -0.35344693, 0.509284, 7.5274248123168945, 3.3412399291992188, 4.232484340667725, -27.946319580078125, -78.48857116699219, 55.1201171875, -0.04443359375, 0.016357421875, -0.676025390625, 0, 
58, 999646297, 0.65609115, 0.42004806, -0.3656537, 0.5093146, 7.87846040725708, 2.930325508117676, 4.147676467895508, -22.474624633789062, -73.97276306152344, 60.234073638916016, -0.061767578125, 0.029296875, -0.664794921875, 0, 
59, 999662964, 0.64848834, 0.4202848, -0.37719858, 0.5104362, 8.561219215393066, 2.8010239601135254, 4.316440105438232, -15.235237121582031, -69.79823303222656, 66.055908203125, -0.075927734375, 0.041259765625, -0.659912109375, 0, 
60, 999679631, 0.64026874, 0.42007983, -0.38847026, 0.5125232, 9.3758544921875, 2.6479763984680176, 4.583695888519287, -11.969343185424805, -65.89788055419922, 72.96722412109375, -0.088623046875, 0.05224609375, -0.65478515625, 0, 
61, 999696298, 0.6316505, 0.4192429, -0.39945588, 0.51544964, 10.088808059692383, 2.2380638122558594, 4.573788642883301, -10.355530738830566, -61.12377166748047, 78.99984741210938, -0.10400390625, 0.065673828125, -0.6474609375, 0, 
62, 999712965, 0.62283605, 0.4184897, -0.40930286, 0.51904994, 10.570826530456543, 1.4030792713165283, 4.35451602935791, -3.53778076171875, -55.13039016723633, 79.1432113647461, -0.1103515625, 0.075439453125, -0.64013671875, 0, 
63, 999729632, 0.6138356, 0.41845694, -0.41727993, 0.52342844, 10.789644241333008, 0.9535521268844604, 4.092104434967041, 8.968280792236328, -48.00459289550781, 75.68128967285156, -0.116455078125, 0.084228515625, -0.63525390625, 0, 
64, 999746299, 0.60503227, 0.4188303, -0.42347065, 0.52838427, 10.722041130065918, 0.7242960333824158, 3.882659435272217, 18.222827911376953, -39.70172119140625, 71.03047943115234, -0.12158203125, 0.0927734375, -0.633544921875, 0, 
65, 999762966, 0.59670717, 0.41935635, -0.42816508, 0.5336249, 10.700708389282227, 0.3248082101345062, 3.6436612606048584, 23.763141632080078, -31.81612777709961, 65.65852355957031, -0.121337890625, 0.10302734375, -0.628173828125, 0, 
66, 999779633, 0.5888822, 0.42018437, -0.4313267, 0.53909236, 10.930730819702148, -0.27740049362182617, 3.30562162399292, 29.87105369567871, -24.491872787475586, 59.359230041503906, -0.12890625, 0.10205078125, -0.63037109375, 0, 
67, 999796300, 0.58202714, 0.4214059, -0.43281323, 0.544366, 11.013103485107422, -0.6887415051460266, 2.975421905517578, 34.32731628417969, -16.800212860107422, 48.84029769897461, -0.128662109375, 0.105712890625, -0.631103515625, 0, 
68, 999812967, 0.5761814, 0.42335066, -0.43247786, 0.54931974, 10.777966499328613, -0.9653229117393494, 2.9179773330688477, 40.20231628417969, -10.060735702514648, 36.193912506103516, -0.1279296875, 0.102294921875, -0.632080078125, 0, 
69, 999829634, 0.571319, 0.42592978, -0.43053117, 0.55391467, 10.447184562683105, -1.0944015979766846, 2.885261297225952, 44.917171478271484, -4.126679420471191, 24.314138412475586, -0.1298828125, 0.1005859375, -0.63427734375, 0, 
70, 999846301, 0.56719077, 0.42916283, -0.42694235, 0.5584214, 10.00839614868164, -1.169711947441101, 2.85691499710083, 51.373046875, 1.7997394800186157, 14.263172149658203, -0.1259765625, 0.09375, -0.635498046875, 0, 
71, 999862968, 0.56363934, 0.43323344, -0.42189914, 0.56269056, 9.510202407836914, -1.021557092666626, 2.9528932571411133, 57.8723030090332, 5.284648895263672, 4.211885929107666, -0.122802734375, 0.08544921875, -0.64794921875, 0, 
72, 999879635, 0.56081235, 0.4378547, -0.41611707, 0.5662326, 9.218498229980469, -0.4290943741798401, 3.2110066413879395, 58.64166259765625, 5.961794853210449, -5.3426833152771, -0.120849609375, 0.0732421875, -0.64990234375, 0, 
73, 999896302, 0.55904025, 0.44207764, -0.41085398, 0.5685425, 9.259966850280762, 0.3713874816894531, 3.5273892879486084, 48.41158676147461, 4.792542934417725, -11.569255828857422, -0.121337890625, 0.063232421875, -0.65869140625, 0, 
74, 999912969, 0.5585234, 0.4451961, -0.4069465, 0.56942683, 9.431124687194824, 0.7644379734992981, 3.721161127090454, 31.03272247314453, 3.0530784130096436, -14.707832336425781, -0.122314453125, 0.057373046875, -0.660400390625, 0, 
75, 999929636, 0.55910903, 0.44705337, -0.40465015, 0.5690332, 9.550180435180664, 0.8207257390022278, 3.7952795028686523, 12.931620597839355, 0.9030730128288269, -15.436079025268555, -0.125, 0.05078125, -0.66357421875, 0, 
76, 999946303, 0.56013745, 0.44825473, -0.4034599, 0.5679208, 9.612809181213379, 0.5696998834609985, 3.7150731086730957, 2.7238807678222656, -1.8365473747253418, -14.678508758544922, -0.123779296875, 0.0498046875, -0.665771484375, 0, 
77, 999962970, 0.5611507, 0.4491733, -0.40283024, 0.5666401, 9.598580360412598, 0.5326313972473145, 3.6495859622955322, -0.9633837938308716, -3.517150402069092, -12.759319305419922, -0.125244140625, 0.04833984375, -0.663330078125, 0, 
78, 999979637, 0.5620619, 0.44975522, -0.4027223, 0.5653507, 9.283584594726562, 0.5161064863204956, 3.5363802909851074, -3.9901657104492188, -4.585687160491943, -9.863147735595703, -0.12939453125, 0.049560546875, -0.662353515625, 0, 
79, 999996304, 0.5626324, 0.45017013, -0.40293655, 0.56429946, 8.883346557617188, 0.3581276834011078, 3.393782138824463, -4.161654949188232, -5.442712306976318, -6.1750569343566895, -0.129638671875, 0.049072265625, -0.6630859375, 0, 
80, 1000012971, 0.5627917, 0.4505243, -0.40348107, 0.5634681, 8.556997299194336, 0.378067284822464, 3.3093833923339844, -3.7807552814483643, -6.994394302368164, -2.56851863861084, -0.134033203125, 0.05078125, -0.66552734375, 0, 
81, 1000029638, 0.562588, 0.45080683, -0.40459, 0.5626498, 8.430801391601562, 0.42461326718330383, 3.342785596847534, -5.069830417633057, -9.91741943359375, 0.8114297389984131, -0.13525390625, 0.052978515625, -0.660888671875, 0, 
82, 1000046305, 0.56204396, 0.45085445, -0.40654206, 0.56174767, 8.560943603515625, 0.45363524556159973, 3.3555748462677, -8.406455039978027, -13.53481388092041, 5.05006742477417, -0.140625, 0.0546875, -0.65966796875, 0, 
83, 1000062972, 0.56117946, 0.4507086, -0.40898225, 0.5609572, 8.900293350219727, 0.18798509240150452, 3.281425952911377, -9.72520637512207, -15.279751777648926, 8.757283210754395, -0.144287109375, 0.058837890625, -0.657958984375, 0, 
84, 1000079639, 0.56000495, 0.4506835, -0.4114863, 0.5603198, 9.114381790161133, -0.007100647781044245, 3.346647262573242, -8.10119342803955, -16.43313217163086, 10.362035751342773, -0.1455078125, 0.06103515625, -0.657470703125, 0, 
85, 1000096306, 0.5586305, 0.45057073, -0.41411996, 0.5598418, 9.299715042114258, 0.06904805451631546, 3.3816285133361816, -7.849332809448242, -16.713302612304688, 12.343134880065918, -0.1474609375, 0.062255859375, -0.655029296875, 0, 
86, 1000112973, 0.5572528, 0.45024198, -0.41709355, 0.55927134, 9.195116996765137, 0.06071724370121956, 3.362870693206787, -10.229232788085938, -17.53044319152832, 13.627615928649902, -0.154541015625, 0.067626953125, -0.647216796875, 0, 
87, 1000129640, 0.55593216, 0.44970214, -0.42050442, 0.55846536, 9.206853866577148, 0.11808408796787262, 3.2890849113464355, -13.560256958007812, -19.012420654296875, 14.426271438598633, -0.158447265625, 0.0732421875, -0.648193359375, 0, 
88, 1000146307, 0.5547326, 0.44891423, -0.42416847, 0.55752033, 9.375822067260742, -0.033196091651916504, 3.160797595977783, -16.250938415527344, -19.154415130615234, 14.899986267089844, -0.166015625, 0.077392578125, -0.643798828125, 0, 
89, 1000162974, 0.5536146, 0.44811124, -0.42770746, 0.5565731, 9.534173965454102, -0.22992821037769318, 3.0605416297912598, -16.079252243041992, -18.427570343017578, 14.198050498962402, -0.169921875, 0.0869140625, -0.6396484375, 0, 
90, 1000179641, 0.5526026, 0.4473302, -0.43112385, 0.55557054, 9.665101051330566, -0.16498848795890808, 3.0023179054260254, -16.00543212890625, -17.931486129760742, 13.089513778686523, -0.170166015625, 0.0908203125, -0.637939453125, 0, 
91, 1000196308, 0.55176073, 0.446403, -0.43447226, 0.5545437, 9.820921897888184, -0.26195958256721497, 2.8097965717315674, -16.88934898376465, -16.71190643310547, 12.531819343566895, -0.17431640625, 0.097900390625, -0.633544921875, 0, 
92, 1000212975, 0.551002, 0.44552958, -0.43750012, 0.55361885, 10.037647247314453, -0.4738810956478119, 2.640763282775879, -15.406044960021973, -15.148866653442383, 11.41327953338623, -0.177490234375, 0.1025390625, -0.629150390625, 0, 
93, 1000229642, 0.5501946, 0.44488382, -0.44004545, 0.5529236, 10.033988952636719, -0.5659998655319214, 2.4572067260742188, -11.856059074401855, -13.625336647033691, 10.252324104309082, -0.1787109375, 0.104248046875, -0.626708984375, 0, 
94, 1000246309, 0.5494234, 0.4442562, -0.4422769, 0.55241436, 9.733563423156738, -0.5619025230407715, 2.361532688140869, -10.131818771362305, -11.813166618347168, 9.747648239135742, -0.18359375, 0.1064453125, -0.62255859375, 0, 
95, 1000262976, 0.54881656, 0.44354182, -0.44430912, 0.5519606, 9.484259605407715, -0.5840317010879517, 2.271817922592163, -10.025372505187988, -10.048372268676758, 8.937337875366211, -0.185302734375, 0.107177734375, -0.620849609375, 0, 
96, 1000279643, 0.54860294, 0.44262064, -0.44625124, 0.5513456, 9.323230743408203, -0.39795833826065063, 2.220902681350708, -12.146051406860352, -8.19835090637207, 7.144815921783447, -0.183837890625, 0.114501953125, -0.6181640625, 0, 
97, 1000296310, 0.54899305, 0.44124913, -0.448391, 0.5503192, 9.393117904663086, -0.2143854796886444, 2.1877331733703613, -17.686115264892578, -6.624118328094482, 5.256289958953857, -0.187255859375, 0.11767578125, -0.61669921875, 0, 
98, 1000312977, 0.55004823, 0.43926984, -0.45080572, 0.5488745, 9.626625061035156, -0.21337151527404785, 2.0654420852661133, -24.32546043395996, -4.564615726470947, 3.8516781330108643, -0.191162109375, 0.121337890625, -0.612060546875, 0, 
99, 1000329644, 0.5516494, 0.43679893, -0.45338306, 0.54711384, 9.906874656677246, -0.256152480840683, 1.9952737092971802, -29.42356300354004, -2.5616493225097656, 2.59157133102417, -0.185302734375, 0.12890625, -0.608642578125, 0, 
100, 1000346311, 0.55359566, 0.43398434, -0.45617568, 0.5450628, 10.023433685302734, -0.25808557868003845, 1.9517844915390015, -33.47646713256836, -1.8445570468902588, 1.8897699117660522, -0.18701171875, 0.135986328125, -0.606201171875, 0, 
101, 1000362978, 0.55574006, 0.43101057, -0.45908487, 0.5427927, 10.208117485046387, -0.2647421956062317, 1.8679687976837158, -35.793399810791016, -1.6856049299240112, 1.1416592597961426, -0.1904296875, 0.143798828125, -0.6015625, 0, 
102, 1000379645, 0.5578176, 0.42808136, -0.46196914, 0.540528, 10.36904239654541, -0.365054726600647, 1.7794712781906128, -35.31338119506836, -1.9034031629562378, 1.180039882659912, -0.192138671875, 0.14990234375, -0.59521484375, 0, 
103, 1000396312, 0.5595359, 0.42552787, -0.46449107, 0.53860366, 10.40908432006836, -0.3893241584300995, 1.7721699476242065, -30.38322639465332, -1.994339108467102, 1.5410763025283813, -0.19140625, 0.15673828125, -0.592041015625, 0, 
104, 1000412979, 0.5608567, 0.4232964, -0.46682698, 0.5369662, 10.252755165100098, -0.20553171634674072, 1.7887351512908936, -26.373567581176758, -2.848037004470825, 2.525066375732422, -0.19384765625, 0.159423828125, -0.587158203125, 0, 
105, 1000429646, 0.56179315, 0.4213154, -0.46909177, 0.5355698, 10.003377914428711, -0.1724432408809662, 1.8152222633361816, -23.254636764526367, -3.982398509979248, 3.8627166748046875, -0.19677734375, 0.16357421875, -0.58544921875, 0, 
106, 1000446313, 0.5621109, 0.4198794, -0.47091973, 0.53475916, 9.85521411895752, -0.5261839032173157, 1.7023767232894897, -15.861042022705078, -4.55956506729126, 5.386875152587891, -0.198974609375, 0.168212890625, -0.58349609375, 0, 
107, 1000462980, 0.5613379, 0.41985947, -0.4713299, 0.5352252, 9.665355682373047, -1.0294164419174194, 1.576595664024353, 2.109609603881836, -4.088722229003906, 5.637400150299072, -0.197998046875, 0.173095703125, -0.583740234375, 0, 
108, 1000479647, 0.55941224, 0.42132482, -0.47031078, 0.5369836, 9.374587059020996, -0.8574504256248474, 1.6870696544647217, 20.629737854003906, -3.9960360527038574, 5.8842010498046875, -0.19970703125, 0.169921875, -0.583251953125, 0, 
109, 1000496314, 0.55673146, 0.42360753, -0.46849734, 0.5395526, 9.2738618850708, -0.4827597439289093, 1.8030484914779663, 31.523393630981445, -4.01953125, 6.820642471313477, -0.200439453125, 0.165283203125, -0.58349609375, 0, 
110, 1000512981, 0.5538822, 0.4260311, -0.46630993, 0.54246384, 9.303680419921875, -0.3613821566104889, 1.8664535284042358, 35.044586181640625, -2.6378252506256104, 7.214047431945801, -0.197998046875, 0.16064453125, -0.586181640625, 0, 
111, 1000529648, 0.55120564, 0.4284116, -0.46386606, 0.5454027, 9.383322715759277, -0.3565015494823456, 1.8377424478530884, 35.41884994506836, -0.8498715162277222, 6.07553243637085, -0.197265625, 0.154296875, -0.592041015625, 0, 
112, 1000546315, 0.54874235, 0.43092567, -0.46100456, 0.5483246, 9.48218059539795, -0.4925606846809387, 1.8837823867797852, 36.80978012084961, 0.8791537880897522, 3.5665533542633057, -0.1943359375, 0.1494140625, -0.595947265625, 0, 
113, 1000562982, 0.5466326, 0.43341902, -0.45791942, 0.55104494, 9.660552024841309, -0.30290937423706055, 1.9461257457733154, 35.8908576965332, 2.3412609100341797, 0.8775783181190491, -0.193359375, 0.142578125, -0.596435546875, 0, 
114, 1000579649, 0.54505944, 0.43558475, -0.45491523, 0.5533792, 9.762957572937012, -0.15127871930599213, 1.996065616607666, 31.539215087890625, 3.831526517868042, -1.3204034566879272, -0.195556640625, 0.135498046875, -0.603515625, 0, 
115, 1000596316, 0.5440502, 0.43737257, -0.45202085, 0.5553304, 9.777947425842285, -0.23541024327278137, 2.0504047870635986, 26.81768798828125, 5.488579273223877, -3.368757724761963, -0.193115234375, 0.130859375, -0.60595703125, 0, 
116, 1000612983, 0.5432242, 0.43916136, -0.44890264, 0.55725336, 9.708466529846191, -0.49627259373664856, 1.9695885181427002, 27.03788185119629, 6.819149494171143, -4.838815212249756, -0.1923828125, 0.126708984375, -0.609130859375, 0, 
117, 1000629650, 0.5421458, 0.44138575, -0.44516414, 0.5595405, 9.628662109375, -0.6370764970779419, 1.930000901222229, 32.93364715576172, 7.804906845092773, -5.735142707824707, -0.18603515625, 0.119140625, -0.6142578125, 0, 
118, 1000646317, 0.5404759, 0.44436827, -0.44053757, 0.56244946, 9.469294548034668, -0.6173195242881775, 1.9539778232574463, 42.88507080078125, 8.295707702636719, -6.176146984100342, -0.186279296875, 0.109619140625, -0.616943359375, 0, 
119, 1000662984, 0.53838044, 0.4477749, -0.43549424, 0.5656756, 9.3572416305542, -0.14568953216075897, 2.0397820472717285, 48.34339141845703, 7.9012322425842285, -5.927162170410156, -0.1845703125, 0.0986328125, -0.625244140625, 0, 
120, 1000679651, 0.53626555, 0.45104373, -0.43060255, 0.5688236, 9.24418830871582, 0.06976930797100067, 2.140639305114746, 47.072410583496094, 7.587971210479736, -5.248469352722168, -0.184326171875, 0.091064453125, -0.63134765625, 0, 
121, 1000696318, 0.5342153, 0.45407817, -0.425988, 0.5718053, 9.13121223449707, 0.031948063522577286, 2.1853363513946533, 44.42967224121094, 7.16203498840332, -4.538769721984863, -0.180419921875, 0.08251953125, -0.6328125, 0, 
122, 1000712985, 0.53226674, 0.45694542, -0.42169273, 0.5745157, 9.102693557739258, 0.1136050596833229, 2.3084495067596436, 41.44933319091797, 6.099080562591553, -4.432394504547119, -0.180908203125, 0.0703125, -0.637939453125, 0, 
123, 1000729652, 0.53065765, 0.4592906, -0.4181696, 0.5767052, 9.171539306640625, 0.32001397013664246, 2.3874852657318115, 33.910099029541016, 4.677328109741211, -3.722053050994873, -0.180908203125, 0.06689453125, -0.64306640625, 0, 
124, 1000746319, 0.5294305, 0.46101454, -0.41558158, 0.5783261, 9.310375213623047, 0.31399106979370117, 2.473443031311035, 25.0914306640625, 3.022350311279297, -2.5449862480163574, -0.17626953125, 0.058837890625, -0.64501953125, 0, 
125, 1000762986, 0.5285482, 0.46221468, -0.41388622, 0.5793899, 9.541712760925293, 0.28906381130218506, 2.522221088409424, 16.94667625427246, 1.064227819442749, -1.595096230506897, -0.17431640625, 0.05322265625, -0.645751953125, 0, 
126, 1000779653, 0.5279062, 0.46310952, -0.4126901, 0.58011353, 9.922152519226074, 0.10941846668720245, 2.5254225730895996, 12.11480712890625, 0.05959438160061836, -1.3154048919677734, -0.175537109375, 0.052001953125, -0.650390625, 0, 
127, 1000796320, 0.5272281, 0.46403337, -0.41156578, 0.5807904, 10.301555633544922, -0.09286313503980637, 2.472851276397705, 11.91584587097168, -0.5698699355125427, -1.1906837224960327, -0.177001953125, 0.049560546875, -0.650390625, 0, 
128, 1000812987, 0.52637184, 0.4652368, -0.41021654, 0.5815581, 10.729233741760254, -0.16066457331180573, 2.459023952484131, 14.656538963317871, -1.0795376300811768, -1.6701542139053345, -0.17822265625, 0.046875, -0.653076171875, 0, 
129, 1000829654, 0.5254604, 0.46658513, -0.40873832, 0.5823424, 11.014699935913086, -0.08978848159313202, 2.411755323410034, 15.926420211791992, -1.2801368236541748, -2.2258353233337402, -0.173583984375, 0.04638671875, -0.64990234375, 0, 
130, 1000846321, 0.5246615, 0.46785858, -0.40711918, 0.58317465, 11.033306121826172, -0.16602815687656403, 2.4196197986602783, 15.998456001281738, 0.01951049454510212, -2.7572226524353027, -0.178466796875, 0.0400390625, -0.655517578125, 0, 
131, 1000862988, 0.5240433, 0.46898782, -0.40536854, 0.5840423, 10.678905487060547, -0.3148653507232666, 2.384826421737671, 15.528950691223145, 1.7129982709884644, -3.39335298538208, -0.177001953125, 0.03662109375, -0.65478515625, 0, 
132, 1000879655, 0.52346426, 0.4701058, -0.40339306, 0.58502984, 10.168623924255371, -0.4620351195335388, 2.306304931640625, 16.607500076293945, 3.08101224899292, -3.8413197994232178, -0.1767578125, 0.029541015625, -0.656494140625, 0, 
133, 1000896322, 0.5227082, 0.47143516, -0.40095973, 0.5863077, 9.63990306854248, -0.4677823483943939, 2.2425787448883057, 20.599822998046875, 4.341827392578125, -4.187337398529053, -0.17724609375, 0.029541015625, -0.6572265625, 0, 
134, 1000912989, 0.5218734, 0.4728073, -0.3983839, 0.5877002, 9.244295120239258, -0.14631149172782898, 2.2922348976135254, 21.91004753112793, 4.846988201141357, -4.077933311462402, -0.17529296875, 0.02294921875, -0.658935546875, 0, 
135, 1000929656, 0.5209818, 0.4739667, -0.39609033, 0.5891061, 9.059021949768066, 0.04538341239094734, 2.343975305557251, 20.236026763916016, 4.583789825439453, -2.3180296421051025, -0.1796875, 0.017822265625, -0.662109375, 0, 
136, 1000946323, 0.5200508, 0.47485995, -0.39429587, 0.5904117, 9.046045303344727, 0.17930711805820465, 2.35164737701416, 17.11968994140625, 3.4374001026153564, -0.17384634912014008, -0.1767578125, 0.0126953125, -0.662109375, 0, 
137, 1000962990, 0.5190164, 0.47545183, -0.39324236, 0.59154737, 9.221770286560059, 0.3014765679836273, 2.4144411087036133, 12.912515640258789, 1.1724796295166016, 2.8733177185058594, -0.177001953125, 0.01171875, -0.6630859375, 0, 
138, 1000979657, 0.5178425, 0.47564188, -0.3930733, 0.5925347, 9.389570236206055, 0.26518771052360535, 2.510167121887207, 7.933901786804199, -1.2141449451446533, 6.8951263427734375, -0.174560546875, 0.012451171875, -0.662841796875, 0, 
139, 1000996324, 0.51638424, 0.475644, -0.3935102, 0.5935148, 9.502351760864258, 0.13158155977725983, 2.5111255645751953, 5.705174446105957, -3.404224157333374, 10.519903182983398, -0.177490234375, 0.0107421875, -0.659912109375, 0, 
140, 1001012991, 0.5147629, 0.47554958, -0.39436767, 0.59442914, 9.555642127990723, 0.16553868353366852, 2.551724672317505, 4.001250267028809, -5.164432525634766, 12.583597183227539, -0.177978515625, 0.0126953125, -0.661865234375, 0, 
141, 1001029658, 0.5130667, 0.47524777, -0.3957089, 0.5952451, 9.481672286987305, 0.26601725816726685, 2.4890244007110596, 1.266120195388794, -6.560622692108154, 14.683192253112793, -0.182373046875, 0.01318359375, -0.658447265625, 0, 
142, 1001046325, 0.5113172, 0.47462288, -0.39764258, 0.59595996, 9.468615531921387, 0.13034853339195251, 2.4506356716156006, -2.4045872688293457, -7.809168815612793, 17.365938186645508, -0.1845703125, 0.0146484375, -0.654296875, 0, 
143, 1001062992, 0.5094675, 0.47415924, -0.39936265, 0.5967625, 9.482458114624023, 0.11743301153182983, 2.347330093383789, -0.3992512822151184, -7.711008071899414, 16.946928024291992, -0.18603515625, 0.017822265625, -0.657470703125, 0, 
144, 1001079659, 0.507493, 0.47406715, -0.40052083, 0.597741, 9.628881454467773, 0.2521093785762787, 2.3104476928710938, 4.092510223388672, -7.035213470458984, 15.226412773132324, -0.188720703125, 0.019287109375, -0.65673828125, 0, 
145, 1001096326, 0.50541717, 0.4740966, -0.40131143, 0.5989452, 9.753483772277832, 0.2882106602191925, 2.2877392768859863, 6.972789287567139, -5.790563106536865, 14.912912368774414, -0.189208984375, 0.021240234375, -0.6533203125, 0, 
146, 1001112993, 0.50328666, 0.47423676, -0.40187624, 0.6002481, 9.860677719116211, 0.3985927999019623, 2.297128677368164, 8.728849411010742, -5.285006999969482, 14.459761619567871, -0.188232421875, 0.02001953125, -0.65185546875, 0, 
147, 1001129660, 0.50136113, 0.4742752, -0.402557, 0.60137177, 9.925043106079102, 0.5081852674484253, 2.2632858753204346, 6.726073741912842, -5.279460430145264, 13.680927276611328, -0.19189453125, 0.020751953125, -0.65234375, 0, 
148, 1001146327, 0.49966618, 0.47411048, -0.40344372, 0.6023174, 9.973217010498047, 0.3846593201160431, 2.204953908920288, 3.917318344116211, -5.0819993019104, 13.384830474853516, -0.1943359375, 0.02001953125, -0.653076171875, 0, 
149, 1001162994, 0.49800545, 0.4740057, -0.40413746, 0.6033094, 9.909001350402832, 0.09042715281248093, 2.101531982421875, 4.929762363433838, -4.4106764793396, 12.638638496398926, -0.195556640625, 0.023193359375, -0.650390625, 0, 
150, 1001179661, 0.49627614, 0.47413126, -0.4044571, 0.6044205, 9.798483848571777, 0.01465821173042059, 2.0321714878082275, 7.818673133850098, -3.8705811500549316, 11.48595142364502, -0.19677734375, 0.0234375, -0.648681640625, 0, 
151, 1001196328, 0.4946852, 0.47425705, -0.40455288, 0.60556084, 9.648247718811035, 0.12693539261817932, 2.0142531394958496, 8.374505043029785, -2.6078739166259766, 10.292898178100586, -0.19775390625, 0.021728515625, -0.64990234375, 0, 
152, 1001212995, 0.49335653, 0.47417194, -0.40470737, 0.6066073, 9.477499008178711, 0.26016339659690857, 2.054997682571411, 6.29146146774292, -1.4898658990859985, 9.679805755615234, -0.194580078125, 0.02197265625, -0.650146484375, 0, 
153, 1001229662, 0.49241167, 0.47369513, -0.4052048, 0.6074148, 9.388031959533691, 0.3969903290271759, 1.9810539484024048, 1.6067427396774292, -0.7203829884529114, 9.504228591918945, -0.197265625, 0.024658203125, -0.648681640625, 0, 
154, 1001246329, 0.49184135, 0.47285104, -0.40604293, 0.6079747, 9.420695304870605, 0.42397651076316833, 1.9949078559875488, -2.978975772857666, -0.08755704015493393, 9.272817611694336, -0.195068359375, 0.024169921875, -0.64794921875, 0, 
155, 1001262996, 0.49143133, 0.4718611, -0.40716952, 0.6083219, 9.437143325805664, 0.35182708501815796, 1.9107749462127686, -5.803532600402832, -0.6845892667770386, 9.26826000213623, -0.19580078125, 0.02734375, -0.647216796875, 0, 
156, 1001279663, 0.49079123, 0.47107118, -0.4082097, 0.6087537, 9.651772499084473, 0.14494995772838593, 1.8328357934951782, -3.7940101623535156, -1.5799965858459473, 9.71176815032959, -0.196533203125, 0.029541015625, -0.646484375, 0, 
157, 1001296330, 0.48970005, 0.4706471, -0.40880355, 0.60956126, 9.819968223571777, 0.021121034398674965, 1.8770594596862793, 1.8170232772827148, -1.6278284788131714, 10.422867774963379, -0.198486328125, 0.033935546875, -0.645751953125, 0, 
158, 1001312997, 0.48826623, 0.47076273, -0.4086988, 0.6106915, 9.9459810256958, -0.08077169209718704, 1.8897970914840698, 8.572043418884277, -1.429740071296692, 9.188593864440918, -0.196533203125, 0.031005859375, -0.644287109375, 0, 
159, 1001329664, 0.48672128, 0.4712974, -0.40814283, 0.6118829, 9.936494827270508, -0.05960383266210556, 1.9642478227615356, 12.401216506958008, -1.762609601020813, 7.240292549133301, -0.198974609375, 0.033935546875, -0.645751953125, 0, 
160, 1001346331, 0.4851644, 0.47208884, -0.40736866, 0.61302406, 9.927517890930176, -0.1420937031507492, 1.9800304174423218, 14.071712493896484, -2.2870492935180664, 5.715485095977783, -0.19970703125, 0.03173828125, -0.648193359375, 0, 
161, 1001362998, 0.48314643, 0.47344857, -0.4060346, 0.6144528, 9.869590759277344, -0.5317697525024414, 1.8903871774673462, 20.626497268676758, -3.15126371383667, 5.223583698272705, -0.19775390625, 0.02783203125, -0.64697265625, 0, 
162, 1001379665, 0.48021412, 0.47573054, -0.40341917, 0.6167072, 9.903321266174316, -0.5878141522407532, 1.9205131530761719, 34.386627197265625, -2.6292762756347656, 5.077520847320557, -0.1962890625, 0.024658203125, -0.647705078125, 0, 
163, 1001396332, 0.47690377, 0.47821838, -0.4003509, 0.61934566, 9.786596298217773, 0.04846446216106415, 2.091636896133423, 39.29171371459961, -1.774963617324829, 5.886318206787109, -0.197998046875, 0.015380859375, -0.648193359375, 0, 
164, 1001412999, 0.47379512, 0.480014, -0.39800668, 0.6218485, 9.572070121765137, 0.1275276392698288, 2.1730599403381348, 32.89658737182617, -1.078997015953064, 8.896685600280762, -0.19873046875, 0.011474609375, -0.650390625, 0, 
165, 1001429666, 0.47017896, 0.48201025, -0.39552742, 0.62462485, 9.40340518951416, -0.848168134689331, 1.9007242918014526, 36.543922424316406, -1.9799933433532715, 10.992603302001953, -0.197509765625, 0.00634765625, -0.6552734375, 0, 
166, 1001446333, 0.46470293, 0.48565328, -0.3909549, 0.6287658, 9.573108673095703, -1.6087015867233276, 1.7287206649780273, 60.73788833618164, -2.7992753982543945, 11.949273109436035, -0.197998046875, -0.00439453125, -0.653564453125, 0, 
167, 1001463000, 0.4572207, 0.49110517, -0.38397264, 0.634295, 9.715005874633789, -0.9677714109420776, 1.863348126411438, 87.3851089477539, -3.6434295177459717, 12.079824447631836, -0.201171875, -0.01513671875, -0.662109375, 0, 
168, 1001479667, 0.4494795, 0.49640808, -0.37688258, 0.63992715, 9.846287727355957, 0.20985360443592072, 2.3188624382019043, 88.5417709350586, -2.9633450508117676, 13.5321044921875, -0.200927734375, -0.031005859375, -0.66357421875, 0, 
169, 1001496334, 0.4415871, 0.5015451, -0.3699844, 0.64541835, 9.76737117767334, -0.5577044486999512, 2.021580219268799, 87.32682800292969, -3.698838233947754, 14.882733345031738, -0.197998046875, -0.04833984375, -0.667724609375, 0, 
170, 1001513001, 0.43305343, 0.5075545, -0.3612524, 0.65142155, 9.903341293334961, -1.0210001468658447, 1.9408984184265137, 101.63201141357422, -1.850207805633545, 10.730476379394531, -0.200439453125, -0.0634765625, -0.672607421875, 0, 
171, 1001529668, 0.4250362, 0.5134858, -0.35216275, 0.6570069, 9.905057907104492, 0.5773342251777649, 2.3491740226745605, 100.17079162597656, -0.5864620208740234, 6.082009315490723, -0.201171875, -0.08740234375, -0.67431640625, 0, 
172, 1001546335, 0.41923547, 0.5173939, -0.34566522, 0.66110593, 9.84907341003418, 1.3095238208770752, 2.702840805053711, 71.11217498779297, 1.0964289903640747, 5.8262434005737305, -0.202392578125, -0.099853515625, -0.678955078125, 0, 
173, 1001563002, 0.41592893, 0.51918805, -0.34232357, 0.66352206, 9.77066707611084, 0.730745792388916, 2.7784886360168457, 37.77928924560547, 1.5252375602722168, 5.977656841278076, -0.201171875, -0.108154296875, -0.680419921875, 0, 
174, 1001579669, 0.4143944, 0.5198416, -0.34074023, 0.6647844, 9.747335433959961, 0.0022015804424881935, 2.5445241928100586, 17.443838119506836, 1.7242424488067627, 3.6067912578582764, -0.20166015625, -0.110595703125, -0.67919921875, 0, 
175, 1001596336, 0.4135442, 0.5202488, -0.33946374, 0.6656477, 9.617918014526367, -0.34477585554122925, 2.35874080657959, 11.955528259277344, 2.138917922973633, 1.0245341062545776, -0.198974609375, -0.114013671875, -0.68212890625, 0, 
176, 1001613003, 0.41255397, 0.5207837, -0.3378111, 0.6666837, 9.501557350158691, -0.579209566116333, 2.153104305267334, 14.946737289428711, 2.9107444286346436, 0.5025855302810669, -0.201416015625, -0.1171875, -0.68115234375, 0, 
177, 1001629670, 0.41086242, 0.5218481, -0.3352094, 0.6682076, 9.410940170288086, -0.5711941123008728, 2.062154769897461, 24.4497013092041, 3.3030972480773926, 0.4491964280605316, -0.1962890625, -0.116943359375, -0.68115234375, 0, 
178, 1001646337, 0.40880063, 0.52317923, -0.3319931, 0.67003447, 9.275452613830566, -0.19886037707328796, 2.0968916416168213, 30.0578556060791, 4.060049057006836, 0.16315345466136932, -0.19580078125, -0.1279296875, -0.68505859375, 0, 
179, 1001663004, 0.40641478, 0.5248487, -0.3281661, 0.6720625, 9.204894065856934, -0.39727744460105896, 1.9428893327713013, 35.44890594482422, 4.2111945152282715, -0.7510830163955688, -0.1953125, -0.13134765625, -0.684814453125, 0, 
180, 1001679671, 0.40314952, 0.527085, -0.32339814, 0.6745856, 9.258522987365723, -0.6970124244689941, 1.8103262186050415, 45.67435836791992, 4.041995048522949, 0.00567325484007597, -0.192138671875, -0.141357421875, -0.68408203125, 0, 
181, 1001696338, 0.39862168, 0.5299924, -0.31725484, 0.6779073, 9.454835891723633, -0.8483908176422119, 1.7488644123077393, 60.27310562133789, 4.856935024261475, 1.567312479019165, -0.192138671875, -0.1513671875, -0.68798828125, 0, 
182, 1001713005, 0.39310795, 0.53333116, -0.30996087, 0.6818714, 9.553116798400879, -0.5629388689994812, 1.7629503011703491, 71.82302856445312, 6.225805759429932, 2.7459750175476074, -0.19140625, -0.16796875, -0.68896484375, 0, 
183, 1001729672, 0.38684523, 0.5371016, -0.30182037, 0.68613225, 9.772764205932617, -0.45453378558158875, 1.793054223060608, 80.34439086914062, 6.017315864562988, 3.0087924003601074, -0.192626953125, -0.184814453125, -0.6923828125, 0, 
184, 1001746339, 0.38039067, 0.54077715, -0.2934586, 0.6904674, 9.956849098205566, -0.18832330405712128, 1.8385179042816162, 82.0036392211914, 6.967377662658691, 3.466691255569458, -0.187744140625, -0.1982421875, -0.693603515625, 0, 
185, 1001763006, 0.3740632, 0.54412425, -0.28537485, 0.6946704, 10.016739845275879, -0.1127341166138649, 1.9863677024841309, 79.08940124511719, 7.60060977935791, 4.200704097747803, -0.188720703125, -0.209716796875, -0.69287109375, 0, 
186, 1001779673, 0.36763182, 0.5472144, -0.2775335, 0.6988409, 10.03098201751709, -0.372124046087265, 1.8785511255264282, 77.5979995727539, 7.9093217849731445, 6.013607501983643, -0.18896484375, -0.229248046875, -0.695068359375, 0, 
187, 1001796340, 0.3607074, 0.55043584, -0.2689341, 0.7032676, 9.988118171691895, -0.30518439412117004, 1.8804734945297241, 83.92159271240234, 9.255209922790527, 5.899348735809326, -0.186279296875, -0.245361328125, -0.692138671875, 0, 
188, 1001813007, 0.35401556, 0.55343384, -0.26065454, 0.70742035, 9.636470794677734, 0.44783419370651245, 2.141664505004883, 80.4400863647461, 8.971247673034668, 5.692336559295654, -0.1875, -0.258056640625, -0.69677734375, 0, 
189, 1001829674, 0.34816062, 0.5558377, -0.25380552, 0.7109232, 9.437488555908203, 0.6544917821884155, 2.246103525161743, 67.68315124511719, 7.422440052032471, 6.558662414550781, -0.189208984375, -0.274169921875, -0.693115234375, 0, 
190, 1001846341, 0.34290847, 0.55782425, -0.24825354, 0.71387416, 9.433255195617676, 0.4097379744052887, 2.2420191764831543, 57.07295608520508, 5.307910919189453, 7.996623516082764, -0.188232421875, -0.283447265625, -0.692138671875, 0, 
191, 1001863008, 0.33827034, 0.5594528, -0.24358442, 0.7164166, 9.570496559143066, 0.7075933814048767, 2.3951733112335205, 48.84084701538086, 4.475858211517334, 8.024335861206055, -0.1875, -0.29296875, -0.694091796875, 0, 
192, 1001879675, 0.33465979, 0.5606157, -0.24021709, 0.71833754, 9.591178894042969, 0.8265427947044373, 2.439105987548828, 36.34659194946289, 3.0745251178741455, 7.324742794036865, -0.188720703125, -0.300048828125, -0.693359375, 0, 
193, 1001896342, 0.33158863, 0.56155854, -0.23762794, 0.7198848, 9.648136138916016, 0.546149492263794, 2.207432270050049, 29.295066833496094, 1.8233228921890259, 7.190276622772217, -0.18798828125, -0.30517578125, -0.692626953125, 0, 
194, 1001913009, 0.3287384, 0.56245226, -0.23524515, 0.7212757, 9.64529800415039, 0.5667698383331299, 2.2635982036590576, 27.049724578857422, 1.3671073913574219, 6.630455493927002, -0.19287109375, -0.309814453125, -0.69140625, 0, 
195, 1001929676, 0.32628262, 0.5632, -0.2334365, 0.72239405, 9.628033638000488, 0.5492478013038635, 2.258547067642212, 21.903352737426758, 0.3898515999317169, 6.526703357696533, -0.1904296875, -0.31396484375, -0.69384765625, 0, 
196, 1001946343, 0.3243305, 0.56381106, -0.23212391, 0.7232189, 9.664191246032715, 0.4362903833389282, 2.1875650882720947, 16.708524703979492, -0.3600444793701172, 5.520720481872559, -0.19189453125, -0.31591796875, -0.69140625, 0, 
197, 1001963010, 0.32289597, 0.5642055, -0.23124108, 0.72383565, 9.697663307189941, 0.5178834795951843, 2.1909022331237793, 11.748870849609375, -0.2077510952949524, 4.501023769378662, -0.189208984375, -0.318115234375, -0.690185546875, 0, 
198, 1001979677, 0.3218806, 0.5644924, -0.23065403, 0.7242516, 9.70154857635498, 0.39659029245376587, 2.219608783721924, 8.090925216674805, -0.42565107345581055, 3.3004531860351562, -0.19189453125, -0.3193359375, -0.6923828125, 0, 
199, 1001996344, 0.32112086, 0.56477404, -0.23016831, 0.7245235, 9.711690902709961, 0.4849124252796173, 2.2711446285247803, 6.352756977081299, -0.7647376656532288, 2.1162109375, -0.192626953125, -0.3212890625, -0.6904296875, 0, 
200, 1002013011, 0.32074797, 0.5649565, -0.23013322, 0.72455776, 9.598418235778809, 0.5667424201965332, 2.255530834197998, 2.008765459060669, -1.5647501945495605, 1.5815328359603882, -0.192626953125, -0.322509765625, -0.6904296875, 0, 
201, 1002029678, 0.32028663, 0.56523156, -0.23005569, 0.7245718, 9.619513511657715, 0.29798826575279236, 2.1987390518188477, 2.7342326641082764, -2.1422529220581055, 1.6811922788619995, -0.193603515625, -0.322509765625, -0.689453125, 0, 
202, 1002046345, 0.31949347, 0.56577635, -0.22948454, 0.72467786, 9.61108684539795, 0.324144184589386, 2.2055864334106445, 7.222026824951172, -2.5539770126342773, 1.1919511556625366, -0.195556640625, -0.32177734375, -0.688720703125, 0, 
203, 1002063012, 0.31854764, 0.5664807, -0.22860962, 0.72482055, 9.67257022857666, 0.4467671811580658, 2.233670234680176, 9.73690128326416, -2.7676517963409424, 0.6029231548309326, -0.193115234375, -0.32275390625, -0.688720703125, 0, 
204, 1002079679, 0.31769407, 0.56714076, -0.22773927, 0.724953, 9.67657470703125, 0.5607374906539917, 2.291654348373413, 9.240578651428223, -2.442178249359131, 0.21614563465118408, -0.1953125, -0.325439453125, -0.6865234375, 0, 
205, 1002096346, 0.31716436, 0.56763095, -0.22713855, 0.72498983, 9.60488510131836, 0.527956485748291, 2.3242809772491455, 6.111447334289551, -2.0438363552093506, -0.27698221802711487, -0.197265625, -0.32373046875, -0.6875, 0, 
206, 1002113013, 0.3168829, 0.568013, -0.22673823, 0.7249388, 9.615334510803223, 0.5084512233734131, 2.2898147106170654, 3.7678589820861816, -1.8953464031219482, -0.7439785599708557, -0.196533203125, -0.326904296875, -0.6884765625, 0, 
207, 1002129680, 0.31669205, 0.56839013, -0.22657613, 0.7247773, 9.672808647155762, 0.3993472754955292, 2.286867380142212, 2.0423691272735596, -2.6738440990448, -0.4885045886039734, -0.196044921875, -0.329345703125, -0.6884765625, 0, 
208, 1002146347, 0.31672168, 0.568572, -0.22675198, 0.7245669, 9.788470268249512, 0.4875750243663788, 2.3562841415405273, -1.0055994987487793, -2.2798056602478027, -0.06394851207733154, -0.19970703125, -0.32275390625, -0.68798828125, 0, 
209, 1002163014, 0.3169276, 0.56854135, -0.22725965, 0.7243418, 9.869297981262207, 0.36950793862342834, 2.309792995452881, -3.8341634273529053, -1.7234337329864502, 0.6615375280380249, -0.197509765625, -0.325439453125, -0.687744140625, 0, 
210, 1002179681, 0.3171161, 0.5684697, -0.22774452, 0.7241633, 9.923715591430664, 0.527506947517395, 2.441040515899658, -3.6697561740875244, -1.3095710277557373, 0.828199565410614, -0.19775390625, -0.325927734375, -0.6884765625, 0, 
211, 1002196348, 0.31775734, 0.56810856, -0.2289369, 0.72378945, 9.931845664978027, 0.8073201775550842, 2.5960381031036377, -9.89879322052002, -1.4652711153030396, 1.3776435852050781, -0.2001953125, -0.32275390625, -0.688720703125, 0, 
212, 1002213015, 0.3192006, 0.5672963, -0.23136595, 0.72301865, 9.921836853027344, 0.702511727809906, 2.531627655029297, -20.80173683166504, -2.2220137119293213, 2.0834298133850098, -0.196044921875, -0.317626953125, -0.68896484375, 0, 
213, 1002229682, 0.32091546, 0.56624836, -0.23431715, 0.72213006, 10.007640838623047, 0.27366507053375244, 2.384923219680786, -25.164051055908203, -2.230275869369507, 2.906574010848999, -0.196044921875, -0.312744140625, -0.692138671875, 0, 
214, 1002246349, 0.3223969, 0.56518924, -0.23719119, 0.7213612, 9.888789176940918, -0.05341247469186783, 2.2031211853027344, -23.70309829711914, -1.9136247634887695, 4.04851770401001, -0.193603515625, -0.30615234375, -0.693115234375, 0, 
215, 1002263016, 0.3230651, 0.56445575, -0.23897989, 0.72104615, 9.821037292480469, -0.2282891720533371, 2.1013236045837402, -13.693564414978027, -0.6746453642845154, 4.326499938964844, -0.19482421875, -0.30224609375, -0.694091796875, 0, 
216, 1002279683, 0.32307684, 0.56404704, -0.23986973, 0.72106516, 9.60190486907959, 0.14369575679302216, 2.136117458343506, -5.413391590118408, -0.05354975536465645, 4.283212184906006, -0.194580078125, -0.300048828125, -0.6923828125, 0, 
217, 1002296350, 0.3231247, 0.5636581, -0.24084379, 0.72102314, 9.621809005737305, 0.38875246047973633, 2.2673327922821045, -6.026369094848633, -0.5064592361450195, 4.260379314422607, -0.192626953125, -0.294921875, -0.6943359375, 0, 
218, 1002313017, 0.32339334, 0.56306136, -0.24224949, 0.72089815, 9.64711856842041, 0.25089263916015625, 2.272061347961426, -9.621919631958008, -0.3888201415538788, 5.009179592132568, -0.19580078125, -0.293701171875, -0.69384765625, 0, 
219, 1002329684, 0.32381004, 0.5624244, -0.24369894, 0.72071964, 9.598227500915527, 0.13560184836387634, 2.2665891647338867, -10.590170860290527, -0.24453096091747284, 4.398675441741943, -0.19384765625, -0.2900390625, -0.693359375, 0, 
220, 1002346351, 0.3242085, 0.5618548, -0.24495447, 0.72055924, 9.637500762939453, -0.025960981845855713, 2.1927967071533203, -9.377395629882812, -0.10348174721002579, 3.6662158966064453, -0.192626953125, -0.28564453125, -0.695068359375, 0, 
221, 1002363018, 0.32451504, 0.56137913, -0.2459072, 0.72046757, 9.645904541015625, -0.016929175704717636, 2.2027587890625, -7.1944098472595215, 0.22377820312976837, 2.941324472427368, -0.194580078125, -0.283935546875, -0.692138671875, 0, 
222, 1002379685, 0.32489175, 0.56088734, -0.2467831, 0.7203812, 9.574481964111328, -0.026968276128172874, 2.207322120666504, -7.108377933502197, 0.6219789385795593, 2.3321011066436768, -0.193115234375, -0.280029296875, -0.6943359375, 0, 
223, 1002396352, 0.3254181, 0.5604326, -0.24762644, 0.7202081, 9.550384521484375, 0.020881574600934982, 2.2398481369018555, -7.587975025177002, 0.4356464445590973, 1.204463005065918, -0.192626953125, -0.281982421875, -0.69384765625, 0, 
224, 1002413019, 0.32622623, 0.5599671, -0.24856935, 0.7198798, 9.500985145568848, 0.00548215676099062, 2.2380714416503906, -9.453426361083984, 0.15348415076732635, -0.13832783699035645, -0.190185546875, -0.277587890625, -0.693115234375, 0, 
225, 1002429686, 0.3272973, 0.55945086, -0.24960312, 0.71943724, 9.515518188476562, -0.007758173160254955, 2.2392663955688477, -11.222893714904785, 0.21296969056129456, -1.261419653892517, -0.1904296875, -0.275146484375, -0.6962890625, 0, 
226, 1002446353, 0.3287068, 0.5588415, -0.25086772, 0.71882796, 9.482062339782715, 0.03780708461999893, 2.2059683799743652, -14.161201477050781, 0.09704659879207611, -2.2644782066345215, -0.19140625, -0.271240234375, -0.696533203125, 0, 
227, 1002463020, 0.33061308, 0.5580974, -0.25250867, 0.7179568, 9.496381759643555, 0.09265442937612534, 2.159207344055176, -18.686248779296875, -0.23239070177078247, -3.633441209793091, -0.189697265625, -0.2685546875, -0.693115234375, 0, 
228, 1002479687, 0.3331864, 0.55707866, -0.25475422, 0.7167641, 9.506438255310059, 0.11663790047168732, 2.2128336429595947, -25.4116153717041, -0.32128003239631653, -4.8542256355285645, -0.188720703125, -0.262939453125, -0.6953125, 0, 
229, 1002496354, 0.33665136, 0.5557081, -0.2577565, 0.7151338, 9.477151870727539, 0.0647135004401207, 2.2008111476898193, -34.128841400146484, -0.4322480857372284, -6.731499671936035, -0.188720703125, -0.257568359375, -0.698486328125, 0, 
230, 1002513021, 0.34018776, 0.55440754, -0.26088536, 0.71333283, 9.371878623962402, -0.6261709928512573, 1.9510763883590698, -35.16472244262695, -1.5928417444229126, -7.112698078155518, -0.187255859375, -0.25, -0.6962890625, 0, 
231, 1002529688, 0.34213188, 0.55424446, -0.26199785, 0.7121208, 9.560283660888672, -1.0860000848770142, 1.761191725730896, -15.483257293701172, -3.0485482215881348, -7.677587032318115, -0.18408203125, -0.245361328125, -0.6953125, 0, 
232, 1002546355, 0.3424891, 0.55507123, -0.2612177, 0.7115917, 9.71157169342041, -0.3472677171230316, 1.8596880435943604, 3.3996384143829346, -3.668501138687134, -7.342541217803955, -0.18603515625, -0.250244140625, -0.6953125, 0, 
233, 1002563022, 0.3424704, 0.55611247, -0.26027423, 0.7111333, 9.710963249206543, 0.1989055722951889, 2.0664334297180176, 6.268979549407959, -4.715497970581055, -6.360384941101074, -0.185791015625, -0.246337890625, -0.697998046875, 0, 
234, 1002579689, 0.3427184, 0.55701125, -0.25974998, 0.7105016, 9.765833854675293, 0.17040255665779114, 2.0570642948150635, 2.554547071456909, -5.179625988006592, -6.208244323730469, -0.188232421875, -0.251708984375, -0.697509765625, 0, 
235, 1002596356, 0.34317246, 0.5578443, -0.25938177, 0.70976305, 9.657991409301758, -0.008371732197701931, 2.025899887084961, 0.6554931998252869, -5.256617546081543, -6.746751308441162, -0.19189453125, -0.251220703125, -0.69580078125, 0, 
236, 1002613023, 0.3436632, 0.55870414, -0.25892505, 0.7090158, 9.678266525268555, -0.05603037402033806, 1.9876255989074707, 0.9952457547187805, -5.1347270011901855, -7.336638450622559, -0.189697265625, -0.25341796875, -0.69482421875, 0, 
237, 1002629690, 0.34401044, 0.5595961, -0.2583601, 0.70834976, 9.73648452758789, -0.08101646602153778, 2.0220367908477783, 2.2966530323028564, -4.965951442718506, -6.926386833190918, -0.18994140625, -0.253173828125, -0.6962890625, 0, 
238, 1002646357, 0.3441042, 0.56062794, -0.2575052, 0.7077994, 9.79954719543457, -0.1499078869819641, 1.986398458480835, 5.22252082824707, -4.953977584838867, -6.79021692276001, -0.19189453125, -0.257080078125, -0.694091796875, 0, 
239, 1002663024, 0.3439119, 0.5618489, -0.25614458, 0.7074182, 9.855889320373535, -0.031395215541124344, 2.032999277114868, 9.534524917602539, -4.520009517669678, -7.295557498931885, -0.1923828125, -0.257568359375, -0.69482421875, 0, 
240, 1002679691, 0.34383193, 0.56303537, -0.2547289, 0.70702475, 9.88064956665039, 0.20586171746253967, 2.1462583541870117, 9.267460823059082, -4.06051778793335, -8.032843589782715, -0.19091796875, -0.261474609375, -0.6962890625, 0, 
241, 1002696358, 0.3440233, 0.564106, -0.2535124, 0.70651555, 9.846147537231445, 0.06949733197689056, 2.0711262226104736, 6.771207809448242, -3.9357967376708984, -8.65247917175293, -0.1923828125, -0.264404296875, -0.69580078125, 0, 
242, 1002713025, 0.34411368, 0.5652408, -0.252069, 0.70608085, 9.821135520935059, -0.11847161501646042, 2.01924991607666, 8.547603607177734, -3.5901665687561035, -8.984716415405273, -0.192626953125, -0.266357421875, -0.6982421875, 0, 
243, 1002729692, 0.3441061, 0.5664529, -0.25029334, 0.70574474, 9.750358581542969, -0.030962932854890823, 2.098644971847534, 10.897327423095703, -2.955880880355835, -9.719074249267578, -0.19189453125, -0.27001953125, -0.696533203125, 0, 
244, 1002746359, 0.34428054, 0.56757873, -0.24849638, 0.70539016, 9.752460479736328, 0.08488624542951584, 2.1916098594665527, 10.056615829467773, -2.2403762340545654, -10.5946044921875, -0.19482421875, -0.271484375, -0.695556640625, 0, 
245, 1002763026, 0.34467104, 0.5685035, -0.2469285, 0.7050051, 9.727697372436523, 0.1397814303636551, 2.1854465007781982, 7.5754594802856445, -1.5561835765838623, -10.489001274108887, -0.1943359375, -0.27685546875, -0.6943359375, 0, 
246, 1002779693, 0.34523308, 0.56923896, -0.24560769, 0.7045979, 9.740460395812988, 0.23406526446342468, 2.196589708328247, 5.221394062042236, -1.0187902450561523, -10.096613883972168, -0.192626953125, -0.27978515625, -0.6962890625, 0, 
247, 1002796360, 0.34593543, 0.56974274, -0.24459605, 0.7041981, 9.698334693908691, 0.21663179993629456, 2.184483051300049, 2.6379806995391846, -0.36476972699165344, -9.164911270141602, -0.196533203125, -0.277587890625, -0.695068359375, 0, 
248, 1002813027, 0.34654412, 0.57018995, -0.24368611, 0.70385236, 9.66199779510498, 0.09068156778812408, 2.071148157119751, 2.4678478240966797, -0.27981239557266235, -8.097949028015137, -0.19189453125, -0.27978515625, -0.696533203125, 0, 
249, 1002829694, 0.3467257, 0.5708341, -0.24233538, 0.703707, 9.708988189697266, 0.004282696172595024, 1.9987471103668213, 7.082963466644287, -0.10852744430303574, -7.627419948577881, -0.19287109375, -0.2822265625, -0.697265625, 0, 
250, 1002846361, 0.34649974, 0.5716505, -0.24062315, 0.70374316, 9.59638500213623, 0.13472574949264526, 2.020141839981079, 11.146600723266602, -0.03695273771882057, -6.946481704711914, -0.192626953125, -0.283447265625, -0.694091796875, 0, 
251, 1002863028, 0.34596136, 0.5725853, -0.23866007, 0.7039165, 9.532307624816895, 0.16487589478492737, 2.0770275592803955, 14.099430084228516, 0.0157646294683218, -6.3054986000061035, -0.192626953125, -0.28955078125, -0.697509765625, 0, 
252, 1002879695, 0.3452943, 0.5735616, -0.23662864, 0.704135, 9.462911605834961, 0.22723238170146942, 2.073183298110962, 15.111184120178223, -0.05449746921658516, -5.927430629730225, -0.194580078125, -0.29345703125, -0.694091796875, 0, 
253, 1002896362, 0.3444664, 0.57464147, -0.23440786, 0.70440286, 9.355669975280762, 0.19035641849040985, 2.0477166175842285, 16.989137649536133, -0.1712658703327179, -5.961675643920898, -0.194580078125, -0.296142578125, -0.696533203125, 0, 
254, 1002913029, 0.3436375, 0.5758063, -0.23205188, 0.7046365, 9.504569053649902, 0.2984122633934021, 2.0473296642303467, 17.795841217041016, -0.3977593183517456, -6.724808216094971, -0.192138671875, -0.30126953125, -0.694580078125, 0, 
255, 1002929696, 0.3429676, 0.5767138, -0.23004125, 0.70487994, 9.856152534484863, 0.5243644118309021, 2.074965476989746, 14.901993751525879, 0.32911068201065063, -5.706521034240723, -0.194580078125, -0.308349609375, -0.6943359375, 0, 
256, 1002946363, 0.34250993, 0.5772629, -0.22863784, 0.7051096, 9.835330963134766, 0.548724889755249, 2.06950044631958, 10.251296043395996, 0.9174985885620117, -3.796873092651367, -0.19482421875, -0.3095703125, -0.69384765625, 0, 
257, 1002963030, 0.34198296, 0.57776546, -0.22731847, 0.7053802, 9.834839820861816, 0.3815145492553711, 1.9985530376434326, 10.074066162109375, 1.0032626390457153, -2.963499069213867, -0.195556640625, -0.312255859375, -0.69189453125, 0, 
258, 1002979697, 0.3411872, 0.5783477, -0.22583982, 0.70576346, 9.738340377807617, 0.46433642506599426, 2.045764446258545, 12.278568267822266, 1.02601957321167, -2.162372350692749, -0.193115234375, -0.3154296875, -0.691650390625, 0, 
259, 1002996364, 0.34028432, 0.57890564, -0.22444816, 0.7061856, 9.720717430114746, 0.5332491397857666, 2.1080987453460693, 12.287967681884766, 0.9318289756774902, -1.1754379272460938, -0.19482421875, -0.317138671875, -0.693115234375, 0, 
260, 1003013031, 0.33937544, 0.5793739, -0.22328307, 0.7066082, 9.805424690246582, 0.6319948434829712, 2.1354305744171143, 11.002988815307617, 0.8313117027282715, -0.11178025603294373, -0.19482421875, -0.31787109375, -0.691162109375, 0, 
261, 1003029698, 0.33855814, 0.5796987, -0.22238651, 0.7070165, 9.784599304199219, 0.7091529369354248, 2.1003193855285645, 8.978124618530273, 0.9866783618927002, 0.6965503692626953, -0.195068359375, -0.319580078125, -0.692138671875, 0, 
262, 1003046365, 0.33767566, 0.5799921, -0.221553, 0.7074593, 9.749934196472168, 0.68282151222229, 1.9945435523986816, 8.912056922912598, 1.0287599563598633, 1.3937537670135498, -0.1943359375, -0.322998046875, -0.691162109375, 0, 
263, 1003063032, 0.3366305, 0.58031905, -0.22066034, 0.7079683, 9.67208194732666, 0.698403537273407, 2.003441333770752, 10.027297973632812, 1.026711106300354, 2.052128553390503, -0.196044921875, -0.322998046875, -0.694091796875, 0, 
264, 1003079699, 0.33550012, 0.58066607, -0.21975839, 0.7085006, 9.623016357421875, 0.6897394061088562, 2.0391616821289062, 10.494211196899414, 0.9166467189788818, 2.4537932872772217, -0.19384765625, -0.32373046875, -0.69091796875, 0, 
265, 1003096366, 0.3343486, 0.5810516, -0.21878937, 0.7090286, 9.630186080932617, 0.6583178043365479, 2.020556688308716, 10.988544464111328, 0.8374075293540955, 2.2197892665863037, -0.1943359375, -0.32568359375, -0.693359375, 0, 
266, 1003113033, 0.3331594, 0.58146894, -0.21773666, 0.70957005, 9.613266944885254, 0.6289575695991516, 1.9852302074432373, 11.641324043273926, 0.8750711679458618, 2.0524237155914307, -0.1982421875, -0.330810546875, -0.692138671875, 0, 
267, 1003129700, 0.33184367, 0.5819875, -0.21643995, 0.71015805, 9.620227813720703, 0.6223591566085815, 1.9385489225387573, 13.64007568359375, 0.9403707385063171, 1.645719289779663, -0.19970703125, -0.32861328125, -0.69140625, 0, 
268, 1003146367, 0.3304274, 0.5826041, -0.2148917, 0.71078265, 9.592686653137207, 0.6759530901908875, 1.9670575857162476, 15.549304962158203, 1.0389416217803955, 1.0665137767791748, -0.197509765625, -0.33349609375, -0.69287109375, 0, 
269, 1003163034, 0.32901815, 0.58322847, -0.21333092, 0.71139437, 9.582662582397461, 0.7266693115234375, 1.9945898056030273, 15.582099914550781, 0.9907256960868835, 0.9399868845939636, -0.197509765625, -0.336669921875, -0.69140625, 0, 
270, 1003179701, 0.32768875, 0.5837928, -0.21186636, 0.7119825, 9.595038414001465, 0.7149444818496704, 2.0313222408294678, 14.621134757995605, 1.0921263694763184, 0.9700689315795898, -0.198974609375, -0.33935546875, -0.68896484375, 0, 
271, 1003196368, 0.32642972, 0.5843102, -0.21040411, 0.71256995, 9.646140098571777, 0.7059428095817566, 2.0285048484802246, 14.220681190490723, 1.4191879034042358, 0.7013274431228638, -0.19921875, -0.34033203125, -0.6904296875, 0, 
272, 1003213035, 0.32527533, 0.5847301, -0.20910978, 0.713134, 9.703651428222656, 0.7412493824958801, 2.031383514404297, 12.724832534790039, 1.5783706903457642, 0.9515123963356018, -0.19873046875, -0.34326171875, -0.68798828125, 0, 
273, 1003229702, 0.32415614, 0.5850865, -0.20788036, 0.7137106, 9.728455543518066, 0.7286391258239746, 2.022244930267334, 12.141873359680176, 1.8481367826461792, 1.1593466997146606, -0.197998046875, -0.3427734375, -0.6865234375, 0, 
274, 1003246369, 0.32297966, 0.5854424, -0.20655937, 0.7143353, 9.740615844726562, 0.7305853366851807, 2.0695042610168457, 12.889572143554688, 2.1684746742248535, 1.1798752546310425, -0.199951171875, -0.349853515625, -0.6875, 0, 
275, 1003263036, 0.32176092, 0.58581024, -0.2051319, 0.71499467, 9.726069450378418, 0.7656739354133606, 2.0857152938842773, 13.659197807312012, 2.4282262325286865, 1.0182591676712036, -0.19970703125, -0.349365234375, -0.6904296875, 0, 
276, 1003279703, 0.32056028, 0.58615047, -0.20359178, 0.7156951, 9.728873252868652, 0.8270419239997864, 2.1145684719085693, 14.13736343383789, 3.004755973815918, 0.6054206490516663, -0.198974609375, -0.351806640625, -0.688720703125, 0, 
277, 1003296370, 0.31941438, 0.5864921, -0.201919, 0.7164012, 9.750447273254395, 0.8069760799407959, 2.1605336666107178, 14.5798978805542, 3.3888185024261475, -0.18678714334964752, -0.197265625, -0.35595703125, -0.686767578125, 0, 
278, 1003313037, 0.3182644, 0.58685815, -0.20012881, 0.71711516, 9.766260147094727, 0.8783544301986694, 2.190552234649658, 15.240172386169434, 3.5516653060913086, -0.655371904373169, -0.1982421875, -0.357177734375, -0.68798828125, 0, 
279, 1003329704, 0.31715906, 0.587141, -0.19852911, 0.71781766, 9.791725158691406, 1.022775411605835, 2.180925130844116, 13.921806335449219, 3.557542562484741, -0.015041069127619267, -0.197998046875, -0.363525390625, -0.686279296875, 0, 
280, 1003346371, 0.31612766, 0.58732367, -0.19712341, 0.7185103, 9.794812202453613, 1.0693995952606201, 2.1643872261047363, 12.43315601348877, 3.6873345375061035, 0.5263925194740295, -0.194091796875, -0.36279296875, -0.685546875, 0, 
281, 1003363038, 0.31514835, 0.58744854, -0.19589894, 0.71917284, 9.792210578918457, 1.089820146560669, 2.1580874919891357, 11.159714698791504, 3.5274083614349365, 1.0214221477508545, -0.19677734375, -0.365478515625, -0.68408203125, 0, 
282, 1003379705, 0.31426248, 0.58751476, -0.19480607, 0.7198031, 9.781858444213867, 1.0947518348693848, 2.139169931411743, 9.960488319396973, 3.5257556438446045, 1.1111689805984497, -0.19580078125, -0.36865234375, -0.685546875, 0, 
283, 1003396372, 0.3135978, 0.5874229, -0.19407852, 0.7203643, 9.757633209228516, 1.1647878885269165, 2.1560826301574707, 6.823493480682373, 3.536102771759033, 1.5637707710266113, -0.196533203125, -0.3701171875, -0.68798828125, 0, 
284, 1003413039, 0.3131557, 0.5871653, -0.1937386, 0.72085786, 9.741629600524902, 1.0863394737243652, 2.1112890243530273, 3.5559909343719482, 3.5447592735290527, 2.115250587463379, -0.19580078125, -0.37060546875, -0.68798828125, 0, 
285, 1003429706, 0.31294045, 0.5867711, -0.19369161, 0.72128487, 9.691286087036133, 1.0667624473571777, 2.0593721866607666, 0.8045461177825928, 3.6264381408691406, 2.223118305206299, -0.194091796875, -0.369384765625, -0.687255859375, 0, 
286, 1003446373, 0.31300092, 0.5862441, -0.19393274, 0.72162235, 9.604033470153809, 1.017685890197754, 2.0227982997894287, -2.1423745155334473, 3.6737000942230225, 2.0128064155578613, -0.193115234375, -0.368408203125, -0.68408203125, 0, 
287, 1003463040, 0.313145, 0.5856984, -0.19426979, 0.72191215, 9.643966674804688, 0.8925470113754272, 1.9368826150894165, -3.060288667678833, 3.483762264251709, 1.917136311531067, -0.195556640625, -0.368408203125, -0.686279296875, 0, 
288, 1003479707, 0.31332195, 0.5851605, -0.19462751, 0.7221753, 9.68869686126709, 0.9144511222839355, 1.962893009185791, -3.3130218982696533, 3.344467878341675, 1.776689052581787, -0.1943359375, -0.367919921875, -0.6904296875, 0, 
289, 1003496374, 0.31347406, 0.5846666, -0.19503346, 0.7223996, 9.729850769042969, 0.8152611255645752, 1.968125343322754, -3.409658432006836, 2.8408963680267334, 1.9574761390686035, -0.191650390625, -0.3642578125, -0.685791015625, 0, 
290, 1003513041, 0.31343547, 0.584319, -0.19525172, 0.72263867, 9.771650314331055, 0.7066732048988342, 1.9177465438842773, -1.375139594078064, 2.331037759780884, 1.9910420179367065, -0.190185546875, -0.36376953125, -0.6884765625, 0, 
291, 1003529708, 0.313293, 0.58407253, -0.19530383, 0.72288555, 9.72302532196045, 0.7698018550872803, 1.8974690437316895, 0.09675197303295135, 2.088728666305542, 1.720840573310852, -0.189453125, -0.363525390625, -0.69091796875, 0, 
292, 1003546375, 0.31315768, 0.58387566, -0.19537482, 0.72308403, 9.693793296813965, 0.7669090628623962, 1.9201160669326782, 0.01714770309627056, 1.6287755966186523, 1.5938400030136108, -0.19091796875, -0.361328125, -0.685791015625, 0, 
293, 1003563042, 0.31306142, 0.5836975, -0.19551787, 0.72323084, 9.697147369384766, 0.7244473099708557, 1.9513574838638306, -0.526283323764801, 1.2353516817092896, 1.5557537078857422, -0.189208984375, -0.363037109375, -0.689453125, 0, 
294, 1003579709, 0.31291777, 0.58355016, -0.19563012, 0.7233816, 9.675751686096191, 0.6676226854324341, 1.9340490102767944, -0.11014099419116974, 1.1096571683883667, 1.6360749006271362, -0.18994140625, -0.362060546875, -0.68896484375, 0, 
295, 1003596376, 0.31267548, 0.5834979, -0.19567709, 0.72351575, 9.646398544311523, 0.6042784452438354, 1.9324592351913452, 0.7930203080177307, 0.5877985954284668, 1.701195240020752, -0.18896484375, -0.359130859375, -0.6875, 0, 
296, 1003613043, 0.3122542, 0.58353794, -0.19550844, 0.723711, 9.624813079833984, 0.5688362717628479, 1.969160795211792, 2.8651387691497803, 0.6058299541473389, 1.7318025827407837, -0.19287109375, -0.358642578125, -0.691162109375, 0, 
297, 1003629710, 0.31180567, 0.5836256, -0.195238, 0.7239066, 9.585387229919434, 0.5983611345291138, 2.004586696624756, 3.586470127105713, 0.5598424673080444, 1.392370581626892, -0.188720703125, -0.359375, -0.686279296875, 0, 
298, 1003646377, 0.31138495, 0.5837152, -0.19492832, 0.72409904, 9.615736961364746, 0.6096504330635071, 2.05415940284729, 3.6698648929595947, 0.6661224365234375, 1.0850950479507446, -0.193115234375, -0.360107421875, -0.68701171875, 0, 
299, 1003663044, 0.31104004, 0.5837635, -0.19458415, 0.7243009, 9.563958168029785, 0.6136307716369629, 2.0854220390319824, 3.462747097015381, 1.0898715257644653, 0.6405735611915588, -0.188232421875, -0.359619140625, -0.68798828125, 0, 
300, 1003679711, 0.31074873, 0.5837952, -0.19435668, 0.72446144, 9.580831527709961, 0.6952587962150574, 2.1146373748779297, 2.5762534141540527, 0.8329634070396423, 0.7748225927352905, -0.190673828125, -0.36083984375, -0.68896484375, 0, 
301, 1003696378, 0.31051716, 0.5837911, -0.19430096, 0.72457886, 9.64981460571289, 0.722262978553772, 2.128481388092041, 1.348649501800537, 0.5517743825912476, 1.1222587823867798, -0.19189453125, -0.361328125, -0.686767578125, 0, 
302, 1003713045, 0.31024057, 0.58377075, -0.19424033, 0.7247298, 9.712035179138184, 0.7020913362503052, 2.1344387531280518, 1.563873052597046, 0.7207669019699097, 1.4206082820892334, -0.190185546875, -0.360107421875, -0.68994140625, 0, 
303, 1003729712, 0.30986413, 0.58381027, -0.19409423, 0.72489834, 9.734208106994629, 0.7209228277206421, 2.156883478164673, 2.5422651767730713, 0.5464597344398499, 1.5337011814117432, -0.191162109375, -0.3583984375, -0.686767578125, 0, 
304, 1003746379, 0.3094905, 0.5838741, -0.19410606, 0.7250032, 9.752286911010742, 0.8116996884346008, 2.1463515758514404, 1.71112060546875, -0.16265986859798431, 1.9857913255691528, -0.187744140625, -0.36181640625, -0.689453125, 0, 
305, 1003763046, 0.30926064, 0.58389014, -0.19435582, 0.7250215, 9.72160530090332, 0.7946875691413879, 2.174104928970337, -0.2688245177268982, -0.5833740830421448, 2.1087448596954346, -0.189697265625, -0.361328125, -0.68994140625, 0, 
306, 1003779713, 0.30911294, 0.5839109, -0.19458848, 0.72500545, 9.661843299865723, 0.7202569842338562, 2.088536024093628, -0.5497830510139465, -0.5971921682357788, 1.5540506839752197, -0.1904296875, -0.359375, -0.686767578125, 0, 
307, 1003796380, 0.30905035, 0.5839295, -0.1947809, 0.7249655, 9.606773376464844, 0.7575564384460449, 2.0733330249786377, -0.7282522916793823, -0.48041102290153503, 0.9222108721733093, -0.190673828125, -0.356689453125, -0.690185546875, 0, 
308, 1003813047, 0.30910116, 0.58392763, -0.1950199, 0.72488105, 9.586182594299316, 0.7724016308784485, 2.044930934906006, -1.5168544054031372, -0.5009268522262573, 0.48094242811203003, -0.18896484375, -0.35498046875, -0.68896484375, 0, 
309, 1003829714, 0.30921188, 0.5839152, -0.19526781, 0.72477716, 9.613253593444824, 0.7505252361297607, 2.05863618850708, -1.851407527923584, -0.46104779839515686, 0.1950278878211975, -0.1962890625, -0.358642578125, -0.68896484375, 0, 
310, 1003846381, 0.30942073, 0.5838837, -0.19548582, 0.7246544, 9.630208969116211, 0.7714130878448486, 2.0927371978759766, -2.163396120071411, -0.2432246059179306, -0.425727903842926, -0.1923828125, -0.35595703125, -0.688720703125, 0, 
311, 1003863048, 0.3097794, 0.5837901, -0.19576065, 0.72450244, 9.639348030090332, 0.7836494445800781, 2.0839951038360596, -3.2203099727630615, 0.03229121118783951, -0.9185224771499634, -0.193115234375, -0.3583984375, -0.688720703125, 0, 
312, 1003879715, 0.3102867, 0.5836578, -0.19614537, 0.7242878, 9.636180877685547, 0.7082054615020752, 2.077075719833374, -4.531303882598877, -0.05851862579584122, -1.2947287559509277, -0.1923828125, -0.353759765625, -0.687744140625, 0, 
313, 1003896382, 0.31079015, 0.58352906, -0.19648178, 0.7240848, 9.647233009338379, 0.6485862731933594, 2.0439605712890625, -4.251086711883545, 0.07202289998531342, -1.446547508239746, -0.191650390625, -0.354248046875, -0.688232421875, 0, 
314, 1003913049, 0.31117916, 0.58345056, -0.1965891, 0.72395176, 9.698859214782715, 0.6562429666519165, 2.0481841564178467, -2.450988292694092, 0.4408330023288727, -1.7138162851333618, -0.192138671875, -0.353515625, -0.68896484375, 0, 
315, 1003929716, 0.31161198, 0.5833503, -0.19665958, 0.72382706, 9.703859329223633, 0.7736768126487732, 2.1188580989837646, -2.47625470161438, 0.7255693674087524, -2.031759262084961, -0.19091796875, -0.353271484375, -0.690673828125, 0, 
316, 1003946383, 0.3122378, 0.58315355, -0.1969562, 0.72363526, 9.709041595458984, 0.8388217687606812, 2.13883113861084, -4.673786640167236, 0.7164512872695923, -2.094843626022339, -0.192138671875, -0.352294921875, -0.690673828125, 0, 
317, 1003963050, 0.3129247, 0.5828922, -0.19740824, 0.723426, 9.693041801452637, 0.7262309193611145, 2.1563658714294434, -5.853084564208984, 0.7181801199913025, -1.71901535987854, -0.19140625, -0.349853515625, -0.69091796875, 0, 
318, 1003979717, 0.31339765, 0.5827446, -0.1976594, 0.7232714, 9.70197868347168, 0.6611925363540649, 2.1065309047698975, -3.6797192096710205, 0.5141494274139404, -1.4953014850616455, -0.190185546875, -0.34765625, -0.688232421875, 0, 
319, 1003996384, 0.3136582, 0.58269674, -0.19767411, 0.72319305, 9.712636947631836, 0.7793410420417786, 2.178222417831421, -1.3336083889007568, 0.54679274559021, -1.3580429553985596, -0.1884765625, -0.35009765625, -0.69189453125, 0, 
320, 1004013051, 0.31395066, 0.5826018, -0.19788624, 0.7230846, 9.709636688232422, 0.9017481803894043, 2.213308334350586, -2.591973304748535, 0.27821794152259827, -0.7252428531646729, -0.18896484375, -0.3486328125, -0.68994140625, 0, 
321, 1004029718, 0.31442302, 0.58239627, -0.19844691, 0.7228912, 9.745089530944824, 0.8468394875526428, 2.155399799346924, -5.395411968231201, -0.02033008076250553, -0.24818065762519836, -0.186767578125, -0.349365234375, -0.69140625, 0, 
322, 1004046385, 0.3148764, 0.582177, -0.19898589, 0.72272253, 9.760329246520996, 0.6889524459838867, 2.11568546295166, -5.214150905609131, 0.1681986153125763, -0.1656949818134308, -0.186767578125, -0.345947265625, -0.692138671875, 0, 
323, 1004063052, 0.31521073, 0.5820174, -0.19928311, 0.7226233, 9.751720428466797, 0.6128668785095215, 2.1433212757110596, -3.2773303985595703, 0.5169283151626587, -0.46246927976608276, -0.187255859375, -0.34423828125, -0.69287109375, 0, 
324, 1004079719, 0.31540293, 0.5819107, -0.19940975, 0.7225904, 9.690705299377441, 0.7028489112854004, 2.1265103816986084, -1.6900858879089355, 0.6932333111763, -0.3793945014476776, -0.1884765625, -0.344970703125, -0.690673828125, 0, 
325, 1004096386, 0.31561488, 0.5817632, -0.1996047, 0.72256285, 9.660860061645508, 0.799910306930542, 2.1633996963500977, -2.195232629776001, 0.7985911965370178, -0.13670137524604797, -0.18994140625, -0.34375, -0.694091796875, 0, 
326, 1004113053, 0.31595922, 0.58154434, -0.1998972, 0.72250766, 9.660609245300293, 0.7704512476921082, 2.1452341079711914, -3.3859922885894775, 1.0140067338943481, -0.35882750153541565, -0.18994140625, -0.341064453125, -0.69189453125, 0, 
327, 1004129720, 0.31635103, 0.5812886, -0.2002165, 0.72245365, 9.615530014038086, 0.7201988101005554, 2.1561737060546875, -3.784052848815918, 1.2101106643676758, -0.4294161796569824, -0.185546875, -0.342041015625, -0.69384765625, 0, 
328, 1004146387, 0.3166764, 0.5810838, -0.20046963, 0.7224056, 9.628593444824219, 0.6856769323348999, 2.1855361461639404, -3.0078463554382324, 1.0426416397094727, -0.4025227427482605, -0.187255859375, -0.34130859375, -0.6923828125, 0, 
329, 1004163054, 0.31688148, 0.5809287, -0.20051675, 0.7224273, 9.67371940612793, 0.6550306677818298, 2.12976336479187, -1.3543545007705688, 1.3506343364715576, -0.5597334504127502, -0.18798828125, -0.340576171875, -0.69384765625, 0, 
330, 1004179721, 0.31701422, 0.5808165, -0.20041619, 0.7224873, 9.649176597595215, 0.6936789155006409, 2.1292009353637695, -0.17391665279865265, 1.5154521465301514, -0.7635466456413269, -0.18359375, -0.341064453125, -0.69140625, 0, 
331, 1004196388, 0.31721193, 0.58065695, -0.2003551, 0.7225457, 9.614285469055176, 0.7075514793395996, 2.1340136528015137, -0.7218618988990784, 1.7520365715026855, -0.8620145320892334, -0.1865234375, -0.339599609375, -0.692626953125, 0, 
332, 1004213055, 0.31750238, 0.5804595, -0.20032836, 0.7225841, 9.588711738586426, 0.6638796329498291, 2.1894419193267822, -1.4359568357467651, 1.9085173606872559, -1.1941217184066772, -0.184814453125, -0.33740234375, -0.693603515625, 0, 
333, 1004229722, 0.31784612, 0.580264, -0.2002807, 0.7226032, 9.559813499450684, 0.635185718536377, 2.187311887741089, -1.4796136617660522, 1.9502406120300293, -1.5632262229919434, -0.18310546875, -0.33837890625, -0.690673828125, 0, 
334, 1004246389, 0.31817895, 0.5800838, -0.20016031, 0.722635, 9.574760437011719, 0.6212419271469116, 2.17909574508667, -1.2012548446655273, 2.0504372119903564, -1.8433654308319092, -0.183837890625, -0.3369140625, -0.692626953125, 0, 
335, 1004263056, 0.31844327, 0.57995814, -0.19994792, 0.722678, 9.609489440917969, 0.6300904154777527, 2.1748995780944824, -0.25551870465278625, 1.9406999349594116, -1.9001230001449585, -0.189453125, -0.340087890625, -0.6953125, 0, 
336, 1004279723, 0.3186477, 0.5798499, -0.1997137, 0.72273946, 9.631834983825684, 0.6362959146499634, 2.1503782272338867, 0.24585631489753723, 1.904624342918396, -1.64901602268219, -0.18359375, -0.33544921875, -0.695068359375, 0, 
337, 1004296390, 0.31876782, 0.5797903, -0.1994173, 0.7228162, 9.63232135772705, 0.5857952833175659, 2.149610757827759, 1.0500950813293457, 1.7496675252914429, -1.5049316883087158, -0.18310546875, -0.340087890625, -0.695068359375, 0, 
338, 1004313057, 0.31881192, 0.5797791, -0.19913839, 0.72288257, 9.617125511169434, 0.5872382521629333, 2.155151605606079, 1.2529093027114868, 1.317030668258667, -1.1790486574172974, -0.1845703125, -0.3388671875, -0.692626953125, 0, 
339, 1004329724, 0.31877545, 0.5798029, -0.1988744, 0.7229523, 9.63306999206543, 0.5627055764198303, 2.1311025619506836, 1.6020102500915527, 1.0168753862380981, -0.7576556205749512, -0.181884765625, -0.33544921875, -0.69384765625, 0, 
340, 1004346391, 0.31871563, 0.5798447, -0.19861902, 0.72301537, 9.624940872192383, 0.5488683581352234, 2.143740177154541, 1.6873133182525635, 0.8552720546722412, -0.6489553451538086, -0.181640625, -0.33984375, -0.69580078125, 0, 
341, 1004363058, 0.31855375, 0.5799441, -0.19827923, 0.72310036, 9.624542236328125, 0.47621747851371765, 2.0677688121795654, 2.667537212371826, 0.7045285701751709, -0.5143350958824158, -0.18212890625, -0.338623046875, -0.6962890625, 0, 
342, 1004379725, 0.31805107, 0.5802371, -0.19760159, 0.72327197, 9.652722358703613, 0.4229850172996521, 1.9914464950561523, 6.394621849060059, 0.3839344382286072, -0.2062014937400818, -0.182373046875, -0.339111328125, -0.693359375, 0, 
343, 1004396392, 0.31712335, 0.5807327, -0.19664, 0.7235435, 9.655461311340332, 0.4869655668735504, 1.9646004438400269, 9.965226173400879, -0.18728654086589813, 0.6762396097183228, -0.183349609375, -0.342041015625, -0.692626953125, 0, 
344, 1004413059, 0.31577447, 0.5814195, -0.19546928, 0.72389907, 9.617241859436035, 0.5434389114379883, 1.9723838567733765, 13.119985580444336, -0.9196951389312744, 1.8262122869491577, -0.18505859375, -0.341552734375, -0.693115234375, 0, 
345, 1004429726, 0.31404904, 0.5822682, -0.19418697, 0.72431254, 9.640421867370605, 0.6467676162719727, 1.983863353729248, 15.630607604980469, -1.7486891746520996, 3.1625430583953857, -0.1875, -0.347900390625, -0.690673828125, 0, 
346, 1004446393, 0.31205243, 0.5832211, -0.19289637, 0.7247535, 9.63763427734375, 0.7117003798484802, 1.990799903869629, 16.9737606048584, -2.501281499862671, 4.381582260131836, -0.185546875, -0.348388671875, -0.68896484375, 0, 
347, 1004463060, 0.31008434, 0.5841353, -0.19177842, 0.72515863, 9.606184959411621, 0.8268044590950012, 2.0576834678649902, 15.909614562988281, -2.774902105331421, 4.917105197906494, -0.18896484375, -0.350830078125, -0.690185546875, 0, 
348, 1004479727, 0.3082599, 0.5849069, -0.19113696, 0.72548395, 9.624356269836426, 0.8428406119346619, 2.0308005809783936, 12.644001007080078, -3.1987149715423584, 6.158104419708252, -0.1923828125, -0.35107421875, -0.68994140625, 0, 
349, 1004496394, 0.306476, 0.58557045, -0.19084235, 0.7257818, 9.668539047241211, 0.7828183770179749, 2.040030002593994, 10.411096572875977, -3.4582738876342773, 7.416712760925293, -0.1904296875, -0.3544921875, -0.6884765625, 0, 
350, 1004513061, 0.30456883, 0.58622426, -0.1906012, 0.7261203, 9.757036209106445, 0.7145435810089111, 2.061922073364258, 10.704989433288574, -3.5143659114837646, 8.35384464263916, -0.194091796875, -0.353759765625, -0.68896484375, 0, 
351, 1004529728, 0.3024692, 0.5869103, -0.1903203, 0.726517, 9.725972175598145, 0.7167417407035828, 2.0922019481658936, 11.868654251098633, -3.6028459072113037, 9.24534797668457, -0.19677734375, -0.354736328125, -0.6865234375, 0, 
352, 1004546395, 0.3003217, 0.5875334, -0.19019118, 0.72693795, 9.669764518737793, 0.8009961843490601, 2.127286672592163, 11.16281795501709, -3.572315216064453, 10.216862678527832, -0.199462890625, -0.357421875, -0.686279296875, 0, 
353, 1004563062, 0.29819924, 0.5880732, -0.19019783, 0.7273734, 9.64905071258545, 0.6990476846694946, 2.1740126609802246, 10.222098350524902, -3.3468072414398193, 10.779009819030762, -0.19921875, -0.358642578125, -0.68505859375, 0, 
354, 1004579729, 0.29623705, 0.58851933, -0.1903724, 0.72776884, 9.6244478225708, 0.7549529075622559, 2.1837821006774902, 8.49659538269043, -3.1776223182678223, 10.697662353515625, -0.20068359375, -0.3544921875, -0.686279296875, 0, 
355, 1004596396, 0.29465026, 0.5887266, -0.19100726, 0.72807884, 9.517742156982422, 0.8167115449905396, 2.245347023010254, 4.102016448974609, -2.7749130725860596, 10.828951835632324, -0.205078125, -0.353515625, -0.68798828125, 0, 
356, 1004613063, 0.29339105, 0.58869857, -0.19211723, 0.72831804, 9.48254108428955, 0.7453200221061707, 2.2391324043273926, -0.17805317044258118, -2.4235198497772217, 11.280696868896484, -0.209228515625, -0.351806640625, -0.68701171875, 0, 
357, 1004629730, 0.29229516, 0.58859, -0.19344017, 0.72849613, 9.481204986572266, 0.6697590947151184, 2.221388339996338, -2.1689162254333496, -2.4897665977478027, 11.306563377380371, -0.207275390625, -0.353271484375, -0.682861328125, 0, 
358, 1004646397, 0.291234, 0.5884871, -0.19479737, 0.7286425, 9.50277042388916, 0.6294638514518738, 2.220487594604492, -2.529850721359253, -2.675215721130371, 11.198800086975098, -0.211181640625, -0.348388671875, -0.683837890625, 0, 
359, 1004663064, 0.2902461, 0.5883058, -0.19638003, 0.72875834, 9.502822875976562, 0.6555355191230774, 2.190534830093384, -4.12178373336792, -2.761812448501587, 11.79984188079834, -0.2109375, -0.345458984375, -0.68408203125, 0, 
360, 1004679731, 0.28921974, 0.5880879, -0.19802457, 0.72889715, 9.527247428894043, 0.5100442171096802, 2.187739372253418, -4.331718444824219, -2.6680445671081543, 12.33813190460205, -0.210205078125, -0.344970703125, -0.686279296875, 0, 
361, 1004696398, 0.28805307, 0.58789015, -0.19957969, 0.72909445, 9.57807731628418, 0.39803051948547363, 2.119009017944336, -3.177328109741211, -2.5486254692077637, 12.775495529174805, -0.218017578125, -0.342529296875, -0.68359375, 0, 
362, 1004713065, 0.28637663, 0.5879118, -0.20052384, 0.7294782, 9.604438781738281, 0.16400519013404846, 2.004279851913452, 2.628082275390625, -2.388110399246216, 12.927376747131348, -0.21630859375, -0.33935546875, -0.6845703125, 0, 
363, 1004729732, 0.28398865, 0.58825463, -0.2006226, 0.73010796, 9.612601280212402, 0.2335885912179947, 1.9986554384231567, 10.717004776000977, -2.320519208908081, 13.11411190032959, -0.21728515625, -0.335693359375, -0.68310546875, 0, 
364, 1004746399, 0.2812267, 0.5887021, -0.2004493, 0.7308638, 9.646881103515625, 0.38098883628845215, 2.0142769813537598, 13.985333442687988, -2.3195343017578125, 13.991789817810059, -0.217529296875, -0.342041015625, -0.682861328125, 0, 
365, 1004763066, 0.27831405, 0.58915514, -0.20030066, 0.7316539, 9.654492378234863, 0.3384702205657959, 1.9934096336364746, 14.528327941894531, -2.4658217430114746, 14.907113075256348, -0.22412109375, -0.341552734375, -0.6806640625, 0, 
366, 1004779733, 0.27533072, 0.58961713, -0.20012084, 0.7324593, 9.640332221984863, 0.22137778997421265, 1.9517525434494019, 15.007377624511719, -2.487771987915039, 15.151768684387207, -0.225341796875, -0.339599609375, -0.68017578125, 0, 
367, 1004796400, 0.2721383, 0.5901988, -0.19966494, 0.7333079, 9.683810234069824, 0.06870925426483154, 1.8803255558013916, 17.53708839416504, -2.6790359020233154, 15.001245498657227, -0.230712890625, -0.343505859375, -0.68017578125, 0, 
368, 1004813067, 0.26884443, 0.5908444, -0.19890383, 0.7342091, 9.773982048034668, 0.1444673240184784, 1.900505781173706, 19.678451538085938, -2.3543238639831543, 14.279013633728027, -0.229248046875, -0.344482421875, -0.6787109375, 0, 
369, 1004829734, 0.26583797, 0.59128577, -0.19848247, 0.7350622, 9.707311630249023, 0.3357522785663605, 1.9197666645050049, 16.353965759277344, -1.752199649810791, 14.395858764648438, -0.232666015625, -0.3466796875, -0.677978515625, 0, 
370, 1004846401, 0.26314706, 0.59156233, -0.1984932, 0.73580474, 9.680938720703125, 0.1858065277338028, 1.882380723953247, 12.436813354492188, -1.7286481857299805, 14.583224296569824, -0.232421875, -0.34619140625, -0.676513671875, 0, 
371, 1004863068, 0.2605746, 0.59182316, -0.19858365, 0.7364857, 9.700136184692383, 0.08765262365341187, 1.8215469121932983, 11.440807342529297, -1.8811715841293335, 14.218969345092773, -0.231689453125, -0.345947265625, -0.67236328125, 0, 
372, 1004879735, 0.2580011, 0.59210926, -0.1986907, 0.73713255, 9.723403930664062, 0.12144825607538223, 1.8425970077514648, 11.362295150756836, -2.1775622367858887, 14.195589065551758, -0.235595703125, -0.34326171875, -0.67431640625, 0, 
373, 1004896402, 0.2554251, 0.5924129, -0.1988684, 0.7377376, 9.817955017089844, 0.14009134471416473, 1.8657324314117432, 10.992920875549316, -2.563021183013916, 14.399209022521973, -0.240966796875, -0.343505859375, -0.676025390625, 0, 
374, 1004913069, 0.2530238, 0.5926403, -0.1992922, 0.73826784, 9.77792739868164, 0.20681865513324738, 1.9060598611831665, 8.79594898223877, -2.6736295223236084, 14.49071979522705, -0.24169921875, -0.345703125, -0.673828125, 0, 
375, 1004929736, 0.25095454, 0.59274596, -0.20010886, 0.7386684, 9.741559982299805, 0.20843693614006042, 1.8979840278625488, 5.062661647796631, -2.812424421310425, 14.352192878723145, -0.241943359375, -0.344482421875, -0.67431640625, 0, 
376, 1004946403, 0.24917546, 0.59280396, -0.20117325, 0.73893505, 9.747912406921387, 0.09677808731794357, 1.868151068687439, 2.3554093837738037, -3.14532470703125, 13.72845458984375, -0.2421875, -0.34326171875, -0.673583984375, 0, 
377, 1004963070, 0.24751037, 0.59287155, -0.2021468, 0.7391744, 9.82426929473877, 0.005517791025340557, 1.836031436920166, 2.332613945007324, -2.990483045578003, 12.723858833312988, -0.245361328125, -0.34130859375, -0.673583984375, 0, 
378, 1004979737, 0.24585555, 0.5929856, -0.20288378, 0.73943347, 9.834617614746094, 0.018732061609625816, 1.826263189315796, 3.5999302864074707, -2.7287590503692627, 11.679818153381348, -0.248046875, -0.339599609375, -0.670166015625, 0, 
379, 1004996404, 0.24427004, 0.5930801, -0.20357083, 0.739694, 9.829297065734863, 0.07969212532043457, 1.8597066402435303, 3.5429036617279053, -2.442267894744873, 11.157498359680176, -0.250732421875, -0.340087890625, -0.67236328125, 0, 
380, 1005013071, 0.24281296, 0.5931486, -0.20428233, 0.73992264, 9.802286148071289, 0.07783892005681992, 1.8648930788040161, 2.8072805404663086, -2.3002965450286865, 10.594274520874023, -0.24951171875, -0.3369140625, -0.6689453125, 0, 
381, 1005029738, 0.2414235, 0.5932186, -0.20493971, 0.7401395, 9.799856185913086, -0.0045241983607411385, 1.8013122081756592, 2.792630195617676, -2.1723227500915527, 10.013915061950684, -0.25146484375, -0.338134765625, -0.669677734375, 0, 
382, 1005046405, 0.23997186, 0.5933661, -0.20532179, 0.7403874, 9.809659957885742, -0.05932318791747093, 1.777618646621704, 4.62089204788208, -2.068847417831421, 9.154777526855469, -0.254638671875, -0.337890625, -0.671142578125, 0, 
383, 1005063072, 0.23845816, 0.5935896, -0.20545918, 0.7406591, 9.8201322555542, 0.007934736087918282, 1.7891300916671753, 6.280633449554443, -2.0426199436187744, 8.409612655639648, -0.254638671875, -0.3359375, -0.6669921875, 0, 
384, 1005079739, 0.23698643, 0.5938143, -0.2054792, 0.7409457, 9.813867568969727, 0.028264259919524193, 1.7701748609542847, 6.730276584625244, -1.735638976097107, 7.745091438293457, -0.256103515625, -0.33642578125, -0.668701171875, 0, 
385, 1005096406, 0.23549259, 0.59411675, -0.2052111, 0.74125373, 9.864158630371094, -0.07248332351446152, 1.705185890197754, 8.446174621582031, -1.6042200326919556, 6.614891529083252, -0.256591796875, -0.336669921875, -0.6669921875, 0, 
386, 1005113073, 0.23391479, 0.594503, -0.20450336, 0.7416391, 9.922981262207031, -0.060261670500040054, 1.7310378551483154, 11.274794578552246, -1.1206908226013184, 5.258060455322266, -0.258056640625, -0.335693359375, -0.66650390625, 0, 
387, 1005129740, 0.23245533, 0.5948898, -0.20361632, 0.74203193, 9.945133209228516, 0.03974979370832443, 1.7928481101989746, 11.717841148376465, -0.6351376175880432, 3.938645601272583, -0.26123046875, -0.339111328125, -0.66943359375, 0, 
388, 1005146407, 0.23135905, 0.5952161, -0.20292409, 0.74230236, 9.989547729492188, 0.09229212999343872, 1.794674277305603, 8.970273971557617, -0.6304247379302979, 2.7784790992736816, -0.257080078125, -0.3408203125, -0.66650390625, 0, 
389, 1005163074, 0.23061757, 0.59547836, -0.20253012, 0.74243045, 10.05595588684082, 0.004148025531321764, 1.7808722257614136, 5.695573806762695, -0.8635642528533936, 2.0609130859375, -0.26025390625, -0.342529296875, -0.6689453125, 0, 
390, 1005179741, 0.23004125, 0.59573656, -0.20225279, 0.74247766, 10.054612159729004, -0.08104753494262695, 1.7332289218902588, 4.304919242858887, -1.1289374828338623, 1.5798553228378296, -0.2578125, -0.34375, -0.66650390625, 0, 
391, 1005196408, 0.22950122, 0.59604466, -0.20190085, 0.7424934, 10.04664421081543, -0.11814939975738525, 1.7208772897720337, 4.572711944580078, -1.3407158851623535, 0.9763175845146179, -0.25830078125, -0.341552734375, -0.666259765625, 0, 
392, 1005213075, 0.22900246, 0.5963762, -0.20150033, 0.74249, 9.947030067443848, -0.064129538834095, 1.7316151857376099, 4.662484169006348, -1.4020839929580688, 0.5087066292762756, -0.25927734375, -0.3427734375, -0.665283203125, 0, 
393, 1005229742, 0.22876573, 0.59661806, -0.20133619, 0.742413, 9.829604148864746, 0.04176120087504387, 1.8081358671188354, 2.138173818588257, -1.255041480064392, 0.15397074818611145, -0.259033203125, -0.341552734375, -0.665771484375, 0, 
394, 1005246409, 0.2289644, 0.59673434, -0.20160927, 0.74218416, 9.73214054107666, 0.04200801998376846, 1.805134654045105, -2.2877073287963867, -1.3215066194534302, -0.3317677080631256, -0.259765625, -0.34228515625, -0.666015625, 0, 
395, 1005263076, 0.22961913, 0.59674925, -0.2021867, 0.74181277, 9.745368957519531, -0.058715105056762695, 1.7793797254562378, -6.0707550048828125, -1.2375097274780273, -1.4846211671829224, -0.2607421875, -0.34423828125, -0.664794921875, 0, 
396, 1005279743, 0.23051742, 0.59670955, -0.20289175, 0.74137336, 9.80730152130127, -0.19343633949756622, 1.7247419357299805, -7.90152645111084, -1.101007103919983, -2.2284655570983887, -0.25927734375, -0.34228515625, -0.665283203125, 0, 
397, 1005296410, 0.23123305, 0.59674066, -0.20325741, 0.74102527, 9.818758964538574, -0.3241676688194275, 1.6591789722442627, -5.183812141418457, -0.8027468919754028, -2.639613389968872, -0.2587890625, -0.33935546875, -0.664794921875, 0, 
398, 1005313077, 0.23186149, 0.5968282, -0.20333365, 0.74073774, 9.886186599731445, -0.15216262638568878, 1.713806390762329, -3.176954984664917, -0.5021050572395325, -3.3646576404571533, -0.258056640625, -0.3408203125, -0.666748046875, 0, 
399, 1005329744, 0.23269477, 0.5968462, -0.20353056, 0.7404075, 9.895365715026855, -0.10452670603990555, 1.7416965961456299, -4.803194046020508, -0.2262946218252182, -3.879216194152832, -0.2578125, -0.3408203125, -0.666015625, 0, 
400, 1005346411, 0.23367253, 0.59687096, -0.20392495, 0.7399711, 10.04684829711914, -0.19739922881126404, 1.7631745338439941, -6.538660526275635, -0.8100337386131287, -3.9783642292022705, -0.259033203125, -0.338623046875, -0.666015625, 0, 
401, 1005363078, 0.23469149, 0.5969116, -0.20436214, 0.7394951, 10.227840423583984, -0.23751814663410187, 1.7495003938674927, -6.955596923828125, -1.0623189210891724, -4.094504356384277, -0.254638671875, -0.335693359375, -0.6689453125, 0, 
402, 1005379745, 0.23583631, 0.59692687, -0.2048919, 0.73897153, 10.323655128479004, -0.19412238895893097, 1.7778844833374023, -8.052231788635254, -1.098957896232605, -4.392482757568359, -0.256591796875, -0.334228515625, -0.668701171875, 0, 
403, 1005396412, 0.23722304, 0.59679824, -0.2058595, 0.73836267, 10.159329414367676, -0.13809406757354736, 1.768784999847412, -11.622069358825684, -1.0858190059661865, -3.7567381858825684, -0.256103515625, -0.334716796875, -0.66845703125, 0, 
404, 1005413079, 0.23882017, 0.59652424, -0.2073292, 0.7376576, 9.878310203552246, -0.11984892934560776, 1.7237179279327393, -15.407390594482422, -1.2625855207443237, -2.710946798324585, -0.2568359375, -0.33251953125, -0.667724609375, 0, 
405, 1005429746, 0.24063857, 0.5961093, -0.20922376, 0.7368668, 9.585039138793945, -0.13368816673755646, 1.635454535484314, -18.825071334838867, -1.2808095216751099, -2.024667501449585, -0.25244140625, -0.328125, -0.66845703125, 0, 
406, 1005446413, 0.2426391, 0.595633, -0.2113661, 0.735984, 9.448524475097656, -0.16349008679389954, 1.6186323165893555, -21.054101943969727, -1.4937413930892944, -1.989027738571167, -0.2509765625, -0.326171875, -0.669189453125, 0, 
407, 1005463080, 0.24484245, 0.5951591, -0.21352619, 0.73501325, 9.52630615234375, -0.23378047347068787, 1.5169668197631836, -22.112180709838867, -1.6008286476135254, -3.08990216255188, -0.254150390625, -0.319580078125, -0.669677734375, 0, 
408, 1005479747, 0.24726859, 0.59469223, -0.21556082, 0.7339844, 9.707453727722168, -0.34315580129623413, 1.436760663986206, -22.453536987304688, -1.3330601453781128, -4.830801010131836, -0.255859375, -0.31689453125, -0.66845703125, 0, 
409, 1005496414, 0.24998166, 0.5942476, -0.21732649, 0.73290426, 9.797243118286133, -0.4397803246974945, 1.398780345916748, -22.28856658935547, -0.7662118077278137, -7.491838455200195, -0.255126953125, -0.31494140625, -0.670166015625, 0, 
410, 1005513081, 0.25297073, 0.5938183, -0.21874087, 0.731805, 9.871414184570312, -0.49095430970191956, 1.352842092514038, -21.689537048339844, 0.10085020959377289, -10.382109642028809, -0.249755859375, -0.30810546875, -0.670166015625, 0, 
411, 1005529748, 0.2561131, 0.5934059, -0.21970718, 0.73075616, 9.888165473937988, -0.5043415427207947, 1.2761448621749878, -19.953493118286133, 1.2396187782287598, -12.91968059539795, -0.24755859375, -0.307373046875, -0.670654296875, 0, 
412, 1005546415, 0.25920236, 0.59302795, -0.22024667, 0.7298107, 9.823617935180664, -0.389798104763031, 1.2716535329818726, -17.384296417236328, 2.1689510345458984, -14.267621994018555, -0.244140625, -0.30419921875, -0.67529296875, 0, 
413, 1005563082, 0.26212934, 0.5926494, -0.22050716, 0.7289937, 9.77778434753418, -0.2750413417816162, 1.3033570051193237, -15.128618240356445, 2.9566962718963623, -14.359953880310059, -0.24658203125, -0.3046875, -0.67333984375, 0, 
414, 1005579749, 0.26497403, 0.59220797, -0.22064844, 0.728281, 9.712931632995605, -0.14593754708766937, 1.3315380811691284, -14.106476783752441, 3.7956795692443848, -14.136957168579102, -0.239013671875, -0.304443359375, -0.675048828125, 0, 
415, 1005596416, 0.26780993, 0.5916977, -0.2207605, 0.7276241, 9.606803894042969, -0.07843583077192307, 1.3097538948059082, -13.971715927124023, 4.414150238037109, -14.005409240722656, -0.239990234375, -0.30126953125, -0.67822265625, 0, 
416, 1005613083, 0.27086195, 0.5910109, -0.22105163, 0.72696364, 9.582849502563477, 0.03504175692796707, 1.358812689781189, -16.051908493041992, 5.289798736572266, -14.084616661071777, -0.236572265625, -0.298095703125, -0.677978515625, 0, 
417, 1005629750, 0.2740924, 0.59014, -0.22143213, 0.7263445, 9.663235664367676, -0.07766707986593246, 1.3162975311279297, -17.54724884033203, 6.487581729888916, -14.260534286499023, -0.239501953125, -0.2958984375, -0.68115234375, 0, 
418, 1005646417, 0.27725753, 0.5892894, -0.22145881, 0.7258254, 9.858431816101074, -0.1291612833738327, 1.303224802017212, -15.246467590332031, 7.369427680969238, -15.190337181091309, -0.23291015625, -0.29638671875, -0.681884765625, 0, 
419, 1005663084, 0.28051093, 0.5884511, -0.22141789, 0.72526777, 10.15095329284668, 0.07005131244659424, 1.3841111660003662, -15.13172435760498, 7.429874897003174, -15.95365047454834, -0.22900390625, -0.2939453125, -0.683837890625, 0, 
420, 1005679751, 0.28393224, 0.5875617, -0.22161373, 0.7245974, 10.570467948913574, 0.10781600326299667, 1.5037035942077637, -17.732328414916992, 7.02158260345459, -16.080331802368164, -0.2275390625, -0.292236328125, -0.688232421875, 0, 
421, 1005696418, 0.28752634, 0.5866523, -0.22214188, 0.7237548, 10.899999618530273, 0.09897898882627487, 1.5716383457183838, -20.0965576171875, 6.059722423553467, -15.82760238647461, -0.22216796875, -0.289306640625, -0.686279296875, 0, 
422, 1005713085, 0.2910041, 0.58587927, -0.22259592, 0.7228509, 10.832376480102539, -0.02602365054190159, 1.652404546737671, -19.37051010131836, 5.0988078117370605, -15.943524360656738, -0.22216796875, -0.28564453125, -0.687744140625, 0, 
423, 1005729752, 0.29403305, 0.5854471, -0.22264998, 0.7219582, 10.461463928222656, -0.050643034279346466, 1.6845793724060059, -14.808154106140137, 3.5743610858917236, -15.804862022399902, -0.22021484375, -0.283935546875, -0.692138671875, 0, 
424, 1005746419, 0.29657578, 0.5853576, -0.22233121, 0.72108823, 9.966870307922363, 0.04558362811803818, 1.791987419128418, -9.844771385192871, 1.9989328384399414, -15.26610279083252, -0.219482421875, -0.283447265625, -0.68994140625, 0, 
425, 1005763086, 0.29877466, 0.58546746, -0.2218328, 0.7202444, 9.527502059936523, 0.19300615787506104, 1.845447301864624, -6.832493782043457, 0.9757421612739563, -14.464122772216797, -0.216552734375, -0.283447265625, -0.691650390625, 0, 
426, 1005779753, 0.30075276, 0.58569795, -0.2211247, 0.7194511, 9.305134773254395, 0.2024543434381485, 1.9618315696716309, -5.501721382141113, 0.6272042989730835, -14.524687767028809, -0.214111328125, -0.280029296875, -0.68994140625, 0, 
427, 1005796420, 0.3027478, 0.58595383, -0.22018279, 0.7186944, 9.238384246826172, 0.17789095640182495, 2.0262012481689453, -4.265792369842529, 1.1545830965042114, -15.50356674194336, -0.21728515625, -0.283203125, -0.691162109375, 0, 
428, 1005813087, 0.30472034, 0.58615315, -0.2189964, 0.71806043, 9.271672248840332, 0.2207702100276947, 2.140383243560791, -4.749693870544434, 2.281888723373413, -16.50146484375, -0.218505859375, -0.285888671875, -0.69189453125, 0, 
429, 1005829754, 0.30728292, 0.58604586, -0.21805634, 0.71734154, 9.48080825805664, 0.15295954048633575, 2.1887528896331787, -5.594696998596191, 4.045978546142578, -17.259347915649414, -0.211669921875, -0.284912109375, -0.692626953125, 0, 
430, 1005846421, 0.3098765, 0.58574355, -0.21696983, 0.71680236, 9.710512161254883, 0.15218088030815125, 2.243978500366211, -5.9334516525268555, 6.032079696655273, -17.533126831054688, -0.213134765625, -0.28466796875, -0.69482421875, 0, 
431, 1005863088, 0.3125438, 0.58519137, -0.21603535, 0.7163773, 9.82723617553711, 0.3162417411804199, 2.3891963958740234, -8.11648941040039, 7.445494651794434, -16.869321823120117, -0.211181640625, -0.284912109375, -0.6962890625, 0, 
432, 1005879755, 0.3153393, 0.58435756, -0.21556213, 0.71597534, 9.844320297241211, 0.39602187275886536, 2.468885898590088, -10.999383926391602, 8.154723167419434, -15.058207511901855, -0.2060546875, -0.286376953125, -0.69970703125, 0, 
433, 1005896422, 0.31774703, 0.583507, -0.21505444, 0.71575725, 9.79446029663086, 0.28619125485420227, 2.490384101867676, -10.447209358215332, 8.349609375, -13.231953620910645, -0.205322265625, -0.282470703125, -0.698974609375, 0, 
434, 1005913089, 0.31982064, 0.58270025, -0.21451572, 0.7156524, 9.596558570861816, 0.42259982228279114, 2.5788228511810303, -7.320084571838379, 8.270322799682617, -11.178153991699219, -0.20166015625, -0.279052734375, -0.699951171875, 0, 
435, 1005929756, 0.32204884, 0.5816867, -0.21460985, 0.7154495, 9.352170944213867, 0.6380863189697266, 2.6432883739471436, -8.895814895629883, 7.9682440757751465, -8.585273742675781, -0.19921875, -0.280029296875, -0.701416015625, 0, 
436, 1005946423, 0.32388955, 0.5805618, -0.21503128, 0.71540564, 9.269798278808594, 0.5569311380386353, 2.5869810581207275, -12.03621768951416, 7.567393779754639, -5.668216228485107, -0.19580078125, -0.2802734375, -0.700439453125, 0, 
437, 1005963090, 0.32514507, 0.5794558, -0.21539232, 0.7156242, 9.317991256713867, 0.3525972068309784, 2.483712673187256, -11.095420837402344, 7.586600303649902, -3.049468994140625, -0.196533203125, -0.273681640625, -0.703125, 0, 
438, 1005979757, 0.3261089, 0.5783499, -0.21565233, 0.71600187, 9.46890640258789, 0.3600321412086487, 2.4622552394866943, -6.3470025062561035, 8.267590522766113, -0.8932368159294128, -0.1953125, -0.274169921875, -0.703369140625, 0, 
439, 1005996424, 0.32642496, 0.57723755, -0.21575974, 0.7167228, 9.556507110595703, 0.5635559558868408, 2.4724090099334717, -3.3039050102233887, 8.967060089111328, 2.2496793270111084, -0.194091796875, -0.274169921875, -0.702880859375, 0, 
440, 1006013091, 0.32630515, 0.5760359, -0.21608101, 0.7176468, 9.540008544921875, 0.7499763369560242, 2.5024514198303223, -2.229426383972168, 9.105666160583496, 5.914923191070557, -0.187744140625, -0.267822265625, -0.7041015625, 0, 
441, 1006029758, 0.32556787, 0.57488084, -0.21664952, 0.71873546, 9.472692489624023, 0.8578365445137024, 2.545346260070801, -2.3780698776245117, 7.903930187225342, 9.761017799377441, -0.1884765625, -0.26806640625, -0.707763671875, 0, 
442, 1006046425, 0.32469708, 0.5736709, -0.21800345, 0.71968615, 9.477892875671387, 0.7991278171539307, 2.51878023147583, -2.708001136779785, 5.945455551147461, 14.243938446044922, -0.185791015625, -0.2646484375, -0.705810546875, 0, 
443, 1006063092, 0.32279798, 0.5726592, -0.21936868, 0.7209303, 9.503997802734375, 0.6798411011695862, 2.416707754135132, -0.9195034503936768, 4.298367500305176, 18.861536026000977, -0.184814453125, -0.260009765625, -0.70556640625, 0, 
444, 1006079759, 0.32073736, 0.5717507, -0.22091635, 0.72209764, 9.498014450073242, 0.6860216856002808, 2.4050703048706055, 2.0960569381713867, 3.0665109157562256, 20.958547592163086, -0.187744140625, -0.257080078125, -0.70654296875, 0, 
445, 1006096426, 0.31870487, 0.5709195, -0.22259864, 0.72313786, 9.499046325683594, 0.8208023309707642, 2.3293068408966064, 0.607918381690979, 1.8671941757202148, 20.7572021484375, -0.185791015625, -0.255859375, -0.705810546875, 0, 
446, 1006113093, 0.3166359, 0.5702575, -0.22410598, 0.7241028, 9.671914100646973, 0.6141718626022339, 2.15021014213562, -0.2754969000816345, 0.9178193807601929, 19.219524383544922, -0.187255859375, -0.2509765625, -0.704833984375, 0, 
447, 1006129760, 0.31474596, 0.56978226, -0.22526692, 0.72494024, 9.81295394897461, 0.3305480480194092, 2.0798895359039307, 2.6651453971862793, 0.6170874238014221, 16.895294189453125, -0.18896484375, -0.248779296875, -0.705078125, 0, 
448, 1006146427, 0.3124528, 0.56978196, -0.22557822, 0.72583514, 9.964325904846191, 0.22087670862674713, 2.0546345710754395, 8.549847602844238, -0.3642193675041199, 14.666369438171387, -0.190673828125, -0.246826171875, -0.703369140625, 0, 
449, 1006163094, 0.30983454, 0.570183, -0.22487852, 0.7268588, 9.87463665008545, 0.2600102424621582, 2.0678696632385254, 16.29380989074707, -0.17290516197681427, 12.08293628692627, -0.188232421875, -0.249267578125, -0.70556640625, 0, 
450, 1006179761, 0.30719954, 0.5708662, -0.22360772, 0.72783244, 9.588330268859863, 0.41255471110343933, 2.1464056968688965, 19.67136573791504, -0.5876778960227966, 9.363556861877441, -0.190185546875, -0.25146484375, -0.703125, 0, 
451, 1006196428, 0.30461136, 0.5717541, -0.22201574, 0.7287102, 9.3125581741333, 0.412483811378479, 2.1426727771759033, 21.355676651000977, -1.237038016319275, 7.345440864562988, -0.19287109375, -0.2529296875, -0.700927734375, 0, 
452, 1006213095, 0.3021944, 0.5728087, -0.21991755, 0.729524, 9.04799747467041, 0.4020841419696808, 2.184945583343506, 23.481306076049805, -1.0036290884017944, 4.111947059631348, -0.1923828125, -0.2578125, -0.7041015625, 0, 
453, 1006229762, 0.30031374, 0.5739235, -0.21760413, 0.730118, 8.898174285888672, 0.6520208120346069, 2.312429666519165, 22.264541625976562, -0.912383496761322, 0.0339881107211113, -0.19189453125, -0.261474609375, -0.701171875, 0, 
454, 1006246429, 0.29905477, 0.57501256, -0.21548685, 0.7304057, 8.98936653137207, 0.6791635751724243, 2.2805700302124023, 18.29534149169922, -1.4740190505981445, -2.909062385559082, -0.194580078125, -0.2666015625, -0.697998046875, 0, 
455, 1006263096, 0.29826364, 0.57609636, -0.21326615, 0.7305269, 9.18028736114502, 0.605806827545166, 2.3607120513916016, 16.72211456298828, -1.2034716606140137, -5.992501258850098, -0.19677734375, -0.271240234375, -0.699462890625, 0, 
456, 1006279763, 0.29794705, 0.57708454, -0.21116522, 0.7304865, 9.394184112548828, 0.7942086458206177, 2.449559450149536, 13.780336380004883, -0.919823169708252, -8.097097396850586, -0.195068359375, -0.275146484375, -0.7001953125, 0, 
457, 1006296430, 0.29817256, 0.5778301, -0.20944093, 0.73030144, 9.70896053314209, 0.7624644041061401, 2.4510951042175293, 9.023858070373535, -0.26507237553596497, -9.26539134979248, -0.19384765625, -0.27734375, -0.7001953125, 0, 
458, 1006313097, 0.29863736, 0.5784768, -0.20772642, 0.7300893, 10.09778881072998, 0.661637008190155, 2.407650947570801, 7.798686981201172, 0.44418853521347046, -10.330497741699219, -0.1943359375, -0.281005859375, -0.69873046875, 0, 
459, 1006329764, 0.29938245, 0.5789484, -0.20638336, 0.7297911, 10.285444259643555, 0.9264556169509888, 2.441269874572754, 4.34181547164917, 0.6164466738700867, -10.181673049926758, -0.193115234375, -0.284423828125, -0.697021484375, 0, 
460, 1006346431, 0.30055705, 0.57912076, -0.20584077, 0.72932464, 10.333088874816895, 0.9750961661338806, 2.485487699508667, -2.3288803100585938, 0.4034385681152344, -9.089700698852539, -0.19189453125, -0.284423828125, -0.701171875, 0, 
461, 1006363098, 0.30199054, 0.5791653, -0.20575953, 0.7287198, 10.202439308166504, 0.6703413724899292, 2.3971927165985107, -6.080643177032471, -0.09308299422264099, -8.633193016052246, -0.192138671875, -0.285888671875, -0.6982421875, 0, 
462, 1006379765, 0.30332422, 0.57931286, -0.2054436, 0.7281376, 10.018611907958984, 0.4985591173171997, 2.2572989463806152, -4.228677749633789, -0.17217503488063812, -9.152925491333008, -0.19091796875, -0.285888671875, -0.698486328125, 0, 
463, 1006396432, 0.3042364, 0.5796816, -0.20449354, 0.7277309, 9.781606674194336, 0.3495052456855774, 2.142787218093872, 1.4211211204528809, 0.15471355617046356, -9.492650985717773, -0.189697265625, -0.28662109375, -0.7001953125, 0, 
464, 1006413099, 0.30473882, 0.5802684, -0.20285289, 0.72751224, 9.577343940734863, 0.43839946389198303, 2.1343629360198975, 7.115993022918701, 0.6753688454627991, -10.140707969665527, -0.189208984375, -0.289794921875, -0.697998046875, 0, 
465, 1006429766, 0.30536762, 0.5807219, -0.20133281, 0.7273089, 9.34605598449707, 0.7677039504051208, 2.207385540008545, 6.05642032623291, 1.3526456356048584, -9.992202758789062, -0.1865234375, -0.289306640625, -0.698974609375, 0, 
466, 1006446433, 0.3065493, 0.58078897, -0.20059974, 0.7269605, 9.008801460266113, 0.8047059178352356, 2.204779624938965, 0.13043271005153656, 1.9228993654251099, -9.040318489074707, -0.1845703125, -0.29296875, -0.697021484375, 0, 
467, 1006463100, 0.3074684, 0.5807637, -0.19974506, 0.7268279, 8.831103324890137, 0.5721144080162048, 2.078472375869751, -1.963912010192871, 2.8045787811279297, -8.700054168701172, -0.18310546875, -0.294677734375, -0.6962890625, 0, 
468, 1006479767, 0.30881816, 0.58070725, -0.19891255, 0.7265291, 8.882575988769531, 0.44864580035209656, 1.9408458471298218, 0.23366475105285645, 3.2229881286621094, -9.86664867401123, -0.178955078125, -0.29296875, -0.69287109375, 0, 
469, 1006496434, 0.30985034, 0.5808112, -0.19745392, 0.72640437, 9.103360176086426, 0.4563910663127899, 1.8248307704925537, 2.7554028034210205, 3.7912063598632812, -11.318365097045898, -0.183349609375, -0.2958984375, -0.69970703125, 0, 
470, 1006513101, 0.31088853, 0.5809731, -0.19550438, 0.7263587, 9.434303283691406, 0.34328174591064453, 1.8207975625991821, 5.444405555725098, 4.877813816070557, -13.213722229003906, -0.176513671875, -0.29931640625, -0.695556640625, 0, 
471, 1006529768, 0.31178746, 0.58125854, -0.19293016, 0.7264332, 9.699708938598633, 0.35740771889686584, 1.8634254932403564, 7.785257816314697, 5.713611125946045, -15.427309036254883, -0.174072265625, -0.30322265625, -0.7001953125, 0, 
472, 1006546435, 0.31285274, 0.58149177, -0.19032, 0.726477, 9.807323455810547, 0.5206092596054077, 1.968881607055664, 8.352299690246582, 6.275183200836182, -16.066205978393555, -0.172607421875, -0.306396484375, -0.700927734375, 0, 
473, 1006563102, 0.31379756, 0.581681, -0.18792075, 0.72654265, 9.822463035583496, 0.6384108662605286, 2.0056111812591553, 8.886449813842773, 6.103116035461426, -14.187854766845703, -0.166015625, -0.310791015625, -0.6982421875, 0, 
474, 1006579769, 0.31449512, 0.5817779, -0.1859415, 0.72667277, 9.739462852478027, 0.7380480170249939, 1.9814770221710205, 9.073022842407227, 5.767407417297363, -10.61159896850586, -0.16552734375, -0.314697265625, -0.69873046875, 0, 
475, 1006596436, 0.31516084, 0.5816825, -0.18454334, 0.7268172, 9.421420097351074, 0.8518118858337402, 1.955983281135559, 9.153484344482422, 5.888221263885498, -6.912967205047607, -0.164794921875, -0.318115234375, -0.697021484375, 0, 
476, 1006613103, 0.31470644, 0.5815974, -0.18278915, 0.7275251, 9.17349910736084, 0.9998015761375427, 1.995866298675537, 5.675596237182617, 6.172456741333008, -4.567366123199463, -0.162353515625, -0.319580078125, -0.69921875, 0, 
477, 1006629770, 0.3148165, 0.58108985, -0.18197867, 0.728086, 9.217427253723145, 0.8851155042648315, 1.965345025062561, -0.42626574635505676, 6.60776948928833, -2.836164951324463, -0.16015625, -0.3212890625, -0.697998046875, 0, 
478, 1006646437, 0.31572866, 0.5802032, -0.18219595, 0.7283438, 9.408796310424805, 0.7882851958274841, 1.9896272420883179, -5.032569885253906, 6.68559455871582, -1.4802415370941162, -0.157470703125, -0.31787109375, -0.7001953125, 0, 
479, 1006663104, 0.31659174, 0.57927257, -0.18281278, 0.72855526, 9.68147087097168, 0.7222949862480164, 2.0245909690856934, -7.278881549835205, 5.765446186065674, 0.23082171380519867, -0.153076171875, -0.316162109375, -0.701904296875, 0, 
480, 1006679771, 0.31667286, 0.57865137, -0.1831917, 0.7289185, 9.956634521484375, 0.6350266933441162, 2.090205669403076, -4.578648090362549, 4.0586652755737305, 2.4071459770202637, -0.156494140625, -0.31689453125, -0.702880859375, 0, 
481, 1006696438, 0.3160987, 0.57841986, -0.18333863, 0.7293141, 10.072750091552734, 0.595787763595581, 2.1550912857055664, 1.3719444274902344, 2.074769973754883, 4.723623275756836, -0.15478515625, -0.312744140625, -0.703857421875, 0, 
482, 1006713105, 0.31476223, 0.5785549, -0.18317522, 0.7298259, 10.153382301330566, 0.6846370697021484, 2.224947214126587, 7.4839067459106445, 0.4984873831272125, 7.275099277496338, -0.155517578125, -0.314697265625, -0.70166015625, 0, 
483, 1006729772, 0.31296408, 0.57874995, -0.18302481, 0.73048216, 9.928584098815918, 0.8258594870567322, 2.328028917312622, 10.785118103027344, 0.30603355169296265, 10.235161781311035, -0.1572265625, -0.317626953125, -0.701416015625, 0, 
484, 1006746439, 0.31099, 0.57883894, -0.18316339, 0.73121965, 9.605484962463379, 1.0412118434906006, 2.4116358757019043, 9.096293449401855, 0.22025658190250397, 12.330385208129883, -0.156982421875, -0.31396484375, -0.703369140625, 0, 
485, 1006763106, 0.30970144, 0.57863563, -0.18416207, 0.7316766, 9.49953556060791, 1.0340059995651245, 2.3874800205230713, 6.1262431144714355, 0.1733597069978714, 13.582784652709961, -0.154052734375, -0.3154296875, -0.70458984375, 0, 
486, 1006779773, 0.30841854, 0.5783364, -0.18530002, 0.7321675, 9.500112533569336, 1.0326521396636963, 2.39052677154541, 3.719491481781006, 0.31104081869125366, 13.847860336303711, -0.15771484375, -0.313232421875, -0.700927734375, 0, 
487, 1006796440, 0.30663833, 0.57814914, -0.18584284, 0.7329252, 9.632465362548828, 0.8910539150238037, 2.3743765354156494, 3.8941571712493896, 0.8546451330184937, 12.818229675292969, -0.15576171875, -0.31298828125, -0.700927734375, 0, 
488, 1006813107, 0.3050967, 0.5779608, -0.18626228, 0.7336104, 9.761377334594727, 0.9220355749130249, 2.394038438796997, 4.986538410186768, 1.2905092239379883, 11.421385765075684, -0.156982421875, -0.311279296875, -0.700927734375, 0, 
489, 1006829774, 0.30485597, 0.5774525, -0.1873598, 0.73383105, 9.987529754638672, 0.8710931539535522, 2.4106647968292236, 4.605805397033691, 2.2330570220947266, 9.792981147766113, -0.16015625, -0.312255859375, -0.701416015625, 0, 
490, 1006846441, 0.30319816, 0.57717335, -0.18714349, 0.7347921, 10.082588195800781, 0.8299213647842407, 2.4138906002044678, 3.6157076358795166, 3.5038182735443115, 8.638154983520508, -0.15771484375, -0.31005859375, -0.704345703125, 0, 
491, 1006863108, 0.3024508, 0.5765926, -0.18749015, 0.7354674, 10.164628982543945, 0.8236842155456543, 2.389697313308716, 3.072334051132202, 4.552953243255615, 8.11527156829834, -0.155517578125, -0.309326171875, -0.702880859375, 0, 
492, 1006879775, 0.30164382, 0.5759349, -0.18770298, 0.7362594, 10.295398712158203, 0.8598861694335938, 2.3718655109405518, 2.9450645446777344, 5.505528450012207, 7.9218831062316895, -0.15576171875, -0.306884765625, -0.703857421875, 0, 
493, 1006896442, 0.30088454, 0.5751972, -0.18797298, 0.73707736, 10.30590534210205, 0.8753031492233276, 2.426295280456543, 2.6619420051574707, 5.984614372253418, 8.165382385253906, -0.154296875, -0.308837890625, -0.700439453125, 0, 
494, 1006913109, 0.3000705, 0.57438475, -0.18845919, 0.73791826, 10.223726272583008, 0.8988654613494873, 2.4277846813201904, 1.4388835430145264, 5.915087699890137, 9.379334449768066, -0.154052734375, -0.308837890625, -0.70166015625, 0, 
495, 1006929776, 0.2991473, 0.57345796, -0.18901937, 0.73887, 10.13465404510498, 0.8239881992340088, 2.3857784271240234, 0.1702605038881302, 6.532714366912842, 10.235172271728516, -0.154052734375, -0.302490234375, -0.706787109375, 0, 
496, 1006946443, 0.2980651, 0.57253075, -0.189527, 0.7398955, 9.875764846801758, 0.5474468469619751, 2.36379337310791, 1.027313232421875, 6.718394756317139, 10.949986457824707, -0.153076171875, -0.300537109375, -0.70361328125, 0, 
497, 1006963110, 0.29669628, 0.5717559, -0.18969639, 0.74100083, 9.641732215881348, 0.4781680405139923, 2.379641532897949, 4.477051734924316, 6.594147682189941, 11.09578800201416, -0.15087890625, -0.30029296875, -0.7041015625, 0, 
498, 1006979777, 0.2950706, 0.5710561, -0.18958122, 0.7422181, 9.417877197265625, 0.48504963517189026, 2.4291317462921143, 7.255942344665527, 6.899041652679443, 11.420915603637695, -0.14990234375, -0.2998046875, -0.707763671875, 0, 
499, 1006996444, 0.29331347, 0.5704491, -0.18923889, 0.7434675, 9.336773872375488, 0.5317859053611755, 2.448500633239746, 9.067927360534668, 6.835599899291992, 11.11376953125, -0.152587890625, -0.299072265625, -0.705078125, 0, 
500, 1007013111, 0.29170266, 0.56986994, -0.18875915, 0.7446664, 9.351103782653809, 0.5378831028938293, 2.4727976322174072, 9.270807266235352, 6.967006206512451, 9.71307373046875, -0.148681640625, -0.297119140625, -0.704345703125, 0, 
501, 1007029778, 0.29040954, 0.5692156, -0.18833072, 0.74578, 9.381952285766602, 0.48908519744873047, 2.467782735824585, 7.35320520401001, 7.3158369064331055, 8.167574882507324, -0.149658203125, -0.298095703125, -0.7060546875, 0, 
502, 1007046445, 0.289381, 0.56860495, -0.18786949, 0.7467613, 9.399985313415527, 0.32708731293678284, 2.4929089546203613, 6.509419918060303, 6.989721775054932, 6.394623756408691, -0.145751953125, -0.29638671875, -0.7080078125, 0, 
503, 1007063112, 0.28837946, 0.5681425, -0.18707408, 0.74769974, 9.468955039978027, 0.3303579092025757, 2.527543544769287, 8.342418670654297, 6.759206771850586, 4.664433002471924, -0.14697265625, -0.299072265625, -0.706787109375, 0, 
504, 1007079779, 0.2873665, 0.56787837, -0.18593937, 0.74857306, 9.521576881408691, 0.4815957844257355, 2.6048223972320557, 10.435131072998047, 6.143465042114258, 3.009006977081299, -0.146240234375, -0.29931640625, -0.708740234375, 0, 
505, 1007096446, 0.28645024, 0.56774354, -0.18488503, 0.74928737, 9.562090873718262, 0.6334390640258789, 2.582245111465454, 9.686713218688965, 4.820337295532227, 2.341898202896118, -0.148193359375, -0.300048828125, -0.708740234375, 0, 
506, 1007113113, 0.28571072, 0.5676707, -0.1838856, 0.74987066, 9.585479736328125, 0.5298501253128052, 2.6001834869384766, 8.693618774414062, 4.107753276824951, 1.318913459777832, -0.144287109375, -0.302734375, -0.707275390625, 0, 
507, 1007129780, 0.2851879, 0.5676488, -0.18284522, 0.7503403, 9.551959991455078, 0.5058204531669617, 2.5747408866882324, 8.01623821258545, 3.756781578063965, -0.24617010354995728, -0.142333984375, -0.30126953125, -0.709716796875, 0, 
508, 1007146447, 0.28492615, 0.5675597, -0.1818586, 0.7507468, 9.470626831054688, 0.6045203804969788, 2.640113115310669, 6.508674621582031, 4.079847812652588, -1.4218956232070923, -0.140869140625, -0.30322265625, -0.710205078125, 0, 
509, 1007163114, 0.28522995, 0.5673086, -0.18124634, 0.75096923, 9.382789611816406, 0.7375767230987549, 2.696291923522949, 1.8148518800735474, 4.1698503494262695, -3.0394530296325684, -0.140625, -0.30419921875, -0.711669921875, 0, 
