sep=									
DeviceTag:	Xsens_2								
FirmwareVersion:	2.4.0								
AppVersion:	2022.0.1								
SyncStatus:	Synced								
OutputRate:	60Hz								
FilterProfile:	General								
Measurement Mode:	Sensor fusion Mode - Extended (Quaternion)								
StartTime:	2020-11-25 11:08:09.693 +0100								
© Xsens Technologies B. V. 2005-2020									
PacketCounter	SampleTimeFine	Quat_W	Quat_X	Quat_Y	Quat_Z	FreeAcc_X	FreeAcc_Y	FreeAcc_Z	Status
1	2054157243	0	0	-0.707106781	-0.707106781	-0.104876846	0.2121973	0.036611646	0
2	2054173910	0.000303321	6.07E-05	-0.707205923	-0.707007558	-0.019234171	0.170727757	-0.053131675	0
3	2054190577	0.000463797	3.17E-05	-0.707170222	-0.707043182	0.083629668	0.089128864	-0.021774708	0
4	2054207244	0.000513629	-8.46E-05	-0.707020583	-0.707192778	0.03397781	0.155925049	0.036704548	0
5	2054223911	0.000465641	-0.000252813	-0.70672775	-0.707485411	0.042566731	0.127816581	0.082851004	0
6	2054240578	0.000281212	-0.000476193	-0.706362798	-0.707849766	0.052485462	0.142927201	0.063074383	0
7	2054257245	3.14E-05	-0.000767396	-0.706019171	-0.708192305	0.053049417	0.116885736	0.109272544	0
8	2054273912	0.000292656	0.00108377	0.70590344	0.708307188	0.068160201	0.131511339	0.157199148	0
9	2054290579	0.000704117	0.001440296	0.705859592	0.70834996	-0.004612513	0.188232828	0.116591998	0
10	2054307246	0.001064596	0.0016918	0.705619404	0.708588217	-0.101003597	0.251162442	0.032827865	0
11	2054323913	0.00131203	0.001895077	0.705433786	0.70877208	-0.126130937	0.196592895	0.150944353	0
12	2054340580	0.001568407	0.002004743	0.70546446	0.708740726	-0.084534919	0.21778562	0.221885366	0
13	2054357247	0.001759733	0.002063263	0.705570063	0.708634979	-0.067289288	0.240172791	0.121960751	0
14	2054373914	0.001966326	0.002121366	0.705601299	0.708603161	-0.055968939	0.239212704	0.022702068	0
15	2054390581	0.002263543	0.00224185	0.705313371	0.708888495	-0.078772717	0.34345458	-0.133361566	0
16	2054407248	0.002716967	0.002477604	0.70443706	0.709756936	-0.144773883	0.394733424	-0.162496424	0
17	2054423915	0.003227331	0.002756177	0.703198058	0.710981349	-0.152404679	0.330689191	-0.05402164	0
18	2054440582	0.003691118	0.002980554	0.702085872	0.712076485	-0.134050101	0.250597547	0.133777416	0
19	2054457249	0.004056833	0.003148743	0.701388763	0.71276043	-0.052476799	0.164317608	0.252699681	0
20	2054473916	0.004348809	0.003274765	0.701108582	0.713033744	-0.04088435	0.103594852	0.217295551	0
21	2054490583	0.004647063	0.003410495	0.701080988	0.713058358	-0.051098186	0.124498371	0.110120012	0
22	2054507250	0.004897678	0.003551833	0.701121508	0.713016149	-0.046725145	0.153215192	0.03671831	0
23	2054523917	0.00516475	0.003672243	0.70101484	0.713118528	-0.072396242	0.226084372	-0.013257289	0
24	2054540584	0.005363572	0.003780416	0.700745089	0.713381568	-0.134512596	0.220613273	-0.03532701	0
25	2054557251	0.005554944	0.003862588	0.700461778	0.713657845	-0.12720677	0.190525566	-0.041545916	0
26	2054573918	0.00563115	0.003822189	0.700173675	0.713940127	-0.140984541	0.137301579	0.039918822	0
27	2054590585	0.005654864	0.003760301	0.699732149	0.714373013	-0.063844082	0.071972863	0.090726105	0
28	2054607252	0.005667207	0.003687903	0.699331136	0.714765866	-0.046250537	0.077611189	0.112083531	0
29	2054623919	0.005697807	0.003587859	0.698923796	0.715164449	0.002967351	0.141711151	0.012586006	0
30	2054640586	0.005717491	0.003514683	0.698577196	0.715503221	0.055537056	0.182474981	0.061633312	0
31	2054657253	0.005749459	0.003468447	0.698285113	0.715788247	0.049632678	0.210544678	0.133551143	0
32	2054673920	0.005805865	0.003412191	0.698211993	0.715859386	0.030235605	0.135181532	0.156401553	0
33	2054690587	0.005864539	0.003392166	0.698282223	0.715790498	0.021057035	0.122749835	0.106905197	0
34	2054707254	0.005905113	0.003445387	0.69834952	0.715724253	-0.021576804	0.183902464	0.084134321	0
35	2054723921	0.005908545	0.003468584	0.698400849	0.715674027	-0.004895478	0.234013462	0.082919927	0
36	2054740588	0.005942888	0.003478948	0.698514002	0.715563253	0.093874883	0.239677115	0.07039728	0
37	2054757255	0.005963027	0.00351207	0.698672111	0.715408547	0.092702447	0.231069691	0.09299504	0
38	2054773922	0.005994062	0.003620349	0.698824755	0.715258643	-0.014382266	0.204430079	0.151308871	0
39	2054790589	0.005990196	0.003694491	0.698964746	0.715121495	-0.111851539	0.234326374	0.123645364	0
40	2054807256	0.005972461	0.003742893	0.699065976	0.715022435	-0.040469024	0.181761	0.047324708	0
41	2054823923	0.005977877	0.003805049	0.699110069	0.714978949	0.017610096	0.163645452	0.017498121	0
42	2054840590	0.005933762	0.003883041	0.69905555	0.715032202	0.020638048	0.100670308	0.061404168	0
43	2054857257	0.005890437	0.004000069	0.698896967	0.71518692	-0.077591492	0.121551286	0.107592553	0
44	2054873924	0.005699879	0.004066902	0.698668119	0.715411651	-0.10558028	0.215384092	0.11678051	0
45	2054890591	0.005380396	0.004046834	0.698537222	0.715542049	-0.065186565	0.250209494	0.138308469	0
46	2054907258	0.005039637	0.00399693	0.698530197	0.715551669	0.020937706	0.247114738	0.128817468	0
47	2054923925	0.004747931	0.003948377	0.698611021	0.715475023	0.02343559	0.265024965	0.140342734	0
48	2054940592	0.004505571	0.003939881	0.698671702	0.715417382	0.049996117	0.232035244	0.130476523	0
49	2054957259	0.004352849	0.003965923	0.698788674	0.715303931	0.049523204	0.175530194	0.117249273	0
50	2054973926	0.004232557	0.00402044	0.698933082	0.715163246	0.001131342	0.136167174	0.076694474	0
51	2054990593	0.004171054	0.004120469	0.699144952	0.714955914	-0.008894561	0.132784661	0.079758365	0
52	2055007260	0.004190173	0.004305613	0.699321193	0.714782326	0.025008082	0.165051078	0.021512936	0
53	2055023927	0.004289676	0.004548596	0.699327781	0.714773785	-0.052620901	0.195120483	0.024233961	0
54	2055040594	0.004451379	0.004838452	0.699264712	0.714832594	-0.043187142	0.161854484	0.095936476	0
55	2055057261	0.004663319	0.005149117	0.699285329	0.714808903	-0.072126223	0.16462598	0.170570207	0
56	2055073928	0.004843132	0.005413897	0.699366961	0.714725883	-0.066992085	0.160714652	0.182382412	0
57	2055090595	0.004952394	0.005615483	0.699670064	0.714426862	0.022179077	0.140815198	0.228786168	0
58	2055107262	0.005000664	0.005758169	0.700253071	0.713853958	0.088381332	0.110961216	0.264737797	0
59	2055123929	0.004994073	0.00587262	0.70102018	0.713099768	0.045540745	0.162531521	0.214840887	0
60	2055140596	0.004896949	0.00598379	0.701862698	0.712270291	0.026477041	0.1888979	0.165859917	0
61	2055157263	0.004775531	0.006089904	0.702822872	0.711322795	0.038471028	0.212648572	0.14941278	0
62	2055173930	0.004641933	0.006245692	0.703827366	0.710328433	-0.026851371	0.256298049	0.041263911	0
63	2055190597	0.004526305	0.006448921	0.704809184	0.709353182	0.024294243	0.257104576	0.01187461	0
64	2055207264	0.004497863	0.006776527	0.705657581	0.708506335	0.035775858	0.238215839	-0.05574748	0
65	2055223931	0.004491187	0.007207103	0.706315607	0.707846134	-0.003428154	0.251730298	-0.056845801	0
66	2055240598	0.004490587	0.007734846	0.706822913	0.707333993	-0.027567306	0.252550455	-0.01381134	0
67	2055257265	0.004476473	0.008332955	0.707301601	0.706848618	-0.060803286	0.244791121	0.036091225	0
68	2055273932	0.004483147	0.008979127	0.707829604	0.70631192	-0.055492422	0.209876131	0.019585349	0
69	2055290599	0.004551983	0.00970215	0.708285407	0.705844834	-0.054787462	0.196332168	-0.011400954	0
70	2055307266	0.00464699	0.010441794	0.708478254	0.705640091	-0.120363461	0.201997241	-0.055436147	0
71	2055323933	0.00477601	0.011218109	0.708305455	0.705800769	-0.213889044	0.248651472	-0.101347785	0
72	2055340600	0.004782985	0.011911747	0.707986819	0.706108984	-0.330353578	0.293302064	-0.02731927	0
73	2055357267	0.004731444	0.012446529	0.707696439	0.706391144	-0.345594334	0.276362925	0.095205295	0
74	2055373934	0.004674356	0.012898797	0.707616856	0.706463132	-0.253514669	0.259230427	0.062406447	0
75	2055390601	0.004541269	0.013295506	0.707878582	0.706194392	-0.127338112	0.183863159	0.095744697	0
76	2055407268	0.004389435	0.013599416	0.708424082	0.705642338	-0.081097743	0.157110126	0.00962592	0
77	2055423935	0.004318296	0.013911245	0.708926912	0.705131522	-0.056595531	0.113317848	-0.103842818	0
78	2055440602	0.004334052	0.014238739	0.709235256	0.704814746	-0.066807625	0.144732798	-0.095103425	0
79	2055457269	0.004389845	0.014525086	0.709364047	0.704678933	-0.117130504	0.158524707	-0.072903902	0
80	2055473936	0.004482847	0.01474504	0.709368906	0.704668889	-0.140112403	0.176520201	-0.065379431	0
81	2055490603	0.004559232	0.014900223	0.709360422	0.704673675	-0.108985603	0.190979237	-0.014664831	0
82	2055507270	0.004613709	0.014994199	0.709437821	0.704593404	-0.06003708	0.2382372	0.028204161	0
83	2055523937	0.004642403	0.015075187	0.709646624	0.704381186	-0.023910354	0.235544219	0.046926864	0
84	2055540604	0.004679696	0.015166687	0.709881562	0.704142202	-0.108529969	0.258560514	0.061047555	0
85	2055557271	0.004748529	0.015248894	0.710089647	0.703930121	-0.109452437	0.248085865	0.015514425	0
86	2055573938	0.004821474	0.015352705	0.710388073	0.703626204	-0.061206906	0.219931952	-0.025204069	0
87	2055590605	0.00486991	0.015467917	0.710620912	0.703388191	-0.019607936	0.185235962	0.01148687	0
88	2055607272	0.00494508	0.015660838	0.710708244	0.703295156	-0.015434388	0.185277916	0.053599435	0
89	2055623939	0.005023079	0.015946785	0.710736817	0.703259302	-0.081820807	0.167954439	0.119517026	0
90	2055640606	0.005027294	0.016240156	0.710987445	0.702999173	-0.111433823	0.160503697	0.141319119	0
91	2055657273	0.004937625	0.016516669	0.711461803	0.702513289	-0.083960917	0.180679363	0.124854348	0
92	2055673940	0.004770751	0.016738459	0.712107172	0.701854999	-0.102200529	0.231548914	0.092932859	0
93	2055690607	0.004542614	0.016961673	0.712795273	0.701152313	-0.044881083	0.237094553	0.07882976	0
94	2055707274	0.004283106	0.017228519	0.713479805	0.700450855	-0.074782344	0.232021598	0.127317432	0
95	2055723941	0.003920053	0.017467653	0.714174899	0.699738329	-0.075444847	0.223354529	0.17682538	0
96	2055740608	0.003564168	0.017625479	0.715022732	0.698869896	-0.033802333	0.126254076	0.171274332	0
97	2055757275	0.003184447	0.017746869	0.715939438	0.69792953	-0.029846874	0.125536983	0.065421788	0
98	2055773942	0.002720172	0.017862477	0.71678487	0.697060243	-0.026327549	0.134794846	0.007563721	0
99	2055790609	0.002333643	0.018053093	0.717531042	0.696288621	-0.045318131	0.144372646	0.019595008	0
100	2055807276	0.002051905	0.018296394	0.718137595	0.695657549	-0.094967794	0.180217506	-0.01592986	0
101	2055823943	0.001825836	0.018547642	0.7185694	0.695205487	-0.069603011	0.194054523	-0.054905066	0
102	2055840610	0.001617133	0.018833742	0.718795144	0.694964902	-0.058990334	0.179352172	-0.033004011	0
103	2055857277	0.001385825	0.019108224	0.718933499	0.694814781	-0.0991096	0.224243879	0.084588339	0
104	2055873944	0.001118978	0.019311844	0.7191888	0.69454537	-0.114112715	0.211349971	0.174748303	0
105	2055890611	0.000832186	0.019405726	0.719740203	0.693971733	-0.076717223	0.205057998	0.17562829	0
106	2055907278	0.000498619	0.019444499	0.720434784	0.693249872	-0.063673666	0.164352441	0.126828125	0
107	2055923945	0.000197343	0.01945726	0.721137018	0.692519153	-0.004618483	0.148799153	0.014579853	0
108	2055940612	4.73E-05	-0.019502173	-0.721635601	-0.691998355	0.073019962	0.144654414	-0.012973176	0
109	2055957279	0.000320699	-0.019471125	-0.721983694	-0.691635972	0.093792131	0.226526781	0.094885118	0
110	2055973946	0.000657978	-0.019306816	-0.722498977	-0.691102049	-0.008234683	0.216692203	0.319141697	0
111	2055990613	0.000996025	-0.019065125	-0.723564924	-0.689992268	-0.169493022	0.163416306	0.262485232	0
112	2056007280	0.001378709	-0.018906578	-0.724964823	-0.688524978	-0.229136584	0.15106857	0.023918459	0
113	2056023947	0.001734141	-0.018840905	-0.726290611	-0.687127325	-0.15067924	0.154672455	-0.198149688	0
114	2056040614	0.002045994	-0.018841685	-0.727250865	-0.686110038	-0.078377441	0.15465318	-0.226427998	0
115	2056057281	0.002316815	-0.018827185	-0.727800555	-0.685526456	-0.080128217	0.243225363	-0.086431231	0
116	2056073948	0.002517827	-0.018863579	-0.728200281	-0.685100121	-0.087770537	0.254868425	0.081566649	0
117	2056090615	0.002629049	-0.019028838	-0.728774899	-0.684483848	-0.109563445	0.238522789	0.077973421	0
118	2056107282	0.002794041	-0.019249856	-0.729477623	-0.68372804	-0.126231866	0.219296562	-0.030717208	0
119	2056123949	0.002932115	-0.019536948	-0.730115715	-0.683037886	-0.125676446	0.205881163	-0.086866949	0
120	2056140616	0.003025992	-0.019878941	-0.730589497	-0.682520811	-0.102887738	0.144781937	-0.060177472	0
121	2056157283	0.003069766	-0.020221003	-0.730863245	-0.682217417	-0.036985203	0.106648086	-0.070124035	0
122	2056173950	0.003055369	-0.0206319	-0.730968432	-0.682092472	-0.056244267	0.101436071	-0.020465218	0
123	2056190617	0.002986576	-0.021062691	-0.731015154	-0.682029536	-0.085286961	0.128702382	0.028237736	0
124	2056207284	0.002864039	-0.021526886	-0.731053236	-0.681974748	-0.085388899	0.185846806	0.039896315	0
125	2056223951	0.002708408	-0.021951274	-0.731087035	-0.681925621	-0.100077327	0.211629689	-0.025822921	0
126	2056240618	0.002548843	-0.022345779	-0.73102793	-0.681976785	-0.097168357	0.248380614	-0.039955705	0
127	2056257285	0.002393644	-0.022663184	-0.730922427	-0.682079949	-0.120882215	0.291689614	-0.002013966	0
128	2056273952	0.002235098	-0.022915616	-0.730869512	-0.682128752	-0.152554455	0.316208482	0.007583662	0
129	2056290619	0.002091822	-0.023103271	-0.730875823	-0.682116115	-0.078791056	0.298447651	0.048537644	0
130	2056307286	0.001915821	-0.023228517	-0.73094531	-0.682037917	-0.039335231	0.284554066	-0.028087243	0
131	2056323953	0.001762028	-0.023310768	-0.730947936	-0.68203271	-0.026948925	0.279700304	-0.031183584	0
132	2056340620	0.001614027	-0.023348202	-0.730913659	-0.68206853	-0.048761625	0.255700814	0.031170278	0
133	2056357287	0.001483409	-0.023349859	-0.730927578	-0.682053853	-0.091928452	0.264740108	0.069976693	0
134	2056373954	0.001337391	-0.023278988	-0.730910144	-0.68207526	-0.15092892	0.259041334	0.075611009	0
135	2056390621	0.001190893	-0.023135711	-0.730853869	-0.682140706	-0.120105867	0.222584587	0.021072576	0
136	2056407288	0.001072065	-0.022995472	-0.730742232	-0.682265233	-0.09542091	0.179675474	-0.029590131	0
137	2056423955	0.000945902	-0.022850159	-0.730529262	-0.682498332	-0.061620979	0.176267931	0.037708908	0
138	2056440622	0.000813611	-0.022713999	-0.730261291	-0.682789762	-0.027101261	0.168863134	0.131481339	0
139	2056457289	0.000643719	-0.022622755	-0.730015118	-0.683056165	-0.068957027	0.175140478	0.112367203	0
140	2056473956	0.000486743	-0.022542976	-0.729735519	-0.683357629	-0.105117843	0.213751472	0.097380775	0
141	2056490623	0.000327639	-0.022492481	-0.729446903	-0.68366746	-0.079783459	0.207938473	0.03838686	0
142	2056507290	0.000194946	-0.022470079	-0.729101688	-0.684036392	-0.055145291	0.186119165	0.000621014	0
143	2056523957	9.08E-05	-0.022465653	-0.728715463	-0.684447997	-0.101919428	0.211706489	0.036956337	0
144	2056540624	5.00E-05	-0.02247478	-0.728296166	-0.684893844	-0.073454342	0.236456921	0.124246254	0
145	2056557291	2.27E-05	-0.022475761	-0.728008586	-0.685199488	-0.052386572	0.189910341	0.130552291	0
146	2056573958	9.60E-06	-0.022516897	-0.727859286	-0.685356732	-0.013330285	0.207338855	0.086459459	0
147	2056590625	3.20E-06	-0.02260785	-0.727766207	-0.685452576	0.004819238	0.169482245	0.038609283	0
148	2056607292	6.00E-05	0.022768485	0.727552942	0.685673617	-0.032742006	0.183043382	0.016393124	0
149	2056623959	8.23E-05	0.022898576	0.72719679	0.686046993	-0.090699294	0.21974738	0.093166294	0
150	2056640626	1.09E-05	0.0229371	0.72689757	0.686362741	-0.043032186	0.22938803	0.204508494	0
151	2056657293	0.000124622	-0.022934075	-0.72682498	-0.686439699	0.013810275	0.219307458	0.19305202	0
152	2056673960	0.000276491	-0.022909315	-0.726990935	-0.686264721	0.007671521	0.187466909	0.079508356	0
153	2056690627	0.000443239	-0.022883219	-0.727166897	-0.686079052	-0.035064145	0.224713841	-0.049509048	0
154	2056707294	0.00065275	-0.022823524	-0.727120823	-0.686129703	-0.039923961	0.218624332	-0.04075762	0
155	2056723961	0.00085248	-0.022730096	-0.726910918	-0.686354961	0.018724694	0.234720228	0.006029987	0
156	2056740628	0.001081538	-0.022537396	-0.726757549	-0.686523387	-0.007167166	0.213735517	0.090950964	0
157	2056757295	0.001354082	-0.022292098	-0.726851695	-0.686431236	0.051262028	0.209710472	0.117659098	0
158	2056773962	0.001645275	-0.022054599	-0.727165058	-0.686106309	0.040968084	0.210314915	0.05665259	0
159	2056790629	0.001905636	-0.021803126	-0.727473225	-0.685786919	0.024777314	0.243355167	-0.032297389	0
160	2056807296	0.002207634	-0.021443792	-0.727634221	-0.685626524	-0.060269842	0.221184319	-0.042321918	0
161	2056823963	0.00252703	-0.021025285	-0.727678002	-0.685591917	-0.038516067	0.218807036	0.032552384	0
162	2056840630	0.002837383	-0.020616335	-0.727786093	-0.68548838	0.005570243	0.221089328	0.085217817	0
163	2056857297	0.003110842	-0.020210658	-0.7279052	-0.685372797	0.011496203	0.247128567	0.031788239	0
164	2056873964	0.003356113	-0.019783579	-0.727978256	-0.685306504	0.036836326	0.264631034	-0.022672493	0
165	2056890631	0.003563327	-0.019390144	-0.727993041	-0.685300997	0.035165501	0.19404679	-0.035057645	0
166	2056907298	0.003702625	-0.019045893	-0.728074371	-0.685223507	-0.003758699	0.173205804	0.051145184	0
167	2056923965	0.00379048	-0.018757047	-0.728136207	-0.685165286	-0.037604587	0.119773668	0.04100739	0
168	2056940632	0.003813301	-0.018517375	-0.728105507	-0.685204302	-0.079595332	0.073381385	0.018291014	0
169	2056957299	0.003860743	-0.018278477	-0.72804368	-0.685276143	-0.089650197	0.091882898	0.118487403	0
170	2056973966	0.003947608	-0.018044011	-0.72807611	-0.685247406	-0.077600418	0.129238426	0.107284284	0
171	2056990633	0.004043066	-0.017825613	-0.728264918	-0.685051903	-0.034468183	0.149935623	0.129677383	0
172	2057007300	0.004079378	-0.017653889	-0.728440678	-0.684869241	0.014755736	0.143759879	0.048479722	0
173	2057023967	0.004075643	-0.017530817	-0.728578127	-0.684726203	0.021278564	0.128328652	0.045907613	0
174	2057040634	0.004044737	-0.017452673	-0.728663146	-0.684637907	-0.023181358	0.160404017	0.078112845	0
175	2057057301	0.00400288	-0.017399268	-0.728788761	-0.684505795	-0.070712475	0.215584336	0.120638046	0
176	2057073968	0.003942673	-0.017340559	-0.728993704	-0.684289369	-0.040333336	0.245915795	0.100231715	0
177	2057090635	0.003869153	-0.017273117	-0.729175877	-0.684097368	-0.022569526	0.22534722	0.061420309	0
178	2057107302	0.003789275	-0.017189862	-0.729294605	-0.683973339	-0.038574853	0.222024294	0.057321732	0
179	2057123969	0.003729133	-0.017110587	-0.729346551	-0.683920266	-0.071123088	0.223908482	0.057649979	0
180	2057140636	0.003669251	-0.017042201	-0.7294205	-0.683843428	-0.097628994	0.215915899	0.043671279	0
181	2057157303	0.003684563	-0.016913586	-0.729548067	-0.683710445	-0.111258098	0.263798129	0.036603468	0
182	2057173970	0.003732185	-0.016765867	-0.729677869	-0.683575295	-0.11412077	0.244018916	0.012258867	0
183	2057190637	0.003746779	-0.016612267	-0.729873049	-0.683370563	-0.046727157	0.219319083	0.04343157	0
184	2057207304	0.003787563	-0.016457425	-0.730105182	-0.683126072	-0.016191609	0.195611448	0.049451675	0
185	2057223971	0.003821327	-0.016345876	-0.730308499	-0.6829112	-0.029342798	0.185507682	0.012953157	0
186	2057240638	0.003843429	-0.016270914	-0.730469366	-0.682740793	-0.016247	0.210723641	0.028883723	0
187	2057257305	0.00383837	-0.016218026	-0.730575254	-0.682628772	-0.035867953	0.21140486	-0.002865421	0
188	2057273972	0.00382062	-0.016160215	-0.730646042	-0.682554475	-0.078845404	0.194890087	0.000447917	0
189	2057290639	0.003811449	-0.016092907	-0.73066415	-0.682536732	-0.116277824	0.169779356	0.007865686	0
190	2057307306	0.003847081	-0.016042597	-0.730610637	-0.682594999	-0.12976549	0.169016464	0.060351489	0
191	2057323973	0.003896049	-0.015956872	-0.730616546	-0.682590406	-0.121815086	0.166282868	0.007748059	0
192	2057340640	0.00395046	-0.015885729	-0.730578032	-0.682632974	-0.100384692	0.195436329	-0.053800491	0
193	2057357307	0.004036839	-0.015804423	-0.730453543	-0.682767563	-0.11353079	0.228221927	-0.019551607	0
194	2057373974	0.004090383	-0.015720335	-0.730248971	-0.68298798	-0.069749406	0.227121563	0.023243273	0
195	2057390641	0.00414613	-0.01563758	-0.729956867	-0.683301725	-0.089155092	0.238225241	0.00740283	0
196	2057407308	0.00422049	-0.01550506	-0.729677625	-0.683602475	-0.094848493	0.210377681	0.058803347	0
197	2057423975	0.004331287	-0.015341513	-0.729489966	-0.683805723	-0.088815089	0.231174409	0.071548145	0
198	2057440642	0.004453526	-0.015140293	-0.729408147	-0.683896697	-0.091531756	0.193371053	0.075489968	0
199	2057457309	0.004565563	-0.014914747	-0.729422482	-0.683885625	-0.040276035	0.170626554	0.003582199	0
200	2057473976	0.004661895	-0.014717627	-0.729370899	-0.683944259	-0.003160698	0.199223677	-0.025490137	0
201	2057490643	0.004711024	-0.014563171	-0.729199926	-0.684129512	0.032183185	0.195460332	0.011469455	0
202	2057507310	0.004687737	-0.014441609	-0.728972726	-0.684374334	-0.00437391	0.22853502	0.016662754	0
203	2057523977	0.004687048	-0.014319366	-0.728832647	-0.684526084	-0.016381545	0.206423932	0.091197533	0
204	2057540644	0.004644441	-0.014266967	-0.728798362	-0.684563971	-0.002407313	0.203490354	0.060985606	0
205	2057557311	0.00452387	-0.014303447	-0.72871638	-0.684651286	0.01991313	0.175330416	-0.021008259	0
206	2057573978	0.004317916	-0.014399929	-0.728421972	-0.684963815	0.011434011	0.144609124	-0.104931017	0
207	2057590645	0.004083961	-0.014545289	-0.727956864	-0.685456461	-0.029311991	0.160501393	-0.014568664	0
208	2057607312	0.003883858	-0.014697311	-0.727537783	-0.685899176	-0.103120761	0.177355805	0.10858388	0
209	2057623979	0.003731494	-0.014843214	-0.727284177	-0.686165783	-0.074500049	0.180572321	0.164066356	0
210	2057640646	0.003620531	-0.01498305	-0.727215646	-0.686235969	-0.056578294	0.180743045	0.097189771	0
211	2057657313	0.003532287	-0.015121494	-0.727250887	-0.686196044	-0.029950045	0.170285361	0.018384532	0
212	2057673980	0.003388413	-0.015319573	-0.727261197	-0.686181449	0.015150973	0.149231428	-0.040088434	0
213	2057690647	0.003202914	-0.015641451	-0.727129288	-0.686314858	0.019356071	0.14730259	-0.045705506	0
214	2057707314	0.003002809	-0.016026366	-0.726916017	-0.68653277	-0.04657121	0.171805604	-0.032813918	0
215	2057723981	0.002794025	-0.016444086	-0.726652562	-0.686802621	-0.09894769	0.21291343	-0.034472006	0
216	2057740648	0.002593349	-0.016839748	-0.726323298	-0.687142027	-0.063774841	0.280148192	-0.033628165	0
217	2057757315	0.002418995	-0.017160621	-0.726103207	-0.687367292	-0.090414089	0.297058814	0.031259372	0
218	2057773982	0.002290092	-0.017523836	-0.726005367	-0.68746191	-0.070078128	0.228848999	0.03506535	0
219	2057790649	0.002167706	-0.017895567	-0.725975942	-0.687483804	-0.131278557	0.268038099	0.036519222	0
220	2057807316	0.002081203	-0.01825245	-0.725838285	-0.687620026	-0.104656944	0.240160387	-0.000971629	0
221	2057823983	0.001971357	-0.018556092	-0.725606512	-0.687856799	-0.109035669	0.197959244	-0.057686729	0
222	2057840650	0.001972831	-0.018747727	-0.725426824	-0.688041099	-0.107533097	0.167156141	0.024803553	0
223	2057857317	0.002057632	-0.018857286	-0.725358576	-0.688109806	-0.102109634	0.160218276	0.067178243	0
224	2057873984	0.002141916	-0.01890802	-0.725372439	-0.688093543	-0.015735509	0.159981489	0.063848581	0
225	2057890651	0.002171773	-0.018939078	-0.725419226	-0.68804327	0.060223833	0.163758659	0.020873555	0
226	2057907318	0.00224472	-0.018886099	-0.725517214	-0.687941167	-0.009241981	0.21236377	0.002518887	0
227	2057923985	0.002304544	-0.018783732	-0.725587317	-0.687869833	0.002644668	0.200633677	-0.028922775	0
228	2057940652	0.002326986	-0.01868128	-0.725626117	-0.687831617	-0.01618287	0.25183962	-0.04217481	0
229	2057957319	0.002328955	-0.018528807	-0.725661415	-0.687798495	-0.029736762	0.276305853	0.038478349	0
230	2057973986	0.002330491	-0.018333378	-0.725694846	-0.687768454	-0.015205409	0.303583648	0.017963185	0
231	2057990653	0.002315963	-0.018108301	-0.725725838	-0.687741764	0.009583409	0.251578388	0.030973145	0
232	2058007320	0.002278383	-0.017873419	-0.725731676	-0.687741874	0.002530534	0.227397876	0.017626673	0
233	2058023987	0.002255603	-0.017592329	-0.725754364	-0.687725254	-0.030978762	0.193752639	0.016249814	0
234	2058040654	0.002241327	-0.017276651	-0.725745745	-0.687742399	-0.005423909	0.199860397	0.04260875	0
235	2058057321	0.002199986	-0.016948747	-0.725795309	-0.687698386	-0.041349702	0.192465299	0.096128392	0
236	2058073988	0.002106257	-0.016638824	-0.725835602	-0.68766372	-0.042052563	0.157039433	0.085026413	0
237	2058090655	0.00199118	-0.016339255	-0.725871737	-0.687633104	-0.07520374	0.148713647	0.025836181	0
238	2058107322	0.001950452	-0.016071039	-0.725755159	-0.68776258	-0.185378439	0.205905375	-0.047544585	0
239	2058123989	0.00192934	-0.015783863	-0.72553795	-0.687998423	-0.191293139	0.210302403	0.019984531	0
240	2058140656	0.001946761	-0.015497058	-0.72540751	-0.688142424	-0.194959646	0.248405798	0.023936368	0
241	2058157323	0.002027453	-0.015215434	-0.72537393	-0.688183872	-0.175632524	0.230997488	0.023936838	0
242	2058173990	0.002103404	-0.015022999	-0.725340389	-0.688223224	-0.143236145	0.253878134	0.015328374	0
243	2058190657	0.002197123	-0.01488466	-0.725234708	-0.6883373	-0.09075084	0.240397879	0.019884411	0
244	2058207324	0.002234844	-0.014792981	-0.725030888	-0.688553835	-0.02825522	0.21968154	-0.007673142	0
245	2058223991	0.002235118	-0.014750923	-0.724729336	-0.688872125	-0.065634957	0.197405929	0.012980892	0
246	2058240658	0.002241968	-0.014727782	-0.724418124	-0.689199861	-0.118529667	0.194000181	0.075525933	0
247	2058257325	0.002267973	-0.014712287	-0.724137597	-0.689494848	-0.119077948	0.181042803	0.107999763	0
248	2058273992	0.002334758	-0.0146839	-0.723937767	-0.689705039	-0.09276982	0.184123622	0.133651606	0
249	2058290659	0.002419131	-0.014654853	-0.723800943	-0.689848953	-0.103452169	0.193949443	0.121123374	0
250	2058307326	0.002537699	-0.014616313	-0.723633148	-0.690025355	-0.061808692	0.147230177	0.114936284	0
251	2058323993	0.00264049	-0.014594484	-0.723533238	-0.690130193	-0.03075847	0.160284284	0.088280741	0
252	2058340660	0.002767718	-0.014569698	-0.723448191	-0.69021937	-0.063670989	0.164291151	0.081302784	0
253	2058357327	0.00291223	-0.014561307	-0.723356485	-0.69031506	-0.036177988	0.165317396	0.071195603	0
254	2058373994	0.003040739	-0.014550187	-0.723281951	-0.690392834	-0.088647133	0.142683758	0.054170527	0
255	2058390661	0.003123576	-0.014595618	-0.723163184	-0.690515909	-0.066363032	0.139121848	0.068792647	0
256	2058407328	0.003215362	-0.014641996	-0.722982518	-0.690703664	-0.100649827	0.189020906	0.030010382	0
257	2058423995	0.003354477	-0.014637604	-0.722789067	-0.690905531	-0.098650258	0.186572022	0.038324854	0
258	2058440662	0.003563583	-0.014553028	-0.722715144	-0.690983597	-0.10667369	0.221804642	0.088626288	0
259	2058457329	0.003776115	-0.014424482	-0.722737552	-0.690961725	-0.079397247	0.254470403	0.068293835	0
260	2058473996	0.004027635	-0.014230562	-0.722734362	-0.690967663	-0.020980884	0.255956348	0.019971077	0
261	2058490663	0.004291218	-0.014020761	-0.722793113	-0.690908909	0.065285664	0.187747636	0.043677021	0
262	2058507330	0.004530688	-0.013824697	-0.722831566	-0.6908711	0.060636188	0.166087289	0.093748072	0
263	2058523997	0.004701366	-0.013671266	-0.722910065	-0.690790874	0.051591169	0.14155511	0.115229471	0
264	2058540664	0.004807042	-0.013492583	-0.722987046	-0.69071309	0.016379313	0.210610065	0.059108198	0
265	2058557331	0.004976196	-0.013306399	-0.723012093	-0.690689287	-0.02097261	0.200679438	0.052152945	0
266	2058573998	0.00512143	-0.013131548	-0.72317148	-0.690524688	-0.06247869	0.17200729	0.041568991	0
267	2058590665	0.005215486	-0.01297924	-0.723416336	-0.690270341	-0.069921365	0.168342149	0.025657754	0
268	2058607332	0.005257206	-0.0128632	-0.723623375	-0.690055151	-0.000910448	0.166525003	-0.001471254	0
269	2058623999	0.005228292	-0.012839082	-0.723726464	-0.689947699	-0.004576781	0.159821553	-0.034184011	0
270	2058640666	0.005190851	-0.012880488	-0.723726172	-0.689947517	-0.05566721	0.154002856	-0.062588107	0
271	2058657333	0.005123	-0.012984129	-0.723738473	-0.689933178	-0.01893844	0.181753124	-0.035060272	0
272	2058674000	0.005031772	-0.013173417	-0.723747479	-0.689920814	-0.077007242	0.217406457	-0.029830534	0
273	2058690667	0.004901702	-0.013368237	-0.723676419	-0.689992539	-0.073367594	0.214630521	-0.02717947	0
274	2058707334	0.004795764	-0.013536837	-0.723515328	-0.690158912	-0.114455191	0.250699744	0.036996288	0
275	2058724001	0.00473002	-0.013711169	-0.723298197	-0.69038348	-0.100647652	0.213777286	0.101622079	0
276	2058740668	0.004655596	-0.013877674	-0.723342243	-0.69033451	-0.044781096	0.170917627	0.148166238	0
277	2058757335	0.004594017	-0.014005209	-0.723573265	-0.690090196	-0.037467504	0.172528803	0.080424891	0
278	2058774002	0.004523061	-0.014144652	-0.723809888	-0.689839631	-0.050559547	0.179583642	0.026806661	0
279	2058790669	0.004423197	-0.014288372	-0.723917292	-0.689724606	-0.048481093	0.185080035	0.039197371	0
280	2058807336	0.004349346	-0.014453886	-0.723962065	-0.689674631	-0.088272936	0.182347714	0.081367083	0
281	2058824003	0.004263728	-0.014555522	-0.72405753	-0.689572803	-0.105023509	0.19921367	0.073449648	0
282	2058840670	0.004207862	-0.014628973	-0.724205339	-0.689416357	-0.109189669	0.216335092	0.056843597	0
283	2058857337	0.004181347	-0.014642653	-0.724383755	-0.689228761	-0.131643041	0.22669089	0.031918604	0
284	2058874004	0.004136735	-0.014695477	-0.724552256	-0.689050766	-0.09574769	0.203318572	0.053095329	0
285	2058890671	0.004101108	-0.014741297	-0.72469516	-0.688899703	-0.111515964	0.223242574	0.020433309	0
286	2058907338	0.004100934	-0.014758339	-0.72479937	-0.688789697	-0.151813232	0.243532508	0.010247427	0
287	2058924005	0.004151573	-0.014741481	-0.724818676	-0.688769439	-0.177484529	0.298183285	0.022989199	0
288	2058940672	0.004255293	-0.014642672	-0.724864708	-0.68872247	-0.115283189	0.235055138	0.083644146	0
289	2058957339	0.004351614	-0.014532111	-0.72510305	-0.688473273	-0.039425323	0.214737497	0.080663161	0
290	2058974006	0.004435477	-0.014426641	-0.725381164	-0.688181927	0.016656764	0.147525218	0.02073388	0
291	2058990673	0.004457	-0.014402674	-0.725538426	-0.68801649	0.064642593	0.127408736	-0.028552576	0
292	2059007340	0.004407872	-0.014445769	-0.725560388	-0.687992743	0.031237572	0.143747644	0.007801816	0
293	2059024007	0.004370348	-0.014469884	-0.725601392	-0.687949229	-0.061886362	0.18859666	0.081595658	0
294	2059040674	0.004364872	-0.014449518	-0.725688965	-0.687857315	-0.108991402	0.212554333	0.044495224	0
295	2059057341	0.004425021	-0.014401082	-0.725824562	-0.687714863	-0.090845619	0.235354752	0.036614159	0
296	2059074008	0.004489833	-0.014346291	-0.726029995	-0.687498707	-0.026752281	0.205794595	0.045186955	0
297	2059090675	0.004537622	-0.014281835	-0.726193343	-0.687327191	-0.03804361	0.223075247	0.00423067	0
298	2059107342	0.004598422	-0.014244007	-0.726280896	-0.687235056	-0.066827357	0.242876467	-0.010236524	0
299	2059124009	0.004706765	-0.014194043	-0.726305362	-0.6872095	-0.041206395	0.227055713	0.056890344	0
300	2059140676	0.004813096	-0.014122501	-0.726428082	-0.687080513	-0.030866765	0.209664259	0.070980496	0
301	2059157343	0.004924113	-0.014018411	-0.726604826	-0.686894944	-0.000485789	0.193587517	0.012554457	0
302	2059174010	0.005004265	-0.014013172	-0.72664094	-0.686856267	-0.031214216	0.193591252	-0.027941776	0
303	2059190677	0.005103526	-0.014017874	-0.726575618	-0.686924541	-0.063110911	0.200441289	0.000459831	0
304	2059207344	0.00514726	-0.014033724	-0.726540398	-0.686961142	-0.036160276	0.193150407	0.070666415	0
305	2059224011	0.005203122	-0.014002324	-0.726548021	-0.686953299	-0.078480595	0.225898889	-0.004714254	0
306	2059240678	0.00530037	-0.013969595	-0.726648679	-0.686846747	-0.069438465	0.186088928	0.016363943	0
307	2059257345	0.00542608	-0.013956339	-0.726702533	-0.686789056	-0.133970554	0.247008158	0.032785787	0
308	2059274012	0.005593565	-0.013927508	-0.726750307	-0.686737743	-0.099277303	0.192322922	0.060552201	0
309	2059290679	0.0056956	-0.013887163	-0.726876016	-0.686604664	0.005171216	0.218245681	0.014922368	0
310	2059307346	0.005814142	-0.013849893	-0.726999305	-0.686473879	-0.001267032	0.204785139	-0.010207007	0
311	2059324013	0.005861323	-0.013914777	-0.72700668	-0.686464355	-0.05658441	0.202552626	-0.02039452	0
312	2059340680	0.005897514	-0.014002825	-0.727022087	-0.686445938	-0.085745718	0.229406128	0.021729009	0
313	2059357347	0.00589041	-0.014077653	-0.726988988	-0.686479522	-0.103843796	0.243660499	-0.014945044	0
314	2059374014	0.005889824	-0.014125539	-0.726900089	-0.686572676	-0.092771134	0.207759558	-0.013233551	0
315	2059390681	0.005909737	-0.014136888	-0.726811207	-0.686666362	-0.062550092	0.167322564	0.064901082	0
316	2059407348	0.005949423	-0.014114347	-0.726783936	-0.686695347	-0.031270349	0.175501582	0.067608257	0
317	2059424015	0.00599082	-0.014072227	-0.726820556	-0.686657092	-0.06784455	0.153260597	0.025299888	0
318	2059440682	0.005990753	-0.014045697	-0.726841829	-0.686635118	-0.027375842	0.164138912	0.037934642	0
319	2059457349	0.005993539	-0.014018144	-0.726778433	-0.686702758	-0.032214282	0.175323106	0.036085079	0
320	2059474016	0.005954163	-0.014026647	-0.726661963	-0.686826173	-0.044488374	0.19928635	0.036555288	0
321	2059490683	0.005949362	-0.0140095	-0.726552358	-0.686942509	-0.075837853	0.236234704	0.059670234	0
322	2059507350	0.005971031	-0.013948018	-0.726458249	-0.687043093	-0.102737861	0.253669173	0.053803343	0
323	2059524017	0.00599956	-0.013842687	-0.726450124	-0.687053566	-0.080137174	0.230753259	0.042916634	0
324	2059540684	0.006004424	-0.013752262	-0.726467959	-0.687036482	-0.049137654	0.210408465	0.042929175	0
325	2059557351	0.005979734	-0.013683631	-0.726463636	-0.687042638	-0.005902404	0.19821553	0.005259164	0
326	2059574018	0.00590697	-0.013659729	-0.726357089	-0.687156386	-0.013126853	0.219215907	-0.084048544	0
327	2059590685	0.005858603	-0.013637668	-0.726096881	-0.687432186	-0.046003493	0.259122468	0.003687364	0
328	2059607352	0.005829511	-0.01358287	-0.725748495	-0.687801312	-0.101784908	0.298992566	0.100330596	0
329	2059624019	0.005869278	-0.01341867	-0.725496766	-0.688069715	-0.092206703	0.259801699	0.198544831	0
330	2059640686	0.006024913	-0.013162038	-0.72545326	-0.688119197	-0.005668686	0.214377874	0.169317703	0
331	2059657353	0.006158981	-0.012860276	-0.725529277	-0.688043566	0.089796178	0.167578881	0.033183356	0
332	2059674020	0.006277759	-0.012551841	-0.725547469	-0.688029005	0.094896707	0.151313732	-0.008996441	0
333	2059690687	0.006361221	-0.012282757	-0.72540125	-0.688187253	0.040848675	0.155120998	0.091630645	0
334	2059707354	0.006444742	-0.011994553	-0.725316485	-0.688280896	-0.064010614	0.157193087	0.150116859	0
335	2059724021	0.006525883	-0.011748932	-0.725335659	-0.688264162	-0.075172435	0.184254475	0.143132882	0
336	2059740688	0.00661588	-0.011461051	-0.725419648	-0.688179634	-0.070594744	0.195909983	0.052858537	0
337	2059757355	0.006730428	-0.011208588	-0.725497314	-0.688100804	-0.068027372	0.206395288	0.015012604	0
338	2059774022	0.006802301	-0.011009332	-0.725491877	-0.688109047	-0.086815858	0.22645118	0.07982487	0
339	2059790689	0.006888433	-0.010835716	-0.725491657	-0.688111177	-0.065748413	0.194947376	0.099065957	0
340	2059807356	0.006962067	-0.010691819	-0.725541077	-0.688060579	-0.031703727	0.185915029	0.0407043	0
341	2059824023	0.007036484	-0.010564882	-0.725616099	-0.687982666	-0.004741612	0.183627487	0.071189389	0
342	2059840690	0.007082754	-0.010507351	-0.725674319	-0.687921662	-0.01917969	0.164230909	0.083861302	0
343	2059857357	0.007135368	-0.010481466	-0.725722987	-0.68787017	-0.06104864	0.12997331	0.10592917	0
344	2059874024	0.007155949	-0.010505387	-0.725826891	-0.687759954	-0.0555312	0.152027285	0.09277948	0
345	2059890691	0.007187676	-0.010566044	-0.725886811	-0.687695452	-0.067540335	0.171381937	0.033572621	0
346	2059907358	0.007216604	-0.01062653	-0.726015713	-0.68755813	-0.041620044	0.188790616	0.041509212	0
347	2059924025	0.007236643	-0.01072926	-0.726147098	-0.687417564	-0.046681335	0.202043681	0.066470454	0
348	2059940692	0.007253918	-0.010854322	-0.726282986	-0.687271845	-0.047136299	0.194610588	0.051599326	0
349	2059957359	0.007221134	-0.011028934	-0.726472869	-0.687068693	-0.01562748	0.164522359	0.047495174	0
350	2059974026	0.007142523	-0.01126088	-0.726649525	-0.686878915	-0.03899928	0.180195262	0.035834928	0
351	2059990693	0.007047371	-0.011502985	-0.726822441	-0.686692912	-0.060274039	0.189552766	-0.025711752	0
352	2060007360	0.006915079	-0.011762721	-0.726890191	-0.68661814	-0.075055223	0.202989165	-0.032461685	0
353	2060024027	0.00681385	-0.011976795	-0.726939338	-0.686563418	-0.075054322	0.220148154	0.039518555	0
354	2060040694	0.006712899	-0.012170241	-0.727081683	-0.686410262	-0.016922026	0.198684447	0.086201783	0
355	2060057361	0.006571306	-0.012362282	-0.727296895	-0.686180165	-0.00876553	0.218048238	0.003388127	0
356	2060074028	0.006402166	-0.012587472	-0.727453962	-0.686011152	0.012473751	0.220523572	-0.049981876	0
357	2060090695	0.00619998	-0.012790603	-0.727509295	-0.685950571	0.022891115	0.25371525	-0.001193396	0
358	2060107362	0.005953067	-0.01298326	-0.727465322	-0.685995773	-0.03770128	0.249959854	0.031677628	0
359	2060124029	0.005749262	-0.013098172	-0.727554765	-0.685900464	-0.116424687	0.201400557	0.081182618	0
360	2060140696	0.005549108	-0.013164704	-0.727766179	-0.685676517	-0.080871069	0.231677524	0.071293527	0
361	2060157363	0.005346303	-0.013233876	-0.727942038	-0.685490095	-0.083155954	0.204928495	-0.014631835	0
362	2060174030	0.005158376	-0.013291343	-0.728024722	-0.685402608	-0.050889607	0.168614184	0.032047292	0
363	2060190697	0.004966135	-0.0132986	-0.728097732	-0.685326329	-0.040266106	0.17413246	0.003023341	0
364	2060207364	0.004829163	-0.013268957	-0.728140237	-0.685282722	-0.081565751	0.184762087	0.014173071	0
365	2060224031	0.004693133	-0.013266966	-0.728248015	-0.685169169	-0.073123542	0.180557516	0.085882669	0
366	2060240698	0.00457181	-0.013226217	-0.728335558	-0.685077718	-0.091560814	0.206521206	0.013291169	0
367	2060257365	0.004490481	-0.013158061	-0.728371926	-0.685040902	-0.062152852	0.210686603	-0.01279989	0
368	2060274032	0.004398783	-0.013107454	-0.728393167	-0.685019882	-0.059548083	0.222314058	-0.000747972	0
369	2060290699	0.004355355	-0.013053568	-0.728406703	-0.685006796	-0.053684871	0.24271264	0.019346697	0
370	2060307366	0.004331611	-0.012970732	-0.728471357	-0.684939763	-0.049035622	0.234568734	0.053214484	0
371	2060324033	0.004314159	-0.012876637	-0.728488328	-0.684923599	-0.056286974	0.252573012	-0.002798978	0
372	2060340700	0.004328848	-0.012773374	-0.728460135	-0.684955424	-0.04145397	0.216978857	-0.005206464	0
373	2060357367	0.00435718	-0.012679046	-0.72838041	-0.685041776	-0.058725018	0.22674807	-0.000439325	0
374	2060374034	0.004428473	-0.012534514	-0.728337547	-0.68508955	-0.02042003	0.205991213	0.051331845	0
375	2060390701	0.004481136	-0.012402954	-0.728310607	-0.685120242	-0.032882842	0.224958126	0.036693025	0
376	2060407368	0.004544211	-0.012239431	-0.728264343	-0.685171945	-0.061804983	0.203068249	0.046130344	0
377	2060424035	0.004610844	-0.012058359	-0.728218638	-0.685223285	-0.031234082	0.206878592	0.033460843	0
378	2060440702	0.004697039	-0.011875932	-0.728199229	-0.685246512	-0.023888543	0.206931751	0.03185418	0
379	2060457369	0.004787565	-0.011693807	-0.728164599	-0.685285817	-0.024787855	0.220181954	0.052750672	0
380	2060474036	0.004902863	-0.011497939	-0.728201877	-0.685248703	-0.052152597	0.193994976	0.038464678	0
381	2060490703	0.004988147	-0.011300072	-0.728264352	-0.685184983	-0.044040865	0.182022723	0.032401023	0
382	2060507370	0.005059894	-0.011111844	-0.728337783	-0.685109479	-0.054340731	0.171629557	0.034472578	0
383	2060524037	0.005119026	-0.010963409	-0.728340968	-0.685108045	-0.056484745	0.179816592	-0.008641863	0
384	2060540704	0.005130244	-0.010820884	-0.728299337	-0.685154482	-0.089138737	0.231350556	-0.031171965	0
385	2060557371	0.005165202	-0.010670535	-0.728189886	-0.685272902	-0.136211182	0.249988863	-0.025460067	0
386	2060574038	0.005218916	-0.010497739	-0.728099406	-0.685371297	-0.15240576	0.265027113	0.023777575	0
387	2060590705	0.005323094	-0.01030984	-0.728127582	-0.685343415	-0.114185222	0.235981268	0.07984018	0
388	2060607372	0.005398823	-0.010151712	-0.728270325	-0.685193497	-0.03438624	0.174533053	0.053054039	0
389	2060624039	0.005429245	-0.010042395	-0.728365614	-0.685093575	-0.022613868	0.159659721	-0.017169344	0
390	2060640706	0.005430331	-0.0099852	-0.728364256	-0.685095846	-0.050701287	0.167576039	-0.030344906	0
391	2060657373	0.005416546	-0.009963796	-0.728282086	-0.685183615	-0.111305191	0.181739574	0.041611022	0
392	2060674040	0.005413537	-0.00994651	-0.72818456	-0.685287536	-0.084913773	0.198914823	0.075400245	0
393	2060690707	0.005422037	-0.009890029	-0.728217455	-0.68525333	-0.086825249	0.206165973	0.07413691	0
394	2060707374	0.005441758	-0.009845735	-0.728276239	-0.685191337	-0.036128828	0.210678394	0.022995806	0
395	2060724041	0.005437841	-0.00981198	-0.728364174	-0.685098377	-0.014466332	0.187097937	0.019201278	0
396	2060740708	0.005427453	-0.009808565	-0.728466559	-0.68498964	-0.047514309	0.219289324	0.046706614	0
397	2060757375	0.005392935	-0.009815847	-0.728550379	-0.684900658	-0.05931997	0.210169637	0.045303838	0
398	2060774042	0.005328461	-0.009844397	-0.728551603	-0.684899451	-0.080406908	0.193084375	-0.012577123	0
399	2060790709	0.005313826	-0.009840173	-0.728482681	-0.684972932	-0.111806975	0.187925745	0.011254673	0
400	2060807376	0.005352865	-0.009838971	-0.728381588	-0.685080144	-0.09735325	0.210227455	0.062639502	0
401	2060824043	0.005350556	-0.009858213	-0.728431634	-0.685026672	-0.095402463	0.19715656	0.075083537	0
402	2060840710	0.005355676	-0.009894806	-0.728533267	-0.684918016	-0.077110465	0.191059076	0.031117092	0
403	2060857377	0.005337925	-0.009946248	-0.728600464	-0.684845926	-0.079927475	0.18062115	-0.007108	0
404	2060874044	0.005345444	-0.009971388	-0.728602444	-0.684843396	-0.074279934	0.178522466	-0.03477839	0
405	2060890711	0.005352285	-0.010011935	-0.728565933	-0.684881593	-0.086705195	0.183781325	0.000647555	0
406	2060907378	0.005356769	-0.010067323	-0.728497522	-0.684953513	-0.094942837	0.214655365	0.036644306	0
407	2060924045	0.005341011	-0.010118312	-0.72842817	-0.685026638	-0.05588452	0.252908429	0.048937373	0
408	2060940712	0.005335431	-0.010152415	-0.728345744	-0.685113814	-0.089369241	0.2276552	0.029847225	0
409	2060957379	0.005320884	-0.01017498	-0.728380534	-0.685076605	-0.066420652	0.180587475	0.048443916	0
410	2060974046	0.005298605	-0.010185317	-0.728443749	-0.685009408	-0.06791104	0.217211414	0.030092535	0
411	2060990713	0.005262466	-0.010220253	-0.728368961	-0.685088687	-0.083056505	0.187752792	-0.025713304	0
412	2061007380	0.005212403	-0.010250101	-0.728234017	-0.685232065	-0.065516642	0.146686862	0.014016756	0
413	2061024047	0.005148475	-0.010250897	-0.728154238	-0.685317312	-0.055891214	0.152506016	0.022077676	0
414	2061040714	0.005117404	-0.010270775	-0.728180322	-0.685289532	-0.077123772	0.1519812	0.000938639	0
415	2061057381	0.005087536	-0.01031752	-0.728219353	-0.685247576	-0.086158056	0.161969284	-0.010211083	0
416	2061074048	0.005044136	-0.010358842	-0.728133601	-0.685338391	-0.090523086	0.178710347	-0.031372621	0
417	2061090715	0.005016717	-0.010402592	-0.727983914	-0.685496929	-0.044708862	0.218903106	-0.008351635	0
418	2061107382	0.004956254	-0.010453064	-0.727813413	-0.685677624	-0.029013012	0.245370169	0.010410472	0
419	2061124049	0.004917048	-0.010468389	-0.727733368	-0.685762626	-0.041171413	0.235270867	-0.021905933	0
420	2061140716	0.004863054	-0.010511342	-0.727627234	-0.685874967	-0.049086298	0.232174872	-0.001937328	0
421	2061157383	0.004811607	-0.01054848	-0.727453756	-0.686058752	-0.068034056	0.211933722	-0.004892633	0
422	2061174050	0.00473283	-0.010579418	-0.727284458	-0.686238292	-0.041165694	0.188565728	-0.004611539	0
423	2061190717	0.004649167	-0.010593981	-0.727092636	-0.686441878	-0.02294267	0.149420664	-0.034496489	0
424	2061207384	0.004567683	-0.010581033	-0.726895573	-0.686651297	-0.009187484	0.189428206	-0.002527918	0
425	2061224051	0.004488714	-0.010573695	-0.726638575	-0.686923889	-0.047009791	0.207588797	-0.001378319	0
426	2061240718	0.004381592	-0.010558271	-0.726418223	-0.687157835	-0.059209469	0.219446637	0.057236971	0
427	2061257385	0.004288195	-0.010504952	-0.726227805	-0.687360482	-0.064784691	0.227421276	-0.006149727	0
428	2061274052	0.004222813	-0.010431642	-0.726072133	-0.687526441	-0.072685607	0.208845147	-0.017572622	0
429	2061290719	0.004146458	-0.010335679	-0.725968308	-0.687637984	-0.05988693	0.231223825	0.035278382	0
430	2061307386	0.004093097	-0.010206087	-0.725886381	-0.687726722	-0.069164942	0.230624099	0.013001073	0
431	2061324053	0.004030882	-0.010067818	-0.725720568	-0.687904098	-0.068984097	0.214935125	-0.012137292	0
432	2061340720	0.003954414	-0.009942753	-0.725495875	-0.688143328	-0.038289041	0.216159617	0.031636059	0
433	2061357387	0.003902064	-0.009805181	-0.725317492	-0.688333616	-0.068959781	0.20341906	0.075699076	0
434	2061374054	0.003863971	-0.009671282	-0.725235998	-0.688421588	-0.090407448	0.210924849	0.062475557	0
435	2061390721	0.00381525	-0.009548817	-0.725160464	-0.688503133	-0.05033817	0.195647997	0.010353125	0
436	2061407388	0.003738053	-0.009417105	-0.725035696	-0.688636758	-0.043790994	0.182701183	-0.012095592	0
437	2061424055	0.003644833	-0.009352897	-0.724832355	-0.688852159	-0.027846481	0.182183951	0.014157824	0
438	2061440722	0.003542729	-0.00933123	-0.72462084	-0.689075479	-0.059705829	0.197582337	0.060654815	0
439	2061457389	0.003433779	-0.009310912	-0.724516346	-0.689186172	-0.062454103	0.1817817	0.050652825	0
440	2061474056	0.003327015	-0.009315744	-0.724443468	-0.689263237	-0.042479125	0.195538005	0.022593277	0
441	2061490723	0.003244516	-0.009366822	-0.72431473	-0.689398221	-0.066318756	0.195012793	0.021035639	0
442	2061507390	0.003152515	-0.009442439	-0.72421275	-0.689504746	-0.061683686	0.188093655	0.041724397	0
443	2061524057	0.003049151	-0.009536923	-0.724111871	-0.689609852	-0.087606248	0.21385224	0.005959271	0
444	2061540724	0.002965987	-0.009639914	-0.724006809	-0.689719084	-0.073931584	0.198180906	0.02123584	0
445	2061557391	0.002878723	-0.009748399	-0.723925005	-0.68980379	-0.06868923	0.220474461	0.023359635	0
446	2061574058	0.002835693	-0.009879481	-0.723873381	-0.689856277	-0.065788309	0.198472701	0.033421026	0
447	2061590725	0.00279119	-0.01002013	-0.723852501	-0.689876339	-0.038901344	0.202738622	0.026003387	0
448	2061607392	0.002736159	-0.010153344	-0.723833401	-0.689894652	-0.079737671	0.201134497	0.022854317	0
449	2061624059	0.002707912	-0.010286792	-0.723737906	-0.689992965	-0.077445915	0.204832536	0.001457797	0
450	2061640726	0.002681972	-0.010421253	-0.723654279	-0.690078755	-0.083149163	0.193243553	0.015485434	0
451	2061657393	0.002651081	-0.010540928	-0.723578346	-0.690156676	-0.071106269	0.219059907	-0.016327012	0
452	2061674060	0.002636139	-0.010674597	-0.723535745	-0.69019934	-0.044564662	0.224086715	-0.001628751	0
453	2061690727	0.002617867	-0.010821663	-0.723486863	-0.690248359	-0.035444878	0.216861531	0.030144808	0
454	2061707394	0.002610903	-0.010949329	-0.72341402	-0.690322715	-0.059647392	0.214737675	0.001348561	0
455	2061724061	0.002616454	-0.011041828	-0.723357372	-0.690380579	-0.058567821	0.168179606	-0.014407227	0
456	2061740728	0.002604734	-0.011128741	-0.723338898	-0.690398584	-0.05245463	0.172987809	-0.005088003	0
457	2061757395	0.002592239	-0.011253429	-0.72332677	-0.690409316	-0.072042744	0.176598213	-0.031753164	0
458	2061774062	0.002594727	-0.011372911	-0.723331857	-0.69040202	-0.066025839	0.215381365	0.003189212	0
459	2061790729	0.0026092	-0.011454411	-0.723273883	-0.690461352	-0.12929095	0.24760202	-0.004409085	0
460	2061807396	0.002644413	-0.011529556	-0.723253393	-0.690481431	-0.133517067	0.204969981	0.006573677	0
461	2061824063	0.002705553	-0.011566341	-0.723374833	-0.690353352	-0.170420355	0.218552026	-0.005944332	0
462	2061840730	0.00280092	-0.011583844	-0.723418148	-0.690307288	-0.139477189	0.231142438	-0.010510853	0
463	2061857397	0.002938061	-0.011549695	-0.723348534	-0.690380236	-0.175148608	0.222344299	-0.019019317	0
464	2061874064	0.003161007	-0.011418131	-0.723152439	-0.69058684	-0.261007727	0.257307278	0.036647242	0
465	2061890731	0.003495267	-0.011181732	-0.723071373	-0.690673976	-0.241507918	0.238165432	0.073698872	0
466	2061907398	0.003999739	-0.010851563	-0.723135489	-0.690609376	-0.293657111	0.269208022	0.021379886	0
467	2061924065	0.004674119	-0.010503637	-0.723384737	-0.69034944	-0.178825398	0.220562771	0.093249241	0
468	2061940732	0.005457794	-0.010090083	-0.723893078	-0.689816798	-0.179136975	0.199859406	0.026494518	0
469	2061957399	0.006252341	-0.009540002	-0.72434529	-0.689343019	-0.092400233	0.184019391	-0.059316695	0
470	2061974066	0.006983415	-0.009033501	-0.724614652	-0.689059674	0.121572026	0.131043894	-0.075389002	0
471	2061990733	0.007517068	-0.008640765	-0.72487418	-0.688786073	0.26950079	0.120873793	-0.072425511	0
472	2062007400	0.007807056	-0.008423399	-0.725048645	-0.688601887	0.378431719	0.089387716	-0.059121804	0
473	2062024067	0.007760535	-0.008437001	-0.725157571	-0.688487536	0.45950957	-0.016013873	-0.006025594	0
474	2062040734	0.00730714	-0.008686764	-0.725244391	-0.688397937	0.484506935	-0.030851528	-0.04247275	0
475	2062057401	0.006601735	-0.009130156	-0.725137816	-0.688511587	0.214097832	0.069283395	-0.049894657	0
476	2062074068	0.005857557	-0.009623911	-0.724727903	-0.688943057	-0.041601493	0.185933651	-0.00423604	0
477	2062090735	0.00512921	-0.009923421	-0.724242583	-0.689454784	-0.120752127	0.280181548	0.00115208	0
478	2062107402	0.00453192	-0.010041921	-0.72373774	-0.689987177	-0.309310022	0.363639391	0.019688355	0
479	2062124069	0.004084012	-0.010069886	-0.723376634	-0.690368137	-0.40076059	0.364766363	0.085329416	0
480	2062140736	0.003894659	-0.009974343	-0.723160285	-0.690597239	-0.342595529	0.375664106	0.067836532	0
481	2062157403	0.003839912	-0.009725463	-0.723111777	-0.690651887	-0.209965489	0.324611954	0.017776239	0
482	2062174070	0.003823645	-0.009363708	-0.723142063	-0.690625265	-0.154343752	0.30190671	-0.047586117	0
483	2062190737	0.003910507	-0.008972706	-0.723193101	-0.690576525	-0.101638405	0.252860056	-0.077194917	0
484	2062207404	0.003966582	-0.008620629	-0.72332794	-0.690439456	-0.056759388	0.165915815	-0.093442887	0
485	2062224071	0.00392923	-0.008350073	-0.723498247	-0.690264532	-0.035648701	0.110637071	-0.110258911	0
486	2062240738	0.003857772	-0.008095384	-0.723573211	-0.690189388	-0.126459679	0.096855342	-0.148202487	0
487	2062257405	0.003822025	-0.007826701	-0.7233329	-0.690444531	-0.180590542	0.095142081	-0.216340769	0
488	2062274072	0.003729096	-0.0075944	-0.722956164	-0.690842098	-0.146107566	0.08177367	-0.111938194	0
489	2062290739	0.003667293	-0.007349715	-0.722695482	-0.691117771	-0.117228078	0.102329528	-0.030740129	0
490	2062307406	0.003570152	-0.007167351	-0.722637457	-0.691180865	-0.015463004	0.117651003	-0.07313661	0
491	2062324073	0.003380076	-0.00708421	-0.722620932	-0.691199955	0.098478741	0.112671322	-0.093946369	0
492	2062340740	0.003041525	-0.007075287	-0.722498135	-0.691329975	0.103672537	0.149936972	-0.115466223	0
493	2062357407	0.002669529	-0.007137568	-0.722137214	-0.691707867	0.037833686	0.234888144	-0.038379279	0
494	2062374074	0.002305469	-0.007149143	-0.721771502	-0.692090654	-0.055297911	0.250503298	0.044570156	0
495	2062390741	0.002008608	-0.007086328	-0.721556363	-0.692316521	-0.02563877	0.2649534	0.113443474	0
496	2062407408	0.001753313	-0.006930677	-0.721526658	-0.692349748	-0.046657613	0.260916246	0.08878108	0
497	2062424075	0.001553883	-0.006761872	-0.721583971	-0.692292161	0.029172739	0.208892296	0.085948405	0
498	2062440742	0.001314312	-0.006642948	-0.721596628	-0.692280616	0.058713065	0.20346129	0.045410663	0
499	2062457409	0.001143774	-0.006479838	-0.721362974	-0.692525929	-0.014124121	0.195724405	0.004835129	0
500	2062474076	0.001042724	-0.006289394	-0.720958321	-0.6929491	-0.084517457	0.227426191	0.047893491	0
501	2062490743	0.00102256	-0.006068043	-0.720537356	-0.693388817	-0.081244662	0.257338387	0.118936923	0
502	2062507410	0.00108597	-0.005781709	-0.720274638	-0.693664067	-0.083565622	0.270318131	0.181688295	0
503	2062524077	0.001227202	-0.005450597	-0.72026673	-0.693674724	-0.000798705	0.255835404	0.168278843	0
504	2062540744	0.001352933	-0.005134519	-0.720350998	-0.693589393	0.125606815	0.193566608	0.08320274	0
505	2062557411	0.00143782	-0.00490434	-0.720395794	-0.69354436	0.161745482	0.16355625	0.028816322	0
506	2062574078	0.001480519	-0.004724893	-0.720324625	-0.693619433	0.139669032	0.206638606	0.051193778	0
507	2062590745	0.001487182	-0.004610456	-0.720122752	-0.693829773	0.07419882	0.195171506	0.068246034	0
508	2062607412	0.001499765	-0.004521042	-0.719946626	-0.694013088	-0.0537673	0.202834554	0.078411055	0
509	2062624079	0.001535114	-0.004420742	-0.720000989	-0.693957258	-0.06648139	0.199366771	0.110584673	0
510	2062640746	0.001585367	-0.004354576	-0.720132711	-0.693820872	0.026483638	0.184207943	0.070775044	0
511	2062657413	0.001590949	-0.004366801	-0.720168108	-0.693784042	0.075150862	0.176673012	0.002877193	0
512	2062674080	0.001586299	-0.004400774	-0.720102288	-0.693852154	-0.003328466	0.134912942	0.022074939	0
513	2062690747	0.001614652	-0.00448646	-0.720111686	-0.693841786	0.009659134	0.113597873	0.078972348	0
514	2062707414	0.001559474	-0.00462908	-0.720310876	-0.693634184	0.053012102	0.144719894	0.051614718	0
515	2062724081	0.001506002	-0.004781361	-0.720548131	-0.693386805	-0.000174144	0.189009485	0.016297768	0
516	2062740748	0.001418869	-0.004989274	-0.720646078	-0.693283725	-0.029438009	0.206983479	0.015944748	0
517	2062757415	0.001343193	-0.005209231	-0.720758609	-0.693165267	-0.037144303	0.204387645	0.051121266	0
518	2062774082	0.00122959	-0.005396951	-0.720997009	-0.692916065	0.051520107	0.172919842	0.060264812	0
519	2062790749	0.001057037	-0.005623835	-0.721323705	-0.692574449	0.102838568	0.159251064	0.024637606	0
520	2062807416	0.00080498	-0.005925425	-0.721555145	-0.692331145	0.099414851	0.162327431	-0.028711147	0
521	2062824083	0.000494205	-0.006285141	-0.721641119	-0.69223865	-0.023131586	0.211150128	0.007617331	0
522	2062840750	0.000202596	-0.006645469	-0.721603307	-0.692274847	-0.139063587	0.246668251	0.031776573	0
523	2062857417	4.56E-05	0.006960016	0.721646594	0.69222666	-0.151402001	0.303020226	0.075341036	0
524	2062874084	0.000242404	0.007215169	0.721741141	0.692125427	-0.146068696	0.307378061	0.058103769	0
525	2062890751	0.000370426	0.007408635	0.721859996	0.691999365	-0.215690064	0.344429079	0.057351256	0
526	2062907418	0.000429158	0.007574075	0.721864927	0.691992397	-0.228580644	0.338974492	0.027456036	0
527	2062924085	0.000475316	0.007732071	0.721792471	0.692066195	-0.186527348	0.326914849	0.024961956	0
528	2062940752	0.000518393	0.007883588	0.72169718	0.692163825	-0.151387406	0.289366196	0.039594044	0
529	2062957419	0.000561296	0.00803242	0.721580063	0.692284175	-0.145301585	0.316505915	-0.004935867	0
530	2062974086	0.000630125	0.008199048	0.721205287	0.692672587	-0.149362053	0.31473411	-0.055628545	0
531	2062990753	0.000679858	0.008346349	0.720758834	0.693135325	-0.122102347	0.24517884	0.022781961	0
532	2063007420	0.000665773	0.008439872	0.720589721	0.693310016	-0.060994115	0.15614498	0.146170148	0
533	2063024087	0.000624552	0.008528369	0.720545906	0.693354508	-0.051323299	0.116581305	0.117304329	0
534	2063040754	0.000513416	0.008649148	0.720462852	0.693439404	-0.098936546	0.115194307	0.05867728	0
535	2063057421	0.000342495	0.008710108	0.720451947	0.693450076	-0.032197364	0.102939484	0.119087406	0
536	2063074088	0.000166581	0.008779789	0.720561831	0.693335082	-0.016735878	0.124668342	0.122853351	0
537	2063090755	4.59E-05	-0.008803681	-0.720619511	-0.693274847	-0.021338588	0.151938567	-0.012723747	0
538	2063107422	0.000270361	-0.008824143	-0.720524161	-0.693373633	0.045024402	0.149725621	-0.016789667	0
539	2063124089	0.000487407	-0.008819817	-0.720453153	-0.693447351	0.016862025	0.158842585	0.14198394	0
540	2063140756	0.000744658	-0.008772847	-0.720498205	-0.693400908	-0.002346619	0.17357077	0.145984736	0
541	2063157423	0.001020302	-0.008727713	-0.720591904	-0.693303753	0.006090003	0.189125713	0.035255884	0
542	2063174090	0.001244625	-0.008669433	-0.720652291	-0.693241349	0.018154326	0.205942242	-0.013321451	0
543	2063190757	0.001423088	-0.008609984	-0.720627713	-0.693267294	0.049774661	0.183123133	-0.018580656	0
544	2063207424	0.001528118	-0.008575707	-0.720605875	-0.693290195	0.019628172	0.173275861	-0.056424674	0
545	2063224091	0.001553287	-0.008603177	-0.720521584	-0.6933774	0.052445383	0.181394429	-0.044067851	0
546	2063240758	0.00153373	-0.008602045	-0.72037347	-0.693531338	-0.001055833	0.206112966	-0.024483327	0
547	2063257425	0.001440344	-0.008627135	-0.720216589	-0.693694142	-0.08231701	0.232147136	-0.036853307	0
548	2063274092	0.001306563	-0.008646027	-0.720026587	-0.693891384	-0.069862475	0.249563916	-0.014920051	0
549	2063290759	0.001159787	-0.00864702	-0.719772788	-0.694154895	-0.009452523	0.228797563	-0.04245321	0
550	2063307426	0.000974501	-0.008636898	-0.71947673	-0.694462158	0.026163631	0.17076089	0.005700331	0
551	2063324093	0.000753487	-0.008637762	-0.71922465	-0.694723488	-0.015587428	0.184129441	0.039456277	0
552	2063340760	0.000545054	-0.008590444	-0.719070728	-0.694883584	-0.001807265	0.160931966	0.063153816	0
553	2063357427	0.000269713	-0.008593432	-0.718963987	-0.694994148	0.008814448	0.172124499	-0.011364639	0
554	2063374094	3.56E-05	0.00865356	0.718798955	0.695164136	0.038826156	0.182852109	0.009301016	0
555	2063390761	0.000345944	0.00873569	0.71854608	0.695424402	0.016418997	0.209719732	0.100581452	0
556	2063407428	0.000681465	0.008803592	0.71841831	0.695555292	-0.078737109	0.202468836	0.091525674	0
557	2063424095	0.000872771	0.008875889	0.71835951	0.695614887	-0.182986876	0.234711399	0.121081493	0
558	2063440762	0.000974696	0.008950765	0.718365715	0.695607385	-0.132453988	0.265758855	0.2195534	0
559	2063457429	0.001082797	0.008971932	0.718509939	0.695457979	0.008563365	0.214808622	0.04187623	0
560	2063474096	0.001228077	0.009023927	0.718551254	0.695414377	-0.00857667	0.177626317	-0.049911115	0
561	2063490763	0.0013392	0.009094522	0.718327839	0.695644027	-0.100924808	0.219896402	0.001977812	0
562	2063507430	0.001360226	0.00913483	0.718009317	0.695972216	-0.159311317	0.197189336	0.120071416	0
563	2063524097	0.001352893	0.009065194	0.717886488	0.696099837	-0.119703721	0.189264986	0.101833617	0
564	2063540764	0.001320331	0.008983639	0.717847347	0.69614132	-0.022823559	0.169877062	-0.012568566	0
565	2063557431	0.001221928	0.008904565	0.717721297	0.696272472	-0.077746884	0.218333587	0.007454458	0
566	2063574098	0.001075412	0.008846157	0.717541523	0.696458722	-0.090713748	0.227410233	0.118557075	0
567	2063590765	0.000896779	0.008719228	0.717405484	0.696600705	-0.098615659	0.296560419	0.078755731	0
568	2063607432	0.000681405	0.008530276	0.717322955	0.696688271	-0.073531275	0.25478978	0.029513739	0
569	2063624099	0.00044618	0.008362724	0.717288659	0.696725804	-0.03845326	0.208543395	0.011403075	0
570	2063640766	0.000199293	0.008149607	0.717322038	0.696694078	-0.04431815	0.155056768	0.062545059	0
571	2063657433	6.33E-05	-0.007833638	-0.71729231	-0.696728335	-0.038198897	0.084948258	0.167897717	0
572	2063674100	0.00034941	-0.007319844	-0.717363351	-0.696660693	-0.030299244	0.008923739	0.33590037	0
573	2063690767	0.000678718	-0.006586821	-0.71759775	-0.696426322	-0.065560421	-0.073915566	0.513060028	0
574	2063707434	0.000984201	-0.005613065	-0.71820726	-0.695805904	0.009493567	-0.083220713	0.575612343	0
575	2063724101	0.001341686	-0.004347506	-0.719136409	-0.694854031	0.079901593	-0.042129021	0.467576117	0
576	2063740768	0.001642201	-0.002848454	-0.72016524	-0.693794795	0.164812116	0.035409204	0.272190733	0
577	2063757435	0.001802128	-0.00114503	-0.721039102	-0.692891084	0.189753612	0.12114986	0.15942173	0
578	2063774102	0.001858929	0.000693173	-0.721669014	-0.692235435	0.117102501	0.157363091	-0.057251842	0
579	2063790769	0.001712043	0.002488755	-0.721976059	-0.691911443	0.078898794	0.115468451	-0.245121013	0
580	2063807436	0.001339233	0.004101366	-0.721949464	-0.691932335	0.01947646	0.201794782	-0.327915664	0
581	2063824103	0.000850409	0.005619085	-0.721517898	-0.692372462	-0.129091128	0.300396157	-0.35127885	0
582	2063840770	0.000345632	0.007053823	-0.720580492	-0.693335329	-0.224889416	0.337583568	-0.433670112	0
583	2063857437	0.00014731	-0.008315658	0.719360907	0.694586721	-0.229731504	0.343242398	-0.46774061	0
584	2063874104	0.000629274	-0.009263495	0.718046488	0.69593321	-0.130000282	0.3905741	-0.367523677	0
585	2063890771	0.001179962	-0.010066419	0.716781099	0.697224591	-0.051380217	0.435934931	-0.164010769	0
586	2063907438	0.001797276	-0.010858618	0.71561468	0.698408541	0.093382476	0.387212277	-0.090915554	0
587	2063924105	0.00243226	-0.0115505	0.714379526	0.69965889	0.119106922	0.36559741	-0.021032488	0
588	2063940772	0.003029831	-0.012112705	0.713208298	0.700840942	0.046334266	0.314493069	-0.021408746	0
589	2063957439	0.003591784	-0.012549558	0.712391254	0.701661107	0.069204087	0.272073582	-0.135012267	0
590	2063974106	0.004167825	-0.012835965	0.711758629	0.702294469	0.036770057	0.337516972	-0.237356195	0
591	2063990773	0.004741039	-0.01300414	0.710920633	0.703136025	0.022536248	0.332505489	-0.110334359	0
592	2064007440	0.005331705	-0.013057254	0.709939569	0.70412136	0.024824132	0.27753901	0.071895197	0
593	2064024107	0.005880398	-0.012988158	0.70906799	0.704995968	-0.036613433	0.213355779	0.049471166	0
594	2064040774	0.006393703	-0.01275375	0.708473438	0.705593261	-0.034083488	0.22750385	-0.065048468	0
595	2064057441	0.00687221	-0.012342329	0.707897844	0.706173549	-0.002788808	0.296497612	-0.099899224	0
596	2064074108	0.007318006	-0.011850601	0.707185798	0.706890556	-0.068508727	0.293451375	-0.032642914	0
597	2064090775	0.007583419	-0.01132469	0.706183393	0.707897774	-0.197162903	0.338682734	0.055911013	0
598	2064107442	0.007728539	-0.010736039	0.705247678	0.708837584	-0.143361464	0.1937952	0.122737128	0
599	2064124109	0.007802511	-0.010097643	0.704665313	0.709425088	-0.025262057	0.20050382	0.000733614	0
600	2064140776	0.007750344	-0.009341728	0.704084563	0.710012389	-0.025108545	0.165691117	-0.111525637	0
601	2064157443	0.007625492	-0.008466981	0.703371889	0.710730714	-0.053836329	0.203284663	-0.043274938	0
602	2064174110	0.007385509	-0.007526054	0.702550694	0.711555574	-0.111145374	0.211383349	0.099972994	0
603	2064190777	0.007113843	-0.006577846	0.701885919	0.712223478	-0.028184957	0.175229486	0.185213008	0
604	2064207444	0.006753755	-0.005570674	0.701578132	0.712538756	-0.043432793	0.149133925	0.125327047	0
605	2064224111	0.006354057	-0.00450609	0.701487595	0.712639092	-0.056235735	0.183723061	0.060638371	0
606	2064240778	0.00588658	-0.003417105	0.701349229	0.712785332	-0.057336794	0.241530136	0.021877782	0
607	2064257445	0.005390449	-0.002306328	0.701187596	0.712952718	-0.062498472	0.230834457	0.114662319	0
608	2064274112	0.004861298	-0.001178295	0.701165651	0.712980861	-0.083987444	0.231395039	0.150043611	0
609	2064290779	0.004253745	-7.03E-05	0.701400122	0.712755056	-0.072296693	0.190304303	0.104140723	0
610	2064307446	0.003604922	0.001015623	0.701709582	0.712453252	-0.095960596	0.218049851	-0.011344805	0
611	2064324113	0.002921107	0.002019642	0.701941034	0.712226209	-0.090054285	0.199206971	-0.053456881	0
612	2064340780	0.002212332	0.002919347	0.702095678	0.7120732	-0.093166724	0.159126105	-0.00812399	0
613	2064357447	0.001489636	0.003745352	0.702268663	0.71190061	-0.090066381	0.110509798	-0.027944291	0
614	2064374114	0.000772785	0.004535609	0.702406036	0.711761612	-0.018122233	0.086917325	-0.078872984	0
615	2064390781	6.04E-05	0.005290229	0.702455653	0.711707851	0.032284695	0.116635039	-0.108436066	0
616	2064407448	0.000618692	-0.005951381	-0.702492415	-0.711666077	0.019419865	0.159252684	-0.103456264	0
617	2064424115	0.001267373	-0.006458645	-0.702457628	-0.711695131	0.017420427	0.221040643	-0.120264095	0
618	2064440782	0.001852994	-0.006843238	-0.702297838	-0.711847935	0.011383903	0.293290239	-0.172404996	0
619	2064457449	0.002423491	-0.007126451	-0.70212589	-0.712013044	-0.024042241	0.283254004	-0.132524705	0
620	2064474116	0.003004733	-0.007263726	-0.701954235	-0.712178673	-0.017424934	0.269523114	-0.065948955	0
621	2064490783	0.00352605	-0.00726666	-0.701890363	-0.712239202	0.06555881	0.172371437	-0.05508502	0
622	2064507450	0.003967456	-0.007153058	-0.7020604	-0.712070423	0.098473388	0.063795446	0.022177243	0
623	2064524117	0.004382602	-0.006984048	-0.702340475	-0.71179342	0.129850196	0.010774591	-0.004033856	0
624	2064540784	0.004676349	-0.006807628	-0.702706592	-0.71143182	0.166309122	0.04014558	-0.115188781	0
625	2064557451	0.004866076	-0.006627192	-0.702968237	-0.71117372	0.178030905	0.082145658	-0.14057287	0
626	2064574118	0.004965844	-0.006430616	-0.702976825	-0.711166346	0.069475785	0.162085372	-0.087972092	0
627	2064590785	0.005067741	-0.006119347	-0.702875907	-0.711268114	-0.081557216	0.184645039	0.096823485	0
628	2064607452	0.005210601	-0.005750653	-0.702886943	-0.711259253	-0.082371633	0.235392255	0.179842459	0
629	2064624119	0.005345633	-0.005339946	-0.703145051	-0.711006292	-0.044312202	0.259061554	0.146656931	0
630	2064640786	0.005497741	-0.004871298	-0.703495323	-0.710661928	0.015010826	0.311693396	0.053176903	0
631	2064657453	0.005678707	-0.004370795	-0.703634438	-0.71052602	-0.012841758	0.308016808	-0.063824027	0
632	2064674120	0.005903008	-0.003814928	-0.703652998	-0.710509014	-0.016210146	0.231516981	0.055189894	0
633	2064690787	0.006137853	-0.00318871	-0.703803691	-0.71036084	-0.05167863	0.157180353	0.105031399	0
634	2064707454	0.006412871	-0.002465752	-0.704282383	-0.709886695	-0.027060338	0.090843433	0.056456819	0
635	2064724121	0.006683501	-0.001743133	-0.70485055	-0.709322208	0.035825433	0.059399448	-0.017833622	0
636	2064740788	0.006893496	-0.001117075	-0.705211258	-0.708962844	0.031125661	0.093109809	-0.02752336	0
637	2064757455	0.007082403	-0.000553381	-0.705332261	-0.708841262	-0.014474686	0.131627187	0.022594006	0
638	2064774122	0.00728627	3.11E-05	-0.705519219	-0.708653329	-0.192971547	0.232061025	0.043908713	0
639	2064790789	0.007554182	0.000729846	-0.705989619	-0.708181516	-0.203436592	0.231590317	0.090022818	0
640	2064807456	0.007846306	0.001483887	-0.706617605	-0.70755056	-0.135399121	0.259966321	0.04154669	0
641	2064824123	0.008142842	0.002233973	-0.70723289	-0.706930225	-0.079118352	0.166059098	0.014005857	0
642	2064840790	0.008404524	0.00295485	-0.707727347	-0.706429497	-0.03146111	0.158515231	-0.02757797	0
643	2064857457	0.008647823	0.003647141	-0.708114878	-0.706034867	0.008177956	0.141029453	0.080441865	0
644	2064874124	0.008882302	0.004293355	-0.708549438	-0.705592209	-0.019490695	0.156377725	0.08216734	0
645	2064890791	0.009085276	0.004879193	-0.70901344	-0.705119559	-0.067920043	0.174682801	0.007749901	0
646	2064907458	0.009263705	0.005401428	-0.709331184	-0.704793785	-0.107023624	0.150437481	0.003933576	0
647	2064924125	0.00948716	0.005902809	-0.709542731	-0.704573817	-0.10615205	0.207466099	0.095960916	0
648	2064940792	0.009724383	0.006387477	-0.709863746	-0.704242926	-0.102744522	0.189219524	0.139273978	0
649	2064957459	0.009890741	0.006860738	-0.710536056	-0.703557828	-0.06206742	0.174898795	0.011691307	0
650	2064974126	0.010039316	0.007237403	-0.711270928	-0.702809006	-0.044969869	0.178962464	-0.064384575	0
651	2064990793	0.010147193	0.00746719	-0.711676495	-0.702394363	-0.068079956	0.197871523	-0.080652141	0
652	2065007460	0.010170628	0.007569553	-0.711788061	-0.70227987	-0.158240372	0.176756317	-0.027767378	0
653	2065024127	0.010169873	0.007654531	-0.711988296	-0.702075956	-0.146772426	0.164250973	0.046339444	0
654	2065040794	0.010173823	0.007674875	-0.712371188	-0.701687167	-0.125411833	0.144575644	-0.051440354	0
655	2065057461	0.010147459	0.007570084	-0.712877219	-0.701174581	-0.084707234	0.132601786	-0.075453517	0
656	2065074128	0.010036959	0.007324027	-0.713320303	-0.700728024	-0.098119347	0.136775217	-0.142011151	0
657	2065090795	0.009940857	0.006930562	-0.713545786	-0.700503789	-0.172609526	0.165077123	-0.144815548	0
658	2065107462	0.009846054	0.006402247	-0.713712312	-0.700340491	-0.255315841	0.218193963	-0.062268818	0
659	2065124129	0.009861909	0.005829027	-0.713903765	-0.700150112	-0.336244423	0.294692698	-0.078633387	0
660	2065140796	0.009958151	0.005208781	-0.714280014	-0.699769795	-0.308746017	0.323490836	-0.05700483	0
661	2065157463	0.010127925	0.004569224	-0.714808093	-0.699232391	-0.210636514	0.292496403	-0.065351035	0
662	2065174130	0.010271989	0.003858192	-0.715419764	-0.698608733	-0.104228707	0.228198875	-0.056423752	0
663	2065190797	0.010320539	0.002978386	-0.716132424	-0.697881772	0.048322172	0.166815932	0.0062825	0
664	2065207464	0.010315769	0.002040594	-0.717024352	-0.696968794	0.034209595	0.099933516	0.075637668	0
665	2065224131	0.010212814	0.001052316	-0.718010813	-0.695956222	-0.003943454	0.100721194	0.023526433	0
666	2065240798	0.010091591	3.59E-05	-0.719066451	-0.694868043	0.066133758	0.135000518	0.06885652	0
667	2065257465	0.009938129	-0.000956553	-0.720114821	-0.693783081	0.076747781	0.142811478	0.003768339	0
668	2065274132	0.009671665	-0.002004593	-0.721066127	-0.692795844	0.142985971	0.159544564	-0.057647771	0
669	2065290799	0.009281619	-0.003149285	-0.721803232	-0.692028921	0.117184553	0.178768516	0.028354367	0
670	2065307466	0.008815506	-0.004357959	-0.722280976	-0.691529816	0.057645142	0.239079312	0.060939367	0
671	2065324133	0.008340189	-0.00556557	-0.722595939	-0.691197927	-0.118981987	0.279311733	0.141647494	0
672	2065340800	0.008001974	-0.006639956	-0.722881146	-0.690894151	-0.261728909	0.354765725	0.138096301	0
673	2065357467	0.007822089	-0.007597703	-0.723244367	-0.690506101	-0.270895072	0.362248637	0.156477454	0
674	2065374134	0.007807865	-0.008422075	-0.723815663	-0.689897812	-0.196263731	0.336569199	0.11147075	0
675	2065390801	0.007815882	-0.009165849	-0.724312775	-0.689366305	-0.091267807	0.273623562	-0.04740126	0
676	2065407468	0.007801941	-0.00990693	-0.724383933	-0.689281438	-0.069563586	0.279503751	-0.147451712	0
677	2065424135	0.00788546	-0.010611993	-0.724018896	-0.689653423	-0.129545056	0.302485656	-0.04351412	0
678	2065440802	0.008054919	-0.011213972	-0.723638393	-0.690041188	-0.154949024	0.30935349	0.111092969	0
679	2065457469	0.008325151	-0.011566563	-0.723496114	-0.690181338	-0.106524014	0.279853522	0.10905759	0
680	2065474136	0.008646865	-0.011800118	-0.723628553	-0.690034569	-0.051862526	0.233877275	0.041929841	0
681	2065490803	0.009002791	-0.012010548	-0.723874876	-0.689767976	0.012340143	0.214097812	0.065649213	0
682	2065507470	0.009365219	-0.01212488	-0.724125632	-0.689497896	0.078083546	0.179085756	0.03704786	0
683	2065524137	0.00966926	-0.012088081	-0.724349624	-0.689259027	-0.018613382	0.145090968	-0.032018078	0
684	2065540804	0.010001749	-0.011944229	-0.724436561	-0.689165415	-0.056645106	0.155882979	-0.034646921	0
685	2065557471	0.010291944	-0.011700883	-0.724502554	-0.68909594	-0.016253103	0.19175291	-0.014255754	0
686	2065574138	0.010580047	-0.011372322	-0.724575829	-0.689020029	-0.004777323	0.25804476	-0.087107028	0
687	2065590805	0.010834254	-0.010936226	-0.724543369	-0.689057272	0.017153227	0.215400558	-0.11330061	0
688	2065607472	0.010980296	-0.010508082	-0.724326095	-0.689290013	0.062052594	0.159979768	-0.063410132	0
689	2065624139	0.011011067	-0.010097101	-0.72404757	-0.689588225	0.031175159	0.12543548	-0.041925527	0
690	2065640806	0.011008453	-0.009653294	-0.723787999	-0.68986706	-0.029943702	0.157737996	-0.066169512	0
691	2065657473	0.010957365	-0.009156734	-0.723645439	-0.69002418	-0.048371133	0.186561025	-0.095038713	0
692	2065674140	0.010834959	-0.008634324	-0.723503836	-0.690181318	0.009179928	0.201929047	-0.127543262	0
693	2065690807	0.010623567	-0.008145458	-0.723119416	-0.690593297	0.034049423	0.258566478	-0.149847634	0
694	2065707474	0.010338668	-0.007726843	-0.722517376	-0.691232268	-0.02399985	0.192268798	-0.128109609	0
695	2065724141	0.00997234	-0.007369674	-0.721997604	-0.691784432	-0.091686234	0.17493042	-0.109352732	0
696	2065740808	0.009622538	-0.006995599	-0.721488087	-0.692324641	-0.104761535	0.233934478	-0.060548539	0
697	2065757475	0.009261257	-0.006640405	-0.72087869	-0.692967566	-0.062824158	0.20940553	-0.067439107	0
698	2065774142	0.00890071	-0.006344879	-0.720214017	-0.693665834	-0.019982064	0.191171496	-0.007618644	0
699	2065790809	0.008627126	-0.006087538	-0.719639249	-0.694267863	0.012967754	0.156882597	0.062259459	0
700	2065807476	0.008366416	-0.005907088	-0.719176936	-0.694751499	-0.030371758	0.185752186	0.041456336	0
701	2065824143	0.008163657	-0.00574826	-0.718810156	-0.695134715	-0.081191806	0.206150856	0.101698022	0
702	2065840810	0.008064831	-0.005570448	-0.718541213	-0.695415311	-0.042928619	0.191857733	0.134548762	0
703	2065857477	0.008003592	-0.005375487	-0.718379149	-0.695584966	-0.026101493	0.158563809	0.131334777	0
704	2065874144	0.008026047	-0.005205082	-0.71832171	-0.69564532	0.003448357	0.15782163	0.121286407	0
705	2065890811	0.008086839	-0.005085838	-0.718231213	-0.695738933	0.050816127	0.189851702	0.077537779	0
706	2065907478	0.008121157	-0.005020439	-0.717999256	-0.695978383	0.015640141	0.211514324	0.033260415	0
707	2065924145	0.008144139	-0.005000827	-0.717678586	-0.69630892	0.057954583	0.202655064	0.055084492	0
708	2065940812	0.008143584	-0.00503552	-0.717436415	-0.696558192	0.0287854	0.189925371	0.082894196	0
709	2065957479	0.008144114	-0.005084075	-0.7172666	-0.696732697	-0.063028188	0.218785586	0.01530621	0
710	2065974146	0.008190441	-0.005164421	-0.71709215	-0.696911109	-0.092924343	0.273610991	-0.019256272	0
711	2065990813	0.008275818	-0.00528866	-0.716790285	-0.697219641	-0.075218546	0.311244512	0.012275585	0
712	2066007480	0.008307666	-0.005441294	-0.716406464	-0.697612466	-0.023966562	0.283358984	0.049789651	0
713	2066024147	0.008348366	-0.005571305	-0.716078437	-0.697947661	-0.026262089	0.260903831	0.050016074	0
714	2066040814	0.008409812	-0.005721866	-0.715919021	-0.698109226	-0.001715838	0.189969319	0.070919624	0
715	2066057481	0.008475253	-0.005899399	-0.71592847	-0.698097267	0.01096957	0.174766924	0.075458128	0
716	2066074148	0.008521752	-0.006113628	-0.715992187	-0.698029506	0.030614143	0.172303788	0.027918277	0
717	2066090815	0.008517462	-0.006393204	-0.715943386	-0.698077107	0.037377816	0.15002236	-0.030020085	0
718	2066107482	0.008495077	-0.006667711	-0.715717397	-0.698306511	0.002660943	0.151900806	-0.036578439	0
719	2066124149	0.008473965	-0.006980199	-0.7155083	-0.698517961	-0.028044293	0.152224458	0.002078821	0
720	2066140816	0.008433608	-0.007316365	-0.715387826	-0.698638393	-0.0231371	0.187498438	0.009295735	0
721	2066157483	0.008362486	-0.007682405	-0.715299402	-0.698725851	-0.041787225	0.206207327	-0.014276203	0
722	2066174150	0.008287789	-0.008087996	-0.715146928	-0.698878222	-0.047742589	0.248880359	-0.067526607	0
723	2066190817	0.008202718	-0.008480499	-0.714999968	-0.699024922	-0.0707811	0.238750238	-0.010194315	0
724	2066207484	0.008096979	-0.008877526	-0.71487088	-0.69915324	-0.025595136	0.228493122	0.020739122	0
725	2066224151	0.007987722	-0.00927752	-0.714776833	-0.699245452	-0.033647301	0.219968234	0.01190791	0
726	2066240818	0.007877776	-0.009659224	-0.714798982	-0.69921889	-0.068151128	0.211005957	0.003842224	0
727	2066257485	0.007747677	-0.010100224	-0.714821583	-0.699191006	-0.026338887	0.220859397	0.011190322	0
728	2066274152	0.00761531	-0.010530692	-0.714800656	-0.699207504	0.000488135	0.198881118	0.017926377	0
729	2066290819	0.0074746	-0.010950782	-0.714772705	-0.699231142	-0.037330811	0.201114191	0.028854073	0
730	2066307486	0.007353749	-0.011368234	-0.71479439	-0.699203594	-0.069061042	0.198254381	0.035652934	0
731	2066324153	0.007262867	-0.011761951	-0.71491224	-0.699077532	-0.102445801	0.219654873	0.008248378	0
732	2066340820	0.007218602	-0.012100267	-0.7150612	-0.69891985	-0.054042547	0.19392763	-0.018078873	0
733	2066357487	0.007197536	-0.012453406	-0.715155387	-0.698817488	-0.027208327	0.207825742	-0.027123489	0
734	2066374154	0.007156633	-0.012810317	-0.715130541	-0.698836882	-0.007896738	0.20925584	-0.034812352	0
735	2066390821	0.007092364	-0.013183043	-0.715053141	-0.698909802	0.027190492	0.221882338	-0.030608082	0
736	2066407488	0.00700137	-0.013554129	-0.714995739	-0.698962345	0.019971299	0.228845395	-0.006861228	0
737	2066424155	0.00693781	-0.013963123	-0.714850448	-0.699103522	-0.112870035	0.305119445	-0.024803221	0
738	2066440822	0.006982658	-0.014294224	-0.7146781	-0.699272573	-0.122588761	0.299729312	0.039332729	0
739	2066457489	0.007069188	-0.014574942	-0.714600098	-0.699345621	-0.120121735	0.297969568	0.004531937	0
740	2066474156	0.007226627	-0.014771945	-0.714676224	-0.699262083	-0.079468357	0.249140474	-0.014589984	0
741	2066490823	0.007386158	-0.014983919	-0.714857812	-0.699070265	-0.014269191	0.195270816	-0.020733961	0
742	2066507490	0.007568603	-0.015206943	-0.715027946	-0.698889478	0.016273985	0.210170853	-0.01298738	0
743	2066524157	0.007724596	-0.015415662	-0.715063879	-0.698846433	0.003303525	0.214916097	-0.0481775	0
744	2066540824	0.007825671	-0.015655198	-0.714932968	-0.698973908	-0.014373674	0.171032148	-0.080519281	0
745	2066557491	0.007889698	-0.015926722	-0.714800361	-0.699102665	-0.050380854	0.170673525	-0.015892548	0
746	2066574158	0.007955065	-0.0162218	-0.71463043	-0.699268846	-0.125187878	0.225251389	-0.00044535	0
747	2066590825	0.00804939	-0.016471097	-0.714517126	-0.699377714	-0.156835594	0.210615275	-0.030506143	0
748	2066607492	0.008117525	-0.016701174	-0.714376108	-0.699515513	-0.114019646	0.180753465	-0.011501887	0
749	2066624159	0.008211471	-0.016885607	-0.714263961	-0.699624501	-0.080190907	0.160907521	0.025603516	0
750	2066640826	0.008273451	-0.017062315	-0.714252701	-0.699630979	-0.023350089	0.14028908	0.031571547	0
751	2066657493	0.008327589	-0.017219746	-0.714278307	-0.699600337	-0.0581976	0.149359626	0.028703246	0
752	2066674160	0.008405003	-0.017323232	-0.714223509	-0.6996528	-0.083809443	0.138843196	0.015886158	0
753	2066690827	0.008475175	-0.017387402	-0.714167502	-0.69970753	-0.075861339	0.138768601	0.035833058	0
754	2066707494	0.008550568	-0.017411851	-0.714175408	-0.699697936	-0.044166235	0.153404197	0.00713171	0
755	2066724161	0.008625385	-0.017428719	-0.714213955	-0.699657251	-0.03642411	0.179062057	-0.060126916	0
756	2066740828	0.008635174	-0.017464144	-0.714232801	-0.699637008	0.001676372	0.210163713	-0.028985732	0
757	2066757495	0.008599262	-0.017509422	-0.714182705	-0.699687456	0.007910686	0.225787683	-0.03182316	0
758	2066774162	0.008522972	-0.017553268	-0.714031771	-0.699841319	-0.018831499	0.223426509	-0.029852672	0
759	2066790829	0.008418155	-0.017584605	-0.713873808	-0.700002931	-0.074266507	0.220054748	0.006926186	0
760	2066807496	0.008334462	-0.01756559	-0.713796585	-0.700083153	-0.116989391	0.239032081	0.023821892	0
761	2066824163	0.008245651	-0.017495338	-0.713829128	-0.700052782	-0.088826329	0.223580546	0.040561816	0
762	2066840830	0.00812818	-0.017408859	-0.713864398	-0.700020347	-0.064297554	0.192912418	-0.023429545	0
763	2066857497	0.008029781	-0.017318305	-0.713842091	-0.700046476	-0.053628318	0.157046148	-0.037225976	0
764	2066874164	0.007921228	-0.017239926	-0.713773783	-0.700119294	-0.051395935	0.170403726	-0.029142598	0
765	2066890831	0.007829786	-0.017165989	-0.713713984	-0.7001831	-0.047947033	0.194088169	0.028688957	0
766	2066907498	0.007687127	-0.017093951	-0.71364786	-0.700253837	-0.041732406	0.226350794	0.008006119	0
767	2066924165	0.007549256	-0.016970951	-0.713547298	-0.700360799	-0.057780766	0.232679329	-0.022465283	0
768	2066940832	0.007465401	-0.016854182	-0.713330093	-0.700585743	-0.137308349	0.256298288	0.024888748	0
769	2066957499	0.00745297	-0.016689841	-0.713116982	-0.70080673	-0.121342495	0.239890104	0.096266884	0
770	2066974166	0.007407606	-0.016469424	-0.713065306	-0.700865004	-0.062260358	0.21100816	0.025144541	0
771	2066990833	0.007370825	-0.016239487	-0.712984139	-0.700953328	-0.025946474	0.175465695	-0.045546766	0
772	2067007500	0.00727959	-0.016091914	-0.712712828	-0.701233544	0.01639625	0.160509637	-0.033308153	0
773	2067024167	0.00715653	-0.015969444	-0.712362299	-0.701593697	-0.033284341	0.193208514	0.065475307	0
774	2067040834	0.007075109	-0.015811549	-0.712034416	-0.701930857	-0.11421257	0.226143431	0.108728542	0
775	2067057501	0.007057582	-0.015598948	-0.71183425	-0.702138778	-0.056050317	0.218893712	0.138322086	0
776	2067074168	0.007091672	-0.01534088	-0.711848379	-0.702129796	-0.039355829	0.210098852	0.11233407	0
777	2067090835	0.007163743	-0.0150667	-0.711974711	-0.702006899	-0.031751743	0.199660819	0.048585353	0
778	2067107502	0.007187651	-0.01485638	-0.712075905	-0.701908492	0.013008307	0.173620633	-0.008605119	0
779	2067124169	0.007174707	-0.014709501	-0.712071006	-0.701916687	0.038735116	0.157922757	-0.000246639	0
780	2067140836	0.00714835	-0.014628089	-0.71202599	-0.701964322	0.034974441	0.158224559	0.037128262	0
781	2067157503	0.007105677	-0.014607307	-0.711959876	-0.702032243	-0.053309416	0.205905101	0.052439483	0
782	2067174170	0.007130378	-0.014556345	-0.711862483	-0.702131808	-0.118787102	0.240471238	0.019935687	0
783	2067190837	0.007176806	-0.014508396	-0.711760918	-0.702235285	-0.054607824	0.234518008	0.003963969	0
784	2067207504	0.007225465	-0.014476205	-0.711584904	-0.702413807	-0.055198619	0.265078152	-0.036569071	0
785	2067224171	0.007289042	-0.01445395	-0.711410896	-0.702589845	-0.050253747	0.21684882	0.005614441	0
786	2067240838	0.00733361	-0.014470081	-0.711252564	-0.702749333	-0.0141527	0.221625836	0.05284695	0
787	2067257505	0.007356876	-0.014526911	-0.711116592	-0.702885509	-0.037601144	0.212176553	0.063232183	0
788	2067274172	0.007390085	-0.014587578	-0.71097575	-0.703026367	-0.029809374	0.209676083	0.019190132	0
789	2067290839	0.007434296	-0.014649881	-0.710891547	-0.70310975	-0.07174805	0.197485487	0.044557902	0
790	2067307506	0.007505428	-0.014689583	-0.710855965	-0.70314414	-0.074131966	0.178545672	0.048922314	0
791	2067324173	0.007592529	-0.014735112	-0.710883821	-0.70311409	-0.054221062	0.1683031	0.021013109	0
792	2067340840	0.007671742	-0.014753776	-0.710929603	-0.703066547	-0.023275557	0.203332712	-0.006525957	0
793	2067357507	0.00770301	-0.014806184	-0.710896753	-0.70309832	0.001025721	0.189291137	0.015061132	0
794	2067374174	0.007717132	-0.014897806	-0.710814145	-0.703179744	-0.048882047	0.198560546	-0.027644902	0
795	2067390841	0.007694829	-0.015005465	-0.710718392	-0.703274479	-0.096076526	0.207538228	-0.008872405	0
796	2067407508	0.007690192	-0.015087863	-0.710589147	-0.703403357	-0.076831033	0.240980299	0.003763261	0
797	2067424175	0.007676369	-0.015163281	-0.710475698	-0.703516475	-0.052888792	0.176639655	0.001473541	0
798	2067440842	0.007645211	-0.015233053	-0.710407196	-0.70358448	0.001712926	0.14059177	0.020080933	0
799	2067457509	0.007635726	-0.015322753	-0.710369809	-0.703620383	0.03175067	0.117022199	0.036257164	0
800	2067474176	0.00761956	-0.015426086	-0.710363881	-0.703624285	0.039096487	0.122004441	0.047879557	0
801	2067490843	0.007576242	-0.015544775	-0.710297221	-0.703689433	0.033309802	0.133301308	-0.004225701	0
802	2067507510	0.007512233	-0.015648234	-0.710186053	-0.703800021	0.051796576	0.125565711	0.031543691	0
803	2067524177	0.007446675	-0.015734375	-0.710088805	-0.703896914	0.042315572	0.176460806	0.066868827	0
804	2067540844	0.007411238	-0.015791678	-0.710071143	-0.703913822	0.03727896	0.203440728	0.068853307	0
805	2067557511	0.007387656	-0.015822185	-0.710159902	-0.703823838	0.006848388	0.249287792	0.01798922	0
806	2067574178	0.007355217	-0.015845818	-0.710271946	-0.703710575	0.043999507	0.241087642	-0.012834954	0
807	2067590845	0.007260891	-0.015903227	-0.710352058	-0.703629391	0.06911767	0.220761505	-0.031164373	0
808	2067607512	0.007127001	-0.015991509	-0.710381987	-0.703598543	0.062907706	0.188362802	-0.040343785	0
809	2067624179	0.006961133	-0.016130454	-0.710329454	-0.703650067	0.055970963	0.166453774	-0.033693583	0
810	2067640846	0.006774326	-0.016304923	-0.710306722	-0.703670817	0.040485406	0.176796877	0.02835738	0
811	2067657513	0.006584901	-0.016484043	-0.710220759	-0.703755205	-0.060909468	0.20089044	0.004681895	0
812	2067674180	0.006415322	-0.016646831	-0.710100879	-0.7038739	-0.044467562	0.192528175	-0.015338885	0
813	2067690847	0.006264235	-0.016802276	-0.710098621	-0.703873846	-0.004140127	0.192905909	0.020365105	0
814	2067707514	0.006155269	-0.016925762	-0.710184974	-0.703784722	-0.017928736	0.209284613	-0.025861436	0
815	2067724181	0.006038685	-0.017068795	-0.710320154	-0.703645841	0.019486886	0.231479038	-0.044617687	0
816	2067740848	0.005896574	-0.0172402	-0.710399608	-0.703562651	0.047080639	0.220526823	0.005723106	0
817	2067757515	0.005734686	-0.017438103	-0.710424677	-0.703533798	0.007974673	0.240048958	-0.021788853	0
818	2067774182	0.00554129	-0.01762962	-0.71047296	-0.703481815	-0.012906271	0.20136328	-0.006904345	0
819	2067790849	0.005389952	-0.017804579	-0.710567423	-0.703383169	-0.033084557	0.173044948	-0.002532589	0
820	2067807516	0.005254008	-0.017969069	-0.710663243	-0.703283203	-0.076404281	0.18266043	-0.03170035	0
821	2067824183	0.005154913	-0.018083066	-0.710756505	-0.70318676	-0.060381377	0.208062176	-0.013883741	0
822	2067840850	0.005025163	-0.018196889	-0.710838366	-0.703102012	-0.019215322	0.195385836	-0.023792799	0
823	2067857517	0.004903013	-0.018310716	-0.710886885	-0.703050863	-0.032946236	0.213069128	-0.036029481	0
824	2067874184	0.004751019	-0.018446339	-0.710876214	-0.703059151	-0.015998461	0.219180766	-0.023506862	0
825	2067890851	0.004633538	-0.018559025	-0.710833774	-0.703099878	-0.042865319	0.232757053	-0.022990595	0
826	2067907518	0.004519446	-0.018662606	-0.710859242	-0.70307213	-0.027920733	0.208480424	0.027453513	0
827	2067924185	0.004398422	-0.018744533	-0.710919628	-0.703009658	-0.018146561	0.215287123	-0.009536656	0
828	2067940852	0.004328319	-0.018759239	-0.711012163	-0.702916113	-0.051441743	0.208538329	-0.049391726	0
829	2067957519	0.004274248	-0.018732009	-0.711101605	-0.702826686	-0.063246239	0.234225873	-0.035079121	0
830	2067974186	0.004266119	-0.018695764	-0.711190781	-0.702737463	-0.053634363	0.229488702	0.031639982	0
831	2067990853	0.004253675	-0.018640896	-0.711336748	-0.702591242	-0.044143256	0.202830828	0.017947739	0
832	2068007520	0.004234595	-0.018561943	-0.711449088	-0.702479692	-0.047035068	0.212231515	-0.08641417	0
833	2068024187	0.004246677	-0.018506589	-0.711473417	-0.702456439	-0.018066271	0.211617987	-0.05621805	0
834	2068040854	0.004233049	-0.018480579	-0.71147079	-0.702459867	-0.020201765	0.206378529	-0.00396587	0
835	2068057521	0.004221596	-0.018432742	-0.711435548	-0.702496885	-0.039758903	0.20837883	-0.018602629	0
836	2068074188	0.004211738	-0.018358253	-0.711370784	-0.702564477	-0.029592637	0.203582405	-0.08148355	0
837	2068090855	0.00424135	-0.018281069	-0.711321345	-0.702616366	-0.068064586	0.217155505	-0.054079688	0
838	2068107522	0.004307065	-0.018197493	-0.711202289	-0.702738646	-0.082965455	0.26600839	-0.013188385	0
839	2068124189	0.004405709	-0.018031175	-0.711048762	-0.702897662	-0.086464112	0.299695574	-0.007557702	0
840	2068140856	0.004525866	-0.017822202	-0.710893961	-0.70305879	-0.04780871	0.233239046	-0.018283574	0
841	2068157523	0.004648204	-0.017609365	-0.71090307	-0.703054144	-0.023687107	0.18898575	0.009679464	0
842	2068174190	0.004754499	-0.017431023	-0.710865752	-0.70309561	0.004810116	0.206243508	0.013772038	0
843	2068190857	0.004831601	-0.017255799	-0.710655669	-0.703311747	-0.002976448	0.180976664	-0.06254903	0
844	2068207524	0.00483734	-0.017105094	-0.710308877	-0.703665627	0.031544022	0.148490189	-0.034260873	0
845	2068224191	0.004878628	-0.016925704	-0.709978925	-0.704002589	0.001900339	0.161840446	0.026159571	0
846	2068240858	0.004941004	-0.016746998	-0.709823085	-0.704163555	-0.010499998	0.183183652	0.062659767	0
847	2068257525	0.005009554	-0.016575191	-0.709872432	-0.70411739	-0.026973896	0.18040512	0.078328955	0
848	2068274192	0.00507815	-0.016388565	-0.709889259	-0.704104301	0.002656818	0.191342983	0.013641916	0
849	2068290859	0.005103412	-0.016190916	-0.709741621	-0.704257511	0.021535886	0.177230273	-0.051633687	0
850	2068307526	0.005142745	-0.016026992	-0.70951047	-0.704493847	0.020173741	0.193831343	0.003518714	0
851	2068324193	0.00516484	-0.015876909	-0.709336114	-0.704672637	0.021442283	0.237077718	0.097391291	0
852	2068340860	0.005179028	-0.015722101	-0.709277448	-0.704735053	0.011000298	0.234187002	0.049865866	0
853	2068357527	0.005177297	-0.015586561	-0.709214782	-0.70480114	0.004872459	0.233298462	0.016782962	0
854	2068374194	0.005175526	-0.015493588	-0.709052485	-0.704966479	0.005720111	0.204380683	0.002751624	0
855	2068390861	0.005184001	-0.015390756	-0.708854388	-0.705167857	-0.054882464	0.21109033	0.014416433	0
856	2068407528	0.005215811	-0.015250711	-0.70873035	-0.705295329	-0.026448296	0.198049664	0.035450607	0
857	2068424195	0.005224945	-0.015110033	-0.708676379	-0.70535252	0.022043204	0.177157934	0.042395276	0
858	2068440862	0.005187424	-0.015037578	-0.708623613	-0.705407355	0.064786335	0.171342676	0.056715761	0
859	2068457529	0.005170279	-0.014990708	-0.708567183	-0.705465162	0.057198897	0.156489105	0.083926272	0
860	2068474196	0.005180135	-0.014948587	-0.708588879	-0.705444191	0.002469044	0.193505942	0.044757098	0
861	2068490863	0.005189252	-0.014897485	-0.708685907	-0.705347731	-0.016216326	0.194064003	0.047365106	0
862	2068507530	0.00519399	-0.014854415	-0.708791401	-0.705242595	-0.011214394	0.218493558	0.059843572	0
863	2068524197	0.005226399	-0.014832569	-0.708878295	-0.705155474	-0.039763118	0.204261069	0.030282612	0
864	2068540864	0.005260933	-0.014812826	-0.708945817	-0.705087747	-0.004203688	0.200812935	0.018760112	0
865	2068557531	0.005314579	-0.014779168	-0.709076495	-0.704956634	-0.032439859	0.196934954	0.037704924	0
866	2068574198	0.00539454	-0.014742595	-0.709255889	-0.704776304	-0.00529013	0.192608306	0.038003585	0
867	2068590865	0.005468634	-0.014731895	-0.709416378	-0.704614411	0.020782151	0.18705068	0.023621955	0
868	2068607532	0.005563123	-0.014727403	-0.70955896	-0.704470182	0.017357436	0.202354889	-0.006182984	0
869	2068624199	0.005654595	-0.014751383	-0.709694066	-0.704332843	0.028097708	0.199293916	0.008752385	0
870	2068640866	0.005708808	-0.014793928	-0.709814935	-0.704209704	0.010909546	0.22561018	-0.023735075	0
871	2068657533	0.00580879	-0.014818431	-0.709862212	-0.704160714	0.000705003	0.223861481	-0.015560253	0
872	2068674200	0.005892965	-0.014856782	-0.709920166	-0.704100779	0.013241879	0.209262467	0.026390459	0
873	2068690867	0.005988857	-0.01490186	-0.710028705	-0.703989564	-0.01100854	0.203182657	0.034289897	0
874	2068707534	0.00609293	-0.014950188	-0.710178596	-0.703836437	-0.019507487	0.198904112	-0.004076404	0
875	2068724201	0.00618767	-0.014977499	-0.710357918	-0.703654045	-0.006190079	0.200837832	-0.048027955	0
876	2068740868	0.006299039	-0.015016282	-0.710481558	-0.70352739	-0.008214547	0.201954407	-0.060127659	0
877	2068757535	0.006413384	-0.015072539	-0.710502545	-0.70350396	-0.00932835	0.212242811	-0.03160889	0
878	2068774202	0.006510585	-0.015137788	-0.710525918	-0.703478059	0.047367883	0.209473953	0.024181929	0
879	2068790869	0.006552767	-0.01522734	-0.710629959	-0.703370635	0.066907399	0.196997192	0.016927625	0
880	2068807536	0.006569037	-0.015289253	-0.710765944	-0.703231726	0.0385723	0.184113006	-0.043278104	0
881	2068824203	0.006556063	-0.015376973	-0.710850989	-0.703143967	-0.003074127	0.181144922	-0.044669392	0
882	2068840870	0.006532401	-0.015461336	-0.710884275	-0.703108685	-0.026056493	0.208249568	0.005164489	0
883	2068857537	0.006562874	-0.015547587	-0.710847181	-0.703144002	-0.078118741	0.220670227	-0.014154	0
884	2068874204	0.006586073	-0.015567553	-0.710880868	-0.703109285	-0.045189459	0.190896652	-0.009308318	0
885	2068890871	0.00660938	-0.015557643	-0.710998653	-0.702990179	0.01027057	0.196810917	-0.011770023	0
886	2068907538	0.006634168	-0.015576088	-0.711129754	-0.702856917	-0.006556048	0.186498626	-0.027552154	0
887	2068924205	0.006619326	-0.015621051	-0.711206498	-0.702778403	0.048491703	0.207811366	-0.036475368	0
888	2068940872	0.006563652	-0.015674933	-0.711156497	-0.702828323	0.00451845	0.218155916	-0.014381585	0
889	2068957539	0.006514088	-0.015697864	-0.711054137	-0.702931831	-0.06499972	0.192072028	-0.028958044	0
890	2068974206	0.00641702	-0.015753418	-0.711043616	-0.702942123	-0.076725528	0.18941437	-0.010355216	0
891	2068990873	0.006356153	-0.01577722	-0.71107356	-0.702911852	-0.071951704	0.226321991	0.000285863	0
892	2069007540	0.006295328	-0.015807284	-0.711029646	-0.702956145	-0.079614757	0.190721116	-0.071402995	0
893	2069024207	0.006244923	-0.015809055	-0.710908646	-0.703078923	-0.092503686	0.180125481	-0.028706158	0
894	2069040874	0.006246542	-0.015782803	-0.710848992	-0.703139812	-0.064935395	0.152390227	0.015976373	0
895	2069057541	0.006237284	-0.015758945	-0.710913151	-0.703075561	0.004523117	0.152194547	0.027559827	0
896	2069074208	0.006211368	-0.015753339	-0.710967313	-0.703021146	-0.005766492	0.168431604	-0.024865355	0
897	2069090875	0.006189478	-0.015727429	-0.710911073	-0.70307879	-0.026653544	0.181866153	-0.064460279	0
898	2069107542	0.006150875	-0.01570392	-0.710773501	-0.703218732	-0.038947535	0.201553776	-0.015657794	0
899	2069124209	0.006148574	-0.015657272	-0.710685231	-0.703308999	-0.039017037	0.21974313	0.025238354	0
900	2069140876	0.006134054	-0.015614513	-0.710698333	-0.703296837	-0.024621159	0.24725834	-0.026744179	0
901	2069157543	0.006098917	-0.015562725	-0.710712208	-0.703284269	-0.019250679	0.242619886	-0.0862387	0
902	2069174210	0.006053864	-0.015530652	-0.710634592	-0.703363793	-0.039669503	0.237310465	-0.078065864	0
903	2069190877	0.005995067	-0.015506646	-0.710467039	-0.703534072	-0.015930985	0.217173029	-0.040147376	0
904	2069207544	0.005929961	-0.015490507	-0.710323898	-0.703679501	-0.054341945	0.20853641	-0.031051384	0
905	2069224211	0.005866745	-0.015446364	-0.710198903	-0.703807153	-0.015109172	0.194831062	-0.01458672	0
906	2069240878	0.005802964	-0.015412971	-0.710017944	-0.703990969	-0.040142795	0.234901754	-0.051251507	0
907	2069257545	0.005737814	-0.015352398	-0.709858831	-0.704153266	-0.052001428	0.203329016	-0.008586946	0
908	2069274212	0.005684723	-0.015258977	-0.709732318	-0.704283242	-0.023089892	0.195952279	0.026769559	0
909	2069290879	0.005679644	-0.015122906	-0.709665732	-0.704353312	-0.013305749	0.201012922	-0.015982326	0
910	2069307546	0.005665115	-0.015027992	-0.709646861	-0.704374473	0.028274183	0.203083763	0.016763018	0
911	2069324213	0.005622512	-0.014893072	-0.709624319	-0.70440039	-0.004894714	0.248198921	-0.01834809	0
912	2069340880	0.005606448	-0.014742312	-0.709599293	-0.7044289	-0.006153874	0.238581662	-0.007409542	0
913	2069357547	0.005610784	-0.01457553	-0.709596183	-0.704435469	-0.018283621	0.221640822	0.040341683	0
914	2069374214	0.005633763	-0.014365984	-0.709717702	-0.70431716	-0.036707001	0.225851038	0.025749951	0
915	2069390881	0.005661569	-0.014185516	-0.709870284	-0.704166811	-0.010625635	0.199631709	-0.010196573	0
916	2069407548	0.005684415	-0.014042613	-0.709949471	-0.704089654	-0.004468089	0.196937933	-0.070074039	0
917	2069424215	0.005692487	-0.013920237	-0.709940087	-0.704101481	0.005489634	0.191085882	-0.053251323	0
918	2069440882	0.005710999	-0.01381868	-0.709867906	-0.704176103	0.020030034	0.206268429	-0.013089428	0
919	2069457549	0.005738433	-0.01375541	-0.709800664	-0.704244898	0.003688115	0.20931295	0.012149574	0
920	2069474216	0.005781223	-0.013698324	-0.709818889	-0.704227292	-0.036617281	0.21836125	0.030900445	0
921	2069490883	0.005825629	-0.013651746	-0.70985067	-0.704195795	-0.023690899	0.228824854	-0.004598778	0
922	2069507550	0.005883775	-0.013611697	-0.70981491	-0.704232132	-0.007464824	0.241306189	-0.046090034	0
923	2069524217	0.005974625	-0.013572212	-0.709793823	-0.704253383	-0.030522329	0.218183113	-0.031064347	0
924	2069540884	0.006057625	-0.013592636	-0.709776862	-0.704269374	-0.033372418	0.233995706	-0.004945024	0
925	2069557551	0.006166198	-0.013588894	-0.709793827	-0.704251406	-0.041156345	0.205357485	-0.013353116	0
926	2069574218	0.006284082	-0.013587238	-0.709862615	-0.70418106	-0.001068282	0.173468233	-0.007274717	0
927	2069590885	0.006396989	-0.013610624	-0.70986167	-0.704180544	0.020897533	0.191608617	-0.030287411	0
928	2069607552	0.006488845	-0.01365373	-0.709818714	-0.704222169	0.029635153	0.175169776	0.006268593	0
929	2069624219	0.00657083	-0.013716204	-0.709745282	-0.704294203	-0.005819122	0.21301127	-0.009412622	0
930	2069640886	0.006686303	-0.013755058	-0.709741668	-0.704296	-0.015759427	0.210310821	0.042547051	0
931	2069657553	0.006796471	-0.013777656	-0.709847645	-0.704187692	-0.006505692	0.225764627	0.021386632	0
932	2069674220	0.00688989	-0.013786491	-0.710006669	-0.704026272	0.012151662	0.2191861	-0.005566141	0
933	2069690887	0.006956977	-0.013823734	-0.710151419	-0.703878873	0.000851484	0.225504278	-0.06883849	0
934	2069707554	0.00701752	-0.01388259	-0.710186752	-0.703841463	-0.052430323	0.240734823	-0.048928156	0
935	2069724221	0.007113738	-0.013917585	-0.710177007	-0.703849639	-0.070717536	0.213676285	0.000728102	0
936	2069740888	0.007207688	-0.013928844	-0.710319167	-0.703704993	-0.025938751	0.186100008	0.006725574	0
937	2069757555	0.007256759	-0.013947532	-0.710524513	-0.703496782	0.01434609	0.143458389	-0.058101586	0
938	2069774222	0.007273535	-0.014051456	-0.710590954	-0.703427429	0.018938999	0.136231621	-0.09675958	0
939	2069790889	0.007261324	-0.014208834	-0.71048662	-0.703529775	-0.056652704	0.161854187	-0.061185798	0
940	2069807556	0.007249321	-0.014339509	-0.710323445	-0.703691999	-0.107075762	0.182774308	-0.01239665	0
941	2069824223	0.007237893	-0.014393807	-0.710271378	-0.703743562	-0.077918358	0.241586727	-0.017671222	0
942	2069840890	0.007238083	-0.014433901	-0.71023514	-0.703779311	-0.055345776	0.241843425	-0.022686637	0
943	2069857557	0.007264846	-0.014466561	-0.710340959	-0.703671559	-0.04792108	0.172508622	0.003934555	0
944	2069874224	0.00723163	-0.014485933	-0.710500979	-0.703509929	0.019827912	0.177890571	0.005599241	0
945	2069890891	0.00716099	-0.014511906	-0.710527384	-0.703483447	0.037528912	0.173824059	-0.073896966	0
946	2069907558	0.007011573	-0.014556536	-0.710406372	-0.703606234	0.042976673	0.154697532	-0.081286528	0
947	2069924225	0.006844986	-0.01455755	-0.710177646	-0.703838714	0.015203483	0.168014507	-0.028404272	0
948	2069940892	0.006699556	-0.014520696	-0.710091564	-0.703927721	-0.038334192	0.177967119	0.052104272	0
949	2069957559	0.006545136	-0.014458273	-0.710123526	-0.703898215	-0.072457728	0.228806847	0.088662915	0
950	2069974226	0.006439843	-0.014347295	-0.710214471	-0.703809697	-0.092640288	0.224463784	0.038033665	0
951	2069990893	0.006387561	-0.014147692	-0.710391334	-0.703635697	-0.092583061	0.236207321	-0.049066761	0
952	2070007560	0.006317895	-0.013887634	-0.710405988	-0.703626712	-0.028850916	0.245089678	-0.020569062	0
953	2070024227	0.006341396	-0.013602728	-0.710581552	-0.703454768	-0.059384995	0.398598029	0.02393334	0
954	2070040894	0.006579215	-0.013244982	-0.711106689	-0.702928561	-0.297060613	0.785395861	0.026667704	0
955	2070057561	0.007300141	-0.012720132	-0.712068233	-0.701957076	-0.82739709	1.252480228	0.106733718	0
956	2070074228	0.009195702	-0.011986925	-0.713630181	-0.700359706	-1.427086103	1.851529364	0.154773255	0
957	2070090895	0.013119069	-0.010485379	-0.716009012	-0.69788899	-1.892636365	2.103576584	1.462293809	0
958	2070107562	0.019067844	-0.008166496	-0.720155674	-0.693502365	-2.093984248	1.766187444	2.578122026	0
959	2070124229	0.026613899	-0.005204534	-0.726676336	-0.686444547	-1.68742188	1.298332445	1.988138285	0
960	2070140896	0.035697528	-0.002201865	-0.734302884	-0.677879129	-0.787963521	0.94615775	0.973926258	0
961	2070157563	0.04608316	0.000338363	-0.740938288	-0.66999006	-0.41532346	0.945529941	0.684748541	0
962	2070174230	0.057471844	0.002529287	-0.745667356	-0.663830388	-0.500976457	0.996317086	0.623578875	0
963	2070190897	0.069864345	0.00438342	-0.748284983	-0.659673664	-0.906181155	1.072720918	0.784774479	0
964	2070207564	0.083613581	0.00615942	-0.74937953	-0.656811351	-1.323496877	1.167087429	0.849967875	0
965	2070224231	0.098909117	0.008054489	-0.749639845	-0.654363977	-1.520520049	1.339087127	1.117389144	0
966	2070240898	0.115719667	0.01040232	-0.749965578	-0.651193045	-1.488539466	1.472557683	1.149424676	0
967	2070257565	0.133974357	0.013085879	-0.750709665	-0.646772472	-1.158599092	1.750120141	0.772775589	0
968	2070274232	0.153535917	0.016032185	-0.751721157	-0.641159102	-0.837445931	2.246482048	0.346901018	0
969	2070290899	0.17371846	0.019119402	-0.752310925	-0.635204391	-0.839716714	2.248751433	-0.083081183	0
970	2070307566	0.194287105	0.022156268	-0.751821275	-0.629703415	-0.635867156	1.840349246	-0.512417097	0
971	2070324233	0.215038086	0.024794452	-0.749926383	-0.625103413	-0.328181608	1.278340933	-0.584745092	0
972	2070340900	0.235926837	0.026848185	-0.746731614	-0.621296708	0.076118779	1.194479768	-0.680967289	0
973	2070357567	0.256872559	0.028387625	-0.742469857	-0.618020341	0.266283241	1.190604529	-0.66951219	0
974	2070374234	0.277655481	0.029359478	-0.737435306	-0.615007825	0.128945023	1.172369686	-0.633018093	0
975	2070390901	0.298139487	0.029696949	-0.731758593	-0.61217669	-0.086560533	0.952865604	-0.472334653	0
976	2070407568	0.318490448	0.029559203	-0.725584767	-0.609275664	0.035655694	0.589241044	-0.361410419	0
977	2070424235	0.338986952	0.029137206	-0.719376577	-0.605587492	0.204898388	0.744800729	-0.400767635	0
978	2070440902	0.359496402	0.028829213	-0.713387666	-0.600840454	0.414145444	0.997776176	-0.616053846	0
979	2070457569	0.379418779	0.028705005	-0.707854574	-0.595112859	0.49422433	0.885505199	-0.861810925	0
980	2070474236	0.398514634	0.028514938	-0.702624719	-0.588805136	0.562622677	0.508636304	-0.938685831	0
981	2070490903	0.416859543	0.028199826	-0.69741967	-0.582270294	0.772515205	0.230223104	-1.048312297	0
982	2070507570	0.434890289	0.02808683	-0.69215439	-0.575329355	0.721361119	0.374042545	-1.320911697	0
983	2070524237	0.452266685	0.027956374	-0.68652257	-0.56864756	0.715197913	0.393439583	-1.342030695	0
984	2070540904	0.468525971	0.027648005	-0.680787843	-0.562358351	0.815625037	0.214523295	-1.389200773	0
985	2070557571	0.483857195	0.02739384	-0.675260453	-0.556017188	0.678551901	0.295414556	-1.392320665	0
986	2070574238	0.498476822	0.027370129	-0.669817622	-0.549650877	0.46780301	0.25323833	-1.310736215	0
987	2070590905	0.512339831	0.027593259	-0.664477573	-0.543337892	0.457713897	0.101703074	-1.044426763	0
988	2070607572	0.525497373	0.028124856	-0.659419466	-0.536868206	0.59980242	-0.136293717	-0.943944645	0
989	2070624239	0.537985201	0.028979847	-0.654676197	-0.530218039	0.683012491	-0.158799374	-1.045584997	0
990	2070640906	0.549672268	0.03023382	-0.650403124	-0.523375668	0.657087541	-0.16190526	-1.056090751	0
991	2070657573	0.56065726	0.031936058	-0.646671404	-0.516197269	0.536745674	-0.148205409	-0.954239646	0
992	2070674240	0.571010805	0.033831211	-0.643272046	-0.508923555	0.519834167	-0.173093138	-0.864085025	0
993	2070690907	0.580711919	0.036011414	-0.640105917	-0.50173824	0.44966683	-0.354431153	-0.563593846	0
994	2070707574	0.589781809	0.038650023	-0.637254684	-0.494540252	0.455064339	-0.558213655	-0.454167336	0
995	2070724241	0.598426404	0.041547641	-0.634529622	-0.487372333	0.439370572	-0.518083385	-0.604842627	0
996	2070740908	0.606673905	0.044618083	-0.631846114	-0.480339971	0.182940165	-0.282456322	-0.850769741	0
997	2070757575	0.614395036	0.047754506	-0.629097494	-0.473787493	0.021975624	-0.201307877	-0.539085418	0
998	2070774242	0.621481037	0.051068422	-0.626594151	-0.467475248	0.175792292	-0.166520686	-0.245735368	0
999	2070790909	0.628168514	0.055006472	-0.624399276	-0.460981723	0.468247607	-0.146963954	-0.30014455	0
1000	2070807576	0.634600076	0.059675863	-0.62247989	-0.454136897	0.37308446	-0.193909088	-0.558198513	0
1001	2070824243	0.640696261	0.06416025	-0.62029705	-0.447909961	0.545325467	-0.590423726	-0.481550818	0
1002	2070840910	0.646184357	0.067783217	-0.617961478	-0.442690437	0.726798637	-0.689107936	-0.493489784	0
1003	2070857577	0.651207685	0.070699724	-0.615549617	-0.438210873	0.565574446	-0.70006691	-0.462744949	0
1004	2070874244	0.65578581	0.072652794	-0.612899191	-0.434765596	0.499979664	-0.715698161	-0.340893349	0
1005	2070890911	0.659881034	0.073837129	-0.610272026	-0.432056888	0.580895613	-0.703478881	-0.202248714	0
1006	2070907578	0.66353907	0.074576496	-0.607868718	-0.429709053	0.302276382	-0.730236475	-0.204775026	0
1007	2070924245	0.667013974	0.074599598	-0.605279174	-0.427977079	-0.062446293	-0.520964363	-0.255295718	0
1008	2070940912	0.670283303	0.073888435	-0.602478989	-0.426942457	-0.161737566	-0.082227249	-0.279281903	0
1009	2070957579	0.67326576	0.073438543	-0.5999177	-0.4259328	-0.017300828	0.086946885	-0.181801378	0
1010	2070974246	0.676071961	0.074000812	-0.597792328	-0.424375914	0.028540721	0.140283092	-0.132247277	0
1011	2070990913	0.678804392	0.075256199	-0.596007931	-0.422298056	-0.058308651	-0.049488422	-0.06490461	0
1012	2071007580	0.681426644	0.076625557	-0.594326907	-0.420192552	-0.10309317	-0.205228909	-0.096238751	0
1013	2071024247	0.683923263	0.077648487	-0.592567099	-0.4184303	-0.088879787	-0.228805219	-0.093925737	0
1014	2071040914	0.686285445	0.078485278	-0.590849989	-0.416831668	0.018852337	-0.387008214	-0.055379689	0
1015	2071057581	0.688608297	0.079173059	-0.589091071	-0.415357619	-0.042593083	-0.288407846	-0.106341853	0
1016	2071074248	0.690879686	0.079907673	-0.587337056	-0.41392657	0.02865555	-0.084212547	-0.123150854	0
1017	2071090915	0.69306271	0.080814171	-0.585688822	-0.412433938	-0.013337537	-0.128685741	-0.143501881	0
1018	2071107582	0.695132445	0.081445496	-0.583976441	-0.411253001	-0.19822667	-0.218529299	-0.123959145	0
1019	2071124249	0.697170359	0.082014635	-0.582097274	-0.410353328	-0.088133163	-0.19658641	-0.219828209	0
1020	2071140916	0.699070517	0.082546291	-0.580181954	-0.409726033	-0.068735154	-0.089169413	-0.318480698	0
1021	2071157583	0.700748403	0.083095194	-0.578363482	-0.409319615	-0.121180406	-0.142696275	-0.293273935	0
1022	2071174250	0.702211013	0.083608597	-0.576583186	-0.409220144	-0.013254259	-0.207861799	-0.227368122	0
1023	2071190917	0.70347005	0.083988108	-0.574876198	-0.409381538	0.130322419	-0.245506529	-0.199827822	0
1024	2071207584	0.704477989	0.084440602	-0.573445854	-0.409561228	0.188556993	-0.216928328	-0.261390826	0
1025	2071224251	0.705156491	0.084961263	-0.572357549	-0.409808179	0.189761637	-0.121148523	-0.315110753	0
1026	2071240918	0.705478513	0.085467904	-0.571627385	-0.410167573	0.215344745	-0.078977427	-0.316417349	0
1027	2071257585	0.705512303	0.08607499	-0.571192553	-0.410588058	0.18008437	-0.036907387	-0.242725371	0
1028	2071274252	0.705326678	0.086794709	-0.570965636	-0.411070795	0.08361754	-0.025332738	-0.168949297	0
1029	2071290919	0.705009567	0.087632859	-0.570869077	-0.411570759	0.135593155	0.111382578	-0.229620445	0
1030	2071307586	0.704546207	0.088724764	-0.571026862	-0.411911255	0.114102574	0.136903008	-0.215179994	0
1031	2071324253	0.703999251	0.08996218	-0.571380945	-0.412086976	0.083428646	0.164080768	-0.19308468	0
1032	2071340920	0.703375695	0.091122126	-0.571874823	-0.412211811	0.067582886	0.115610304	-0.138851054	0
1033	2071357587	0.702691601	0.092139816	-0.572474627	-0.412319741	0.037605564	0.045540241	-0.141710423	0
1034	2071374254	0.701998343	0.092908749	-0.573085967	-0.412478806	-0.156457414	0.06180894	-0.124963821	0
1035	2071390921	0.70139163	0.093304863	-0.573553262	-0.412771897	-0.301335335	0.198040905	-0.027101645	0
1036	2071407588	0.700880474	0.093682768	-0.573995135	-0.412940292	-0.125225883	0.335332433	0.002607279	0
1037	2071424255	0.700368339	0.094350993	-0.57468233	-0.412701223	-0.029527798	0.2384021	-0.048585632	0
1038	2071440922	0.699852125	0.0949912	-0.575464661	-0.412339786	-0.065389165	0.104558201	-0.067382748	0
1039	2071457589	0.699460095	0.095131013	-0.576086655	-0.412104151	-0.194832473	0.10961652	-0.093456587	0
1040	2071474256	0.69917907	0.094607097	-0.576435222	-0.412214215	-0.184804852	0.103761139	-0.084925683	0
1041	2071490923	0.698919201	0.09371923	-0.576685561	-0.412507479	-0.206333171	0.210334065	-0.028689703	0
1042	2071507590	0.698703871	0.092910858	-0.576960345	-0.412670854	-0.264785127	0.156010805	-0.057905133	0
1043	2071524257	0.698561399	0.091951439	-0.57715695	-0.412851983	-0.317205384	0.138747555	-0.026452274	0
1044	2071540924	0.698490819	0.09082925	-0.577273133	-0.413057324	-0.142261233	0.254324923	-0.104718964	0
1045	2071557591	0.698385696	0.089865674	-0.577473858	-0.413165251	-0.026828416	0.253944305	-0.1692788	0
1046	2071574258	0.698239059	0.088947138	-0.577732861	-0.41324976	-0.167093538	0.192711114	-0.243556504	0
1047	2071590925	0.698100382	0.087716995	-0.577818231	-0.413627463	-0.278668194	0.110618849	-0.203535888	0
1048	2071607592	0.698009756	0.086333798	-0.577681389	-0.414262077	-0.258928178	0.070172789	-0.1402415	0
1049	2071624259	0.697915496	0.085203676	-0.577474366	-0.414942948	-0.124045945	0.076785455	-0.193259418	0
1050	2071640926	0.697795226	0.084417462	-0.577341934	-0.415489839	-0.168231139	0.079976287	-0.259786409	0
1051	2071657593	0.697625884	0.083809323	-0.577313428	-0.41593669	-0.266672198	0.078126844	-0.215459279	0
1052	2071674260	0.697491767	0.083243442	-0.577269683	-0.416335775	-0.395560192	0.079976891	-0.143858321	0
1053	2071690927	0.697418079	0.082824014	-0.577190563	-0.416652445	-0.393927363	0.069098756	-0.10856857	0
1054	2071707594	0.697306286	0.082726969	-0.577233544	-0.416799265	-0.292545574	0.06869906	-0.094286052	0
1055	2071724261	0.697169896	0.082934272	-0.577415034	-0.416734833	-0.268288207	0.131559043	-0.204433013	0
1056	2071740928	0.697048602	0.083295391	-0.57762624	-0.416572985	-0.280749947	0.069491736	-0.161696157	0
1057	2071757595	0.696962442	0.083508834	-0.577733696	-0.416525396	-0.250300902	0.056395368	-0.162605652	0
1058	2071774262	0.696850233	0.083627202	-0.577785615	-0.416617364	-0.162285447	0.003997445	-0.172127746	0
1059	2071790929	0.696709389	0.083474478	-0.577747349	-0.416936493	-0.137494571	-0.032793127	-0.161793496	0
1060	2071807596	0.696549998	0.083182961	-0.577678402	-0.417356393	-0.111075405	-0.045610491	-0.153355376	0
1061	2071824263	0.69638682	0.082827209	-0.57761517	-0.417786746	-0.122416628	-0.007771903	-0.145505722	0
1062	2071840930	0.696193997	0.082336753	-0.577584964	-0.418246562	-0.229555917	0.044104692	-0.120464998	0
1063	2071857597	0.696030078	0.081742829	-0.577534787	-0.418704921	-0.255658085	0.058670305	-0.094343503	0
1064	2071874264	0.695868671	0.081074245	-0.577475512	-0.419184675	-0.217653159	0.10294733	-0.088618359	0
1065	2071890931	0.69566822	0.080622015	-0.577543202	-0.419511224	-0.14903239	0.258927224	-0.105284731	0
1066	2071907598	0.695439346	0.080605809	-0.577809442	-0.419527196	-0.193241049	0.160866427	-0.139504166	0
1067	2071924265	0.695243303	0.080464456	-0.578031006	-0.419574043	-0.205605393	0.074989526	-0.121316473	0
1068	2071940932	0.695081904	0.07997463	-0.578084677	-0.419861062	-0.225580863	0.150244298	-0.111323231	0
1069	2071957599	0.694985428	0.07940733	-0.578009171	-0.420232233	-0.214369122	0.177326326	-0.113770319	0
1070	2071974266	0.69490298	0.079067038	-0.577968675	-0.420488362	-0.110335932	0.218856219	-0.121372093	0
1071	2071990933	0.694820316	0.078968707	-0.578067581	-0.420507483	-0.110253747	0.192137788	-0.148011043	0
1072	2072007600	0.694729596	0.07885166	-0.578219354	-0.420470667	-0.165839636	0.131296812	-0.09880076	0
1073	2072024267	0.694654054	0.078513682	-0.578312043	-0.420531245	-0.268190297	0.117932216	-0.108536358	0
1074	2072040934	0.694624001	0.078064701	-0.578298383	-0.42068323	-0.250443916	0.170267911	-0.088349168	0
1075	2072057601	0.694596598	0.07770779	-0.578316485	-0.420769661	-0.222439675	0.165374305	-0.095749179	0
1076	2072074268	0.694564268	0.077470035	-0.578415423	-0.420730875	-0.269921825	0.186693378	-0.115469797	0
1077	2072090935	0.694575902	0.077294317	-0.578513652	-0.420608914	-0.2886422	0.117870965	-0.093854545	0
1078	2072107602	0.694634934	0.07708378	-0.578536723	-0.420518322	-0.233295055	0.161380384	-0.062831892	0
1079	2072124269	0.694706236	0.076934547	-0.578541648	-0.420421078	-0.169543128	0.099319252	-0.078760489	0
1080	2072140936	0.694773922	0.076729413	-0.578513057	-0.420386058	-0.078078297	0.084593254	-0.149712118	0
1081	2072157603	0.694808228	0.076536956	-0.578501793	-0.420379943	-0.129542718	0.158127959	-0.115721194	0
1082	2072174270	0.694834981	0.076479999	-0.578554421	-0.42027365	-0.216826583	0.095116071	-0.058363885	0
1083	2072190937	0.694885725	0.076408558	-0.578576589	-0.420172217	-0.295602091	-0.019018815	-0.018861261	0
1084	2072207604	0.69497057	0.07606603	-0.578433251	-0.420291374	-0.257343958	-0.084482713	0.004785011	0
1085	2072224271	0.695082757	0.07561802	-0.578185344	-0.420527745	-0.140350243	0.093361797	-0.079136795	0
1086	2072240938	0.695167822	0.075454245	-0.578063222	-0.420584435	-0.110162081	0.226850784	-0.1051183	0
1087	2072257605	0.695238522	0.075535963	-0.578085259	-0.420422584	-0.160017618	0.28145874	-0.107847654	0
1088	2072274272	0.695297916	0.075831997	-0.578182834	-0.420136795	-0.213456265	0.133141847	-0.092560476	0
1089	2072290939	0.695318185	0.076093889	-0.578240078	-0.419977086	-0.240339574	-0.077914294	-0.086085926	0
1090	2072307606	0.695340091	0.07607032	-0.578114865	-0.420117444	-0.214724309	-0.068975295	-0.095069688	0
1091	2072324273	0.695389535	0.075799401	-0.57786363	-0.420430103	-0.1985634	0.063960328	-0.082603154	0
1092	2072340940	0.695395369	0.075556982	-0.577670199	-0.420729801	-0.105887843	0.099306111	-0.113100128	0
1093	2072357607	0.695380684	0.075503678	-0.577576209	-0.420892649	-0.149235084	0.145839142	-0.15372436	0
1094	2072374274	0.695353712	0.075566487	-0.577529324	-0.420990262	-0.197602	0.119462475	-0.102406595	0
1095	2072390941	0.695349848	0.07577252	-0.5774929	-0.421009578	-0.232645529	0.167327753	-0.119139489	0
1096	2072407608	0.695343529	0.076120979	-0.577471757	-0.420986155	-0.233061921	0.09657868	-0.096723012	0
1097	2072424275	0.695304969	0.076384235	-0.577422454	-0.421069778	-0.148789749	0.113530803	-0.107205184	0
1098	2072440942	0.695259059	0.076678899	-0.577392581	-0.42113299	-0.093890024	0.166073916	-0.173105414	0
1099	2072457609	0.695216154	0.077041356	-0.577373997	-0.421163148	-0.138721369	0.081524414	-0.17398272	0
1100	2072474276	0.69514342	0.077289684	-0.577341787	-0.421281842	-0.183073752	0.097204223	-0.125374319	0
1101	2072490943	0.695046287	0.077411269	-0.577283398	-0.421499742	-0.177967167	0.11449169	-0.091480533	0
1102	2072507610	0.694938701	0.077546347	-0.577240184	-0.421711437	-0.128289382	0.120404023	-0.135660977	0
1103	2072524277	0.694821052	0.077712265	-0.577218117	-0.421904912	-0.129566825	0.082100617	-0.182080949	0
1104	2072540944	0.694660462	0.077831708	-0.577217284	-0.422148405	-0.160413534	0.118575141	-0.163515942	0
1105	2072557611	0.694499043	0.078053973	-0.577254232	-0.422322398	-0.191552848	0.097134324	-0.127206301	0
1106	2072574278	0.694331628	0.078226753	-0.577289017	-0.422518114	-0.173191111	0.085988225	-0.098863281	0
1107	2072590945	0.694164433	0.078342764	-0.577338527	-0.422703652	-0.156756951	0.034093717	-0.131257083	0
1108	2072607612	0.693972911	0.078324609	-0.577370094	-0.422978284	-0.168722018	0.044770607	-0.147285791	0
1109	2072624279	0.693761669	0.078203994	-0.57740086	-0.423305007	-0.169327506	0.107094322	-0.144543883	0
1110	2072640946	0.693548984	0.078166377	-0.577482925	-0.423548457	-0.228435552	0.123552374	-0.165506102	0
1111	2072657613	0.693341228	0.078207264	-0.577566238	-0.423767396	-0.287979501	0.098141062	-0.143789289	0
1112	2072674280	0.693161027	0.078314373	-0.577640167	-0.423941608	-0.282573911	0.097438768	-0.149046419	0
1113	2072690947	0.692979602	0.078422292	-0.577760427	-0.424054365	-0.214507813	0.12066798	-0.146537364	0
1114	2072707614	0.692781397	0.078567132	-0.577953974	-0.424087663	-0.192258224	0.180673782	-0.108409282	0
1115	2072724281	0.692572682	0.078876489	-0.578258805	-0.423955581	-0.189278974	0.196477545	-0.10773609	0
1116	2072740948	0.692378478	0.079400275	-0.578655567	-0.423633537	-0.224994542	0.094836461	-0.147149609	0
1117	2072757615	0.692211762	0.079932033	-0.579005667	-0.423327514	-0.310582376	0.072374255	-0.122338728	0
1118	2072774282	0.692050994	0.0804187	-0.579305191	-0.423088348	-0.312136618	0.085634328	-0.095800213	0
1119	2072790949	0.691909826	0.080919297	-0.579573055	-0.422856871	-0.246719424	0.043911082	-0.102330578	0
1120	2072807616	0.691781238	0.081266908	-0.57976268	-0.422740634	-0.207980745	0.036417774	-0.136850861	0
1121	2072824283	0.691644849	0.081446085	-0.579889407	-0.4227555	-0.227012731	0.023214122	-0.167513991	0
1122	2072840950	0.691519948	0.0815184	-0.579935105	-0.422883183	-0.286109943	0.075264468	-0.158308807	0
1123	2072857617	0.69139516	0.081560883	-0.579943024	-0.423068132	-0.269760934	0.023468332	-0.071162974	0
1124	2072874284	0.691298765	0.081524515	-0.579890871	-0.423304086	-0.225275795	0.065803649	-0.092917427	0
1125	2072890951	0.69125257	0.081509152	-0.579775124	-0.423540963	-0.150382616	0.085356512	-0.193347828	0
1126	2072907618	0.691171768	0.081442838	-0.579656146	-0.423848326	-0.16244267	0.02719183	-0.176560328	0
1127	2072924285	0.691084097	0.081098205	-0.579430763	-0.424365223	-0.247401779	0.095892157	-0.140805631	0
1128	2072940952	0.691025629	0.080634838	-0.57909303	-0.425009253	-0.221304449	0.050334378	-0.150762175	0
1129	2072957619	0.690985064	0.080201634	-0.578705504	-0.425684483	-0.252102217	0.090798716	-0.164949029	0
1130	2072974286	0.690931169	0.079884083	-0.578370038	-0.426287171	-0.271441937	0.202877725	-0.15875014	0
1131	2072990953	0.690861939	0.079867791	-0.578222325	-0.426602696	-0.25165961	0.209576152	-0.149695777	0
1132	2073007620	0.690776806	0.08007529	-0.578234159	-0.42668561	-0.240184125	0.156205664	-0.190170302	0
1133	2073024287	0.690648471	0.080301557	-0.578337684	-0.426710525	-0.131712148	0.075917042	-0.214332926	0
1134	2073040954	0.690411265	0.08041069	-0.578553369	-0.426781448	-0.070840576	0.041555585	-0.26880933	0
1135	2073057621	0.690068957	0.080378091	-0.578878959	-0.426899693	-0.114837048	0.060908028	-0.173881326	0
1136	2073074288	0.689762849	0.080146713	-0.579133989	-0.427091957	-0.223198695	0.095474599	-0.101071048	0
1137	2073090955	0.689553973	0.079685679	-0.579204599	-0.427419634	-0.234151324	0.077110177	-0.062094022	0
1138	2073107622	0.6893171	0.079012161	-0.579234251	-0.427886312	-0.114657452	0.142371389	-0.108381405	0
1139	2073124289	0.689032599	0.078502535	-0.579383828	-0.428235693	-0.011993711	0.198441776	-0.142978941	0
1140	2073140956	0.68871031	0.078313405	-0.579759665	-0.428280107	-0.039254938	0.228331525	-0.078497724	0
1141	2073157623	0.688362652	0.078279027	-0.580343925	-0.428053947	-0.041119593	0.197876012	-0.094739748	0
1142	2073174290	0.688039323	0.078072004	-0.580897007	-0.427861331	-0.157501823	0.057436877	-0.10612503	0
1143	2073190957	0.687757643	0.077385028	-0.58119748	-0.428030923	-0.220495838	0.054782322	-0.095781186	0
1144	2073207624	0.687476254	0.076437196	-0.581343328	-0.428455004	-0.225979792	0.136079146	-0.066229117	0
1145	2073224291	0.687210325	0.07564666	-0.581505884	-0.428801188	-0.183604914	0.227218601	-0.063083901	0
1146	2073240958	0.68697132	0.075182793	-0.581775784	-0.428899627	-0.181716858	0.24275918	-0.073909699	0
1147	2073257625	0.686743578	0.074920465	-0.582107213	-0.428860554	-0.177210875	0.181275656	-0.082708419	0
1148	2073274292	0.686519345	0.074592455	-0.582397081	-0.428883195	-0.158625444	0.040571745	-0.105370831	0
1149	2073290959	0.686312623	0.074054576	-0.582545005	-0.429106304	-0.118456665	0.066084634	-0.131698343	0
1150	2073307626	0.686098151	0.073481939	-0.582603549	-0.429468085	-0.102386862	0.153605839	-0.128020121	0
1151	2073324293	0.685843	0.072968781	-0.582630117	-0.429926834	-0.176204834	0.05960232	-0.138797949	0
