sep=									
DeviceTag:	Xsens_5								
FirmwareVersion:	2.4.0								
AppVersion:	2022.0.1								
SyncStatus:	Synced								
OutputRate:	60Hz								
FilterProfile:	General								
Measurement Mode:	Sensor fusion Mode - Extended (Quaternion)								
StartTime:	2020-11-25 11:02:17.797 +0100								
© Xsens Technologies B. V. 2005-2020									
PacketCounter	SampleTimeFine	Quat_W	Quat_X	Quat_Y	Quat_Z	FreeAcc_X	FreeAcc_Y	FreeAcc_Z	Status
1	1702266872	9.81E-18	2.43E-16	-0.707106781	-0.707106781	-0.2580943	0.042030334	-0.007366316	0
2	1702283539	0.000311568	3.29E-05	-0.707251629	-0.706961834	-0.202347021	0.085029331	-0.037082643	0
3	1702300206	0.000740599	8.21E-05	-0.707346339	-0.70686675	-0.237175672	0.065699513	-0.000989656	0
4	1702316873	0.001198691	0.000118857	-0.707493719	-0.706718605	-0.186253999	0.122071335	-0.092475718	0
5	1702333540	0.001726	9.47E-05	-0.707558072	-0.706653087	-0.118047505	0.160435739	-0.154405124	0
6	1702350207	0.002305501	9.17E-06	-0.707431227	-0.706778426	-0.200018795	0.127430609	-0.130115136	0
7	1702366874	0.002899668	-0.000122542	-0.707391278	-0.706816211	-0.247352672	0.081237203	-0.072520917	0
8	1702383541	0.003502176	-0.000283722	-0.707480965	-0.706723664	-0.135463407	0.082318138	-0.081238675	0
9	1702400208	0.004130316	-0.00048291	-0.707265542	-0.706935754	-0.050466766	0.105961437	-0.207527575	0
10	1702416875	0.004796005	-0.000732606	-0.706871172	-0.707325673	-0.118318487	0.094807953	-0.116565842	0
11	1702433542	0.005481238	-0.001006325	-0.706580393	-0.707610833	-0.109579716	0.111561107	-0.069435042	0
12	1702450209	0.006220175	-0.001238217	-0.70627356	-0.707910612	-0.084789424	0.096700701	-0.107258314	0
13	1702466876	0.006970841	-0.001453295	-0.705884843	-0.708290818	-0.086416722	0.081104025	-0.14125899	0
14	1702483543	0.007665803	-0.001672963	-0.705658948	-0.708508211	-0.052942212	0.06633117	-0.107897892	0
15	1702500210	0.008301502	-0.001844488	-0.705531594	-0.708627443	0.07232543	0.120932543	-0.1453713	0
16	1702516877	0.008909752	-0.00194401	-0.705307629	-0.708842709	0.099790833	0.136746394	-0.156636267	0
17	1702533544	0.009486097	-0.001977538	-0.705111748	-0.70902999	0.041561582	0.094575254	-0.070747713	0
18	1702550211	0.010005693	-0.001871633	-0.705068695	-0.709065948	0.084032292	0.103252564	-0.034155302	0
19	1702566878	0.010486825	-0.001575913	-0.70535036	-0.708779523	0.121575294	0.106967676	-0.022005588	0
20	1702583545	0.010904381	-0.001179614	-0.705990238	-0.70813663	0.131696632	0.140341301	-0.040966464	0
21	1702600212	0.011269627	-0.000618186	-0.706843206	-0.707280211	0.218017999	0.163680653	-0.08950955	0
22	1702616879	0.011568514	1.31E-06	-0.707347969	-0.70677084	0.327560521	0.18427445	-0.230685209	0
23	1702633546	0.011791214	0.000673419	-0.707569426	-0.706545131	0.108167465	0.134425378	-0.066497979	0
24	1702650213	0.011903472	0.001372808	-0.708079565	-0.706030986	0.065899144	0.119943572	-0.008140183	0
25	1702666880	0.01189679	0.002152758	-0.70863103	-0.705475651	0.210607462	0.236465592	-0.106844855	0
26	1702683547	0.011763536	0.00286169	-0.709199929	-0.704903462	0.204697624	0.217818271	-0.121326333	0
27	1702700214	0.011490765	0.003374543	-0.709657679	-0.704444855	0.223818776	0.211622374	-0.248362281	0
28	1702716881	0.011171682	0.003820027	-0.709723995	-0.704380899	0.160703246	0.194357979	-0.200777925	0
29	1702733548	0.010773023	0.004236244	-0.709641466	-0.704467874	0.035795982	0.088764929	-0.047118998	0
30	1702750215	0.01028297	0.004522262	-0.709512355	-0.704603454	0.0790402	0.070448565	-0.097897334	0
31	1702766882	0.009768161	0.004773866	-0.709190675	-0.70493289	0.107026432	0.145567232	-0.147010972	0
32	1702783549	0.009309914	0.005127692	-0.708903971	-0.705224923	-0.069583277	0.098190733	0.033081519	0
33	1702800216	0.008854509	0.00551619	-0.70893077	-0.705200917	-0.121784455	0.065159971	0.079892544	0
34	1702816883	0.008409475	0.005873134	-0.709132408	-0.70500072	-0.076968721	0.066183596	-0.041696429	0
35	1702833550	0.008046635	0.006328289	-0.709152621	-0.704980683	-0.098507042	0.026892124	-0.09762625	0
36	1702850217	0.007748171	0.006793032	-0.709200045	-0.704931995	-0.180183393	-0.017826459	-0.044852688	0
37	1702866884	0.007467183	0.007274431	-0.709545759	-0.704582245	-0.239222416	-0.044975294	0.014386176	0
38	1702883551	0.007235636	0.007768551	-0.710195168	-0.703924796	-0.171767355	-0.015801675	-0.071665365	0
39	1702900218	0.007066293	0.008282058	-0.710637173	-0.703474437	-0.043067072	0.036942141	-0.162183851	0
40	1702916885	0.007013264	0.008735108	-0.710352104	-0.703757345	-0.018908431	0.090449567	-0.272870964	0
41	1702933552	0.006975219	0.009093957	-0.709818343	-0.704291534	-0.181696835	0.049771188	-0.103642238	0
42	1702950219	0.006924505	0.009309429	-0.709665274	-0.704443457	-0.195837322	0.059908455	-0.11808625	0
43	1702966886	0.006908238	0.009497756	-0.709604894	-0.704501925	-0.043881448	0.098252545	-0.158353777	0
44	1702983553	0.006947253	0.009652392	-0.709004676	-0.705103493	0.046712783	0.081443143	-0.32027599	0
45	1703000220	0.007010874	0.009696002	-0.707991285	-0.706119802	-0.104731674	0.0223902	-0.203694561	0
46	1703016887	0.007052898	0.009680576	-0.707269679	-0.706842376	-0.235712613	0.035990078	-0.086669642	0
47	1703033554	0.007119307	0.009701239	-0.706954268	-0.707156888	-0.142498761	0.116325387	-0.11264186	0
48	1703050221	0.007252511	0.009793958	-0.706636025	-0.707472266	-0.044751813	0.147507629	-0.185149787	0
50	1703083555	0.007660845	0.009905994	-0.704660328	-0.709434285	-0.063860802	0.100935892	-0.180469334	0
51	1703100222	0.007899184	0.009993634	-0.703588014	-0.710493938	-0.172876889	0.061221428	-0.129592426	0
53	1703133556	0.008360378	0.010208283	-0.702292599	-0.711766114	-0.048809617	0.123180593	-0.231380835	0
54	1703150223	0.008588575	0.010221909	-0.701165496	-0.712873549	0.04516605	0.144721928	-0.297029399	0
55	1703166890	0.008826273	0.010095611	-0.699340652	-0.714662737	-0.057851193	0.146413553	-0.31485615	0
58	1703216891	0.00964101	0.009543873	-0.694384541	-0.719476251	-0.197016738	0.073634647	0.007967021	0
59	1703233558	0.009965207	0.009385134	-0.69301719	-0.720791085	-0.029421625	0.079506646	-0.081987363	0
61	1703266892	0.010743372	0.008822878	-0.689446769	-0.724202934	-0.249490358	0.07760732	-0.115407872	0
62	1703283559	0.011096852	0.00845615	-0.687783197	-0.72578208	-0.202823419	0.078192685	-0.10298719	0
63	1703300226	0.011431315	0.008082927	-0.686303532	-0.727180482	-0.078217646	0.079070114	-0.024416679	0
67	1703366894	0.011996482	0.006213653	-0.681029019	-0.732131785	-0.003128126	0.059285093	-0.010712855	0
69	1703400228	0.011764288	0.005438416	-0.679542887	-0.733521294	0.143499261	0.090973199	-0.054246404	0
70	1703416895	0.011584567	0.005061305	-0.67883573	-0.734181335	0.064407398	0.116207548	0.031037398	0
71	1703433562	0.011378282	0.004714592	-0.678438784	-0.73455369	-0.0674792	0.153804067	-0.036540449	0
73	1703466896	0.010740833	0.004175695	-0.678391072	-0.734610612	-0.03113693	0.102963984	-0.046371888	0
76	1703516897	0.009339027	0.003611124	-0.678618075	-0.734423073	0.035055212	0.062365567	-0.029500224	0
77	1703533564	0.008784383	0.003476157	-0.678632732	-0.734417025	-0.00569135	0.064827538	0.044890974	0
78	1703550231	0.008193519	0.0033454	-0.679054148	-0.734034835	-0.056101071	0.059850804	0.053534806	0
80	1703583565	0.007003133	0.003088785	-0.679639111	-0.73350671	0.072230169	0.166825671	-0.111953455	0
81	1703600232	0.006439336	0.0028812	-0.679425038	-0.733711014	-0.014422764	0.143473802	-0.135111257	0
82	1703616899	0.005882792	0.002653524	-0.679278945	-0.733851801	-0.116367513	0.151036692	-0.065946585	0
84	1703650233	0.004787587	0.002041944	-0.679807463	-0.733372159	0.082188909	0.17386499	-0.12012335	0
85	1703666900	0.004278731	0.001693125	-0.679653358	-0.73351901	0.029076339	0.145975917	-0.077737571	0
86	1703683567	0.003742526	0.001340905	-0.679632199	-0.733542276	-0.130697557	0.073890663	0.045526131	0
88	1703716901	0.002572054	0.000834237	-0.68072287	-0.732536048	0.023776518	0.094042858	-0.06135582	0
92	1703783569	9.97E-05	-0.000136944	-0.681621437	-0.731704987	-0.164229406	0.120352346	-0.086711016	0
93	1703800236	0.000540616	0.000338614	0.682039491	0.731315066	-0.124532264	0.142879699	-0.06524109	0
94	1703816903	0.001144012	0.000403174	0.682487229	0.730896512	0.03993451	0.180701612	-0.166016219	0
96	1703850237	0.002300564	0.000442841	0.683443046	0.730000078	-0.043495679	0.079289697	-0.172742069	0
97	1703866904	0.002866643	0.000376208	0.684010439	0.72946649	-0.103248938	0.084995415	-0.131047563	0
98	1703883571	0.00345623	0.000282994	0.684682113	0.728833574	-0.079362036	0.085098385	-0.164313146	0
100	1703916905	0.004568655	4.73E-05	0.685705417	0.727864827	-0.068190158	0.120338949	-0.176936135	0
101	1703933572	0.005117515	-4.61E-05	0.686238441	0.727358654	-0.097719238	0.079713852	-0.095455598	0
103	1703966906	0.00620039	-0.000163399	0.686820301	0.7268008	-0.108650005	0.156469465	-0.078825972	0
104	1703983573	0.006710196	-0.000198794	0.686998882	0.726627463	-0.078123195	0.159441256	-0.124038634	0
105	1704000240	0.00719327	-0.000218256	0.687031915	0.726591603	-0.057204793	0.122037814	-0.119035579	0
107	1704033574	0.008029053	-0.000199823	0.687105669	0.726513107	-0.092283006	0.048166046	-0.046778712	0
108	1704050241	0.008357797	-0.000280864	0.687228324	0.72639335	-0.104147438	0.017073485	-0.014094549	0
109	1704066908	0.008634675	-0.000408142	0.687505135	0.726128064	-0.10777246	0.017734743	0.019684758	0
111	1704100242	0.009063139	-0.00073339	0.687918348	0.725731127	0.010701213	0.021038593	-0.116599795	0
112	1704116909	0.00917703	-0.000931043	0.687741117	0.725897425	-0.056070364	0.028712704	-0.086499091	0
113	1704133576	0.009272031	-0.00109082	0.687676351	0.725957351	-0.146091341	0.030665543	0.008463487	0
115	1704166910	0.009505235	-0.001285621	0.687766075	0.725869013	-0.005411688	0.119150906	0.003670605	0
116	1704183577	0.009588942	-0.001402921	0.687651551	0.72597619	-0.092554133	0.079533233	0.019500244	0
119	1704233578	0.00991005	-0.001567865	0.687053297	0.726537748	-0.070549589	0.041240616	0.020883827	0
120	1704250245	0.009997876	-0.001629388	0.68695103	0.726633105	-0.089797206	0.037767485	0.052315531	0
123	1704300246	0.010198824	-0.001872193	0.686402214	0.727148183	-0.068303718	0.051026189	-0.036769273	0
124	1704316913	0.010292765	-0.00193496	0.686277895	0.727264027	-0.09265137	0.049319818	-0.06053555	0
127	1704366914	0.010821849	-0.00200132	0.68615659	0.727370618	-0.038312259	0.129975739	-0.100835236	0
128	1704383581	0.011038674	-0.001973053	0.686097421	0.72742325	-0.119926189	0.108654107	-0.092093281	0
130	1704416915	0.011498724	-0.001730629	0.686233122	0.727288723	-0.00149989	0.170178394	-0.167498524	0
131	1704433582	0.011664416	-0.00166757	0.686097877	0.727413819	-0.063752173	0.15238502	-0.068474144	0
132	1704450249	0.01178791	-0.001654806	0.686165856	0.727347733	-0.13704939	0.096292327	-0.03475586	0
134	1704483583	0.011966795	-0.00176733	0.686693843	0.72684609	0.013175951	0.130508329	-0.162562733	0
136	1704516917	0.012029024	-0.001959846	0.686762173	0.726780007	0.061481617	0.14523669	-0.22936991	0
138	1704550251	0.011926723	-0.002338183	0.686455824	0.727069934	-0.008754037	0.030928408	-0.141880035	0
140	1704583585	0.011568425	-0.003081874	0.686421297	0.727105547	-0.009465669	0.1013829	-0.210184479	0
142	1704616919	0.011129364	-0.003932521	0.686303328	0.727219647	-0.077046272	0.187984287	-0.183964233	0
143	1704633586	0.010834212	-0.004427536	0.686357309	0.727170311	-0.098177666	0.167459676	-0.145462681	0
144	1704650253	0.010512809	-0.004905917	0.686727575	0.726822296	-0.157834319	0.084124706	-0.111982924	0
146	1704683587	0.009821616	-0.005750235	0.687387005	0.72620216	-0.032980755	0.204042884	-0.232349625	0
147	1704700254	0.00938645	-0.006265128	0.687384528	0.726205999	-0.173691938	0.128463981	-0.09945347	0
148	1704716921	0.008926943	-0.00681469	0.687647484	0.725957855	-0.149162754	0.115253805	-0.107948423	0
150	1704750255	0.007996287	-0.007727845	0.68863056	0.725027097	-0.002379158	0.139695627	-0.18088631	0
152	1704783589	0.00703714	-0.008574223	0.688912674	0.72475947	-0.078936074	0.031659866	-0.093805641	0
154	1704816923	0.006268839	-0.009329791	0.689929356	0.723789431	0.080473477	0.064503461	-0.076896434	0
155	1704833590	0.005885625	-0.009766866	0.69059579	0.723151037	0.070125731	0.064565652	-0.039323548	0
157	1704866924	0.005287616	-0.010624046	0.691796177	0.721995304	0.152198777	0.085279145	-0.100957991	0
158	1704883591	0.005069511	-0.011030977	0.692281256	0.721525662	0.114007449	0.066683777	-0.102230795	0
159	1704900258	0.004943911	-0.011349709	0.692760355	0.721061601	0.12872476	0.090676622	-0.05662466	0
161	1704933592	0.004810459	-0.011940495	0.693332626	0.720502709	0.079490427	0.055004349	-0.028777446	0
162	1704950259	0.004811232	-0.012206138	0.693595756	0.720244951	0.042933393	0.090780899	0.00269799	0
163	1704966926	0.004854031	-0.012483164	0.693819834	0.72002406	0.052633157	0.108905396	-0.007314694	0
165	1705000260	0.004985773	-0.013029596	0.694151586	0.719693648	0.036733178	0.136606565	-0.013094995	0
167	1705033594	0.005309169	-0.013292833	0.694296737	0.719546492	0.031964558	0.101011771	-0.092580056	0
169	1705066928	0.005738466	-0.013333105	0.694318738	0.719521222	-0.063902179	0.05668382	0.02808808	0
170	1705083595	0.005995349	-0.013360781	0.694359543	0.719479235	-0.013415715	0.061612432	0.015923598	0
171	1705100262	0.006236917	-0.013407286	0.694463895	0.719375594	-0.042385757	0.061996152	-0.013003118	0
173	1705133596	0.006690962	-0.013376564	0.694501475	0.719335804	-0.064515839	0.100071144	-0.064099638	0
174	1705150263	0.006929141	-0.013295063	0.694351505	0.719479823	-0.063142168	0.063958912	-0.028618741	0
175	1705166930	0.007145603	-0.013192699	0.694188834	0.719636544	-0.062618706	0.075615464	-0.012598358	0
177	1705200264	0.00751103	-0.012880205	0.693856793	0.719958635	-0.029731353	0.156243777	-0.007707804	0
178	1705216931	0.007610744	-0.012710471	0.693476622	0.720326798	-0.052444937	0.108255875	-0.014238723	0
179	1705233598	0.007664193	-0.012508928	0.693042006	0.720747921	-0.055029008	0.059624102	-0.007698695	0
181	1705266932	0.007699896	-0.012155489	0.692260504	0.721504227	-0.04721909	0.022399981	-0.029338633	0
182	1705283599	0.007687779	-0.011956676	0.691830096	0.721920393	-0.024498224	0.041168624	-0.058801736	0
183	1705300266	0.007652737	-0.011792817	0.691288006	0.722442564	-0.041711089	0.053981276	-0.046726372	0
185	1705333600	0.007663386	-0.011503854	0.69038338	0.723311635	-0.048150663	0.07583409	-0.037086658	0
186	1705350267	0.007674698	-0.011402018	0.6900172	0.723662461	-0.013091169	0.102056513	-0.108927269	0
188	1705383601	0.007651429	-0.011187787	0.689332826	0.724317986	-0.042054658	0.115366888	-0.121528555	0
189	1705400268	0.007662482	-0.011025928	0.688911216	0.724721361	0.039809303	0.178337957	-0.22705755	0
190	1705416935	0.007667566	-0.010902313	0.688270056	0.725332116	-0.032487797	0.115992109	-0.144231675	0
192	1705450269	0.007886465	-0.010603619	0.687846865	0.725735528	-0.056222339	0.134183017	-0.212979651	0
194	1705483603	0.008146973	-0.010406886	0.687519436	0.726045693	-0.102044972	0.134818971	-0.115765878	0
196	1705516937	0.008435347	-0.010400487	0.687402435	0.726153267	-0.10258089	0.126652193	-0.167597179	0
197	1705533604	0.00853841	-0.010473066	0.687442319	0.726113261	-0.087857221	0.112649708	-0.172474012	0
198	1705550271	0.008621405	-0.010589194	0.687474208	0.726080404	-0.105599409	0.104940599	-0.123618208	0
200	1705583605	0.008805561	-0.010923693	0.687648214	0.725908444	-0.063957126	0.099922138	-0.145139612	0
201	1705600272	0.008880013	-0.011053215	0.68768594	0.725869837	-0.109135955	0.121235515	-0.179223222	0
202	1705616939	0.00893417	-0.011173001	0.68768122	0.72587181	-0.148208459	0.119672838	-0.151796975	0
204	1705650273	0.009052126	-0.011315808	0.687869612	0.725689609	-0.128503313	0.133859572	-0.088438934	0
205	1705666940	0.009119671	-0.01134454	0.688010048	0.725555172	-0.150642472	0.127083551	-0.088060482	0
206	1705683607	0.009129692	-0.011372658	0.688177515	0.725395767	-0.161257626	0.097083338	-0.113553925	0
209	1705733608	0.009115517	-0.011561037	0.689067157	0.72454793	-0.114445875	0.108291981	-0.099784749	0
210	1705750275	0.009031011	-0.011704768	0.689469183	0.724164129	-0.141248276	0.079918843	-0.078505963	0
212	1705783609	0.008835706	-0.011946249	0.690164219	0.72350022	-0.050087391	0.114543248	-0.190972854	0
213	1705800276	0.008732005	-0.012021074	0.690232597	0.723435006	-0.083741697	0.097435327	-0.158272552	0
215	1705833610	0.00853462	-0.012044401	0.690276548	0.723395038	-0.030550055	0.156085249	-0.110930324	0
216	1705850277	0.008410536	-0.012086667	0.690222375	0.723447474	-0.093497256	0.093195052	-0.082529951	0
217	1705866944	0.00834088	-0.012096273	0.690214145	0.723455972	-0.045830147	0.102326564	-0.083237227	0
219	1705900278	0.008194311	-0.012157944	0.690150078	0.723517732	-0.003582604	0.069549523	-0.106105225	0
220	1705916945	0.008134151	-0.012227268	0.690035035	0.723626962	3.97E-05	0.057613597	-0.103321118	0
221	1705933612	0.008085251	-0.01234389	0.689907615	0.723747014	-0.037110158	0.051843027	-0.059902122	0
224	1705983613	0.008038057	-0.012853213	0.689926925	0.723720266	0.008153348	0.176599095	-0.087994521	0
225	1706000280	0.008048012	-0.012999353	0.689941403	0.723703742	0.032243606	0.225798091	-0.118290525	0
227	1706033614	0.008066709	-0.013315328	0.689967393	0.723673011	-0.045793468	0.108980037	-0.011791868	0
228	1706050281	0.008123384	-0.013478373	0.690204755	0.723442976	0.015608645	0.08057187	-0.030648493	0
229	1706066948	0.008177962	-0.013681036	0.690406763	0.723245776	0.03332906	0.110467084	-0.086541441	0
231	1706100282	0.008279756	-0.014145514	0.690612829	0.723038913	0.004676305	0.0445492	-0.052647192	0
232	1706116949	0.008378783	-0.014249851	0.690821633	0.722836226	0.0927402	0.093744423	-0.178043693	0
233	1706133616	0.008452338	-0.014320043	0.690763762	0.722889286	0.090247369	0.115432487	-0.164267359	0
235	1706166950	0.008636986	-0.01443516	0.690680343	0.722964516	-0.005275007	0.10011385	-0.006947329	0
236	1706183617	0.008721973	-0.014558017	0.690849861	0.722799046	0.031460399	0.134369331	0.00033589	0
239	1706233618	0.009025017	-0.014848376	0.691453293	0.72221217	0.040061488	0.096308326	-0.102399258	0
240	1706250285	0.009141999	-0.014934253	0.691496559	0.722167502	0.037423762	0.069410219	-0.099158069	0
242	1706283619	0.009373082	-0.015115083	0.691303233	0.722345845	0.01470637	0.031604476	-0.050226571	0
243	1706300286	0.009504497	-0.015214451	0.691300696	0.72234447	0.015932669	0.021661371	-0.040644126	0
244	1706316953	0.009638188	-0.015316488	0.691335715	0.722307026	-0.024335242	0.039121849	-0.054394237	0
246	1706350287	0.00987526	-0.015670783	0.691611073	0.722032568	-0.078883267	0.055712923	-0.013555227	0
247	1706366954	0.00995261	-0.015846848	0.691671073	0.721970186	-0.001731582	0.106469246	-0.092982661	0
248	1706383621	0.010028529	-0.015968201	0.691530167	0.722101429	-0.011918132	0.093869678	-0.097730009	0
250	1706416955	0.010124073	-0.015935013	0.691042493	0.722567541	-0.085598645	0.076824303	-0.103486421	0
251	1706433622	0.010144975	-0.015860814	0.690673582	0.722921515	-0.103400663	0.060040403	-0.054999024	0
252	1706450289	0.010160746	-0.015748351	0.690349109	0.723233611	-0.12188334	0.061796664	-0.003637648	0
254	1706483623	0.010086478	-0.015562522	0.689975585	0.723595027	-0.098437637	0.096057281	-0.04360503	0
255	1706500290	0.010019371	-0.015443839	0.689842292	0.723725578	-0.10577798	0.098303315	-0.066721849	0
256	1706516957	0.009948234	-0.015270436	0.689620338	0.723941736	-0.059367949	0.12402978	-0.099188841	0
258	1706550291	0.009766658	-0.014901113	0.689147914	0.72440163	-0.080965682	0.077040829	-0.030729425	0
259	1706566958	0.009685061	-0.014713584	0.689133584	0.724420191	-0.057712842	0.088112629	-0.074475408	0
260	1706583625	0.009571399	-0.014557847	0.689102791	0.72445414	-0.02384609	0.08699618	-0.110754726	0
262	1706616959	0.009401019	-0.014191748	0.688929978	0.724627974	-0.014796944	0.104590576	-0.132970562	0
263	1706633626	0.009313703	-0.014026762	0.688808208	0.724748064	-0.003784229	0.102110224	-0.107955308	0
266	1706683627	0.008977703	-0.013655517	0.688657374	0.724902717	-0.016375883	0.119675545	-0.103145823	0
267	1706700294	0.00885825	-0.013599407	0.688660033	0.724902715	-0.003185608	0.117357637	-0.072957082	0
269	1706733628	0.008576646	-0.013542572	0.688528755	0.725031857	-0.039850695	0.126117785	-0.136239797	0
270	1706750295	0.00843878	-0.013509875	0.688507314	0.725054445	-0.029003556	0.130926127	-0.101573467	0
271	1706766962	0.008295472	-0.013494455	0.688375103	0.72518191	0.034868154	0.17510626	-0.101098265	0
273	1706800296	0.008055422	-0.013443657	0.687940868	0.725597506	-0.016832905	0.082871578	-0.038409109	0
274	1706816963	0.007947983	-0.013453408	0.687848373	0.725686193	-0.017202982	0.025697185	-0.056005445	0
275	1706833630	0.007861688	-0.013462066	0.687761913	0.725768914	-0.007938806	-0.018192797	-0.03619147	0
277	1706866964	0.007802778	-0.013495439	0.687630814	0.725893141	-0.039687434	0.096414283	-0.03879482	0
278	1706883631	0.00778865	-0.013495305	0.687635045	0.725889288	-0.051100077	0.108531788	-0.016057723	0
281	1706933632	0.007770964	-0.013451491	0.687125012	0.726373105	-0.073448037	0.137033329	-0.010791894	0
282	1706950299	0.007792406	-0.013406976	0.68694712	0.726541936	-0.114301605	0.086066893	-0.014380417	0
283	1706966966	0.007808524	-0.013369854	0.686920138	0.726567958	-0.058566354	0.097804211	-0.026996342	0
285	1707000300	0.007844324	-0.013239303	0.686692657	0.726784963	-0.083643659	0.092919084	-0.026360072	0
286	1707016967	0.007869957	-0.013201474	0.686589267	0.726883046	-0.06949339	0.085346346	-0.034298601	0
287	1707033634	0.007898357	-0.013176633	0.686516844	0.72695159	-0.071387666	0.092008176	-0.037858077	0
289	1707066968	0.007989295	-0.01303171	0.686290768	0.727166643	-0.048363101	0.095437778	-0.073555554	0
290	1707083635	0.008041855	-0.012936086	0.686139249	0.727310743	-0.061080614	0.073520829	-0.069115459	0
292	1707116969	0.008147351	-0.01277559	0.685979043	0.727463509	-0.041962724	0.123514758	-0.068504404	0
293	1707133636	0.008167966	-0.012715407	0.685863764	0.72757302	-0.050743348	0.136960887	-0.0790283	0
296	1707183637	0.00822685	-0.012556136	0.685360409	0.728049292	-0.060674343	0.098069772	-0.099346058	0
297	1707200304	0.008262898	-0.012508096	0.685314233	0.728093176	-0.029248671	0.086913521	-0.123399853	0
298	1707216971	0.008280912	-0.012489968	0.685174109	0.728225149	-0.027740738	0.09395967	-0.130627121	0
300	1707250305	0.008303338	-0.012418545	0.684599814	0.728766032	-0.103226807	0.064442711	-0.068701743	0
301	1707266972	0.008316508	-0.012424262	0.68449335	0.728865781	-0.09604606	0.069415717	-0.104726322	0
302	1707283639	0.008299738	-0.01244665	0.684446487	0.728909598	-0.089273591	0.088324375	-0.065316607	0
304	1707316973	0.008225576	-0.012538874	0.684221529	0.729120028	-0.08558102	0.109944688	-0.064075582	0
305	1707333640	0.008165017	-0.012584678	0.684107545	0.729226868	-0.129400758	0.089328456	-0.10188317	0
306	1707350307	0.008100766	-0.012615519	0.684032456	0.729297488	-0.098054162	0.075170461	-0.095878285	0
308	1707383641	0.007977993	-0.012550623	0.683897948	0.729426097	-0.068436199	0.092914122	-0.085781235	0
310	1707416975	0.007788269	-0.012448007	0.683594951	0.729713871	-0.120306612	0.075760074	-0.077937176	0
312	1707450309	0.007640253	-0.012200445	0.683473118	0.729833729	-0.075116814	0.112808003	-0.103267658	0
313	1707466976	0.007569148	-0.012028541	0.683483597	0.729827511	-0.090528001	0.10450205	-0.07901189	0
314	1707483643	0.007500592	-0.011828466	0.683527457	0.729790411	-0.101599176	0.105030902	-0.086180538	0
316	1707516977	0.007319391	-0.011434125	0.683533205	0.729793152	-0.042051737	0.09485044	-0.124804804	0
317	1707533644	0.007200756	-0.011280075	0.683522358	0.729806889	-0.043024116	0.085319235	-0.092101834	0
319	1707566978	0.006973773	-0.010983444	0.683739427	0.729610256	0.002012973	0.096352323	-0.152754279	0
320	1707583645	0.006875075	-0.010836132	0.683734159	0.729618333	-0.013942702	0.105375787	-0.164527615	0
321	1707600312	0.006761522	-0.010713665	0.683707981	0.729645733	-0.052337932	0.151917991	-0.138800603	0
323	1707633646	0.006551274	-0.010523435	0.683869606	0.729498938	-0.063051234	0.174865835	-0.044826374	0
324	1707650313	0.006452989	-0.010419549	0.684037072	0.729344278	-0.00235417	0.154638318	-0.133225658	0
325	1707666980	0.006339703	-0.010346956	0.684001967	0.729379228	0.020485942	0.131724518	-0.174106775	0
327	1707700314	0.006118792	-0.010165195	0.683853768	0.72952262	0.00110531	0.070661178	-0.093640574	0
328	1707716981	0.006001875	-0.010085384	0.683831756	0.729545333	0.015832236	0.092743721	-0.101565469	0
329	1707733648	0.005865284	-0.010036854	0.683753929	0.729620055	-0.016590123	0.116513085	-0.071863797	0
331	1707766982	0.005635385	-0.01003418	0.683634185	0.729734102	0.007463532	0.079264815	-0.060581608	0
332	1707783649	0.005521952	-0.010084382	0.683581306	0.729783812	0.034779062	0.121373845	-0.090234806	0
333	1707800316	0.005400748	-0.010129659	0.683515589	0.729845642	0.001516915	0.071902778	-0.056283976	0
335	1707833650	0.005226503	-0.010230757	0.683359652	0.729991508	-0.005131292	0.074020433	-0.076379052	0
337	1707866984	0.00517019	-0.010325722	0.683432427	0.729922439	-0.032447603	0.056896329	-0.090038993	0
339	1707900318	0.005167981	-0.010504926	0.683632552	0.729732467	-0.078221759	0.105628615	-0.034104213	0
340	1707916985	0.005205233	-0.010580471	0.683860879	0.72951714	-0.071231862	0.12297959	-0.093291765	0
341	1707933652	0.005236674	-0.010672609	0.684108426	0.729283439	-0.050409326	0.137822987	-0.163784535	0
343	1707966986	0.005292362	-0.010745351	0.684168057	0.729226027	-0.059057116	0.130937397	-0.158428	0
344	1707983653	0.005320639	-0.010782638	0.684092541	0.729296113	-0.065345184	0.112659757	-0.125172802	0
346	1708016987	0.005307479	-0.01091266	0.684101408	0.729285958	-0.069825354	0.112369845	-0.112976654	0
347	1708033654	0.005275642	-0.011016686	0.684172486	0.729217944	-0.034143127	0.132250182	-0.128263014	0
348	1708050321	0.005231026	-0.011140543	0.684256218	0.729137815	-0.049986049	0.111916847	-0.08803883	0
350	1708083655	0.005113716	-0.011397685	0.684353313	0.729043542	-0.016573936	0.165674867	-0.144515975	0
352	1708116989	0.004995857	-0.011679779	0.684548951	0.728856199	-0.031681611	0.146285502	-0.074888324	0
354	1708150323	0.00482514	-0.012014763	0.684701193	0.728708885	0.002519594	0.09687198	-0.117640475	0
355	1708166990	0.004746667	-0.012212049	0.684830396	0.728584699	-0.041885907	0.046384394	-0.112058095	0
356	1708183657	0.004684353	-0.012393115	0.685037456	0.728387364	0.007865024	0.070115536	-0.117110526	0
358	1708216991	0.004568759	-0.012770482	0.68505312	0.728366847	-0.01059135	0.115903672	-0.081047558	0
359	1708233658	0.004496645	-0.01298267	0.685069219	0.728348402	-0.043880807	0.094282625	-0.083686565	0
360	1708250325	0.004429908	-0.013219911	0.685144071	0.728274133	-0.010467521	0.095978086	-0.048354507	0
362	1708283659	0.00428631	-0.01368293	0.685303635	0.728116291	0.002040414	0.096115585	-0.059278171	0
363	1708300326	0.004218528	-0.013849987	0.685279435	0.728136304	-0.007128744	0.098686371	-0.080383379	0
364	1708316993	0.004191409	-0.014009108	0.685210911	0.728197902	-0.027598589	0.093933638	-0.060943517	0
367	1708366994	0.004222487	-0.014479274	0.685482791	0.727932596	-0.043967286	0.100293468	-0.017615519	0
368	1708383661	0.004257647	-0.014607011	0.685600459	0.727819014	-0.053689927	0.122797344	-0.042064503	0
370	1708416995	0.004408916	-0.014705327	0.685644224	0.727774905	-0.010494396	0.096854027	-0.022459936	0
371	1708433662	0.00453426	-0.014698151	0.685658353	0.727760969	-0.046980373	0.067834611	-0.009902721	0
372	1708450329	0.004656672	-0.01471623	0.685752905	0.727670737	-0.04554833	0.025272576	-0.003485729	0
374	1708483663	0.004858615	-0.01482204	0.68586518	0.727561444	-0.001068895	0.11625823	-0.080420556	0
375	1708500330	0.004943879	-0.014860699	0.685823562	0.727599312	0.004098703	0.130981997	-0.097369399	0
377	1708533664	0.005116154	-0.014858094	0.685673146	0.727739925	-0.018500858	0.115789108	-0.104208568	0
378	1708550331	0.005201744	-0.014835346	0.685546147	0.72785942	-0.057007442	0.113828447	-0.065984764	0
379	1708566998	0.005283187	-0.014798448	0.685390614	0.728006044	-0.050707296	0.115316405	-0.060437936	0
382	1708616999	0.005454296	-0.014700383	0.684720215	0.728637342	-0.051564442	0.034018744	-0.08390811	0
383	1708633666	0.005519424	-0.014681289	0.684512039	0.72883281	-0.057565193	0.072880354	-0.066189716	0
385	1708667000	0.005680078	-0.014727899	0.684379662	0.728954939	-0.060473682	0.110310772	-0.094091792	0
386	1708683667	0.005774775	-0.014740822	0.684395738	0.728938841	-0.058129285	0.113442433	-0.111844333	0
387	1708700334	0.005851171	-0.014706864	0.684373919	0.728959403	-0.072613354	0.108040545	-0.163322914	0
389	1708733668	0.005932785	-0.014692838	0.68435514	0.728976656	-0.109381622	0.087355536	-0.086596591	0
390	1708750335	0.005957836	-0.014745882	0.68439518	0.728937789	-0.085776678	0.087690049	-0.094821587	0
391	1708767002	0.005949048	-0.014781271	0.684529881	0.728810651	-0.079433021	0.087852571	-0.124747471	0
393	1708800336	0.00586009	-0.014755088	0.684651302	0.72869784	-0.076933054	0.124479956	-0.134893825	0
394	1708817003	0.005785009	-0.014719968	0.684584776	0.728761649	-0.093188399	0.124743105	-0.086160445	0
395	1708833670	0.005704367	-0.014692531	0.684607929	0.728741088	-0.093690964	0.104452514	-0.071437431	0
397	1708867004	0.005473554	-0.014700784	0.684762979	0.728597001	-0.047675327	0.096898341	-0.095473179	0
398	1708883671	0.005353485	-0.014741017	0.684894804	0.728473164	-0.057842421	0.079557594	-0.07661956	0
399	1708900338	0.005260769	-0.014768838	0.685113581	0.728267524	-0.036360636	0.081873471	-0.093265561	0
401	1708933672	0.005111145	-0.01484981	0.68559811	0.727810821	-0.013911794	0.107815557	-0.093166814	0
404	1708983673	0.004987062	-0.014934109	0.686170585	0.727270259	0.019429122	0.135063959	-0.074333087	0
405	1709000340	0.004949543	-0.014942269	0.68631046	0.727138352	0.011008945	0.132746684	-0.066989045	0
406	1709017007	0.00492433	-0.014925772	0.686423049	0.727032578	0.0145821	0.137691105	-0.041856881	0
408	1709050341	0.004926751	-0.014906362	0.686496518	0.726963588	0.01942093	0.112318425	0.013096803	0
410	1709083675	0.004951431	-0.014980194	0.686797958	0.726677124	0.066034002	0.108080865	-0.056621095	0
412	1709117009	0.00503038	-0.015127092	0.68672579	0.726741739	0.072982502	0.111887663	-0.060326318	0
413	1709133676	0.005105353	-0.015176566	0.686598252	0.726860679	0.044929819	0.084974965	-0.040819416	0
414	1709150343	0.005210557	-0.015247235	0.686460824	0.726988245	0.020065502	0.055604434	-0.001552336	0
416	1709183677	0.005518752	-0.015469768	0.68646383	0.726978431	-0.009325877	0.141925446	0.039254965	0
417	1709200344	0.005699033	-0.015602568	0.686474164	0.726964444	0.016063485	0.188515852	-0.015043185	0
418	1709217011	0.005892323	-0.015691318	0.686403083	0.727028109	0.003051637	0.145550122	-0.042920212	0
420	1709250345	0.006362279	-0.015693634	0.686139273	0.727273077	-0.011601338	0.067912823	-0.059600037	0
421	1709267012	0.006582995	-0.015701946	0.68607004	0.727336245	-0.04405059	0.054818619	-0.029528354	0
422	1709283679	0.006805946	-0.015736343	0.685999876	0.727399626	-0.013074746	0.064700267	-0.042984238	0
425	1709333680	0.007410766	-0.015875498	0.685744575	0.727631381	-0.04819778	0.123598175	-0.094605747	0
426	1709350347	0.007590074	-0.015888003	0.685628798	0.727738355	-0.03104618	0.134200103	-0.104750167	0
428	1709383681	0.007886055	-0.015894736	0.685140973	0.728194353	-0.067887436	0.106073565	-0.089340793	0
429	1709400348	0.008023874	-0.01589319	0.684901142	0.728418458	-0.055805753	0.085062025	-0.097493805	0
431	1709433682	0.008279547	-0.01589233	0.684467112	0.728823474	-0.06582959	0.117807608	-0.090778894	0
432	1709450349	0.008381466	-0.015931614	0.684223661	0.729050009	-0.094262243	0.093659154	-0.049794059	0
433	1709467016	0.008486915	-0.015984601	0.68408119	0.729181315	-0.091773417	0.131409333	-0.093867803	0
435	1709500350	0.008648273	-0.016114271	0.683657813	0.729573528	-0.011204076	0.08654213	-0.15702718	0
436	1709517017	0.008724639	-0.016152766	0.683359781	0.729850929	-0.036890311	0.098431742	-0.076204064	0
437	1709533684	0.008801738	-0.016219999	0.683223	0.729976557	-0.082779238	0.077419981	-0.043934844	0
440	1709583685	0.00899144	-0.016685188	0.683075624	0.730101672	-0.049547403	0.061838466	-0.071645245	0
441	1709600352	0.00900433	-0.016903904	0.683041963	0.730127973	-0.091603121	0.043695461	-0.07021497	0
443	1709633686	0.009041152	-0.017223787	0.682935762	0.73021938	-0.068427176	0.096411016	-0.082550334	0
444	1709650353	0.00902003	-0.017313168	0.682868265	0.730280648	-0.08417004	0.086274023	-0.070085337	0
445	1709667020	0.00898699	-0.017377386	0.682780573	0.730361519	-0.082265795	0.082694503	-0.033712329	0
447	1709700354	0.00888246	-0.01745608	0.682728247	0.730409835	-0.075669652	0.054901544	-0.026531961	0
448	1709717021	0.008837938	-0.017483036	0.682792764	0.73034942	-0.035576736	0.053212921	-0.045918512	0
449	1709733688	0.008792773	-0.017475617	0.682841484	0.730304593	-0.0444282	0.047852688	-0.052418321	0
451	1709767022	0.008770511	-0.017343076	0.683056291	0.730107115	-0.013234266	0.06992159	-0.080528405	0
452	1709783689	0.008753251	-0.017236783	0.683145248	0.730026605	-0.029347646	0.070526049	-0.0102904	0
455	1709833690	0.008668383	-0.016946875	0.683555642	0.729650154	-0.010893134	0.084564874	-0.068847399	0
456	1709850357	0.008608559	-0.016839866	0.683655497	0.72955978	-0.006348846	0.094914661	-0.088165436	0
458	1709883691	0.008508488	-0.016678608	0.683665229	0.729555539	-0.021083485	0.055083791	-0.085913252	0
459	1709900358	0.008500976	-0.016571848	0.683752812	0.729475976	-0.028250529	0.071288855	-0.095870572	0
460	1709917025	0.008469517	-0.016508337	0.683825042	0.729410072	-0.025979617	0.070918211	-0.088301156	0
462	1709950359	0.008444069	-0.016414161	0.683937001	0.729307515	-0.063398644	0.128044864	-0.05894124	0
463	1709967026	0.008403281	-0.016412348	0.683989666	0.729258635	-0.044135941	0.129285542	-0.080867077	0
466	1710017027	0.008136691	-0.016340179	0.68404049	0.729215606	-0.028325946	0.055156947	-0.130254821	0
467	1710033694	0.008001308	-0.016337161	0.684085924	0.72917455	-0.021867996	0.065748293	-0.101831288	0
468	1710050361	0.007819585	-0.016390869	0.684144714	0.729120157	-0.018166462	0.108373043	-0.132791742	0
470	1710083695	0.007436004	-0.016466578	0.684086398	0.729177179	-0.029240219	0.132968866	-0.113500035	0
471	1710100362	0.0072477	-0.016505923	0.683987504	0.729270951	-0.019762127	0.138812554	-0.09845161	0
472	1710117029	0.007066528	-0.016542404	0.68397936	0.72927954	-0.035206377	0.121551111	-0.030157803	0
474	1710150363	0.006730192	-0.016645286	0.683951899	0.729306135	0.003630586	0.07522109	-0.106344355	0
475	1710167030	0.006579411	-0.016724136	0.683882292	0.72937098	-0.043217131	0.043856223	-0.087168946	0
476	1710183697	0.006464127	-0.016813007	0.683869886	0.729381599	-0.048556712	0.081933618	-0.048236581	0
478	1710217031	0.006293598	-0.016961411	0.684032948	0.729226732	-0.041907837	0.119807366	-0.037158209	0
479	1710233698	0.006208209	-0.017054109	0.684156886	0.729109026	-0.064089459	0.110340671	-0.031838985	0
480	1710250365	0.006175788	-0.017095764	0.684262047	0.729009634	-0.016987387	0.109599934	-0.066900159	0
483	1710300366	0.006169974	-0.017061268	0.684385318	0.728894767	-0.088939816	0.077592011	-0.017828241	0
485	1710333700	0.006240696	-0.016991391	0.684544598	0.728746211	-0.059673091	0.104179773	-0.051934294	0
486	1710350367	0.006273476	-0.016950733	0.684657235	0.728641055	-0.032582716	0.12457925	-0.069678597	0
487	1710367034	0.006292455	-0.016881529	0.684715207	0.728588021	-0.027183897	0.099262542	-0.112613292	0
489	1710400368	0.006354425	-0.0167233	0.684853202	0.728461423	-0.048665931	0.112542066	-0.081879208	0
490	1710417035	0.006367979	-0.016675919	0.684901455	0.728417023	-0.010640641	0.122028648	-0.075625309	0
491	1710433702	0.006371237	-0.01663795	0.684924056	0.728396612	-0.017401791	0.111260584	-0.089040907	0
493	1710467036	0.006329742	-0.01663463	0.684891259	0.728427887	-0.015282913	0.095428953	-0.128930833	0
494	1710483703	0.006310279	-0.016673837	0.684878996	0.72843869	-0.00603837	0.091667257	-0.10141538	0
495	1710500370	0.006276034	-0.016743839	0.684803486	0.728508367	-0.010528372	0.11714868	-0.089459894	0
498	1710550371	0.006238343	-0.016926386	0.684724101	0.728579087	0.014428392	0.137675568	-0.140306438	0
499	1710567038	0.006218512	-0.016941902	0.684596323	0.728698962	-0.064773391	0.11153192	-0.081424061	0
501	1710600372	0.006213596	-0.01698319	0.684483706	0.728803827	-0.045851533	0.067571826	-0.046669518	0
502	1710617039	0.006176407	-0.017088925	0.68438314	0.728896109	-0.044490946	0.08207841	-0.093722621	0
503	1710633706	0.006110591	-0.017176376	0.684251584	0.729018109	-0.085190113	0.056510005	-0.074756084	0
505	1710667040	0.005959731	-0.017331519	0.684223236	0.729042292	-0.060070026	0.108383073	-0.132399621	0
506	1710683707	0.005876651	-0.017406319	0.684111906	0.729145654	-0.082776964	0.082245236	-0.096417185	0
508	1710717041	0.005723064	-0.017544182	0.684129833	0.729126751	-0.096658852	0.125827862	-0.022786551	0
509	1710733708	0.005655547	-0.017623396	0.684282184	0.728982389	-0.096980022	0.142316129	-0.016914671	0
510	1710750375	0.005595975	-0.017639571	0.684454683	0.728820498	-0.065860926	0.149289408	-0.075643306	0
513	1710800376	0.005384677	-0.017541748	0.684521545	0.728761653	-0.055235348	0.036964097	-0.010723985	0
514	1710817043	0.005289398	-0.017550242	0.684653943	0.728637763	0.010137623	0.051575478	-0.023612679	0
516	1710850377	0.005112683	-0.017502284	0.685047122	0.728270534	-0.010525057	0.112304766	-0.101283415	0
517	1710867044	0.00500561	-0.017521118	0.685074677	0.728244904	-0.008004742	0.12598826	-0.079379391	0
518	1710883711	0.0049091	-0.017510193	0.685165476	0.728160397	-0.061396922	0.09371342	-0.058891952	0
520	1710917045	0.004715943	-0.017537866	0.685414395	0.727926706	0.005187244	0.112113052	-0.073816036	0
521	1710933712	0.004621654	-0.017575657	0.685453397	0.727889674	-0.004872627	0.093556788	-0.053853515	0
522	1710950379	0.004535973	-0.017637409	0.685442296	0.727899173	-0.001991626	0.053629889	-0.086265533	0
524	1710983713	0.004470913	-0.017753957	0.685645007	0.727705801	0.007681991	0.086666224	-0.089650747	0
525	1711000380	0.004479524	-0.017781573	0.685783174	0.727574867	0.011260415	0.119292785	-0.10419374	0
528	1711050381	0.004582218	-0.017717963	0.686157479	0.727222794	-0.057868528	0.109420082	-0.089625821	0
529	1711067048	0.004589088	-0.017712492	0.686210811	0.727172559	-0.020683254	0.10629414	-0.09313513	0
530	1711083715	0.004593263	-0.017716094	0.686256367	0.727129452	-0.054182713	0.076272269	-0.049718602	0
532	1711117049	0.004572018	-0.017765448	0.686639629	0.726766473	-0.027270573	0.0797147	-0.107310504	0
533	1711133716	0.004527336	-0.017779481	0.686795115	0.726619476	-0.038081906	0.09261212	-0.09442948	0
534	1711150383	0.004463215	-0.017790506	0.686827372	0.726589113	-0.026082848	0.125858687	-0.097489068	0
536	1711183717	0.004229342	-0.017849159	0.6866218	0.726783341	-0.06917651	0.078021562	-0.063136237	0
537	1711200384	0.00410821	-0.017888174	0.686598607	0.726804986	-0.038574319	0.115264267	-0.088586745	0
539	1711233718	0.003844374	-0.017898637	0.686573524	0.726829867	-0.042812197	0.107482341	-0.096871448	0
540	1711250385	0.003719797	-0.017896958	0.686540525	0.726861726	-0.034267915	0.095518141	-0.124508101	0
541	1711267052	0.003577236	-0.017881258	0.686532423	0.726870481	-0.036324233	0.092969181	-0.055022138	0
543	1711300386	0.003295955	-0.017927926	0.686621032	0.72678696	-0.0018966	0.100296598	-0.0711324	0
544	1711317053	0.003184393	-0.017969215	0.686761086	0.726654098	-0.022272035	0.098739298	-0.067861111	0
545	1711333720	0.003106948	-0.017995085	0.686949339	0.726475829	0.042499302	0.112853437	-0.112139414	0
547	1711367054	0.002961053	-0.018012026	0.687076494	0.726355761	0.03780897	0.11095218	-0.038281032	0
548	1711383721	0.002909265	-0.01806657	0.687135318	0.726298968	-0.000855525	0.096249682	-0.008457233	0
549	1711400388	0.002861298	-0.018164049	0.687336475	0.726106363	0.030263141	0.077588056	-0.020156153	0
551	1711433722	0.002824547	-0.018251337	0.687746281	0.725716173	0.062950554	0.109003837	-0.104382895	0
552	1711450389	0.002823636	-0.018258347	0.687709102	0.725751232	0.028933903	0.106651723	-0.074011221	0
555	1711500390	0.002913965	-0.018211822	0.687765778	0.725698335	0.001994279	0.069429901	-0.028306855	0
556	1711517057	0.00298178	-0.018190885	0.687770959	0.725693674	-0.026676009	0.064496058	-0.050473843	0
557	1711533724	0.003055023	-0.018159905	0.687739709	0.725723761	-0.037258472	0.056034822	-0.062457495	0
559	1711567058	0.003283231	-0.01804492	0.687653571	0.725807253	-0.115043151	0.082997792	-0.025898803	0
560	1711583725	0.003412623	-0.01794979	0.68765862	0.725804231	-0.055154649	0.161327522	-0.050946672	0
561	1711600392	0.003534912	-0.01783156	0.687607397	0.725855087	-0.09326614	0.137102394	-0.026376229	0
563	1711633726	0.003740295	-0.017560374	0.687420498	0.726037673	-0.082906132	0.066431848	-0.074803947	0
564	1711650393	0.003810721	-0.017416352	0.687337692	0.726119168	-0.092218387	0.058233985	-0.042986971	0
566	1711683727	0.003836621	-0.017182953	0.687207406	0.726247897	-0.062688369	0.103175772	-0.08656568	0
567	1711700394	0.003802954	-0.017095526	0.687144848	0.726309327	-0.081541605	0.127622529	-0.08419107	0
570	1711750395	0.003609207	-0.016889984	0.68702511	0.726428387	-0.014289817	0.148512648	-0.133097635	0
571	1711767062	0.003511956	-0.016858703	0.686861931	0.726583883	-0.047997229	0.120163344	-0.126876458	0
572	1711783729	0.003441826	-0.016798812	0.686779224	0.726663782	-0.013841106	0.100514369	-0.160654212	0
574	1711817063	0.003316259	-0.016739236	0.686473678	0.726954393	-0.027362678	0.076461396	-0.118890804	0
575	1711833730	0.003267216	-0.016790236	0.686407416	0.727016006	-0.058465453	0.097571005	-0.042802409	0
576	1711850397	0.003244323	-0.016852982	0.686477023	0.726948931	-0.018736607	0.132089262	-0.111313807	0
578	1711883731	0.003213079	-0.017011155	0.686339892	0.727074858	-0.034366747	0.115430153	-0.148384609	0
579	1711900398	0.003215258	-0.017081788	0.686228522	0.727178307	-0.063010405	0.103617675	-0.100633477	0
580	1711917065	0.003223507	-0.017218546	0.686165589	0.727234429	-0.062416449	0.097524138	-0.047196383	0
582	1711950399	0.003167071	-0.017633068	0.686270035	0.727126181	-0.065871589	0.096301104	-0.09554639	0
584	1711983733	0.003095277	-0.017955415	0.686178482	0.727205001	-0.084196036	0.124187355	-0.162355946	0
586	1712017067	0.003046244	-0.018077067	0.685997085	0.727373315	-0.096344256	0.112683517	-0.07015706	0
587	1712033734	0.002996531	-0.018173237	0.685942366	0.727422727	-0.095089747	0.086870363	-0.024973092	0
588	1712050401	0.002944943	-0.018268162	0.68598668	0.727378771	-0.133814428	0.059073898	-0.040323178	0
590	1712083735	0.002868054	-0.018383126	0.686197602	0.727177204	-0.077852042	0.106458345	-0.095327009	0
591	1712100402	0.002849417	-0.01839048	0.686245885	0.727131526	-0.074537428	0.114769192	-0.102005983	0
593	1712133736	0.002840971	-0.018307128	0.686377547	0.727009382	-0.08144984	0.087510847	-0.068770946	0
594	1712150403	0.002826525	-0.018282457	0.686508489	0.726886413	-0.049496438	0.103463592	-0.070683451	0
595	1712167070	0.002820129	-0.018269556	0.686665659	0.72673829	-0.031204625	0.095738026	-0.08223034	0
597	1712200404	0.002773905	-0.018235509	0.687056886	0.72636947	-0.002661551	0.114957165	-0.107805265	0
599	1712233738	0.002705386	-0.018360415	0.687513426	0.725934477	-0.010206172	0.080538145	-0.061140948	0
601	1712267072	0.002613696	-0.018508398	0.688040878	0.725431153	0.017316201	0.135120468	-0.143755182	0
602	1712283739	0.002544085	-0.018631306	0.688212743	0.725265208	-0.023684122	0.102258203	-0.096201684	0
603	1712300406	0.002484951	-0.01873716	0.688373947	0.725109684	0.007905252	0.121620179	-0.093653161	0
605	1712333740	0.002374369	-0.018983016	0.688666935	0.7248254	0.017568019	0.108436698	-0.102411766	0
606	1712350407	0.002319803	-0.019083407	0.688766219	0.724728596	0.01068728	0.123390997	-0.100990353	0
607	1712367074	0.002265562	-0.019203254	0.688830046	0.724664937	0.013428456	0.102012212	-0.03501817	0
609	1712400408	0.002223559	-0.019486389	0.688944364	0.724548825	0.015633712	0.085451965	0.031808739	0
610	1712417075	0.002227701	-0.019655733	0.689148836	0.724349758	0.015306116	0.081757609	-0.011764057	0
611	1712433742	0.002285767	-0.0197926	0.689350364	0.724154061	0.00745771	0.083090884	-0.036329836	0
613	1712467076	0.002554222	-0.019957236	0.689746555	0.723771286	0.001357396	0.072312602	-0.026817394	0
614	1712483743	0.002791923	-0.019923805	0.68997034	0.723557999	0.03160694	0.141842908	-0.03175182	0
615	1712500410	0.003013989	-0.019922621	0.689981468	0.723546528	0.02043194	0.172669058	-0.031520714	0
617	1712533744	0.003522976	-0.019813054	0.690133767	0.723401973	-0.013544334	0.059383315	0.000479746	0
618	1712550411	0.00380249	-0.019745092	0.690316356	0.72322818	0.02806684	0.060789427	-0.065553801	0
620	1712583745	0.004332655	-0.019658212	0.690388688	0.723158518	0.031009153	0.098947054	-0.066279421	0
621	1712600412	0.004575121	-0.019655385	0.690327834	0.723215193	-0.008706634	0.069337352	-0.042971057	0
622	1712617079	0.004824573	-0.019675126	0.690331934	0.723209121	-0.012409891	0.09472838	-0.028982336	0
624	1712650413	0.005157347	-0.020004339	0.690237857	0.723287584	-0.011112264	0.147556773	-0.082018169	0
626	1712683747	0.005460698	-0.020337725	0.690276427	0.723239249	0.020643103	0.139074271	-0.220529694	0
628	1712717081	0.005836754	-0.020210552	0.689937057	0.723563628	-0.012367168	0.068326242	-0.158456528	0
629	1712733748	0.006036931	-0.02008955	0.689685924	0.723804733	-0.104370906	0.037599985	-0.08245937	0
630	1712750415	0.006248727	-0.020017915	0.689634863	0.723853571	-0.134322909	0.057761917	0.025006647	0
632	1712783749	0.006603959	-0.020036777	0.689725728	0.723763315	-0.075601645	0.111542755	-0.096188782	0
633	1712800416	0.006733814	-0.020058892	0.68970009	0.723785937	-0.118160641	0.073416882	-0.115599983	0
634	1712817083	0.006878923	-0.020006917	0.689686304	0.723799148	-0.106406909	0.087811159	-0.152149695	0
636	1712850417	0.007059425	-0.019866561	0.6895327	0.723947608	-0.127133061	0.063056939	-0.088666219	0
637	1712867084	0.007093252	-0.019820326	0.68942004	0.724055833	-0.132249766	0.069827849	-0.062402907	0
638	1712883751	0.007066099	-0.019812827	0.689352769	0.724120351	-0.130404405	0.065119884	-0.056202697	0
641	1712933752	0.006797366	-0.019695121	0.68933723	0.724140927	-0.133930595	0.085567431	-0.112269753	0
642	1712950419	0.00666999	-0.019619856	0.689177336	0.724296329	-0.163686272	0.067849868	-0.048752917	0
644	1712983753	0.006382348	-0.019420608	0.689023861	0.724450291	-0.075419629	0.093241082	-0.058361211	0
645	1713000420	0.006225328	-0.019310718	0.688916846	0.724556362	-0.117731768	0.089794426	-0.064210041	0
647	1713033754	0.005909507	-0.019188675	0.688853589	0.724622388	-0.094271386	0.099906945	-0.084965164	0
648	1713050421	0.005753282	-0.01913769	0.688857948	0.72462085	-0.03899534	0.074277427	-0.044608752	0
649	1713067088	0.005606143	-0.019026518	0.688829197	0.724652261	-0.021134901	0.088538297	-0.081371741	0
651	1713100422	0.005319202	-0.018899602	0.688753495	0.724729697	-0.079093352	0.053252444	-0.01083349	0
652	1713117089	0.005197501	-0.01887605	0.688918764	0.724574093	-0.034100151	0.071668052	-0.02313897	0
653	1713133756	0.005098607	-0.018886282	0.689070408	0.724430318	0.019824419	0.105283295	-0.080821504	0
656	1713183757	0.004811724	-0.018783949	0.689067865	0.72443736	-0.032037837	0.107876999	-0.068208485	0
657	1713200424	0.004741916	-0.01875539	0.689063709	0.724442513	-0.036584454	0.090058799	-0.041782002	0
659	1713233758	0.004635683	-0.018764967	0.689385459	0.724136779	0.007499357	0.101607826	-0.092397002	0
660	1713250425	0.004561826	-0.018781782	0.689423213	0.724100869	0.008511414	0.125836925	-0.061323471	0
661	1713267092	0.004516828	-0.018736927	0.689372143	0.724150933	-0.009896672	0.10632942	-0.09154071	0
663	1713300426	0.00445223	-0.018727885	0.68923439	0.72428268	-0.042953512	0.070042973	-0.035535124	0
664	1713317093	0.004449044	-0.018690949	0.689198889	0.724317434	-0.011063754	0.090477959	-0.029565705	0
665	1713333760	0.004426591	-0.018690847	0.689161892	0.724352776	-0.034053576	0.113224207	-0.049890921	0
667	1713367094	0.004385769	-0.018683883	0.689109282	0.724403255	-0.053101477	0.122582061	-0.064328494	0
668	1713383761	0.004369243	-0.018648839	0.688996151	0.72451186	-0.046635581	0.127263372	-0.062314801	0
671	1713433762	0.004253538	-0.018404458	0.688781329	0.724723025	-0.036113157	0.088393754	-0.086228725	0
672	1713450429	0.0041931	-0.018375211	0.688656321	0.724842908	-0.085000101	0.105173451	-0.037923412	0
674	1713483763	0.00406882	-0.018333081	0.688670124	0.724831569	0.001048351	0.130086795	-0.089495356	0
675	1713500430	0.004001626	-0.018293944	0.688582525	0.72491615	0.037018545	0.145590287	-0.14382284	0
676	1713517097	0.003935096	-0.018272219	0.688317475	0.725168735	-0.049675656	0.111996328	-0.056908062	0
678	1713550431	0.003874584	-0.018338836	0.688191696	0.725286746	-0.000198538	0.067001789	-0.066641907	0
679	1713567098	0.00382719	-0.018448648	0.688190446	0.725285399	0.022444123	0.067951882	-0.12258076	0
680	1713583765	0.003798281	-0.018547578	0.688204892	0.72526932	-0.007449487	0.076656686	-0.129252837	0
682	1713617099	0.003791528	-0.018648414	0.688169757	0.725300108	-0.025620468	0.171942032	-0.127855749	0
683	1713633766	0.003786555	-0.018717774	0.688025672	0.725435029	-0.065508874	0.154342779	-0.032492332	0
684	1713650433	0.003793252	-0.01876142	0.687991042	0.725466709	-0.054621521	0.109285778	-0.079997242	0
686	1713683767	0.003742031	-0.018940414	0.687960828	0.725490977	-0.012452286	0.082015935	-0.116237422	0
687	1713700434	0.003723619	-0.019064171	0.687894925	0.725550319	-0.063301786	0.065962499	-0.054697001	0
688	1713717101	0.003703127	-0.019189881	0.687919404	0.7255239	-0.054056806	0.085332031	-0.07417897	0
690	1713750435	0.003644724	-0.019387725	0.687877368	0.725558791	-0.028691285	0.123396622	-0.09619195	0
691	1713767102	0.003598458	-0.019463029	0.687792381	0.72563757	-0.049081269	0.114165171	-0.091017063	0
692	1713783769	0.00355667	-0.01954909	0.687710694	0.72571288	-0.08038545	0.088062796	-0.04953761	0
694	1713817103	0.003530068	-0.019757108	0.68783515	0.725589417	-0.029978229	0.06882776	-0.029929999	0
695	1713833770	0.003532781	-0.019862964	0.687926091	0.725500294	-0.031096454	0.103054322	-0.069313871	0
698	1713883771	0.003555454	-0.020040818	0.688033141	0.72539377	-0.029935568	0.09714566	-0.054450799	0
699	1713900438	0.00358834	-0.020053138	0.688061477	0.72536639	-0.037826108	0.091607895	-0.024801728	0
701	1713933772	0.00364169	-0.020094266	0.688144895	0.725285849	-0.03208856	0.069598714	-0.059671092	0
702	1713950439	0.003656495	-0.020109418	0.688151706	0.725278892	-0.04703842	0.069352749	-0.074451723	0
703	1713967106	0.003684764	-0.020094405	0.68806064	0.725365558	-0.030942251	0.070188511	-0.091710447	0
705	1714000440	0.003699241	-0.02004789	0.687784094	0.725628995	-0.086612441	0.085442509	-0.018227299	0
706	1714017107	0.003713355	-0.02004289	0.687724484	0.725685557	-0.088609593	0.084230873	-0.041051971	0
707	1714033774	0.003714957	-0.020059195	0.687691451	0.725716402	-0.080712737	0.099833029	-0.076425014	0
710	1714083775	0.00371185	-0.019934899	0.687493884	0.725907006	-0.102195038	0.090141659	-0.080853282	0
711	1714100442	0.003714126	-0.019848871	0.687490318	0.725912729	-0.051434966	0.087489988	-0.104948077	0
715	1714167110	0.003576063	-0.019643535	0.687363283	0.726039296	-0.036405086	0.063279136	-0.082344644	0
718	1714217111	0.003509799	-0.019357228	0.687274861	0.72613101	-0.031463436	0.208153968	-0.118781959	0
719	1714233778	0.003471325	-0.019276368	0.687167066	0.726235358	-0.144161122	0.091127786	-0.010097726	0
722	1714283779	0.003300289	-0.019081657	0.687206323	0.72620415	-0.042000923	0.033487607	-0.138731727	0
724	1714317113	0.003174375	-0.019031117	0.687158231	0.726251544	-0.013355278	0.112013947	-0.065140359	0
725	1714333780	0.003105828	-0.019023497	0.687222558	0.726191171	-0.01592537	0.116940393	-0.082612516	0
726	1714350447	0.003027564	-0.019023971	0.687237764	0.726177098	0.027616218	0.132419026	-0.079084012	0
728	1714383781	0.002883962	-0.01902221	0.687071318	0.726335213	-0.046741745	0.096961874	-0.024866348	0
729	1714400448	0.002872128	-0.019010351	0.68707311	0.726333875	-0.010041091	0.102676476	-0.048295754	0
730	1714417115	0.002849437	-0.0190145	0.68704286	0.72636247	0.03739037	0.103299989	-0.076880186	0
733	1714467116	0.002909845	-0.018973433	0.686906926	0.726491855	-0.04170832	0.079569372	-0.006331257	0
734	1714483783	0.002959828	-0.018996743	0.686951576	0.726448825	-0.016507978	0.112975842	0.014340371	0
736	1714517117	0.003122501	-0.018950374	0.686959782	0.726441595	0.001823235	0.129924761	-0.075480687	0
737	1714533784	0.003212239	-0.018901727	0.686855272	0.726541287	-0.028724064	0.113334581	-0.068753392	0
738	1714550451	0.003309608	-0.018826427	0.686733321	0.726658075	-0.067789536	0.08018841	-0.017039955	0
740	1714583785	0.003528056	-0.018750104	0.686585126	0.726799044	-0.047184503	0.077007745	-0.046739136	0
741	1714600452	0.003627176	-0.018728569	0.686528197	0.726852886	-0.040173107	0.082416963	-0.080700252	0
742	1714617119	0.003741152	-0.018637303	0.68654526	0.726838539	-0.062299233	0.111875397	-0.12588922	0
744	1714650453	0.00394089	-0.018336785	0.686280555	0.727095064	-0.052663641	0.120191615	-0.06413373	0
745	1714667120	0.004013723	-0.018184665	0.686150159	0.727221539	-0.091408183	0.088100113	-0.007175491	0
748	1714717121	0.004132772	-0.017927418	0.686012726	0.727356906	-0.041562835	0.106225293	-0.128099187	0
749	1714733788	0.004152189	-0.017842926	0.685957143	0.727411291	-0.03107024	0.130373393	-0.141131283	0
750	1714750455	0.004155487	-0.017761167	0.685838244	0.727525378	-0.04866112	0.106540065	-0.070057905	0
752	1714783789	0.004156197	-0.017717612	0.685794991	0.727567208	-0.008004444	0.096243098	-0.068398678	0
753	1714800456	0.004148186	-0.017718511	0.685800667	0.727561882	0.009559387	0.117041334	-0.111362817	0
755	1714833790	0.004151637	-0.017758713	0.685768623	0.727591086	0.009070991	0.101988943	-0.087137282	0
756	1714850457	0.004192892	-0.017746243	0.685737879	0.727620129	0.024020434	0.110678355	-0.094208449	0
757	1714867124	0.004216004	-0.017761368	0.685690757	0.727664033	-0.010303953	0.114313286	-0.071152419	0
759	1714900458	0.004323991	-0.017838199	0.685735986	0.727618897	0.001923928	0.089767376	-0.054037786	0
760	1714917125	0.004380481	-0.017899715	0.685790645	0.727565532	-0.000253939	0.104225756	-0.103649003	0
761	1714933792	0.004458323	-0.017909551	0.685814058	0.727542748	0.001522792	0.09629874	-0.103379123	0
763	1714967126	0.004594726	-0.017961869	0.685708965	0.72763966	-0.055760389	0.090418319	-0.011690475	0
764	1714983793	0.004652876	-0.018054704	0.685822072	0.727530387	-0.071776649	0.062472519	-0.014560156	0
765	1715000460	0.004717382	-0.018093762	0.685948186	0.727410096	0.007306492	0.105454221	-0.095355255	0
767	1715033794	0.004761831	-0.01811189	0.685743639	0.72760219	-0.071766889	0.088927073	-0.07242644	0
768	1715050461	0.004777601	-0.018115918	0.685669722	0.727671643	-0.079251653	0.073984746	-0.035840345	0
769	1715067128	0.004797161	-0.018116369	0.685706036	0.727637283	-0.046924032	0.062141704	-0.034804477	0
771	1715100462	0.004776786	-0.018180554	0.685734788	0.727608721	-0.05306024	0.091470172	-0.077420561	0
772	1715117129	0.004768493	-0.018208491	0.68572667	0.727615727	-0.064674258	0.074633036	-0.075789202	0
775	1715167130	0.004800713	-0.018257389	0.685897261	0.727453482	-0.031771119	0.145444784	-0.046154124	0
776	1715183797	0.004803578	-0.018268044	0.685916776	0.727434794	-0.01990511	0.117916608	-0.072399657	0
777	1715200464	0.004837065	-0.018252063	0.685919786	0.727432136	-0.00457875	0.094321437	-0.095374114	0
779	1715233798	0.004854209	-0.01825611	0.68579101	0.727553326	0.039772701	0.096886186	-0.123392462	0
780	1715250465	0.004820622	-0.018314682	0.685681948	0.727654863	-0.033248452	0.08970634	-0.095866255	0
782	1715283799	0.004819699	-0.018463052	0.685662847	0.727669119	-0.006685776	0.129777382	-0.102149182	0
783	1715300466	0.004816705	-0.018549657	0.685618906	0.727708338	-0.019249686	0.126230451	-0.115852395	0
784	1715317133	0.004825148	-0.018651064	0.685566862	0.72775472	-0.049249676	0.087347998	-0.108067459	0
786	1715350467	0.004848852	-0.018830089	0.685445192	0.727864552	-0.08593074	0.070927254	-0.091754841	0
787	1715367134	0.004831852	-0.018940269	0.685385743	0.727917786	-0.085524014	0.015836286	-0.05209114	0
790	1715417135	0.004694046	-0.019389886	0.685670859	0.727638283	-0.141154496	0.083194139	-0.033671211	0
791	1715433802	0.004637874	-0.019462966	0.68584694	0.727470727	-0.098756121	0.118702789	-0.095537769	0
792	1715450469	0.004546046	-0.019471556	0.685942575	0.727380902	-0.077112069	0.10234205	-0.101538459	0
794	1715483803	0.004327525	-0.019437275	0.686092068	0.727242146	-0.135973909	0.02393929	0.012075242	0
795	1715500470	0.004207313	-0.019409072	0.686343154	0.727006645	-0.096708635	0.033216447	-0.011596284	0
796	1715517137	0.004081575	-0.019382176	0.686580252	0.72678417	-0.061862552	0.066347047	-0.040741412	0
798	1715550471	0.00377694	-0.019252046	0.686937081	0.726452022	-0.083329066	0.080280046	-0.012575864	0
799	1715567138	0.003642027	-0.019149542	0.687196462	0.726210061	-0.042276553	0.090262742	-0.035171279	0
800	1715583805	0.003499157	-0.019012543	0.687417623	0.726005021	-0.028189297	0.090981149	-0.034993427	0
802	1715617139	0.003202029	-0.018690113	0.687726195	0.725722472	-0.007917878	0.113026392	-0.070638934	0
804	1715650473	0.002847975	-0.018412009	0.687935312	0.725532834	0.014897072	0.076535453	-0.016906239	0
806	1715683807	0.002502696	-0.018134353	0.688095385	0.72538929	0.074880092	0.120207137	-0.066092861	0
807	1715700474	0.002348125	-0.018032381	0.68808959	0.725397847	0.027129832	0.087985738	-0.035958386	0
809	1715733808	0.002145603	-0.017834525	0.688201789	0.725296921	0.068187904	0.094697173	-0.050638347	0
810	1715750475	0.002066279	-0.017766587	0.688174152	0.725325041	0.057077215	0.090506536	-0.027463956	0
811	1715767142	0.002015159	-0.017652217	0.688165673	0.725336022	0.036340827	0.093060053	-0.07885226	0
813	1715800476	0.001990496	-0.017509341	0.687933912	0.725559366	0.007673872	0.095633612	-0.058460173	0
814	1715817143	0.002007353	-0.017424182	0.687854921	0.725636256	0.002543691	0.110146973	-0.040282506	0
815	1715833810	0.0020347	-0.017344004	0.687775579	0.725713304	0.026647204	0.123334742	-0.051632843	0
817	1715867144	0.002063572	-0.017233623	0.687490746	0.725985687	-0.011970591	0.122189106	-0.092174199	0
819	1715900478	0.002110585	-0.01714467	0.687170266	0.72629101	0.004446438	0.101651851	-0.118396311	0
821	1715933812	0.002083843	-0.01709867	0.686636841	0.726796492	-0.053860907	0.120107218	-0.067008534	0
823	1715967146	0.002113354	-0.017037269	0.686212599	0.727198414	-0.051815721	0.08962354	-0.09144011	0
825	1716000480	0.002161699	-0.01708519	0.685855547	0.727533911	-0.079730032	0.103114982	-0.057045407	0
826	1716017147	0.002188504	-0.017114253	0.685775005	0.727609067	-0.070900006	0.153104008	-0.082123769	0
827	1716033814	0.002218545	-0.017088969	0.685564853	0.727807583	-0.057798313	0.143529179	-0.107788151	0
829	1716067148	0.002239036	-0.01702698	0.685153985	0.728195774	-0.071017137	0.074631724	-0.099136111	0
830	1716083815	0.002205433	-0.016968918	0.68492339	0.728414128	-0.045561923	0.07194624	-0.108854346	0
831	1716100482	0.002149763	-0.016909792	0.68465873	0.728664437	-0.047438497	0.095257031	-0.110726909	0
833	1716133816	0.001964903	-0.016817088	0.684403105	0.728907206	-0.09572789	0.085949135	-0.063519222	0
834	1716150483	0.001869942	-0.01673507	0.684353782	0.728955652	-0.049345245	0.131697479	-0.115313393	0
836	1716183817	0.001609998	-0.016628121	0.683947476	0.729339951	-0.071837728	0.114424864	-0.071871346	0
837	1716200484	0.001472372	-0.016567442	0.683782957	0.729495867	-0.086795727	0.072304789	-0.060690005	0
838	1716217151	0.001327556	-0.016472733	0.683666712	0.729607232	-0.053904354	0.077767356	-0.093738067	0
840	1716250485	0.000986497	-0.016388266	0.6830189	0.730216156	-0.081638246	0.035001242	-0.071022994	0
841	1716267152	0.000797	-0.016466321	0.682750703	0.730465402	-0.100098559	0.071313328	-0.036828374	0
842	1716283819	0.000600032	-0.016608726	0.682573215	0.73062822	-0.091022043	0.091391087	-0.034458432	0
844	1716317153	0.000235951	-0.016946507	0.682517893	0.730672352	-0.050997236	0.130715795	-0.174107628	0
845	1716333820	7.20E-05	-0.017016716	0.682580206	0.730612543	-0.001638307	0.151623183	-0.251119957	0
848	1716383821	0.000414787	0.017242769	-0.682195528	-0.730966331	-0.065292111	0.093138183	-0.073116586	0
849	1716400488	0.000559146	0.017375921	-0.682424759	-0.730749076	-0.032265725	0.092556673	-0.111539664	0
850	1716417155	0.000744361	0.017523882	-0.68252985	-0.730647222	-0.023697274	0.110835621	-0.161809687	0
852	1716450489	0.001073112	0.017816019	-0.682594067	-0.730579754	-0.105146446	0.099929172	-0.044568729	0
853	1716467156	0.001240039	0.017950655	-0.682820534	-0.730364535	-0.045116274	0.113094032	-0.057612168	0
854	1716483823	0.001425884	0.018107528	-0.682912292	-0.730274528	-0.023771525	0.120595452	-0.097970089	0
856	1716517157	0.001830384	0.018421879	-0.683024333	-0.730160971	-0.080532433	0.051190621	-0.036977992	0
857	1716533824	0.002005472	0.018548718	-0.683209523	-0.729984021	-0.042781266	0.083796838	-0.079974972	0
858	1716550491	0.002198861	0.018663714	-0.683276343	-0.729917989	-0.002045479	0.112721549	-0.095693225	0
860	1716583825	0.00257984	0.018817464	-0.683307127	-0.729883976	-0.068860295	0.078512343	-0.043840266	0
863	1716633826	0.003047679	0.019008889	-0.68356538	-0.72963535	-0.033601851	0.076503986	-0.038293697	0
864	1716650493	0.003178564	0.019061105	-0.683641643	-0.729561975	-0.02989234	0.128330992	-0.047601014	0
865	1716667160	0.00329169	0.019109139	-0.68370019	-0.72950535	-0.007923806	0.115607759	-0.056268392	0
867	1716700494	0.003488386	0.01915405	-0.683721676	-0.72948312	-0.008985287	0.099951829	-0.049957376	0
868	1716717161	0.003550549	0.019169728	-0.683740469	-0.729464795	-0.003824256	0.099154054	-0.061915243	0
869	1716733828	0.003593591	0.019183297	-0.683810707	-0.729398385	-0.030687464	0.095166432	-0.047255398	0
871	1716767162	0.003656396	0.019198852	-0.683955294	-0.729262087	-0.012595209	0.095584651	-0.069040386	0
872	1716783829	0.003662425	0.019178354	-0.683919481	-0.729296182	0.010836177	0.113311196	-0.074472332	0
873	1716800496	0.003683504	0.019191257	-0.68385959	-0.729351896	-0.060095288	0.073466621	-0.044839799	0
875	1716833830	0.003681915	0.019223971	-0.683877	-0.729334718	-0.058270636	0.072423265	-0.015026291	0
877	1716867164	0.003564744	0.019246766	-0.683945063	-0.729270872	-0.043011027	0.115349707	-0.061676734	0
879	1716900498	0.00334749	0.019170493	-0.683995688	-0.729226429	-0.093864615	0.141675936	-0.009771877	0
880	1716917165	0.003211772	0.019065887	-0.684059325	-0.729170088	-0.068712255	0.118304319	-0.01131158	0
881	1716933832	0.003050269	0.018875019	-0.684091115	-0.729145923	-0.012652315	0.104557047	-0.088344716	0
883	1716967166	0.002780841	0.018518823	-0.683941962	-0.729296039	-0.051914571	0.054629867	-0.021975169	0
884	1716983833	0.002656886	0.018383031	-0.683892982	-0.729345867	-0.02938669	0.085924732	-0.001549858	0
885	1717000500	0.002530456	0.018280898	-0.683926723	-0.729317245	-0.006633484	0.126078108	-0.077859744	0
887	1717033834	0.002333535	0.018050535	-0.683786221	-0.72945537	-0.048990082	0.147676814	-0.094040634	0
888	1717050501	0.00223989	0.017964471	-0.683598778	-0.72963345	-0.034795465	0.131457493	-0.092980959	0
890	1717083835	0.002062839	0.017824809	-0.683429217	-0.729796223	-0.017911746	0.099202271	-0.085022392	0
892	1717117169	0.001930781	0.017702561	-0.683131919	-0.730077854	-0.017247168	0.059394773	-0.107922746	0
894	1717150503	0.001713892	0.017611978	-0.683007389	-0.730197088	-0.049900205	0.083977803	-0.084093771	0
895	1717167170	0.001616299	0.017567853	-0.6830737	-0.730136343	-0.011997387	0.108915237	-0.085285035	0
896	1717183837	0.001555391	0.017566301	-0.683017721	-0.730188878	-0.041361318	0.114559048	-0.050178477	0
898	1717217171	0.001467343	0.017630552	-0.683143015	-0.730070292	-0.063881797	0.047755054	-0.093373682	0
899	1717233838	0.001426227	0.017626824	-0.683204013	-0.730013382	-0.007422722	0.109080868	-0.135714121	0
900	1717250505	0.001446728	0.017647425	-0.68316142	-0.730052704	-0.062961434	0.106385211	-0.104373169	0
902	1717283839	0.001507126	0.017661287	-0.683215574	-0.730001566	-0.065744888	0.10727895	-0.091863987	0
903	1717300506	0.001577342	0.017668127	-0.683254061	-0.72996523	-0.020982225	0.124516438	-0.102933916	0
904	1717317173	0.001671258	0.017656417	-0.683261781	-0.729958078	-0.056802845	0.097579352	-0.087528018	0
906	1717350507	0.001879599	0.017651313	-0.683413698	-0.729815467	-0.040489584	0.090433459	-0.045908889	0
907	1717367174	0.001984764	0.017657592	-0.683582455	-0.729656972	-0.0193269	0.087067365	-0.074136565	0
908	1717383841	0.002121462	0.017668845	-0.68368027	-0.729564664	-0.016259371	0.119318658	-0.093039316	0
910	1717417175	0.002412014	0.017674415	-0.683695025	-0.729549799	-0.006700465	0.090289409	-0.018636597	0
911	1717433842	0.002547888	0.017703806	-0.683741083	-0.729505459	0.017874866	0.083015105	-0.078955429	0
912	1717450509	0.002667205	0.017745987	-0.683848158	-0.729403635	0.025932498	0.079248338	-0.040182118	0
914	1717483843	0.002875384	0.017786665	-0.683836753	-0.729412546	0.009013284	0.108298602	-0.047541761	0
915	1717500510	0.002961633	0.017835885	-0.683799636	-0.729445795	-0.035003801	0.104758359	-0.01704494	0
917	1717533844	0.003056524	0.017972761	-0.683963301	-0.729288585	0.038002868	0.087933557	-0.007938208	0
919	1717567178	0.003128697	0.018140892	-0.684007911	-0.729242276	-0.024250187	0.100956353	-0.053517799	0
921	1717600512	0.0030461	0.018165542	-0.68405159	-0.72920104	-0.00151035	0.111489149	-0.049713913	0
922	1717617179	0.002992603	0.018144289	-0.684109586	-0.729147381	-0.033263177	0.119629933	-0.025980919	0
923	1717633846	0.002932632	0.018123621	-0.684137707	-0.729121753	-0.035321127	0.116222531	-0.018302782	0
925	1717667180	0.002795332	0.018093493	-0.684157994	-0.729104005	-0.02230842	0.09166347	-0.024017441	0
926	1717683847	0.002711923	0.01808951	-0.684216562	-0.729049457	-0.043363249	0.059708764	-0.02366459	0
927	1717700514	0.002599169	0.018044644	-0.684315241	-0.728958357	-0.03773036	0.090358037	-0.048335521	0
929	1717733848	0.002347985	0.017964477	-0.684377412	-0.728902821	-0.055957829	0.073661945	-0.03487191	0
930	1717750515	0.002208584	0.017916248	-0.684431449	-0.728853704	-0.089097819	0.13425252	-0.004665361	0
931	1717767182	0.002056524	0.017864423	-0.684497226	-0.728793648	-0.037029499	0.174251678	-0.007019179	0
934	1717817183	0.001618855	0.017598787	-0.684415445	-0.728878015	-0.025851574	0.046511946	-0.066637813	0
935	1717833850	0.001467357	0.017485832	-0.684462328	-0.728837029	-0.018612455	0.059445865	-0.062161565	0
937	1717867184	0.001164158	0.017341082	-0.684515711	-0.728790898	0.010501227	0.120794183	-0.055150578	0
938	1717883851	0.001015262	0.017277659	-0.684559922	-0.7287511	-0.038305268	0.138577482	-0.077371917	0
939	1717900518	0.000879323	0.01721029	-0.68460223	-0.728713126	-0.015313746	0.127798547	-0.092190053	0
941	1717933852	0.000617393	0.017157337	-0.684637705	-0.728681314	-0.054100072	0.101850478	-0.024605704	0
942	1717950519	0.000492216	0.017198983	-0.68482748	-0.728502076	-0.060834586	0.106136549	-0.060601194	0
944	1717983853	0.000315295	0.017196454	-0.684995925	-0.728343851	-0.00193696	0.085035925	-0.198908421	0
945	1718000520	0.000270118	0.017202225	-0.684901987	-0.728432069	-0.098213518	0.019415565	-0.099639343	0
946	1718017187	0.000190286	0.017207317	-0.685014566	-0.728326106	-0.109470425	0.054334216	-0.049854072	0
949	1718067188	0.000150587	0.017295172	-0.68526836	-0.728085248	-0.080573909	0.137404277	-0.128063095	0
950	1718083855	0.000171437	0.017302975	-0.68526183	-0.728091204	-0.102164667	0.105232647	-0.111791544	0
952	1718117189	0.000234495	0.017342492	-0.685543525	-0.727825019	-0.028657459	0.108669768	-0.0560228	0
953	1718133856	0.000301144	0.017378451	-0.685630084	-0.727742597	-0.064841359	0.106868613	-0.074900092	0
954	1718150523	0.000375707	0.017431676	-0.685748962	-0.727629271	-0.099101759	0.073614267	-0.089797008	0
957	1718200524	0.000593712	0.017476726	-0.686363595	-0.727048298	-0.021758678	0.126511843	-0.010183662	0
958	1718217191	0.000678532	0.017487648	-0.686788981	-0.726646143	-0.10765517	0.053743014	-0.000334437	0
960	1718250525	0.000912268	0.017482355	-0.687325008	-0.726139014	0.047741619	0.126101779	-0.093319363	0
961	1718267192	0.001010161	0.017423131	-0.687167604	-0.726289266	-0.024833199	0.097201945	-0.109929803	0
962	1718283859	0.001111242	0.017281531	-0.687158619	-0.726301003	-0.054586241	0.070327742	-0.093243457	0
965	1718333860	0.001281906	0.016516376	-0.686673357	-0.726777316	-0.039661342	0.07421209	-0.065605654	0
968	1718383861	0.001335871	0.015705319	-0.686314008	-0.727134541	-0.036080416	0.135699368	-0.026611033	0
969	1718400528	0.00137412	0.015657575	-0.686221285	-0.727223006	-0.041340845	0.111476898	0.006320502	0
971	1718433862	0.001330434	0.015736177	-0.68637282	-0.727078369	0.211234109	0.187313817	-0.383107216	0
972	1718450529	0.001220767	0.015701583	-0.68615172	-0.727287967	0.234541394	0.225140566	-0.469024468	0
973	1718467196	0.001047287	0.015649214	-0.6855591	-0.72784801	0.208518152	0.233624307	-0.452209673	0
975	1718500530	0.000379162	0.015560754	-0.684542454	-0.728806798	0.154115033	0.21737336	-0.187382238	0
976	1718517197	5.25E-05	0.015827732	-0.684112437	-0.729204809	0.173147517	0.216431538	-0.193729862	0
977	1718533864	0.000308996	-0.016264452	0.683601648	0.729674009	0.029147036	0.129537425	-0.1595095	0
979	1718567198	0.001123415	-0.017588879	0.682745972	0.730443227	0.12810251	0.160886239	-0.282553068	0
980	1718583865	0.00151131	-0.018349745	0.682113953	0.731014061	0.091449762	0.135902349	-0.214537576	0
981	1718600532	0.00198822	-0.019013363	0.681483503	0.731583744	0.10173145	0.13002979	-0.230125134	0
983	1718633866	0.002978516	-0.020539446	0.679715919	0.733181784	0.272035131	0.2427063	-0.379048544	0
984	1718650533	0.003537604	-0.021369074	0.678445859	0.734331032	0.493228833	0.353634933	-0.556313141	0
985	1718667200	0.004142189	-0.022290464	0.676598314	0.736003193	0.719954479	0.501872333	-0.759297284	0
987	1718700534	0.005487311	-0.024706143	0.671474362	0.740595488	0.908303942	0.739799312	-0.871486187	0
988	1718717201	0.006272327	-0.026362965	0.66868579	0.74305112	1.025499622	0.761920776	-0.923160991	0
989	1718733868	0.007101677	-0.028606621	0.665657369	0.745675194	1.119326624	0.86274515	-0.959295786	0
991	1718767202	0.008740272	-0.035258806	0.65865908	0.75156413	1.144473622	1.080387086	-0.815242933	0
993	1718800536	0.010572533	-0.044326058	0.650646645	0.758012115	1.278192744	1.232034527	-0.934402285	0
995	1718833870	0.012657601	-0.055123263	0.640828366	0.765597947	1.420832797	1.589763003	-0.956143082	0
996	1718850537	0.013816033	-0.060968092	0.63459965	0.77030857	1.619705405	1.778439116	-0.948051818	0
998	1718883871	0.016395135	-0.073858358	0.619955356	0.780981113	1.602418636	1.681450142	-0.921615669	0
999	1718900538	0.01792588	-0.081284423	0.612560226	0.786028928	1.532626606	1.802657372	-0.727757648	0
1000	1718917205	0.019665012	-0.089898783	0.605624352	0.790411691	1.1928766	1.865289797	-0.297995273	0
1002	1718950539	0.023398731	-0.111342414	0.59264092	0.797390811	0.838613053	1.956216181	0.370949072	0
1003	1718967206	0.025427331	-0.124028306	0.58668205	0.799859114	0.616514281	1.76825731	0.461794546	0
1004	1718983873	0.027742182	-0.13755968	0.581509558	0.801345331	0.499283617	2.011051613	0.513087863	0
1006	1719017207	0.032454341	-0.166409371	0.569139822	0.804571004	0.066261612	2.025640219	0.68342815	0
1008	1719050541	0.037426564	-0.195183212	0.553600193	0.808720961	-0.618446272	1.669358498	0.850232776	0
1010	1719083875	0.042727334	-0.223297261	0.53760249	0.811970609	-0.99641456	1.024191939	0.925367679	0
1011	1719100542	0.045155607	-0.237240367	0.528615896	0.813783272	-1.16915052	0.721567035	0.772754197	0
1012	1719117209	0.047433865	-0.251113927	0.519282421	0.81549837	-1.344569963	0.469415194	0.683678991	0
1014	1719150543	0.051602038	-0.278906923	0.500560213	0.817916641	-1.50502527	-0.352272491	0.485072792	0
1015	1719167210	0.05368801	-0.292475988	0.491884467	0.818306217	-1.485504377	-0.390596418	0.432274828	0
1016	1719183877	0.055565564	-0.305723559	0.483101816	0.818570833	-1.3904986	-0.257858787	0.437876878	0
1018	1719217211	0.058752172	-0.330964805	0.464807717	0.819124085	-1.319633644	-0.55287098	0.072251211	0
1019	1719233878	0.060411609	-0.342901015	0.45594888	0.819072616	-1.321764424	-0.525130648	0.188068681	0
1020	1719250545	0.062199017	-0.354511826	0.447325848	0.81875041	-1.129353692	-0.553217618	0.110673036	0
1023	1719300546	0.067889422	-0.388780358	0.422710454	0.815816604	-1.054731198	-0.69342157	0.017825161	0
1025	1719333880	0.071538462	-0.411488042	0.406753674	0.812472331	-1.000947755	-0.91587834	-0.217308067	0
1026	1719350547	0.073586887	-0.422468	0.399330003	0.810334072	-0.778352007	-0.95016945	-0.304791447	0
1027	1719367214	0.075701928	-0.433182513	0.392126432	0.8079969	-0.696382217	-0.981382836	-0.275249614	0
1029	1719400548	0.078862678	-0.453795886	0.376135373	0.803972731	-0.57073611	-1.113732404	-0.40638507	0
1030	1719417215	0.080754512	-0.463425908	0.368777641	0.801697067	-0.316308783	-1.178988481	-0.692416723	0
1031	1719433882	0.083401836	-0.472458835	0.362659629	0.798939783	-0.294216996	-1.058687405	-0.472386733	0
1033	1719467216	0.08775059	-0.489733132	0.349306386	0.794006513	-0.014377713	-1.153816304	-0.52734336	0
1034	1719483883	0.089768553	-0.497924149	0.342651266	0.791582755	0.12092479	-1.297884939	-0.747284439	0
1035	1719500550	0.092108507	-0.505682464	0.336703502	0.78894361	0.141154006	-1.200028156	-0.727829965	0
1038	1719550551	0.099117345	-0.526401096	0.320152835	0.781396059	0.497228444	-1.114703788	-0.602058021	0
1039	1719567218	0.101033963	-0.532512758	0.314510534	0.779298033	0.459708472	-1.142747386	-0.635565596	0
1041	1719600552	0.10525773	-0.543381891	0.30446491	0.775214841	0.694078707	-0.962209779	-0.592802769	0
1042	1719617219	0.107527005	-0.54795475	0.300058563	0.773400539	0.563791962	-0.818406151	-0.397683885	0
1043	1719633886	0.109358958	-0.552227574	0.295342637	0.771918423	0.579726731	-0.799764641	-0.400260681	0
1045	1719667220	0.113138443	-0.559631587	0.286738931	0.76928081	0.623935183	-0.742182602	-0.371289345	0
1046	1719683887	0.115113854	-0.562883886	0.282867523	0.768047197	0.596304348	-0.587457546	-0.320025382	0
1047	1719700554	0.117041328	-0.5660058	0.279097436	0.766839868	0.585575511	-0.572406963	-0.363758007	0
1051	1719767222	0.125062772	-0.576267482	0.266417875	0.7624281	0.098622626	-0.133707176	-0.259649717	0
1053	1719800556	0.127233148	-0.581137427	0.25954181	0.760742444	-0.020499467	0.040136594	-0.285866122	0
1054	1719817223	0.127948136	-0.583539787	0.256090769	0.759952702	-0.028082106	0.085754191	-0.217073065	0
1056	1719850557	0.128421119	-0.58868489	0.248733778	0.758346638	-0.104222577	0.171585511	-0.240889903	0
1057	1719867224	0.128568041	-0.591313628	0.245207671	0.757424353	-0.164435054	0.194442251	-0.20399973	0
1058	1719883891	0.128609103	-0.593953224	0.241761533	0.75645927	-0.198680355	0.210571257	-0.093899492	0
1060	1719917225	0.128208407	-0.599512264	0.234420203	0.754450011	0.019735615	0.055049321	-0.209824283	0
1061	1719933892	0.128084248	-0.602439877	0.230972994	0.753201232	0.004873319	-0.096323184	-0.292831836	0
1062	1719950559	0.127969753	-0.605302538	0.227624544	0.751943912	-0.101903316	-0.108368941	-0.231878654	0
1065	1720000560	0.127891848	-0.613251332	0.218139662	0.748319161	-0.05708807	-0.147671519	-0.10254353	0
1066	1720017227	0.127437851	-0.615937206	0.214359065	0.747282506	0.131203668	-0.251249266	-0.127615154	0
1070	1720083895	0.128800391	-0.624929007	0.202596362	0.742851876	0.255269429	-0.312058857	-0.120453984	0
1072	1720117229	0.130556939	-0.62883434	0.198191706	0.740433864	0.665187703	-0.258246274	-0.252391063	0
1074	1720150563	0.133260517	-0.632188515	0.195486374	0.737810541	0.436770341	-0.358185227	-0.176194787	0
1076	1720183897	0.136171125	-0.634701453	0.19340171	0.735667907	0.351111379	-0.239176176	-0.106841878	0
1077	1720200564	0.137326495	-0.63581311	0.192088361	0.734836842	0.320529334	-0.266072144	-0.066070437	0
1079	1720233898	0.140294118	-0.637326382	0.190325894	0.733422591	0.633210879	-0.218027622	-0.072691718	0
1080	1720250565	0.142236435	-0.637633033	0.190039325	0.732856034	0.343021066	-0.359259358	-0.025635176	0
1081	1720267232	0.143629149	-0.637877881	0.189275015	0.732569072	0.31189812	-0.300016001	-0.041973556	0
1083	1720300566	0.145004218	-0.637873287	0.18665123	0.732975283	0.541692838	-0.161538357	-0.127862933	0
1084	1720317233	0.145897597	-0.637328975	0.18579961	0.733487678	0.52763593	0.034623938	-0.035393643	0
1087	1720367234	0.147099095	-0.635345867	0.182264387	0.735851329	0.772768159	-0.066774555	-0.191829696	0
1089	1720400568	0.148045374	-0.633383493	0.181052145	0.73765035	0.405775779	0.059794244	-0.19478463	0
1092	1720450569	0.149644377	-0.630089015	0.181414248	0.740056258	0.533871891	0.191547797	-0.341211452	0
1093	1720467236	0.150623895	-0.628723321	0.182570484	0.740734397	0.179124861	0.292414413	-0.286667932	0
1096	1720517237	0.151919295	-0.624752759	0.185568285	0.743080702	-0.024708638	0.308418685	-0.316804774	0
1099	1720567238	0.151118183	-0.620763124	0.187771141	0.746028443	0.005694648	0.33347208	-0.129294817	0
1101	1720600572	0.151329965	-0.618152546	0.189938269	0.74760292	-0.356049512	0.105603929	-0.106059626	0
1103	1720633906	0.151441379	-0.616126023	0.191576254	0.748834275	-0.262462801	0.110760104	-0.030743804	0
1104	1720650573	0.151455885	-0.615312534	0.192271416	0.749321895	-0.276226542	0.022081679	-0.006435296	0
1106	1720683907	0.151616844	-0.613874169	0.193624577	0.750120231	-0.309190053	0.077327721	-0.019359278	0
1110	1720750575	0.151026139	-0.611520367	0.194467099	0.751941815	-0.282522722	-0.043286125	0.038106668	0
1111	1720767242	0.150568638	-0.611045973	0.194129818	0.752506158	-0.091325611	-0.006217512	-0.024502138	0
1112	1720783909	0.150483178	-0.610462688	0.194162312	0.752988125	0.048882842	0.048452209	-0.047246944	0
1114	1720817243	0.150768054	-0.609283197	0.194704647	0.753746032	-0.178736965	-0.111934021	-0.04584114	0
1115	1720833910	0.15068613	-0.60875089	0.194749289	0.754180853	-0.047080884	-0.031968569	-0.081384718	0
1116	1720850577	0.150853402	-0.608033194	0.195194146	0.754611245	-0.077032813	0.088416822	-0.081870872	0
1119	1720900578	0.150898125	-0.606054287	0.195843122	0.756024754	-0.204228913	0.119883642	-0.046945875	0
1123	1720967246	0.150950857	-0.604493169	0.195928318	0.757241006	-0.327631878	0.14705655	-0.082082437	0
1124	1720983913	0.151114061	-0.60429496	0.195956831	0.757359269	-0.515986975	0.137284263	-0.062757862	0
1127	1721033914	0.151515431	-0.604217406	0.195586405	0.757436703	-0.293248296	0.107335555	-0.100915758	0
1131	1721100582	0.152351517	-0.604813214	0.194850013	0.756983133	-0.142494556	0.020339761	-0.084168002	0
1133	1721133916	0.152918308	-0.605155696	0.194572982	0.756666326	-0.176908144	0.000679246	-0.086553989	0
1135	1721167250	0.153328198	-0.605625525	0.193953523	0.756366458	-0.013410506	-0.000418696	-0.063406161	0
1137	1721200584	0.153807859	-0.605984886	0.193521738	0.756091792	-0.041335969	0.004147961	-0.02232322	0
1139	1721233918	0.15398927	-0.606432013	0.192853952	0.755866967	0.102679021	0.054457336	-0.10970668	0
1141	1721267252	0.154444031	-0.606802269	0.192809352	0.755488319	-0.052034926	0.043595772	-0.033120594	0
1143	1721300586	0.154533973	-0.607110647	0.192649124	0.755263019	0.12972879	0.118339371	-0.149616101	0
1147	1721367254	0.154648502	-0.607372483	0.193549629	0.754798681	0.011398631	0.154282122	-0.098200914	0
1149	1721400588	0.154544568	-0.607347653	0.194147039	0.754686512	-0.033422825	0.062484978	-0.076209894	0
1151	1721433922	0.154197116	-0.607388884	0.194669202	0.754589885	-0.058284509	0.024119842	-0.131390566	0
1153	1721467256	0.153607043	-0.607530634	0.194964146	0.754519972	-0.059251544	-0.011410262	-0.073276055	0
1154	1721483923	0.153332186	-0.607576504	0.195110551	0.754501097	0.001592145	-0.042759089	-0.091656815	0
1155	1721500590	0.153183101	-0.607548988	0.195397598	0.754479253	-0.045437403	-0.025190979	-0.069166023	0
1157	1721533924	0.152698529	-0.607437276	0.195620583	0.754609636	-0.098428827	-0.042295696	-0.029475189	0
1158	1721550591	0.152545973	-0.607319339	0.195767286	0.754697367	0.002353365	-0.070469987	-0.054033316	0
1160	1721583925	0.152684449	-0.606918825	0.196413699	0.754823594	-0.140039018	-0.072545861	-0.034390788	0
1161	1721600592	0.152837901	-0.606714407	0.196731333	0.754874153	-0.136829156	-0.052160448	-0.019940818	0
1162	1721617259	0.152974445	-0.60649716	0.196945667	0.754965177	-0.149464558	0.005335002	-0.014144985	0
1164	1721650593	0.153412026	-0.606008018	0.197322193	0.755170831	-0.257157066	-0.018782056	-0.050663632	0
1166	1721683927	0.153683495	-0.605576626	0.197215698	0.755489445	-0.163331531	0.01067504	-0.083616419	0
1168	1721717261	0.154048622	-0.605145047	0.197151626	0.755777567	-0.178620411	0.06405604	-0.070543272	0
1169	1721733928	0.154247612	-0.604971145	0.197135978	0.755880277	-0.171206102	0.071191567	-0.068161048	0
1170	1721750595	0.154540911	-0.604790327	0.197181904	0.755953083	-0.145721034	0.041997764	-0.072674727	0
1173	1721800596	0.155385318	-0.604582415	0.197312286	0.755912276	-0.082898194	0.080462501	-0.04725809	0
1174	1721817263	0.155691444	-0.604537249	0.197425944	0.75585573	-0.11424147	0.071235862	-0.071917509	0
1177	1721867264	0.155934892	-0.604474816	0.197296251	0.755889341	0.001749986	-0.021060531	-0.072932951	0
1178	1721883931	0.155828751	-0.60440979	0.197151034	0.756001108	-0.059355505	0.01032311	-0.053275177	0
1181	1721933932	0.155914986	-0.604060371	0.197223943	0.756243546	0.001633686	-0.012673312	-0.03510362	0
1182	1721950599	0.156165162	-0.603887679	0.197495498	0.756258978	0.065444882	-0.023321591	-0.073663736	0
1187	1722033934	0.157938325	-0.602804382	0.199243638	0.75629646	-0.119606514	0.100348865	-0.096168755	0
1189	1722067268	0.158475553	-0.602238787	0.199988241	0.756438131	-0.118364559	0.030466154	-0.066465458	0
1191	1722100602	0.15877968	-0.601997874	0.200543381	0.756419147	-0.097678748	0.058534806	-0.087405452	0
1193	1722133936	0.15918987	-0.601875897	0.20132028	0.756223601	-0.132674973	0.076590353	-0.078423005	0
1197	1722200604	0.159992896	-0.601735036	0.203021193	0.75571133	-0.123667268	-0.007962673	-0.033936775	0
1199	1722233938	0.160266387	-0.60176506	0.203740524	0.755435832	-0.101295208	0.0540908	-0.072747658	0
1201	1722267272	0.160512365	-0.601689186	0.204413697	0.755262169	-0.188213231	0.015619621	0.000257806	0
1203	1722300606	0.160443087	-0.601680536	0.204689383	0.755209113	-0.060311145	-0.00385245	-0.029022101	0
1204	1722317273	0.160527316	-0.601647434	0.204933331	0.755151425	-0.121360418	0.007284015	-0.032133836	0
1205	1722333940	0.160592929	-0.601648666	0.205098522	0.755091644	-0.154639975	0.028023624	0.008247878	0
1208	1722383941	0.161073057	-0.6015835	0.205700159	0.754877611	-0.114158874	0.022564933	-0.026264818	0
1209	1722400608	0.161344121	-0.601564196	0.205954646	0.754765709	-0.152187512	0.027089372	-0.001604488	0
1211	1722433942	0.161949742	-0.601591994	0.206489349	0.754467695	-0.154451483	0.04028348	-0.026098536	0
1214	1722483943	0.162408384	-0.601853068	0.206666979	0.754112167	-0.069277608	0.078641916	-0.068071756	0
1215	1722500610	0.162543202	-0.601938119	0.206805916	0.753977136	-0.11040579	0.051924186	-0.081046891	0
1216	1722517277	0.162524536	-0.602014892	0.206804606	0.753920221	-0.077992782	0.065818506	-0.086275753	0
1218	1722550611	0.162337171	-0.602180711	0.206784991	0.753833537	0.032265909	0.013120423	-0.110213964	0
1219	1722567278	0.162341209	-0.602216479	0.206939564	0.753761674	-0.010759402	0.003843857	-0.040054223	0
1220	1722583945	0.162234553	-0.602292053	0.207034183	0.753698268	-0.013637107	-0.037665228	-0.034940966	0
1223	1722633946	0.162331721	-0.602379996	0.207743135	0.753411934	-0.055745989	-0.01696169	-0.008357158	0
1226	1722683947	0.162973716	-0.602088558	0.208854611	0.753198969	-0.153731681	0.018203915	0.025149223	0
1228	1722717281	0.163172933	-0.60166533	0.209370999	0.753350655	-0.036862705	0.003344444	-0.046240199	0
1230	1722750615	0.163301486	-0.601326924	0.209822307	0.753467421	-0.051892166	-0.02084368	-0.05039067	0
1231	1722767282	0.163528786	-0.601133407	0.210191735	0.753469573	-0.025736075	0.011983176	-0.045889038	0
1232	1722783949	0.163836729	-0.600948386	0.210601511	0.753435841	-0.134698479	-0.00639849	-0.025350399	0
1234	1722817283	0.164475197	-0.600625178	0.211415646	0.753326443	-0.1060384	0.024021053	-0.02283954	0
1235	1722833950	0.16480771	-0.600484953	0.211831524	0.753248728	-0.168388208	0.030746534	-0.046892933	0
1236	1722850617	0.16511417	-0.600381701	0.212212031	0.753156808	-0.158774519	0.003423842	-0.051822576	0
1239	1722900618	0.166050622	-0.60019403	0.213492395	0.752738543	-0.140863893	0.036748759	-0.061296512	0
1240	1722917285	0.166329571	-0.600102922	0.213797676	0.752662946	-0.1449166	0.087188873	-0.023797992	0
1243	1722967286	0.166608727	-0.599832428	0.214255875	0.752686529	-0.083452295	0.032664243	-0.033689313	0
1247	1723033954	0.167145279	-0.599637551	0.215086355	0.752485962	-0.151998334	0.021800338	-0.042255058	0
1251	1723100622	0.16756243	-0.599546262	0.215665386	0.752300175	-0.120336962	-0.004105698	-0.014404384	0
1253	1723133956	0.167847586	-0.599537984	0.215869369	0.75218469	-0.1619209	-0.02872928	0.025740789	0
1255	1723167290	0.167884631	-0.599566697	0.215731266	0.752193159	-0.085120949	-0.004483118	-0.012312136	0
1257	1723200624	0.167961702	-0.599506084	0.215642304	0.752249772	-0.127206763	-0.015944144	-0.003405243	0
1258	1723217291	0.16801495	-0.59945582	0.215598858	0.752290389	-0.120155932	0.006820285	0.012921882	0
1259	1723233958	0.168006875	-0.599429305	0.215465211	0.752351608	-0.147419097	0.034138998	-0.003471161	0
1261	1723267292	0.167884547	-0.599417517	0.215098815	0.752493135	-0.119723612	-0.025370267	0.004261951	0
1263	1723300626	0.167827156	-0.599410994	0.214783298	0.752601249	-0.079037581	-0.027446844	-0.049883743	0
1265	1723333960	0.167990714	-0.599429496	0.214689168	0.75257688	-0.06370527	-0.024061198	-0.04571423	0
1266	1723350627	0.168160248	-0.599484198	0.214718032	0.752487205	-0.040230084	-0.018772268	-0.040049015	0
1267	1723367294	0.168347856	-0.599513283	0.214796654	0.752399641	-0.063431248	-0.044080147	-0.038905284	0
1269	1723400628	0.168491812	-0.599506829	0.214849991	0.752357331	-0.10255346	0.002364773	-0.040547767	0
1270	1723417295	0.168497957	-0.599389489	0.214875031	0.75244229	-0.00295159	0.02335409	-0.072582461	0
1273	1723467296	0.168261722	-0.599165463	0.214794113	0.752696639	0.074199212	-0.037446802	-0.052114096	0
1274	1723483963	0.168342395	-0.599015247	0.215010171	0.752736473	-0.032810633	-0.000980013	-0.060491554	0
1276	1723517297	0.168379602	-0.598795322	0.215358668	0.752803504	-0.07327246	0.018511193	-0.025397493	0
1278	1723550631	0.168217595	-0.598591261	0.21556747	0.752942235	-0.151657193	0.034719158	-0.038155752	0
1281	1723600632	0.167550527	-0.598366457	0.215369633	0.753326174	-0.134733489	0.00716606	-0.034407926	0
1282	1723617299	0.167499692	-0.598264341	0.215388053	0.753413311	-0.130631614	0.022857618	-0.019485418	0
1284	1723650633	0.167390717	-0.598121162	0.215320537	0.753570495	-0.172231884	0.005486047	0.001800155	0
1285	1723667300	0.167454536	-0.598077269	0.215349532	0.753582867	-0.107892613	0.022472388	-0.045757692	0
1286	1723683967	0.167673149	-0.598012526	0.215535895	0.753532356	-0.142703394	0.02090566	-0.007904049	0
1289	1723733968	0.168134261	-0.597922374	0.215713393	0.753450354	-0.105143466	0.001021756	-0.030330012	0
1293	1723800636	0.16908821	-0.597930602	0.216177153	0.753097345	-0.179958146	0.055392379	-0.049567157	0
1297	1723867304	0.169545571	-0.597798056	0.216435635	0.753025498	-0.084612628	0.001653209	-0.067386	0
1301	1723933972	0.169566969	-0.597610455	0.216429596	0.753171306	-0.059895574	0.002198971	-0.083348365	0
1303	1723967306	0.169703245	-0.597447044	0.216654075	0.753205716	-0.027494751	0.056610434	-0.081373087	0
1307	1724033974	0.170081753	-0.59715399	0.217771613	0.753030434	-0.042160906	0.041379537	-0.037641776	0
1309	1724067308	0.170312315	-0.59696646	0.218572976	0.752894823	-0.148223611	0.039581616	-0.054273742	0
1311	1724100642	0.170220367	-0.596867241	0.218864986	0.752909451	-0.050066414	0.016241206	-0.075921093	0
1312	1724117309	0.170330343	-0.596705868	0.219212548	0.752911376	-0.123602222	0.039368176	-0.041969642	0
1313	1724133976	0.170342821	-0.596542564	0.219468304	0.752963449	-0.256489393	0.052180971	-0.002242986	0
1315	1724167310	0.170109889	-0.596225118	0.219623122	0.753222357	-0.084666161	0.026687486	-0.038703129	0
1316	1724183977	0.170098499	-0.596085807	0.219802292	0.753282924	-0.115577386	-0.010365149	-0.018574531	0
1319	1724233978	0.170374597	-0.595873932	0.220495223	0.753185642	-0.142776321	0.004336753	-0.003662506	0
1320	1724250645	0.170575766	-0.595811239	0.22079806	0.753100984	-0.13309843	0.003476379	-0.003570458	0
1323	1724300646	0.171083954	-0.595732077	0.221697395	0.752784058	-0.172888794	0.010746901	0.001215026	0
1326	1724350647	0.171427599	-0.595799713	0.222232032	0.752494654	-0.044466112	0.001170862	-0.028116645	0
1327	1724367314	0.171623993	-0.595802561	0.222482245	0.752373687	-0.073055174	-0.019436967	-0.028991343	0
1328	1724383981	0.17175531	-0.595786963	0.222683561	0.752296511	-0.078030436	0.002144662	-0.014310047	0
1330	1724417315	0.171876712	-0.595631279	0.223012763	0.752294546	-0.069953668	-0.018061426	-0.048226935	0
1331	1724433982	0.171870132	-0.595514483	0.22312826	0.752354264	-0.050608928	-0.052442722	-0.055662981	0
1332	1724450649	0.171883253	-0.595396655	0.223264889	0.752403987	-0.018633152	-0.046555339	-0.064964511	0
1334	1724483983	0.172190536	-0.594992328	0.223879334	0.752470991	-0.083244924	-0.002148341	-0.031920649	0
1335	1724500650	0.172259266	-0.594779577	0.224115773	0.752553069	-0.176142546	0.012447417	-0.024608579	0
1336	1724517317	0.172181469	-0.594604934	0.224175494	0.752691081	-0.167120903	0.010450725	-0.021919146	0
1338	1724550651	0.172092178	-0.594173271	0.224309368	0.753012426	-0.208114157	0.058128102	0.011768711	0
1339	1724567318	0.171988239	-0.594000839	0.224251521	0.753189421	-0.248302669	0.052390373	-0.001145248	0
1340	1724583985	0.171914073	-0.593877286	0.224208198	0.753316669	-0.147101714	0.018406417	-0.011550137	0
1342	1724617319	0.171933049	-0.593750118	0.224186939	0.753418901	-0.213838933	0.048864415	-0.007513156	0
1343	1724633986	0.171909398	-0.593760087	0.224135776	0.753431664	-0.192819693	0.057232332	-0.045353385	0
1346	1724683987	0.172041971	-0.593684957	0.224077071	0.753478067	-0.148560457	-0.014884588	-0.016930824	0
1350	1724750655	0.172081879	-0.593625784	0.224036648	0.753527594	-0.138226058	-0.026752644	-0.018352772	0
1351	1724767322	0.172035285	-0.593668667	0.223999961	0.753515356	-0.161481741	-0.031211338	-0.044288152	0
1354	1724817323	0.172213245	-0.593704237	0.224297041	0.753358291	-0.15898347	-0.012965002	-0.014108158	0
1355	1724833990	0.172268178	-0.593733295	0.224316863	0.753316929	-0.067301281	-0.016567139	-0.034276127	0
1358	1724883991	0.172934372	-0.593602081	0.224952799	0.753078024	-0.1083507	0.023404123	-0.036045828	0
1359	1724900658	0.173054616	-0.593456927	0.22513203	0.753111244	-0.118938863	0.068572228	-0.003562551	0
1361	1724933992	0.173012941	-0.593105122	0.225251936	0.753362065	-0.070007408	0.03578372	-0.033869282	0
1362	1724950659	0.172965211	-0.592993011	0.225331733	0.753437412	-0.08989986	-0.012922775	-0.012518618	0
1363	1724967326	0.172892696	-0.592935301	0.225430584	0.753469904	-0.075288662	-0.044535115	-0.03570202	0
1365	1725000660	0.172973695	-0.592843769	0.225910078	0.75337972	-0.11356413	0.025034454	-0.020536853	0
1366	1725017327	0.172980198	-0.592850409	0.226115573	0.753311351	-0.157187886	0.006013009	-0.007804228	0
1367	1725033994	0.172969474	-0.592860753	0.226305981	0.753248493	-0.114005087	0.006783208	-0.027354669	0
1369	1725067328	0.172965282	-0.592791168	0.226742928	0.753172814	-0.18325918	-0.024414154	0.02434109	0
1370	1725083995	0.17283012	-0.592797992	0.226752621	0.753195552	-0.116094761	-0.020248526	0.002804892	0
1374	1725150663	0.172918141	-0.592713879	0.22725151	0.75309118	-0.109014683	-0.026337713	0.017079069	0
1377	1725200664	0.173047286	-0.592536203	0.227494491	0.753127971	-0.160148836	-0.02651284	0.004508231	0
1378	1725217331	0.173115666	-0.5924737	0.227550281	0.753144575	-0.107635524	-0.018808218	-0.015638248	0
1381	1725267332	0.173692468	-0.5921995	0.227939663	0.753109679	-0.167909027	0.013181647	-0.005196261	0
1382	1725283999	0.173845243	-0.592146631	0.227971918	0.753106236	-0.119196235	0.037139386	-0.010439759	0
1384	1725317333	0.174131146	-0.591997399	0.228082099	0.753124146	-0.129672342	0.04789205	-0.021957139	0
1385	1725334000	0.174205527	-0.591963485	0.228058644	0.753140705	-0.113172318	0.012690475	-0.016249707	0
1386	1725350667	0.174200999	-0.591936262	0.227979433	0.753187129	-0.144055343	0.018975049	-0.02548352	0
1388	1725384001	0.174156015	-0.591862088	0.227779397	0.753316333	-0.09246998	0.051280382	-0.033530373	0
1389	1725400668	0.174145157	-0.591824572	0.227705746	0.753370582	-0.125107666	0.021244579	-0.027602822	0
1393	1725467336	0.173917803	-0.591876356	0.227349931	0.753489871	-0.060016782	0.022848922	-0.022395513	0
1394	1725484003	0.173925706	-0.591881303	0.227372752	0.753477275	-0.123761142	0.020460694	-0.01044361	0
1397	1725534004	0.173458781	-0.591973193	0.227043878	0.753611882	-0.038171349	0.008244836	-0.037685075	0
1400	1725584005	0.173293329	-0.591863555	0.227227692	0.753680656	-0.032647288	-0.013710517	-0.047496184	0
1401	1725600672	0.173286557	-0.591785827	0.227373983	0.753699128	-0.066100764	-0.016619226	-0.017831487	0
1404	1725650673	0.173326407	-0.591511503	0.227677449	0.753813689	-0.115428593	0.029589944	-0.023767995	0
1405	1725667340	0.173390359	-0.591353331	0.227846576	0.753871978	-0.152569113	0.032081837	-0.012129149	0
1407	1725700674	0.173238314	-0.590895429	0.227867395	0.75425959	-0.100595563	0.073141732	-0.016791866	0
1408	1725717341	0.173135768	-0.590656423	0.227904278	0.754459168	-0.1404484	0.077809078	-0.014629059	0
1409	1725734008	0.173055731	-0.590487099	0.227973442	0.754589166	-0.08343095	0.016989721	-0.025276242	0
1412	1725784009	0.173005602	-0.590186201	0.228314189	0.754733026	-0.093098332	0.024650466	-0.010793466	0
1413	1725800676	0.173069496	-0.590085048	0.228544976	0.75472762	-0.133153239	0.018775428	-0.000490369	0
1415	1725834010	0.172996636	-0.589942013	0.228722962	0.754802221	-0.122873312	0.018302642	-0.013554463	0
1416	1725850677	0.172989568	-0.589867599	0.228829608	0.754829673	-0.108373685	0.013173859	0.00364941	0
1417	1725867344	0.172990247	-0.58980511	0.228938825	0.75484523	-0.079770633	-0.024306833	-0.008073393	0
1419	1725900678	0.173055164	-0.589685969	0.229192189	0.754846547	-0.094236837	-0.004548405	-0.01163105	0
1420	1725917345	0.173100253	-0.58963121	0.229347612	0.754831777	-0.086315776	-0.000582117	0.004774132	0
1423	1725967346	0.173184031	-0.589381881	0.229791506	0.754872276	-0.109693975	0.015191799	-0.014799899	0
1424	1725984013	0.173201742	-0.589233327	0.229957486	0.754933638	-0.141418401	-3.49E-05	-0.009806189	0
1427	1726034014	0.173335745	-0.588835889	0.230402257	0.755077357	-0.152355093	-0.021878802	-0.005737277	0
1428	1726050681	0.173437517	-0.588764944	0.230577147	0.755055923	-0.140505033	0.001818261	-0.00303159	0
1429	1726067348	0.173511504	-0.588697237	0.230752552	0.755038132	-0.143317681	0.013728651	-0.027782116	0
1431	1726100682	0.173672331	-0.588580238	0.231095137	0.754987591	-0.130609858	0.028796902	-0.004973239	0
1432	1726117349	0.173772251	-0.588475082	0.231309758	0.754980847	-0.150906149	-0.017519761	-0.002621162	0
1434	1726150683	0.173748175	-0.588308757	0.231554487	0.755040991	-0.08223668	-0.025906564	-0.041179704	0
1435	1726167350	0.173803494	-0.588211043	0.231749745	0.755044482	-0.093571715	0.011312076	-0.001630055	0
1436	1726184017	0.173887903	-0.588132862	0.231965669	0.755019644	-0.114228044	0.014755348	-0.019416143	0
1438	1726217351	0.174084135	-0.587967222	0.232449178	0.754954726	-0.127645947	0.010835447	0.003685413	0
1439	1726234018	0.174121709	-0.587913047	0.232616375	0.754936753	-0.145510182	0.005931978	-0.000857095	0
1442	1726284019	0.174046313	-0.587648012	0.232839599	0.755091661	-0.117296667	0.023419836	0.002263851	0
1443	1726300686	0.174034423	-0.587556448	0.23292197	0.755140249	-0.137559312	0.016542662	-0.019138257	0
1444	1726317353	0.173957911	-0.587486281	0.232925275	0.755211448	-0.142705644	-0.004693407	0.048180127	0
1446	1726350687	0.173899602	-0.587350459	0.233105309	0.755274971	-0.083761035	0.009620664	0.004718144	0
1447	1726367354	0.173967282	-0.587289767	0.233322396	0.755239547	-0.101512272	-0.013481901	-0.000969433	0
1448	1726384021	0.174039701	-0.58726683	0.233513713	0.755181567	-0.08053105	-0.043850385	-0.017577992	0
1450	1726417355	0.17418822	-0.587155149	0.233922129	0.755107762	-0.15281697	0.01098294	0.016067178	0
1451	1726434022	0.174234729	-0.587008596	0.234139434	0.755143624	-0.116429407	0.050836414	0.033958911	0
1454	1726484023	0.173961645	-0.586484216	0.234304816	0.755562614	-0.082889614	-0.037461192	-0.00259672	0
1455	1726500690	0.173885609	-0.586349668	0.234426217	0.755646882	-0.051950776	-0.046361775	-0.007704545	0
1459	1726567358	0.173542006	-0.586001216	0.23489794	0.755849658	-0.183125213	-0.006805197	0.024924433	0
1461	1726600692	0.172979541	-0.586106376	0.234728796	0.755949593	-0.186198012	0.017214024	0.04833667	0
1462	1726617359	0.17269541	-0.58625689	0.234550446	0.755953201	-0.197330553	-6.06E-05	0.034487333	0
1463	1726634026	0.172448712	-0.586516627	0.23430153	0.75588523	-0.271638698	0.055239657	0.046850088	0
1465	1726667360	0.172042635	-0.587486941	0.233814764	0.755374796	-0.269828455	0.16692111	0.061230982	0
1466	1726684027	0.171975368	-0.588177898	0.233659796	0.754900214	-0.406290366	0.134395096	0.005814159	0
1469	1726734028	0.169787993	-0.593729081	0.230771515	0.751932393	-0.268919413	0.106157433	-0.048182595	0
1470	1726750695	0.169166888	-0.596801647	0.229823324	0.749927729	-0.46340967	0.109563223	-0.044813155	0
1471	1726767362	0.168841739	-0.600432437	0.229053533	0.747333818	-0.517812591	0.05701392	0.025904754	0
1473	1726800696	0.168501672	-0.609306	0.227792753	0.74058345	-0.627269947	0.211086515	-0.117668708	0
1475	1726834030	0.168516514	-0.620191739	0.226557482	0.731871641	-0.58657934	0.372387639	-0.148731399	0
1477	1726867364	0.167678858	-0.632738527	0.224275389	0.721960046	-0.92395807	0.361249786	-0.176853055	0
1478	1726884031	0.166359553	-0.639596255	0.222233043	0.716835828	-0.530196093	0.315118303	-0.262826346	0
1479	1726900698	0.165299036	-0.646444622	0.220446346	0.711469597	-0.443653932	0.296562622	-0.245226613	0
1481	1726934032	0.16302292	-0.660252533	0.216736908	0.700367927	-0.564581035	0.143230311	-0.279484145	0
1482	1726950699	0.161687664	-0.667373526	0.214567334	0.694572196	-0.352929998	0.069342223	-0.294714605	0
1483	1726967366	0.160556326	-0.674544338	0.212527035	0.688508432	-0.242575222	0.035217886	-0.285096023	0
1485	1727000700	0.158479744	-0.689116585	0.208552923	0.675653892	-0.261219072	-0.167522291	-0.324176519	0
1486	1727017367	0.157301907	-0.696591025	0.20636065	0.668903832	-0.134585301	-0.205199113	-0.274358362	0
1488	1727050701	0.15523964	-0.711592098	0.201972773	0.654785721	-0.128564483	-0.325922436	-0.296852019	0
1490	1727084035	0.153474922	-0.726675856	0.197485749	0.639833594	0.056800257	-0.281271626	-0.136220204	0
1492	1727117369	0.152809818	-0.7414942	0.193642924	0.623969493	-0.195158977	-0.3455683	-0.183123933	0
1493	1727134036	0.152437382	-0.74889557	0.19158441	0.615803284	-0.028538347	-0.327885145	-0.107221766	0
1494	1727150703	0.152423918	-0.756134251	0.189773084	0.607465324	0.113853795	-0.313557847	-0.104785413	0
1496	1727184037	0.152845823	-0.77035932	0.186211999	0.590347156	-0.018163618	-0.332873756	-0.207392477	0
1497	1727200704	0.152871118	-0.777500104	0.184147874	0.581561321	0.166974466	-0.324662696	-0.20446151	0
1498	1727217371	0.152903486	-0.784589311	0.18206199	0.572619916	0.323964134	-0.332952621	-0.057043598	0
1500	1727250705	0.153026894	-0.798741425	0.177883574	0.554032796	0.288841584	-0.573933913	-0.237428514	0
1501	1727267372	0.152648633	-0.80597204	0.175444495	0.544358977	0.280320718	-0.489526836	-0.19375517	0
1502	1727284039	0.152234097	-0.813184036	0.173009023	0.534438379	0.454127168	-0.420636218	-0.047660088	0
1504	1727317373	0.152085527	-0.827395481	0.168629467	0.513664106	0.521974042	-0.48893177	0.00244332	0
1505	1727334040	0.151869349	-0.834400011	0.166424637	0.503006126	0.456335102	-0.479160191	0.026765469	0
1506	1727350707	0.151483761	-0.841314624	0.164174777	0.492228622	0.485419602	-0.450216149	0.082704456	0
1508	1727384041	0.150198286	-0.85480017	0.159354085	0.470492741	0.643217312	-0.423887059	0.164003843	0
1509	1727400708	0.149259543	-0.861370032	0.156704354	0.459572629	0.602759328	-0.421473028	0.218213669	0
1511	1727434042	0.147444192	-0.873867654	0.151632055	0.437747934	0.515386864	-0.256496931	0.332653307	0
1512	1727450709	0.146218432	-0.879836269	0.149076321	0.426947961	0.531227295	-0.259372563	0.182453759	0
1513	1727467376	0.144668019	-0.885628462	0.146288012	0.41633305	0.492082025	-0.246745915	0.169857102	0
1515	1727500710	0.1413373	-0.896587232	0.140082558	0.395641226	0.173819806	-0.264309442	0.201765697	0
1517	1727534044	0.138504119	-0.906543933	0.133802126	0.375621748	-0.021290504	-0.031388908	0.240448616	0
1519	1727567378	0.136207215	-0.915590769	0.128022998	0.356021419	-0.064761722	-0.220368794	0.066984874	0
1520	1727584045	0.13480844	-0.919867971	0.124973291	0.346484165	-0.123080104	-0.15149813	0.0944969	0
1521	1727600712	0.133239572	-0.924017987	0.121841054	0.337035212	-0.160854051	-0.118328546	0.135908286	0
1523	1727634046	0.129854929	-0.931840518	0.115738709	0.318457999	0.011495527	-0.27995866	0.144871593	0
1524	1727650713	0.127761874	-0.935612432	0.112523128	0.309264976	0.030732251	-0.168997571	0.26763997	0
1525	1727667380	0.125698775	-0.939277739	0.109289521	0.30002158	0.051769986	-0.116979144	0.271487998	0
1527	1727700714	0.122641396	-0.945928085	0.103157974	0.282024074	-0.181290007	-0.0894955	0.25102249	0
1528	1727717381	0.121316804	-0.948959268	0.100133331	0.27337128	-0.212203453	-0.07977539	0.272362963	0
1529	1727734048	0.119683742	-0.951903733	0.09711962	0.264807223	-0.254390617	-0.030313364	0.141816769	0
1532	1727784049	0.115726463	-0.959695033	0.089008355	0.240146503	-0.248641521	0.206127247	-0.004621749	0
1533	1727800716	0.114920216	-0.961913954	0.086557635	0.232427764	-0.266424708	0.207215111	0.018698805	0
1535	1727834050	0.113437562	-0.965938711	0.081948767	0.217666546	-0.171778347	0.122095134	0.149938347	0
1538	1727884051	0.109610312	-0.971346373	0.075348986	0.196962773	-0.026293227	-0.135098412	0.339799989	0
1539	1727900718	0.108296977	-0.972932505	0.073035495	0.19063033	-0.022842043	-0.062358422	0.492722818	0
1540	1727917385	0.107529661	-0.974348703	0.070604059	0.184653847	-0.07699267	0.004053092	0.56713807	0
1542	1727950719	0.107776018	-0.976662258	0.066011747	0.173659475	-0.333908129	-0.127269309	0.265222394	0
1543	1727967386	0.107901461	-0.977710501	0.063865013	0.168406388	-0.398030065	-0.195980611	0.136620747	0
1544	1727984053	0.107989581	-0.97869391	0.061947455	0.163275819	-0.510581985	0.01220673	0.073373394	0
1546	1728017387	0.109462344	-0.980288821	0.058973888	0.153537955	-0.576286121	0.125232366	-0.19785422	0
1548	1728050721	0.110879198	-0.981568223	0.05724707	0.144749439	-0.703584542	-0.049425748	-0.322421728	0
1550	1728084055	0.111196989	-0.982685888	0.056620089	0.136959268	-0.500247828	0.256987378	-0.114153629	0
1551	1728100722	0.112151021	-0.983038171	0.056528966	0.133650957	-0.501264988	0.331938995	-0.100352095	0
1552	1728117389	0.113509144	-0.983241021	0.056537242	0.130982091	-0.43036251	0.176332536	-0.024344077	0
1554	1728150723	0.114790934	-0.983590313	0.056616383	0.127152363	-0.262795464	0.016059966	0.183620466	0
1555	1728167390	0.114994365	-0.983729114	0.056683546	0.125858258	-0.241916563	0.039140071	0.264865431	0
1556	1728184057	0.115051585	-0.983824359	0.056704291	0.125049539	-0.196332954	0.065960401	0.232422186	0
1558	1728217391	0.114970512	-0.983868948	0.056419367	0.124902081	-0.126773763	0.049855585	0.251471103	0
1559	1728234058	0.114843584	-0.983833914	0.056167346	0.125407372	-0.080813465	-0.002884267	0.266909326	0
1560	1728250725	0.11463583	-0.98377014	0.055886643	0.126220524	-0.097346122	-0.027688507	0.22083375	0
1563	1728300726	0.114397916	-0.983412628	0.055068175	0.129538472	-0.097283419	-0.170276307	0.126100865	0
1565	1728334060	0.114662951	-0.983141761	0.054699495	0.131501522	-0.033002662	-0.184946111	0.131358321	0
1566	1728350727	0.114652997	-0.983028885	0.054582194	0.132399718	-0.039986936	-0.25294411	0.090941966	0
1567	1728367394	0.114485791	-0.98294568	0.054562775	0.133167927	-0.087302336	-0.272273962	0.065492876	0
1569	1728400728	0.114280357	-0.982800075	0.054828321	0.134305127	-0.059255021	-0.093800136	0.103065761	0
1570	1728417395	0.114646137	-0.982689058	0.055032789	0.134721452	0.018523566	-0.09212274	0.139009466	0
1571	1728434062	0.115133111	-0.982584703	0.055242087	0.134981405	0.040736468	-0.18368954	0.11527095	0
1573	1728467396	0.11542174	-0.982524963	0.055696344	0.134983094	0.024098822	-0.197094927	0.135742712	0
1574	1728484063	0.115518494	-0.982519611	0.055870005	0.134867471	0.000774548	-0.09561466	0.155348796	0
1575	1728500730	0.115789313	-0.982501813	0.055954662	0.134729724	0.005471007	-0.074604463	0.123863084	0
1577	1728534064	0.116409074	-0.982450522	0.055845991	0.134614725	0.042092566	-0.125013912	0.142661544	0
1578	1728550731	0.116546279	-0.982455839	0.055660872	0.134533853	-0.010199885	-0.121184112	0.140448204	0
1579	1728567398	0.116727488	-0.982457448	0.055420056	0.134464393	-0.027634773	-0.018387819	0.134577649	0
1581	1728600732	0.117285738	-0.982415352	0.05486887	0.134512228	-0.088982919	-0.054882933	0.054060511	0
1583	1728634066	0.117311315	-0.982371303	0.054299218	0.135041747	-0.084165577	-0.02493637	0.039163934	0
1585	1728667400	0.117924872	-0.982221497	0.053863883	0.135769429	-0.177935361	0.067248478	0.015319905	0
1586	1728684067	0.11841225	-0.982094111	0.053765141	0.136304829	-0.176669688	0.001832604	0.020387937	0
1587	1728700734	0.118729303	-0.981981793	0.053720627	0.136854688	-0.101822565	-0.085358802	0.060019439	0
1589	1728734068	0.118938092	-0.981817518	0.053834493	0.137803984	-0.076800014	-0.00684017	0.076751827	0
1592	1728784069	0.11987935	-0.981481152	0.054458294	0.139132972	-0.01906672	-0.103716533	0.123202248	0
1593	1728800736	0.119792576	-0.981416728	0.054767626	0.139540147	0.026024335	-0.117127202	0.157883666	0
1594	1728817403	0.119645709	-0.981364973	0.055092527	0.13990178	-0.028406984	-0.066611714	0.156365227	0
1596	1728850737	0.119936875	-0.981178119	0.055822476	0.140671591	0.006976991	-0.03589237	0.195610185	0
1597	1728867404	0.120202137	-0.981064946	0.056172845	0.141094403	0.022832523	-0.1343947	0.195455488	0
1598	1728884071	0.120118312	-0.980999149	0.056493147	0.141494824	0.008924508	-0.13250263	0.178813211	0
1600	1728917405	0.119710211	-0.980933336	0.056934468	0.142118691	0.029963323	-0.085018854	0.177799237	0
1601	1728934072	0.119507077	-0.980907352	0.057075713	0.142412036	0.001593286	-0.058136342	0.150399591	0
1602	1728950739	0.119376044	-0.980878019	0.057175018	0.142683877	-0.055724755	-0.063620268	0.155714766	0
1604	1728984073	0.119441764	-0.980789816	0.057356834	0.143161432	-0.046235114	-0.124889161	0.088816848	0
1606	1729017407	0.11909698	-0.980785427	0.057600168	0.143380877	-0.071488707	-0.077910643	0.035734491	0
1608	1729050741	0.118915992	-0.980769913	0.057982708	0.143482996	-0.109816457	-0.020944924	0.082890138	0
1609	1729067408	0.119042237	-0.980736871	0.058231512	0.143503406	-0.077753396	-0.098039762	0.073682128	0
1610	1729084075	0.119030173	-0.980722461	0.058519536	0.143494729	-0.094757719	-0.129664636	0.076713192	0
1612	1729117409	0.119005413	-0.98070911	0.059149224	0.143348256	-0.06191903	-0.057531464	0.09937967	0
1613	1729134076	0.119145458	-0.980686967	0.059420143	0.143271345	-0.021076785	-0.101549545	0.088324946	0
1614	1729150743	0.119142228	-0.980686641	0.059638623	0.14318546	-0.011558168	-0.181393348	0.082650711	0
1616	1729184077	0.118865241	-0.980705629	0.059946294	0.143157134	-0.017806753	-0.035858547	0.089648666	0
1617	1729200744	0.118978879	-0.980674865	0.060012114	0.143245879	-0.008099568	-0.026409504	0.081871145	0
1618	1729217411	0.119056542	-0.98065618	0.06006491	0.143287135	-0.028757643	-0.125499856	0.054240286	0
1621	1729267412	0.11874129	-0.98065206	0.060402252	0.143435041	-0.046837647	-0.087934309	0.111120921	0
1623	1729300746	0.118619359	-0.980637093	0.060788642	0.143475018	-0.013147644	-0.094575256	0.110706728	0
1624	1729317413	0.118556359	-0.980631797	0.061065006	0.143445927	0.007799506	-0.098934904	0.109165063	0
1625	1729334080	0.118514644	-0.980622866	0.06135367	0.143418275	0.037354315	-0.119793672	0.082253083	0
1627	1729367414	0.118328676	-0.980617643	0.061922955	0.143362862	0.006268773	-0.037947312	0.043861276	0
1628	1729384081	0.118217913	-0.980615115	0.062162835	0.143367724	0.018841008	-0.065770011	0.064219316	0
1629	1729400748	0.118078725	-0.980623852	0.062365975	0.143334438	-0.022549047	-0.109318289	0.030182103	0
1631	1729434082	0.117576773	-0.980692562	0.062586274	0.143180866	-0.064491844	-0.065781356	0.082904464	0
1632	1729450749	0.11739918	-0.980727205	0.062625903	0.143071931	-0.039561952	-0.091730187	0.099141446	0
1633	1729467416	0.117284169	-0.980750115	0.062619031	0.143012211	-0.066355375	-0.095402387	0.120367803	0
1636	1729517417	0.116910282	-0.980812701	0.062517433	0.142933555	-0.061313916	-0.093203471	0.15934414	0
1637	1729534084	0.116844323	-0.980817896	0.062506154	0.142956779	-0.079884977	-0.092451335	0.154707496	0
1639	1729567418	0.116550349	-0.980843093	0.062478565	0.14303591	-0.007608196	-0.123775187	0.161321549	0
1640	1729584085	0.116435691	-0.980846973	0.062463329	0.143109325	-0.048576786	-0.117735299	0.135618203	0
1641	1729600752	0.116412903	-0.980831892	0.062440733	0.143241024	-0.05203196	-0.081064127	0.138780152	0
1643	1729634086	0.116291776	-0.980809074	0.06240734	0.143509952	-0.073454937	-0.081563612	0.132189097	0
1644	1729650753	0.116305919	-0.980784175	0.062404495	0.143669808	-0.058877827	-0.063304363	0.115589219	0
1645	1729667420	0.116364954	-0.980754072	0.062422973	0.143819401	-0.024319602	-0.108346919	0.117885752	0
1647	1729700754	0.116079545	-0.980731449	0.062551147	0.144148248	-0.019957603	-0.12162394	0.128416763	0
1648	1729717421	0.115867182	-0.980725166	0.062643554	0.144321617	-0.052703156	-0.080491743	0.146877076	0
1650	1729750755	0.115784908	-0.980649756	0.062880267	0.144796351	-0.070254462	-0.096603871	0.158665952	0
1651	1729767422	0.11574914	-0.980610468	0.063016651	0.14503154	-0.047663931	-0.147099603	0.162525382	0
1652	1729784089	0.11558571	-0.980595753	0.063139404	0.145207877	-0.036772213	-0.187129363	0.148140949	0
1654	1729817423	0.115018245	-0.980596943	0.063352398	0.145557246	-0.087629183	-0.057289128	0.154545931	0
1655	1729834090	0.114937425	-0.980568171	0.063406234	0.145791287	-0.07414692	-0.13924571	0.143407523	0
1656	1729850757	0.1148471	-0.980543332	0.063478642	0.145997873	-0.137186337	-0.175442925	0.117289441	0
1658	1729884091	0.114392127	-0.980523816	0.06361022	0.146428234	-0.137630429	-0.165634758	0.119262814	0
1659	1729900758	0.114234865	-0.980502349	0.063719049	0.146647271	-0.13440158	-0.134958322	0.098860441	0
1660	1729917425	0.114219372	-0.980461699	0.06383553	0.146880285	-0.134280579	-0.1010855	0.099461712	0
1663	1729967426	0.114363633	-0.980298798	0.064294918	0.147652933	-0.127391548	-0.131549452	0.065474259	0
1664	1729984093	0.114482769	-0.980238595	0.064438726	0.147897406	-0.10937805	-0.156002699	0.073038386	0
1666	1730017427	0.114745556	-0.980129021	0.064651518	0.148326464	-0.081623278	-0.173907439	0.093500781	0
1667	1730034094	0.114895691	-0.980086459	0.06468868	0.148475207	-0.07805129	-0.187993968	0.083473433	0
1668	1730050761	0.115110076	-0.980042444	0.06468433	0.148601534	-0.074417475	-0.183360716	0.105236743	0
1670	1730084095	0.115511654	-0.979954855	0.064703829	0.148858841	-0.03443762	-0.112023997	0.075757678	0
1671	1730100762	0.115737376	-0.979917206	0.064705287	0.148930706	-0.061373795	-0.075584234	0.090200271	0
1672	1730117429	0.115996488	-0.979871614	0.064697128	0.149032603	-0.039236292	-0.086306447	0.082444806	0
1674	1730150763	0.116339825	-0.979828804	0.064660992	0.149062119	-0.041643814	-0.113074149	0.07846634	0
1675	1730167430	0.116469659	-0.979815587	0.064633115	0.149059701	-0.067206929	-0.064867224	0.112799613	0
1678	1730217431	0.116937525	-0.979763494	0.064618416	0.14904218	-0.040870434	-0.107052805	0.131834563	0
1679	1730234098	0.117099443	-0.979735767	0.064644535	0.14908599	-0.034004944	-0.083955184	0.133307955	0
1681	1730267432	0.117503245	-0.979649019	0.06479477	0.149272989	-0.058159916	-0.096830753	0.125965754	0
1682	1730284099	0.117603352	-0.979610443	0.064895934	0.149403314	-0.045927812	-0.103927538	0.148398615	0
1683	1730300766	0.117779784	-0.979554681	0.065039126	0.149567579	-0.03200789	-0.088329448	0.17106416	0
1685	1730334100	0.118256365	-0.979431338	0.065384958	0.149848237	-0.061020111	-0.074065657	0.121914878	0
1686	1730350767	0.11852247	-0.979359251	0.065573182	0.150026795	-0.061756585	-0.068904268	0.101170446	0
1687	1730367434	0.118747428	-0.979298824	0.065742535	0.150169173	-0.031430896	-0.060783274	0.091281084	0
1689	1730400768	0.118981261	-0.979206834	0.065996068	0.15047244	-0.014598907	-0.048910446	0.110456231	0
1690	1730417435	0.11908235	-0.979163632	0.066077093	0.150637954	0.00731632	-0.021160653	0.126227621	0
1693	1730467436	0.119183294	-0.979066277	0.066182454	0.15114381	0.017886958	-0.037410393	0.136256311	0
1694	1730484103	0.119122235	-0.979052489	0.066193141	0.151276517	-0.036557868	-0.022045202	0.146390625	0
1695	1730500770	0.119020772	-0.979039673	0.066222534	0.151426383	-0.047327427	-0.044204094	0.144946582	0
1697	1730534104	0.118765594	-0.979014832	0.066410846	0.151704622	-0.049488966	-0.048382048	0.132095295	0
1698	1730550771	0.118590299	-0.97900469	0.06657632	0.151834619	-0.088193624	-0.084674518	0.114489663	0
1700	1730584105	0.118130913	-0.978995196	0.067009202	0.152063345	-0.068822171	-0.037926609	0.11753693	0
1701	1730600772	0.118050096	-0.978967578	0.067251465	0.152196898	-0.108635399	-0.015126282	0.102453002	0
1702	1730617439	0.118093018	-0.978921025	0.067520603	0.152343805	-0.107980299	-0.068022904	0.112223767	0
1704	1730650773	0.117865746	-0.978870536	0.068081986	0.152594178	-0.085634852	-0.115305808	0.123696084	0
1705	1730667440	0.117807606	-0.978843775	0.068358972	0.152686881	-0.07996374	-0.049948485	0.126543294	0
1708	1730717441	0.117608297	-0.978776615	0.069036895	0.15296579	-0.066038083	-0.101867583	0.128685208	0
1709	1730734108	0.11740905	-0.97878858	0.069109968	0.153009289	-0.079305066	-0.045080768	0.110001634	0
1710	1730750775	0.117331361	-0.978783664	0.069118836	0.153096299	-0.055167566	-0.058311539	0.105414875	0
1712	1730784109	0.117201688	-0.978776031	0.069022126	0.153287935	-0.062355838	-0.099152457	0.137564946	0
1713	1730800776	0.117091786	-0.978770262	0.069002022	0.15341776	-0.051190066	-0.106690338	0.134476804	0
1714	1730817443	0.116960641	-0.978752182	0.069060095	0.153606894	-0.057777729	-0.080319461	0.117335359	0
1716	1730850777	0.1168078	-0.9786869	0.069359927	0.15400354	-0.069524363	-0.032076092	0.137923634	0
1717	1730867444	0.11663343	-0.978666153	0.069548915	0.154182204	-0.094343764	-0.135033059	0.110816901	0
1718	1730884111	0.116398146	-0.97865155	0.069773507	0.154351136	-0.082333144	-0.087522878	0.129882984	0
1720	1730917445	0.116173785	-0.978594913	0.07026649	0.154655323	-0.076190294	-0.111441804	0.121784268	0
1721	1730934112	0.116136891	-0.978558818	0.070540026	0.154786846	-0.09757201	-0.098249104	0.136888244	0
1722	1730950779	0.11613286	-0.978509854	0.070832027	0.154965959	-0.098661845	-0.096059919	0.128858819	0
1724	1730984113	0.116111554	-0.978409873	0.071407306	0.155348719	-0.069629081	-0.130326414	0.076559732	0
1725	1731000780	0.116021825	-0.978378152	0.071651992	0.155502798	-0.094728361	-0.113437812	0.072792025	0
1727	1731034114	0.11593217	-0.978308885	0.072075955	0.155809225	-0.069365563	-0.0776925	0.068906356	0
1728	1731050781	0.115983307	-0.978271181	0.072236828	0.155933349	-0.044720486	-0.125288828	0.058217816	0
1729	1731067448	0.115966299	-0.978249675	0.072379572	0.156014708	-0.064557691	-0.072534188	0.037950362	0
1731	1731100782	0.116007174	-0.978192467	0.072633747	0.15622475	-0.060924779	-0.058563843	0.026788002	0
1732	1731117449	0.116125702	-0.978153855	0.072749074	0.156324755	-0.036629687	-0.052999374	0.040488346	0
1735	1731167450	0.116243254	-0.978083143	0.073228435	0.15645596	-0.034859723	-0.046870348	0.085321349	0
1736	1731184117	0.116265856	-0.978062165	0.073377725	0.156500355	-0.013984673	-0.051365144	0.127395162	0
1737	1731200784	0.116310315	-0.978034304	0.0735463	0.156562295	0.011330815	-0.083513612	0.143221202	0
1739	1731234118	0.116216993	-0.978019357	0.073800927	0.156605141	-0.038137931	-0.101418933	0.155885783	0
1740	1731250785	0.116117334	-0.978017205	0.073917541	0.156637508	-0.023558816	-0.055902578	0.164017328	0
1741	1731267452	0.116084427	-0.978010734	0.074028507	0.156649895	-0.03964558	-0.050749178	0.148912305	0
1743	1731300786	0.116097687	-0.977985467	0.074306988	0.156665965	-0.063416741	-0.062556488	0.10702001	0
1744	1731317453	0.116054595	-0.977969965	0.074496685	0.156704571	-0.062630586	-0.045102007	0.083299297	0
1745	1731334120	0.115945613	-0.977964111	0.074693216	0.156728224	-0.055340678	-0.052819173	0.109477736	0
1747	1731367454	0.115868569	-0.977928139	0.075125156	0.156803191	-0.051884134	-0.0178601	0.095143547	0
1749	1731400788	0.115832243	-0.97788257	0.075517588	0.156925669	-0.028623759	-0.07316384	0.087516526	0
1751	1731434122	0.115535845	-0.977871702	0.075803798	0.157073827	-0.0423162	-0.04525532	0.099293936	0
1752	1731450789	0.115332557	-0.977878408	0.075884955	0.157142271	-0.055778942	-0.068604876	0.104890251	0
1754	1731484123	0.114784262	-0.977917343	0.075974192	0.157258278	-0.022531367	-0.117015382	0.169061734	0
1755	1731500790	0.114541531	-0.977943523	0.075994502	0.157262642	-0.042723189	-0.078806873	0.167012321	0
1756	1731517457	0.114296137	-0.977968607	0.076029793	0.157268138	-0.039319906	-0.123646304	0.144349948	0
1758	1731550791	0.113859156	-0.978024492	0.076085455	0.157210651	-0.048890827	-0.112554876	0.138929305	0
1759	1731567458	0.113735246	-0.978038998	0.076160209	0.157173898	-0.045746302	-0.121872926	0.118705224	0
1760	1731584125	0.113578153	-0.97804552	0.076269526	0.157193903	-0.128593319	-0.12281115	0.092058271	0
1762	1731617459	0.113309558	-0.978042161	0.076595267	0.15725025	-0.099254257	-0.066297838	0.102797903	0
1764	1731650793	0.113193295	-0.978007448	0.076979774	0.157362082	-0.143546003	-0.083906485	0.085553332	0
1766	1731684127	0.112996565	-0.977996591	0.077341414	0.157393617	-0.086630323	-0.119640122	0.093460328	0
1767	1731700794	0.112931975	-0.977982058	0.077529681	0.157437644	-0.075538202	-0.116950546	0.131921083	0
1768	1731717461	0.112963888	-0.97795838	0.077701617	0.157477067	-0.033474041	-0.097327143	0.158126992	0
1770	1731750795	0.113147017	-0.977896329	0.077992918	0.157586884	-0.019608186	-0.14244898	0.115397875	0
1771	1731767462	0.113088535	-0.977881964	0.078115734	0.157657159	-0.052097818	-0.098315009	0.148469875	0
1772	1731784129	0.113023693	-0.977872281	0.078199487	0.157722186	-0.013756554	-0.111572662	0.166586404	0
1774	1731817463	0.11287368	-0.977860474	0.0782471	0.157879125	-0.029672077	-0.099529167	0.159165587	0
1775	1731834130	0.11283451	-0.97784257	0.078238738	0.158022093	-0.058732442	-0.067245114	0.146805247	0
1776	1731850797	0.112847035	-0.977817628	0.078235577	0.158168985	-0.057683812	-0.108051541	0.157952108	0
1779	1731900798	0.112678487	-0.977735368	0.07851497	0.158658467	-0.06884724	-0.064560132	0.112556847	0
1781	1731934132	0.112809318	-0.977624176	0.079100125	0.158959741	-0.046523301	-0.125450099	0.127518073	0
1782	1731950799	0.112805237	-0.97758076	0.079492374	0.159033953	-0.0256563	-0.088847475	0.11012717	0
