sep=									
DeviceTag:	Xsens_3								
FirmwareVersion:	2.4.0								
AppVersion:	2022.0.1								
SyncStatus:	Synced								
OutputRate:	60Hz								
FilterProfile:	General								
Measurement Mode:	Sensor fusion Mode - Extended (Quaternion)								
StartTime:	2020-11-25 11:02:17.793 +0100								
© Xsens Technologies B. V. 2005-2020									
PacketCounter	SampleTimeFine	Quat_W	Quat_X	Quat_Y	Quat_Z	FreeAcc_X	FreeAcc_Y	FreeAcc_Z	Status
1	1702266872	1.47E-17	-1.29E-16	0.707106781	0.707106781	-0.110991396	0.11508179	0.045168616	0
2	1702283539	0.000501959	-0.000196571	-0.706930015	-0.707283298	-0.046786071	0.138801999	0.0942853	0
3	1702300206	0.001095207	-0.000366541	-0.70677864	-0.707433828	-0.020960464	0.145789621	0.119270131	0
4	1702316873	0.001763879	-0.000502815	-0.706648995	-0.707561894	-0.096009013	0.125439107	-0.029081023	0
5	1702333540	0.002407055	-0.000675254	-0.706337596	-0.707870716	-0.12536374	0.113845138	-0.043422322	0
6	1702350207	0.002994191	-0.000867953	-0.706013403	-0.70819161	-0.088779929	0.148573444	0.023082575	0
7	1702366874	0.003585774	-0.001008206	-0.705830599	-0.708370871	-0.088247748	0.129534014	-0.000981581	0
8	1702383541	0.004160371	-0.001090266	-0.705654957	-0.708542578	-0.029688928	0.061880817	-0.103811168	0
9	1702400208	0.004701877	-0.001115432	-0.705473713	-0.708719612	-0.013786557	0.060692752	-0.120061965	0
10	1702416875	0.005216456	-0.001096586	-0.70523493	-0.708953651	-0.043483345	0.057732018	-0.127420463	0
11	1702433542	0.005776809	-0.000992201	-0.704931991	-0.709250684	-0.080742192	0.091291774	-0.114130271	0
12	1702450209	0.006327755	-0.000816639	-0.704611558	-0.709564546	-0.054916644	0.096715544	-0.099890818	0
13	1702466876	0.006759582	-0.00059682	-0.704501636	-0.709669921	-0.092249225	0.115496986	-0.040443891	0
14	1702483543	0.007071986	-0.000398751	-0.704583218	-0.709586018	-0.135821773	0.077931423	-0.137340962	0
15	1702500210	0.007237487	-0.000245647	-0.704538699	-0.709628621	-0.126208834	0.111541898	-0.096401929	0
16	1702516877	0.007298164	-5.28E-05	-0.704654207	-0.709513342	-0.125047941	0.134134948	0.055390367	0
17	1702533544	0.007281416	0.000163285	-0.705086936	-0.70908347	-0.075231762	0.125183603	0.061781462	0
20	1702583545	0.007713232	0.000787028	-0.70510145	-0.709064053	-0.10718172	0.099064864	-0.056050801	0
23	1702633546	0.008915263	0.001353534	-0.703261524	-0.71087405	-0.114285594	0.083127391	0.134354287	0
26	1702683547	0.009629761	0.00171775	-0.703083263	-0.711040254	-0.021488192	0.093511825	0.001213465	0
28	1702716881	0.010034142	0.001800631	-0.703094004	-0.711023836	-0.041281276	0.086111876	0.139273691	0
32	1702783549	0.011751639	0.001747436	-0.702254877	-0.711826477	-0.021080488	0.173311623	-0.061634335	0
35	1702833550	0.013028006	0.001621773	-0.701728148	-0.712323835	-0.08502734	0.071757018	-0.059062866	0
38	1702883551	0.013545489	0.001299779	-0.702088087	-0.711960075	-0.022418868	0.069126784	-0.066514049	0
40	1702916885	0.013741002	0.001189541	-0.702958296	-0.711097324	-0.008894738	0.145406473	-0.016601578	0
43	1702966886	0.014014984	0.001478216	-0.704893369	-0.709173274	-0.030888258	0.107687033	-0.065302147	0
46	1703016887	0.014211759	0.001861296	-0.707286068	-0.70678213	-0.10197656	0.087736488	-0.048963036	0
50	1703083555	0.014379812	0.001920756	-0.708914365	-0.705145343	-0.020814977	0.147644134	-0.028485403	0
53	1703133556	0.014509921	0.001938459	-0.709441487	-0.704612291	-0.055918049	0.126623069	0.051878052	0
57	1703200224	0.014162627	0.002166418	-0.71172297	-0.702314132	-0.150180796	0.040793226	0.023751988	0
59	1703233558	0.014051165	0.002221776	-0.712200707	-0.701831733	-0.104418849	0.05550409	-0.030090147	0
62	1703283559	0.01385943	0.002016878	-0.712783006	-0.701244775	-0.129699642	0.127622958	-0.078852367	0
65	1703333560	0.013135824	0.001497168	-0.713735767	-0.700290271	-0.137155408	0.238568604	0.113468845	0
67	1703366894	0.01216792	0.001207807	-0.715866022	-0.698130591	-0.213643963	0.07839921	-0.017730366	0
70	1703416895	0.011043781	0.000710177	-0.718161837	-0.695788119	-0.162987959	0.087237176	0.048820337	0
73	1703466896	0.010622318	0.000206206	-0.719388926	-0.69452624	-0.208222269	0.213450817	0.061622995	0
75	1703500230	0.0106386	-0.000160789	-0.719678655	-0.694225775	-0.154277678	0.155974652	0.003653069	0
78	1703550231	0.01109879	-0.000472222	-0.720223265	-0.693653403	-0.169423438	0.031761848	0.030264006	0
81	1703600232	0.011761631	-0.001024394	-0.720266059	-0.693597447	-0.071426728	0.145542866	-0.017790752	0
84	1703650233	0.012367018	-0.001683786	-0.72047284	-0.693370831	0.023375339	0.101438065	-0.01977166	0
86	1703683567	0.012760812	-0.002146225	-0.720744979	-0.693079527	0.048316261	0.090184078	-0.05800447	0
89	1703733568	0.013183705	-0.003086375	-0.721086471	-0.692712758	0.066315511	0.063573201	-0.03021915	0
92	1703783569	0.013384231	-0.004157586	-0.721362762	-0.692415586	-0.021844306	0.0816722	-0.04478201	0
94	1703816903	0.013205806	-0.00499498	-0.721456113	-0.692316209	-0.057068606	0.118315798	-0.026839503	0
97	1703866904	0.012808689	-0.006220569	-0.721566233	-0.692198969	-0.052761155	0.054857046	-0.04117419	0
100	1703916905	0.012741395	-0.00730475	-0.721077218	-0.692699028	-0.044505599	0.04950317	0.017321994	0
104	1703983573	0.012103863	-0.009021908	-0.720181607	-0.693621334	-0.102966038	0.120448681	-0.034184257	0
106	1704016907	0.011484462	-0.009796775	-0.719926234	-0.693886409	-0.090848938	0.095899094	0.007859467	0
109	1704066908	0.010553935	-0.010445046	-0.71991665	-0.693901673	-0.089942875	0.107919532	-0.005308366	0
112	1704116909	0.009866505	-0.010543418	-0.720004773	-0.693818864	-0.127714888	0.082675702	0.011038514	0
115	1704166910	0.009494103	-0.010420259	-0.719903705	-0.693930786	-0.087990681	0.205189725	0.105896285	0
117	1704200244	0.00929747	-0.010292573	-0.71998964	-0.693846192	-0.137942486	0.132697408	0.183494904	0
120	1704250245	0.009405228	-0.010218143	-0.719966284	-0.693870075	-0.193423996	0.139310351	0.080756758	0
123	1704300246	0.009635088	-0.010256811	-0.7196551	-0.694189095	-0.202496954	0.156551293	0.07142021	0
125	1704333580	0.009793006	-0.010194307	-0.719593239	-0.694251931	-0.163144217	0.152622939	0.113912291	0
128	1704383581	0.010219659	-0.010021202	-0.719522213	-0.694321913	-0.163330561	0.090981445	0.035115865	0
132	1704450249	0.011442652	-0.009205849	-0.719567623	-0.694267063	-0.065740046	0.082837591	-0.038347898	0
135	1704500250	0.012570592	-0.008262289	-0.719540421	-0.694287618	-0.010668197	0.124847689	-0.031909368	0
138	1704550251	0.013292783	-0.007024735	-0.720110291	-0.693696709	0.042916445	0.054541942	-0.064337491	0
140	1704583585	0.013600918	-0.006118111	-0.720608691	-0.693181576	0.062396567	0.068585361	-0.080155805	0
143	1704633586	0.013831453	-0.004787712	-0.721335558	-0.692431066	0.009574008	0.144758274	0.019756562	0
146	1704683587	0.013774735	-0.003725552	-0.721897033	-0.691853345	-0.003090009	0.09453511	0.020099992	0
148	1704716921	0.013740186	-0.003095598	-0.722144829	-0.691598489	0.020450137	0.080499213	-0.003714533	0
151	1704766922	0.013745254	-0.002189833	-0.72239332	-0.691342291	-0.013832423	0.081902755	0.00362405	0
154	1704816923	0.013980024	-0.001398978	-0.722812637	-0.690901219	0.013051288	0.103026919	-0.085318323	0
156	1704850257	0.014365654	-0.001010279	-0.722539482	-0.691179647	-0.010435072	0.184261856	0.030838314	0
161	1704933592	0.014161534	-0.000560057	-0.723751784	-0.689914845	-0.031524464	0.083789934	-0.016791007	0
163	1704966926	0.014268677	-0.000405751	-0.724184733	-0.689458275	-0.05008482	0.070672008	-0.048684479	0
166	1705016927	0.014617876	-0.000244264	-0.724459713	-0.689162087	-0.084192577	0.113043832	-0.023821073	0
169	1705066928	0.014952859	-0.000266083	-0.72466333	-0.68894078	-0.115735684	0.046984775	-0.023140369	0
171	1705100262	0.015127833	-0.000489619	-0.72456648	-0.689038696	-0.121108354	0.12930692	0.027587283	0
174	1705150263	0.015139319	-0.001034263	-0.724793943	-0.688798572	-0.0881844	0.125526085	0.008706432	0
177	1705200264	0.015549676	-0.001685355	-0.724297488	-0.689310174	-0.115665537	0.115389543	0.051995155	0
179	1705233598	0.015986476	-0.002147157	-0.723802575	-0.689818566	-0.200545734	0.083441861	-0.005170793	0
182	1705283599	0.016336472	-0.002798884	-0.723357409	-0.690274833	-0.175522955	0.095617259	-0.012866431	0
185	1705333600	0.01691089	-0.003134647	-0.722640632	-0.691009923	-0.212962971	0.114241623	0.001628834	0
188	1705383601	0.017569152	-0.0029179	-0.722284182	-0.691367031	-0.175792916	0.153384443	-0.012422734	0
190	1705416935	0.01807366	-0.002492064	-0.722080818	-0.691568091	-0.088944149	0.118122681	0.006171863	0
193	1705466936	0.018951414	-0.001482267	-0.72195046	-0.691683583	-0.069999028	0.066567646	0.008473307	0
196	1705516937	0.019705429	-0.00037212	-0.721688593	-0.691937232	0.03269104	0.10991598	-0.000873444	0
198	1705550271	0.020214759	0.000299835	-0.721285556	-0.692342705	0.018315432	0.094709854	0.039965519	0
201	1705600272	0.020504467	0.000924501	-0.720922536	-0.692711635	0.024125929	0.078569324	0.053705831	0
204	1705650273	0.020516241	0.001287972	-0.72059709	-0.693049247	0.012134354	0.097153008	0.080644777	0
206	1705683607	0.020502597	0.001492277	-0.720497729	-0.693152536	-0.00973179	0.060821787	0.052856243	0
209	1705733608	0.020506355	0.001658691	-0.720356527	-0.69329879	-0.052449681	0.094560675	0.0462833	0
212	1705783609	0.020088615	0.001407882	-0.71994735	-0.693736462	-0.059084575	0.102741356	0.117826903	0
214	1705816943	0.019595509	0.001080754	-0.72005467	-0.693639762	-0.051215506	0.093614799	0.025642596	0
217	1705866944	0.019140898	0.000701351	-0.719883948	-0.69383012	-0.122171797	0.14418066	0.112984521	0
220	1705916945	0.018724843	0.000412252	-0.720178817	-0.693535639	-0.184298708	0.083450999	0.066017453	0
223	1705966946	0.018415719	-1.95E-05	-0.720337079	-0.69337966	-0.222562078	0.108915463	0.017594155	0
225	1706000280	0.018282257	-0.000307557	-0.720367836	-0.69335117	-0.174138315	0.241415043	0.039325409	0
228	1706050281	0.018368826	-0.000344823	-0.720661223	-0.693043916	-0.104349485	0.156331301	-0.062643694	0
231	1706100282	0.018879495	-0.000222516	-0.720767063	-0.692920165	-0.099816801	0.051552179	-0.010025901	0
233	1706133616	0.01942581	-0.000208067	-0.72061248	-0.693065832	-0.028653438	0.04351833	-0.057067247	0
236	1706183617	0.020335844	-0.000237368	-0.72000805	-0.693667647	-0.03522516	0.114467904	-0.124857193	0
240	1706250285	0.02108534	-9.11E-05	-0.719488905	-0.694183777	0.00921378	0.133313272	-0.10155138	0
243	1706300286	0.021652556	0.000367648	-0.719057545	-0.694613042	-0.00935364	0.097744699	-0.096682243	0
246	1706350287	0.0218894	0.000813286	-0.718498886	-0.695183101	-0.049974975	0.107500184	-0.018311128	0
248	1706383621	0.021809982	0.000997679	-0.718201172	-0.695492923	-0.043117385	0.11923537	-0.008021621	0
251	1706433622	0.02169751	0.001229594	-0.717620611	-0.696095083	-0.100789705	0.090178717	0.002094784	0
254	1706483623	0.02175398	0.001382162	-0.7169505	-0.696783204	-0.110367867	0.111709635	0.054675106	0
256	1706516957	0.021982633	0.001541638	-0.716539809	-0.697198027	-0.096211774	0.13334245	0.07505109	0
259	1706566958	0.022500336	0.00189262	-0.716200615	-0.69752909	-0.136192135	0.123857249	0.07166686	0
262	1706616959	0.023164713	0.002302174	-0.716003458	-0.697708495	-0.061137864	0.130427997	0.060223542	0
264	1706650293	0.023868685	0.002724692	-0.715871094	-0.697819059	-0.064738379	0.099929084	0.047113138	0
268	1706716961	0.025334848	0.003551946	-0.71547694	-0.6981678	-0.02560597	0.096731607	0.017120146	0
271	1706766962	0.026408025	0.004213174	-0.715278496	-0.698327673	0.00736059	0.077594926	-0.080919018	0
274	1706816963	0.027462443	0.004844519	-0.7148306	-0.69874141	0.001915068	0.070843125	-0.02039705	0
277	1706866964	0.027949358	0.005331103	-0.714475759	-0.6990814	0.025953717	0.066800393	0.066657073	0
279	1706900298	0.028043994	0.005655556	-0.714416102	-0.699136026	-0.009180132	0.048926737	-0.021869101	0
282	1706950299	0.028163103	0.00602377	-0.714011207	-0.699541671	-0.009824633	0.083869782	0.111303216	0
285	1707000300	0.028040182	0.006349115	-0.713966861	-0.699588993	-0.006345997	0.14252544	0.067303104	0
287	1707033634	0.028183555	0.006571351	-0.713803448	-0.699747914	-0.006077687	0.129505213	0.089606648	0
290	1707083635	0.028214111	0.006719212	-0.713725739	-0.699824539	-0.068062794	0.076691451	0.113268575	0
293	1707133636	0.028136026	0.006626799	-0.713764197	-0.69978934	-0.066157715	0.092879915	0.135307076	0
297	1707200304	0.02807916	0.006212583	-0.713892126	-0.699664918	-0.066500308	0.128243784	0.076583908	0
300	1707250305	0.028134185	0.00587797	-0.714024096	-0.69953092	-0.114609688	0.091647682	0.022807221	0
302	1707283639	0.028110302	0.005648508	-0.714187248	-0.6993672	-0.073591681	0.117726031	0.047798254	0
305	1707333640	0.027916391	0.005274727	-0.71451894	-0.69903901	-0.090583705	0.129196205	0.000769192	0
308	1707383641	0.027572747	0.004804086	-0.714874756	-0.698692169	-0.039659802	0.100712933	-0.01518919	0
310	1707416975	0.027439712	0.004582214	-0.715099504	-0.698468872	-0.071303331	0.101581166	0.00802458	0
313	1707466976	0.027212013	0.004333004	-0.715577792	-0.697989366	-0.088189848	0.091931633	0.037145162	0
316	1707516977	0.026589646	0.003884817	-0.716072524	-0.697508451	-0.019859116	0.116758818	-0.066498834	0
318	1707550311	0.026358622	0.003572843	-0.716159532	-0.697429554	-0.04209771	0.150968132	-0.028366801	0
321	1707600312	0.026126268	0.003018676	-0.7158975	-0.697709879	-0.078986701	0.081413811	-0.018972774	0
324	1707650313	0.025588961	0.002165232	-0.715547179	-0.698092222	-0.044473624	0.062130794	0.006055607	0
327	1707700314	0.025060269	0.001263633	-0.715226799	-0.698441846	-0.084858082	0.102751601	0.030285013	0
329	1707733648	0.024497265	0.000670445	-0.715116033	-0.698576048	-0.065238803	0.103842245	-0.098972614	0
332	1707783649	0.023527198	-9.21E-05	-0.714790361	-0.698942918	-0.044198882	0.118711038	-0.060983219	0
335	1707833650	0.022297712	-0.000499375	-0.71484404	-0.698928152	-0.069732691	0.049533626	-0.071559961	0
337	1707866984	0.021398498	-0.000595998	-0.714951679	-0.698846082	-0.08130065	0.059348579	-0.047620096	0
340	1707916985	0.020160854	-0.000421461	-0.715196678	-0.698632288	-0.096861129	0.134384946	0.032962642	0
343	1707966986	0.019455771	-2.92E-05	-0.715418145	-0.698425622	-0.12600601	0.136855447	0.080521128	0
345	1708000320	0.019162693	0.000234022	-0.715619489	-0.698227386	-0.192892097	0.077657635	0.08803727	0
348	1708050321	0.018737978	0.000534203	-0.716018401	-0.697829672	-0.10942223	0.114028706	0.06794445	0
351	1708100322	0.018842114	0.000970466	-0.716365163	-0.69747042	-0.115018527	0.10885776	0.030903047	0
354	1708150323	0.01912567	0.001426576	-0.716716517	-0.697100859	-0.107036755	0.117883795	-0.013987851	0
356	1708183657	0.019281067	0.001686168	-0.716966706	-0.696838675	-0.065853812	0.10104869	-0.017073221	0
359	1708233658	0.019395002	0.002126538	-0.717357804	-0.696431686	-0.049484122	0.116823882	-0.030429255	0
362	1708283659	0.019419402	0.002507232	-0.717602275	-0.696177834	-0.0314902	0.094821054	-0.024888457	0
366	1708350327	0.019150932	0.002906135	-0.717839754	-0.69593885	-0.033884733	0.064479373	-0.016146986	0
368	1708383661	0.018893658	0.003088815	-0.717857374	-0.695926922	-0.038458233	0.085052241	0.04361279	0
371	1708433662	0.018349996	0.003217369	-0.71799334	-0.695800611	-0.05363941	0.088666204	-0.019715142	0
374	1708483663	0.017960641	0.003373161	-0.718136618	-0.695662156	-0.065565557	0.106512719	0.079796396	0
378	1708550331	0.017329116	0.003230395	-0.718310969	-0.695498827	-0.039118892	0.125331451	0.048608945	0
381	1708600332	0.016923549	0.002823788	-0.718128467	-0.695699019	-0.126641485	0.113565696	0.035146173	0
383	1708633666	0.016611121	0.002567093	-0.718221754	-0.695611237	-0.085130831	0.121948824	0.083698979	0
386	1708683667	0.016451803	0.002389935	-0.718543522	-0.695283276	-0.107749436	0.129328085	0.006622596	0
389	1708733668	0.016509806	0.00231485	-0.718661685	-0.695160018	-0.13754863	0.105924322	0.008817799	0
391	1708767002	0.016608125	0.002321741	-0.718718	-0.695099429	-0.101366926	0.126375384	0.044696899	0
394	1708817003	0.016962805	0.002351075	-0.718672348	-0.695137966	-0.127996602	0.145233166	0.011357108	0
397	1708867004	0.017345447	0.002436503	-0.718608145	-0.695194601	-0.07104325	0.136552972	-0.025927276	0
399	1708900338	0.017664564	0.002594007	-0.718519781	-0.695277325	-0.08140366	0.094196813	-0.04238023	0
402	1708950339	0.018184481	0.003004446	-0.718443209	-0.695341393	-0.043972702	0.0607024	-0.000738361	0
406	1709017007	0.018371445	0.00334516	-0.718377341	-0.695402974	0.0004776	0.108587737	0.00869456	0
409	1709067008	0.01834698	0.003287219	-0.718264968	-0.695519963	-0.022861217	0.115339379	0.049984911	0
412	1709117009	0.018512971	0.003111131	-0.717814467	-0.695981308	-0.021796213	0.172082887	0.05737448	0
414	1709150343	0.018581981	0.002988144	-0.717678942	-0.696119757	-0.079096364	0.058970545	0.027801269	0
417	1709200344	0.018690365	0.002712392	-0.7170396	-0.696776524	-0.037778523	0.089488749	0.124716997	0
420	1709250345	0.01906531	0.002572553	-0.716621645	-0.697196754	-0.081987658	0.104937968	0.078982976	0
422	1709283679	0.019312662	0.002564992	-0.716554229	-0.697259263	-0.073376097	0.099152375	0.001064199	0
425	1709333680	0.019742425	0.002501708	-0.716211205	-0.697599805	-0.036131261	0.128967762	-0.000537531	0
428	1709383681	0.020135778	0.002511775	-0.715919262	-0.697888137	-0.063135529	0.073246192	-0.00248445	0
430	1709417015	0.020174706	0.002412267	-0.715717146	-0.698094642	-0.046517619	0.108102177	0.003938079	0
435	1709500350	0.020341148	0.002842728	-0.715993569	-0.697804676	-0.079436597	0.122502367	0.060032492	0
437	1709533684	0.020206137	0.003140505	-0.716413213	-0.697376482	-0.071965331	0.115495367	-0.000825319	0
440	1709583685	0.019944483	0.003592115	-0.716826766	-0.696956743	-0.051407924	0.116077872	0.049159532	0
443	1709633686	0.019779978	0.003828844	-0.71673219	-0.69705743	-0.02669131	0.109015047	0.034392785	0
445	1709667020	0.019600531	0.003813088	-0.716753093	-0.697041091	0.023188583	0.080286033	0.007376556	0
448	1709717021	0.019249243	0.003729893	-0.716641225	-0.697166342	-0.028169062	0.099363658	0.012785621	0
451	1709767022	0.018689105	0.003550908	-0.716731763	-0.697089441	0.001161639	0.127797912	-0.001836321	0
453	1709800356	0.018323731	0.003477752	-0.71675834	-0.697072183	-0.013359758	0.079587037	-0.056752563	0
456	1709850357	0.017849888	0.003398515	-0.716622984	-0.697224017	-0.025740859	0.091332893	-0.004584097	0
459	1709900358	0.017319537	0.003442509	-0.716803635	-0.697051455	-0.069909329	0.120802194	0.001628431	0
462	1709950359	0.01651982	0.00338779	-0.717040856	-0.696827116	-0.050717984	0.117104859	0.049152216	0
464	1709983693	0.016132653	0.003351751	-0.717171264	-0.696702147	-0.111009399	0.08906844	0.049079646	0
467	1710033694	0.01579821	0.003285033	-0.717359798	-0.696516005	-0.121197273	0.109324591	0.090423968	0
470	1710083695	0.015870236	0.003139478	-0.717449269	-0.696422878	-0.105697948	0.144068111	0.084916321	0
472	1710117029	0.015978857	0.002970128	-0.717521453	-0.696346767	-0.132155145	0.160590966	0.060918665	0
475	1710167030	0.016327428	0.002709119	-0.717525314	-0.696335767	-0.086964115	0.10480149	0.032040326	0
478	1710217031	0.016598987	0.002647601	-0.717752578	-0.696095325	-0.116252574	0.082003027	-0.063119692	0
480	1710250365	0.016777364	0.002661873	-0.717856704	-0.695983611	-0.040615909	0.151163789	0.012279413	0
483	1710300366	0.016993755	0.002888661	-0.718213154	-0.695609612	-0.037026393	0.075913191	-0.031811112	0
486	1710350367	0.017056833	0.003120104	-0.718472213	-0.695339492	-0.054514856	0.094943298	0.02160482	0
489	1710400368	0.016895868	0.003272821	-0.718947649	-0.694851133	-0.040560834	0.119965874	0.014642245	0
491	1710433702	0.016996133	0.003342962	-0.71892465	-0.694872149	-0.058208617	0.114584902	0.06226094	0
494	1710483703	0.016947755	0.003286272	-0.71899308	-0.694802796	-0.037896764	0.088724509	0.033418778	0
497	1710533704	0.017007453	0.003072252	-0.719055729	-0.69473748	-0.028069244	0.092805152	0.059427824	0
499	1710567038	0.017044552	0.002852212	-0.719079417	-0.694712991	-0.066094609	0.108993873	0.054506706	0
502	1710617039	0.017153303	0.002447158	-0.71912861	-0.694660938	-0.030758574	0.107129618	0.050416501	0
505	1710667040	0.017156487	0.002004691	-0.719407852	-0.694373083	-0.038359659	0.129307729	0.06085841	0
507	1710700374	0.017142054	0.001674919	-0.719538555	-0.694238873	-0.063500068	0.087518614	-0.001260853	0
510	1710750375	0.017127942	0.00123264	-0.719653853	-0.694120628	-0.04555519	0.078093587	0.042572301	0
514	1710817043	0.017379971	0.000900718	-0.719919237	-0.693839619	-0.077072215	0.126158609	0.017553306	0
517	1710867044	0.017563023	0.000793387	-0.720287339	-0.693452997	-0.06742616	0.140129786	-0.005144589	0
520	1710917045	0.017669237	0.000698421	-0.720536466	-0.69319154	-0.066030492	0.089958104	-0.060220494	0
522	1710950379	0.017760836	0.000688854	-0.720655152	-0.69306582	-0.048345901	0.070360833	-0.060551877	0
525	1711000380	0.017651255	0.000832762	-0.720963718	-0.69274747	-0.071501464	0.098095222	-0.039179269	0
528	1711050381	0.017414629	0.001096522	-0.721515349	-0.692178538	-0.048927812	0.167289272	-0.023034038	0
530	1711083715	0.017357548	0.00132561	-0.721803434	-0.691879152	-0.074057595	0.095609855	0.028192345	0
533	1711133716	0.017281953	0.001586548	-0.722199958	-0.691466584	-0.001108831	0.113700145	0.034892279	0
536	1711183717	0.017443478	0.001717536	-0.722563371	-0.691082449	-0.103843774	0.131718641	0.052898291	0
539	1711233718	0.017561698	0.001573764	-0.722889197	-0.690738966	-0.045125398	0.110892797	0.046329726	0
543	1711300386	0.01803821	0.001101124	-0.722573522	-0.691057824	-0.065655048	0.144566545	0.039855045	0
545	1711333720	0.018205571	0.00085414	-0.722628554	-0.690996238	-0.034108709	0.140086039	-0.035241885	0
548	1711383721	0.018627538	0.000599413	-0.722505071	-0.691114374	-0.022094629	0.12228646	-0.023313361	0
551	1711433722	0.018950769	0.000469998	-0.722766814	-0.690831948	-0.041275631	0.098365505	-0.036151277	0
553	1711467056	0.019012383	0.000397335	-0.723147729	-0.690431556	-0.015715205	0.122092454	-0.054159986	0
556	1711517057	0.019293894	0.000277616	-0.72308629	-0.69048815	-0.055303441	0.147974763	0.047920879	0
559	1711567058	0.019265478	0.000107319	-0.723201984	-0.690367815	-0.106878051	0.107266758	-0.001773523	0
561	1711600392	0.019149928	-1.44E-05	-0.723225635	-0.690346262	-0.078360832	0.105476585	0.043091838	0
564	1711650393	0.019121473	-8.02E-05	-0.723391112	-0.690173646	-0.120592296	0.093765533	0.068539727	0
567	1711700394	0.01917043	3.48E-05	-0.723614804	-0.689937757	-0.097147811	0.113182537	0.024695586	0
571	1711767062	0.019636727	0.000388553	-0.723534367	-0.69000889	-0.104564838	0.128518088	0.031364665	0
574	1711817063	0.020027391	0.000693862	-0.723547015	-0.689984159	-0.070098923	0.096159922	0.030809943	0
576	1711850397	0.02029362	0.000978464	-0.723570686	-0.689951211	-0.080808879	0.092380293	0.040249363	0
579	1711900398	0.020669897	0.001398534	-0.723604489	-0.689903865	-0.049506104	0.134090984	0.038187411	0
582	1711950399	0.021023717	0.001716593	-0.723627181	-0.689868654	-0.089745729	0.112300973	0.040931909	0
584	1711983733	0.021128154	0.001837824	-0.723692537	-0.689796589	-0.023362071	0.116597361	0.033259708	0
587	1712033734	0.021306978	0.001919213	-0.72384931	-0.689626352	-0.036693468	0.091916109	0.057488058	0
590	1712083735	0.021495575	0.002083334	-0.724257239	-0.689191592	-0.057699747	0.117158926	0.010414792	0
592	1712117069	0.021708292	0.002233933	-0.724549377	-0.688877318	-0.030379279	0.117130586	0.004863478	0
595	1712167070	0.021978127	0.002392075	-0.724789931	-0.688615129	-0.075443025	0.124123681	0.039000149	0
598	1712217071	0.021974738	0.00248567	-0.725416044	-0.687955301	-0.018437882	0.11301657	-0.06569189	0
601	1712267072	0.022420551	0.002532532	-0.725107017	-0.688266459	-0.026352292	0.100773167	-0.007398531	0
603	1712300406	0.022362326	0.00243183	-0.725202367	-0.688168249	-0.079060071	0.075449402	-0.061993332	0
606	1712350407	0.021982771	0.002083909	-0.725445068	-0.687925772	-0.007748932	0.092220644	-0.053324851	0
609	1712400408	0.021820841	0.001788361	-0.724996333	-0.688404655	-0.094098553	0.117090848	-0.03769093	0
611	1712433742	0.021478913	0.001543454	-0.724936572	-0.688478933	-0.045046451	0.157794267	0.033239267	0
614	1712483743	0.021055866	0.00131791	-0.724650248	-0.688793824	-0.057966312	0.109039849	0.026604607	0
617	1712533744	0.02066012	0.001167775	-0.724462964	-0.689003055	-0.087783577	0.085873715	-0.004057544	0
619	1712567078	0.020536969	0.001178053	-0.724377702	-0.689096358	-0.045973113	0.125314602	0.037683238	0
622	1712617079	0.02064111	0.001244412	-0.724235405	-0.689242681	-0.087455135	0.168408511	0.019163542	0
625	1712667080	0.020730926	0.001149398	-0.724148248	-0.689331722	-0.069172673	0.143247186	0.02970017	0
628	1712717081	0.02081058	0.000907584	-0.723922513	-0.689566741	-0.068034243	0.113612066	-0.009236549	0
630	1712750415	0.020995967	0.000811728	-0.723556882	-0.689944888	-0.094001792	0.095774807	0.025876722	0
633	1712800416	0.020978427	0.000666332	-0.723489495	-0.69001624	-0.055955665	0.147385441	-0.050978986	0
636	1712850417	0.020902973	0.000495834	-0.723144341	-0.690380389	-0.127058268	0.087877488	-0.016129303	0
638	1712883751	0.02060757	0.000277393	-0.722903485	-0.690641588	-0.104049188	0.057034472	0.003485901	0
641	1712933752	0.019526869	-0.000302336	-0.722555393	-0.691037129	-0.075822529	0.092176797	-0.016107062	0
644	1712983753	0.018104653	-0.000980871	-0.722239315	-0.691405548	0.026945526	0.112571672	-0.030608049	0
646	1713017087	0.01768397	-0.00114401	-0.72209953	-0.691562171	0.019308184	0.098383681	0.018297999	0
651	1713100422	0.018187491	-0.000726614	-0.721341916	-0.692339893	-0.114166704	0.134613236	0.150829459	0
653	1713133756	0.018261982	-0.000562744	-0.72167834	-0.691987396	-0.067566236	0.123950863	0.074729581	0
656	1713183757	0.018677803	-0.000324455	-0.721747182	-0.691904647	-0.113934601	0.155332857	0.092403308	0
659	1713233758	0.019166594	-0.000323234	-0.72183503	-0.691799628	-0.059048935	0.12609227	0.083075894	0
661	1713267092	0.019576582	-0.000356733	-0.721857089	-0.691765115	-0.032530965	0.132584665	0.015204754	0
664	1713317093	0.020111476	-0.000513318	-0.721996479	-0.691604185	-0.055835294	0.075920853	-0.038579316	0
667	1713367094	0.020414478	-0.000714308	-0.72205299	-0.69153613	-0.046810349	0.048231887	-0.099456437	0
669	1713400428	0.020565621	-0.000866374	-0.721946234	-0.691642928	-0.017341652	0.100102236	0.034465963	0
672	1713450429	0.020593704	-0.000927649	-0.722183281	-0.691394494	-0.039381518	0.089878056	-0.078939543	0
675	1713500430	0.020620015	-0.000803085	-0.722148639	-0.691430049	-0.089881058	0.121288412	-0.031443156	0
679	1713567098	0.020549507	-0.000468812	-0.722161323	-0.691419208	-0.051818156	0.115084118	-0.012583084	0
682	1713617099	0.020390355	-4.17E-06	-0.722205186	-0.691378263	-0.091256163	0.09300667	0.02587511	0
684	1713650433	0.020318568	0.000258875	-0.722174309	-0.691412581	-0.102248296	0.114276341	0.005272575	0
687	1713700434	0.020097491	0.000719343	-0.722478144	-0.691101227	-0.059117514	0.089873142	-0.034566341	0
690	1713750435	0.020327362	0.001194389	-0.722176938	-0.691408593	-0.06711074	0.12397959	0.030858893	0
692	1713783769	0.020446448	0.001490672	-0.722049785	-0.691537294	-0.108785975	0.139606512	0.074670914	0
695	1713833770	0.020647581	0.002023347	-0.722273319	-0.691296489	-0.007458205	0.129396331	0.03842108	0
698	1713883771	0.021156205	0.002519903	-0.722269309	-0.691283669	-0.047732028	0.111305188	0.031242496	0
700	1713917105	0.021334257	0.002644502	-0.722260256	-0.691287189	-0.044667622	0.112155034	0.066425927	0
703	1713967106	0.021338016	0.002574161	-0.722549669	-0.690984833	-0.028058786	0.094695836	0.008268993	0
707	1714033774	0.021619603	0.002359148	-0.722305727	-0.691231846	-0.140131551	0.119407098	0.057180923	0
710	1714083775	0.021475307	0.00212267	-0.722571898	-0.690958868	-0.079270776	0.11302709	-0.004710393	0
713	1714133776	0.021583845	0.001948177	-0.722684589	-0.690838134	-0.115151488	0.13477956	0.004235551	0
715	1714167110	0.021747097	0.001910558	-0.722780288	-0.690732994	-0.126198695	0.09686393	-0.013374617	0
718	1714217111	0.021855303	0.001802122	-0.722626323	-0.690890943	-0.125586673	0.154817986	0.079576896	0
721	1714267112	0.021917601	0.001712565	-0.722802428	-0.690704956	-0.078890871	0.107388655	0.029549511	0
723	1714300446	0.022167228	0.001836701	-0.722858674	-0.690637805	-0.109211608	0.090927359	-0.011369926	0
726	1714350447	0.022640279	0.002044579	-0.722672197	-0.690817005	-0.058687492	0.138209019	0.01685587	0
729	1714400448	0.023056687	0.002207188	-0.722596174	-0.690882252	-0.059072879	0.113772946	0.027347822	0
732	1714450449	0.02338179	0.002246787	-0.722457008	-0.691016726	-0.007408091	0.08595211	-0.044479229	0
734	1714483783	0.023571176	0.002208603	-0.722143261	-0.691338291	-0.018122567	0.112431352	0.005446958	0
737	1714533784	0.023602931	0.002160684	-0.722021966	-0.691464036	0.000803843	0.140142766	-0.019472643	0
740	1714583785	0.023440348	0.002083371	-0.721974332	-0.691519539	-0.041133394	0.10211629	0.030689723	0
742	1714617119	0.023177679	0.001999261	-0.722048806	-0.69145088	-0.04573974	0.099002646	0.000484919	0
745	1714667120	0.022821759	0.001857322	-0.722042264	-0.691469946	-0.028934336	0.098599922	0.016857548	0
748	1714717121	0.022534903	0.001755035	-0.721950837	-0.691575077	-0.035522618	0.107707739	0.007513788	0
750	1714750455	0.022390435	0.001730545	-0.721972201	-0.691557528	-0.021528772	0.088316311	-0.021574212	0
753	1714800456	0.022324209	0.001614862	-0.721581059	-0.691968061	-0.025876215	0.122540611	0.007945654	0
756	1714850457	0.022257472	0.001600765	-0.721444832	-0.692112271	-0.044412975	0.091263074	0.00670996	0
759	1714900458	0.021958893	0.001511432	-0.721340014	-0.692231252	-0.013589458	0.117292249	0.026384605	0
761	1714933792	0.02180404	0.001535939	-0.721273079	-0.692305836	-0.024352303	0.071259699	-0.017688781	0
764	1714983793	0.021448779	0.001527031	-0.721225957	-0.692366042	-0.030175538	0.111919639	-0.024057874	0
767	1715033794	0.021172356	0.001544518	-0.720999611	-0.692610213	-0.05311998	0.099101006	0.010916899	0
769	1715067128	0.020945329	0.001559594	-0.720757077	-0.692869466	-0.039900543	0.116722582	-0.007314414	0
772	1715117129	0.020481536	0.001679865	-0.720832417	-0.69280467	-0.018751974	0.086275004	-0.096530123	0
775	1715167130	0.01996025	0.001761391	-0.720508133	-0.69315692	-0.041861123	0.084891972	0.022098997	0
777	1715200464	0.019735352	0.00179934	-0.720273595	-0.69340697	-0.008401025	0.120025133	0.05184281	0
780	1715250465	0.019505358	0.001971719	-0.720185359	-0.693504651	-0.114613281	0.125188434	0.012175389	0
783	1715300466	0.019223279	0.002090917	-0.720109766	-0.693590671	-0.096310673	0.182883322	0.035936642	0
787	1715367134	0.019116156	0.00230047	-0.71989066	-0.693820379	-0.114954977	0.113819353	0.014758363	0
790	1715417135	0.019179154	0.00260073	-0.719833868	-0.693876501	-0.042998094	0.120254913	0.01097854	0
792	1715450469	0.019249619	0.002810438	-0.719773736	-0.693936108	-0.042234639	0.148522371	-0.026945853	0
795	1715500470	0.019230388	0.003083644	-0.719971262	-0.693730542	-0.032609332	0.090033045	-0.01397659	0
798	1715550471	0.019163008	0.003372367	-0.720092684	-0.693605027	-0.013951706	0.097213923	0.018566763	0
800	1715583805	0.019016488	0.003479423	-0.720220389	-0.693475925	-0.022094859	0.112439909	0.039314499	0
803	1715633806	0.0189952	0.003531852	-0.720247589	-0.693447993	-0.018910067	0.08938838	0.01487027	0
806	1715683807	0.019032738	0.003308062	-0.720094157	-0.693607394	-0.048705149	0.08111507	0.053617532	0
808	1715717141	0.019066906	0.003087043	-0.720050449	-0.693652849	-0.01699504	0.085926995	0.027492797	0
811	1715767142	0.01912423	0.002744524	-0.719863538	-0.693846682	-0.063606953	0.114571329	0.0317977	0
815	1715833810	0.019083649	0.002394019	-0.720120056	-0.693582863	-0.021929084	0.06895323	-0.033319616	0
818	1715883811	0.019157136	0.00230729	-0.720150103	-0.693549933	-0.111845077	0.092908713	-0.026008519	0
821	1715933812	0.019157976	0.002408423	-0.720072789	-0.693629837	-0.089453559	0.138675972	-0.029023641	0
823	1715967146	0.01909119	0.002606022	-0.720057834	-0.693646488	-0.080300457	0.080823551	-0.051473924	0
826	1716017147	0.018455322	0.002747357	-0.71994236	-0.693783	-0.077557019	0.099886193	0.031501957	0
829	1716067148	0.017468257	0.002907819	-0.720082642	-0.693662305	-0.013759921	0.083318668	-0.0312475	0
831	1716100482	0.016885252	0.003025217	-0.719922076	-0.693842879	-0.071298131	0.071629207	0.018510395	0
834	1716150483	0.015544818	0.003139674	-0.719842118	-0.693956646	-0.000966235	0.146743963	-0.02844183	0
837	1716200484	0.01426012	0.003332137	-0.719636424	-0.694196632	0.054168982	0.106061232	0.029251373	0
840	1716250485	0.013513574	0.003825779	-0.71952004	-0.694329647	-0.032800378	0.11471907	0.05727119	0
844	1716317153	0.01293935	0.004672188	-0.719997153	-0.693840647	-0.079662356	0.186289808	0.096150347	0
846	1716350487	0.012855823	0.005020679	-0.720413436	-0.693407529	-0.168326611	0.162342524	0.16751931	0
849	1716400488	0.012839867	0.005256246	-0.720885197	-0.692915609	-0.122537983	0.130942679	0.147543904	0
852	1716450489	0.013076643	0.005307499	-0.721299084	-0.692479938	-0.102343012	0.154841334	0.109092492	0
854	1716483823	0.013331026	0.005252266	-0.721645353	-0.692114645	-0.097788123	0.12749037	0.034708421	0
857	1716533824	0.013802155	0.005100372	-0.721947549	-0.691791314	-0.057334888	0.114559671	-0.002049352	0
860	1716583825	0.014163089	0.005002049	-0.72262576	-0.69107626	0.007276829	0.108841973	-0.046912674	0
862	1716617159	0.01446049	0.005033638	-0.72297963	-0.690699653	-0.054827931	0.087014698	-0.043715209	0
865	1716667160	0.014795123	0.005063395	-0.723381525	-0.690271422	-0.07771424	0.107556743	-0.029804999	0
868	1716717161	0.015121443	0.005190308	-0.723594549	-0.690040094	-0.080181567	0.097993729	0.00163402	0
871	1716767162	0.015018803	0.005278196	-0.723903735	-0.689717304	-0.056830462	0.106311681	-0.068276165	0
873	1716800496	0.015012771	0.005350003	-0.724067915	-0.689544522	-0.020470402	0.110805244	-0.047558484	0
876	1716850497	0.015075726	0.005677042	-0.723981443	-0.689631325	-0.042620023	0.06625806	-0.027760819	0
879	1716900498	0.014742113	0.005850797	-0.723970496	-0.689648576	-0.02596029	0.103460355	0.055402797	0
881	1716933832	0.014582569	0.005908046	-0.724108743	-0.689506325	-0.009977615	0.080011654	0.008195146	0
884	1716983833	0.014417747	0.005974314	-0.723891367	-0.689737432	-0.061931817	0.124012078	0.033879485	0
887	1717033834	0.013824161	0.005798081	-0.724253201	-0.689371146	-0.008694127	0.132192894	0.01503082	0
889	1717067168	0.013553774	0.005659365	-0.724262239	-0.689368172	-0.044020053	0.106971561	-0.003176199	0
892	1717117169	0.01323719	0.005416674	-0.724158519	-0.689485225	-0.003331659	0.118216385	0.01949065	0
895	1717167170	0.012883771	0.005222361	-0.72437381	-0.689267233	-0.031230845	0.098362438	-0.003958749	0
898	1717217171	0.012675294	0.00512837	-0.724467862	-0.689172949	-0.051808466	0.131904947	0.060791925	0
900	1717250505	0.012519785	0.005118994	-0.724710186	-0.688921039	-0.047751225	0.130540289	0.010890776	0
903	1717300506	0.012535839	0.005195182	-0.725038169	-0.68857499	-0.078777846	0.092980402	-0.022864674	0
906	1717350507	0.012598221	0.005237078	-0.725325519	-0.68827084	-0.048076957	0.112324708	-0.021126309	0
908	1717383841	0.012710599	0.005292436	-0.725415833	-0.688173161	-0.053565198	0.130591751	-0.007773314	0
911	1717433842	0.012959336	0.005426875	-0.725428882	-0.68815372	-0.028134585	0.09420922	-0.019001491	0
914	1717483843	0.012970704	0.005521132	-0.725627876	-0.687942921	-0.055325834	0.088116827	-0.038570443	0
916	1717517177	0.01292622	0.005636419	-0.725705594	-0.687860839	-0.018738871	0.117025897	-0.020311469	0
919	1717567178	0.012958922	0.005926269	-0.725585048	-0.687984944	-0.068863279	0.103670809	0.045581307	0
923	1717633846	0.012808836	0.006210924	-0.725557684	-0.688014103	-0.005213114	0.12052569	0.062608222	0
926	1717683847	0.012732391	0.006272262	-0.725453206	-0.688125127	-0.050141999	0.119962454	0.010637553	0
929	1717733848	0.012471411	0.006208517	-0.725682364	-0.687888817	-0.012602371	0.098363886	-0.028771848	0
931	1717767182	0.012535418	0.006084082	-0.72530306	-0.688288688	-0.008407676	0.133507389	0.138082076	0
934	1717817183	0.01245796	0.005699502	-0.724992254	-0.688620757	-0.05155723	0.107181329	0.054364838	0
937	1717867184	0.012457528	0.005292944	-0.724538623	-0.689101283	-0.041981182	0.139504331	-0.005709024	0
939	1717900518	0.012309261	0.005042927	-0.724472235	-0.689175618	-0.018425183	0.170346571	0.009118722	0
942	1717950519	0.012365156	0.004880049	-0.724236186	-0.689423843	-0.040620215	0.115555512	0.011023061	0
945	1718000520	0.012393341	0.004700598	-0.724068025	-0.689601193	-0.106075473	0.117753943	0.019479181	0
948	1718050521	0.012354789	0.004542895	-0.723908319	-0.68977059	-0.090480016	0.133595936	0.028948687	0
952	1718117189	0.012283813	0.004409063	-0.724040359	-0.689634125	-0.049806317	0.106285719	-0.010336254	0
954	1718150523	0.012301293	0.004364043	-0.723966908	-0.689711207	-0.037859375	0.070857914	-0.005940983	0
957	1718200524	0.012361157	0.004309292	-0.723835018	-0.689848895	-0.020807508	0.086814558	-0.071132849	0
960	1718250525	0.012480271	0.004201881	-0.723565794	-0.690129792	-0.016696992	0.084980881	-0.030549812	0
962	1718283859	0.012416301	0.00401871	-0.723341278	-0.690367352	-0.063507334	0.089041545	0.040643226	0
965	1718333860	0.011997969	0.003725419	-0.723438555	-0.690274458	-0.020091437	0.083936754	-0.066626909	0
968	1718383861	0.011535365	0.003412543	-0.723391969	-0.690332782	-0.022581233	0.135424066	-0.003800554	0
970	1718417195	0.01128021	0.003175627	-0.723943776	-0.689759437	-0.109701495	0.193661758	0.177424142	0
973	1718467196	0.010661727	0.002386714	-0.726721768	-0.686845035	-0.47012187	0.214710987	0.709633346	0
976	1718517197	0.010228916	0.000669848	-0.730987814	-0.682313518	-0.313192117	0.252771813	0.516611473	0
980	1718583865	0.013881271	-0.001588887	-0.73690455	-0.675852403	-0.214960549	0.258374058	0.420028714	0
983	1718633866	0.018464294	-0.003353674	-0.74206134	-0.670069243	-0.247548424	0.378672259	0.511859469	0
985	1718667200	0.021737073	-0.004893106	-0.746925258	-0.664534586	-0.361958612	0.576392308	0.777297318	0
988	1718717201	0.028041022	-0.007740466	-0.756193592	-0.65370103	-0.621330207	0.828609859	0.973079563	0
991	1718767202	0.038496083	-0.010940432	-0.765437581	-0.642264484	-0.657375718	1.067070445	1.036171409	0
993	1718800536	0.048161106	-0.012867041	-0.772302597	-0.63329586	-0.786954533	1.052416013	0.898907995	0
996	1718850537	0.06613889	-0.015937598	-0.780841994	-0.621013221	-1.128429441	1.330871252	1.099650875	0
999	1718900538	0.088869565	-0.018475582	-0.789103257	-0.607516998	-0.836554769	1.580598425	0.609712491	0
1002	1718950539	0.119406481	-0.019468414	-0.795264878	-0.594068049	-0.585321127	1.644770717	0.267677967	0
1004	1718983873	0.142932799	-0.019429184	-0.798894098	-0.583918609	-0.188846553	1.711909422	0.135616414	0
1007	1719033874	0.17974485	-0.019063077	-0.805650703	-0.564141235	-0.047665283	1.394598449	-0.187585131	0
1010	1719083875	0.216448212	-0.020883464	-0.809759586	-0.544980242	0.204697065	1.201004788	-0.58035092	0
1012	1719117209	0.241244972	-0.02216358	-0.812353833	-0.5304629	0.239126619	0.864108285	-0.967481021	0
1015	1719167210	0.279032305	-0.025117967	-0.81358831	-0.509493986	0.210825228	0.434560793	-0.989893707	0
1018	1719217211	0.314438894	-0.028619311	-0.814001483	-0.487555845	0.031406031	0.34818516	-0.92173101	0
1020	1719250545	0.336189308	-0.030947808	-0.814561705	-0.471707761	-0.055305453	0.340838295	-1.119851373	0
1023	1719300546	0.369075483	-0.033170194	-0.814489532	-0.446418894	0.185430734	-0.178846065	-1.2319629	0
1026	1719350547	0.402474041	-0.036175324	-0.811388598	-0.422320418	0.137138189	-0.308990136	-1.021559919	0
1029	1719400548	0.433705956	-0.038276789	-0.80810409	-0.39673897	0.242633893	-0.592169699	-0.804749657	0
1031	1719433882	0.452734107	-0.039024352	-0.805968995	-0.379371727	0.137953759	-0.750824	-0.730892354	0
1034	1719483883	0.480041657	-0.03797681	-0.802745197	-0.351735581	0.479469569	-1.315350084	-0.492965596	0
1037	1719533884	0.50623068	-0.037956971	-0.796725816	-0.32789898	0.626839784	-1.123964799	-0.136380504	0
1039	1719567218	0.521639776	-0.038160285	-0.792561734	-0.313499019	0.691211358	-1.158380888	-0.125281995	0
1042	1719617219	0.540248067	-0.038622736	-0.787546378	-0.293957503	0.727094247	-0.915552664	0.129407179	0
1045	1719667220	0.555509799	-0.040096396	-0.78274441	-0.27769107	0.766945291	-1.014137056	0.3268432	0
1047	1719700554	0.564490725	-0.043006082	-0.778769987	-0.270218441	0.593885912	-0.900940471	0.280595019	0
1050	1719750555	0.575483796	-0.046769893	-0.773696981	-0.260814033	0.385095301	-0.73929487	0.459749527	0
1053	1719800556	0.583826752	-0.049254046	-0.769920566	-0.252868909	0.217206546	-0.473159562	0.271825394	0
1056	1719850557	0.591043294	-0.050354682	-0.766726628	-0.245484231	0.172028637	-0.400516311	0.315332323	0
1060	1719917225	0.600419221	-0.05125787	-0.761860394	-0.237567106	0.328715957	-0.411524036	0.479270954	0
1062	1719950559	0.60504061	-0.052065341	-0.758867335	-0.235234836	0.224021003	-0.332142705	0.252680332	0
1065	1720000560	0.610061388	-0.052957942	-0.755478473	-0.232965313	0.398091447	-0.212866008	0.216423446	0
1068	1720050561	0.614399991	-0.053792003	-0.752550672	-0.230838813	0.480908639	-0.041827192	0.106696908	0
1070	1720083895	0.61733271	-0.053566463	-0.750822271	-0.228685102	0.582099787	-0.063543691	0.143802915	0
1073	1720133896	0.621816072	-0.053430197	-0.748018396	-0.22573982	0.64861453	-0.265140368	0.291586988	0
1076	1720183897	0.624210641	-0.055958661	-0.745857723	-0.225667811	0.56788905	-0.010298002	0.044091556	0
1078	1720217231	0.624587922	-0.056742371	-0.74586901	-0.224387279	0.626542026	-0.056223247	0.042435226	0
1081	1720267232	0.623674654	-0.05963241	-0.746580841	-0.223810076	0.426021339	-0.011164914	-0.051971866	0
1084	1720317233	0.622030288	-0.061297171	-0.748508076	-0.221487329	0.200838464	0.061083869	0.16652226	0
1088	1720383901	0.619749325	-0.064307446	-0.750745003	-0.21944764	-0.028677737	-0.132098543	0.350772479	0
1091	1720433902	0.618215715	-0.067294688	-0.751693929	-0.219629215	0.018507999	-0.274452278	0.436996592	0
1093	1720467236	0.617063357	-0.069558416	-0.752042761	-0.220966345	-0.202293819	-0.144749745	0.381944842	0
1096	1720517237	0.615407407	-0.070046684	-0.752988527	-0.222205903	-0.201249484	-0.234845756	0.420832292	0
1099	1720567238	0.613514996	-0.069875979	-0.753898685	-0.224395788	-0.113232815	-0.095745252	0.251322762	0
1101	1720600572	0.612146489	-0.070137538	-0.754405421	-0.22634015	-0.258074108	0.043702642	0.10506354	0
1104	1720650573	0.609872469	-0.070182376	-0.755621017	-0.22840071	-0.043025816	0.067858171	0.012558815	0
1107	1720700574	0.608177433	-0.070417064	-0.756588539	-0.22964196	-0.054004357	0.142304454	-0.117341447	0
1109	1720733908	0.607838501	-0.070440494	-0.756840421	-0.229702135	0.037908821	0.059857622	-0.030551996	0
1112	1720783909	0.607595703	-0.069616357	-0.757375904	-0.228829118	0.194438	-0.046088641	0.10403446	0
1116	1720850577	0.60575732	-0.068281742	-0.759507457	-0.227033248	0.147805407	0.002009878	0.202565857	0
1119	1720900578	0.603739413	-0.06731643	-0.761524728	-0.225936514	-0.051386381	0.017482701	0.098870108	0
1122	1720950579	0.602064309	-0.065708477	-0.763449429	-0.224378993	-0.208533058	0.024150274	0.214871307	0
1124	1720983913	0.601244511	-0.065261871	-0.764204796	-0.22413602	-0.199434301	0.023559707	0.081394132	0
1127	1721033914	0.600601082	-0.06552061	-0.764601979	-0.224430843	-0.350503632	0.111226105	0.115983793	0
1130	1721083915	0.60069685	-0.066545977	-0.764331216	-0.22479484	-0.300674663	0.157426089	0.076212067	0
1132	1721117249	0.601366351	-0.06725918	-0.763783999	-0.224652436	-0.376096387	0.165219807	0.085240039	0
1135	1721167250	0.60309013	-0.067720245	-0.7626621	-0.223702444	-0.203136614	-0.036953472	0.157338097	0
1138	1721217251	0.605762922	-0.068317604	-0.760649773	-0.223149974	-0.133169669	-0.080108712	0.137372379	0
1141	1721267252	0.608433892	-0.067453379	-0.758984676	-0.221811865	-0.099584006	-0.121045075	0.276970436	0
1143	1721300586	0.609669125	-0.066124813	-0.758436937	-0.220690914	0.016752703	-0.161507529	0.161264303	0
1146	1721350587	0.611239549	-0.06376899	-0.757860884	-0.219012811	0.09334235	-0.163225421	0.215131152	0
1149	1721400588	0.612224745	-0.060660075	-0.757630549	-0.217938449	0.194201539	-0.144583272	0.32137548	0
1151	1721433922	0.612586672	-0.058692505	-0.757581963	-0.217628876	0.176128338	-0.159450044	0.206557806	0
1154	1721483923	0.612979124	-0.057029032	-0.757156298	-0.218445927	0.196662517	-0.047469453	0.200187728	0
1157	1721533924	0.6125509	-0.054942843	-0.757610974	-0.218605334	0.161783958	-0.006375855	0.06641351	0
1159	1721567258	0.611835055	-0.053766817	-0.758277102	-0.218592844	0.034252846	0.045902787	0.096756895	0
1162	1721617259	0.610993458	-0.052970382	-0.758959206	-0.218773986	-0.051796167	0.135700246	0.135603656	0
1165	1721667260	0.610460742	-0.052938207	-0.759248677	-0.219263939	-0.125565006	0.063317863	0.086608297	0
1168	1721717261	0.610148219	-0.05309837	-0.759388316	-0.219611246	-0.146720585	0.049967808	0.086346547	0
1170	1721750595	0.610091099	-0.053700517	-0.759240289	-0.220134704	-0.209175139	0.040819522	0.104762178	0
1173	1721800596	0.610400639	-0.053877828	-0.759053441	-0.219877495	-0.093734062	-0.015884625	0.128231168	0
1176	1721850597	0.611181746	-0.054087566	-0.758438935	-0.219776683	0.035519503	-0.084459048	0.183472656	0
1178	1721883931	0.611590456	-0.054185934	-0.758067137	-0.219898193	0.088033819	-0.080873367	0.129681788	0
1181	1721933932	0.611708316	-0.053827622	-0.758009259	-0.219857877	0.1368536	-0.092297732	0.132433503	0
1184	1721983933	0.61114132	-0.053533147	-0.758462344	-0.219943997	0.046586224	0.021681581	0.232558133	0
1186	1722017267	0.610658685	-0.053829788	-0.758680922	-0.220457669	0.01256242	-0.022679273	0.108559577	0
1189	1722067268	0.610300235	-0.054295289	-0.758714608	-0.221218869	-0.127845767	0.05805627	0.159372364	0
1192	1722117269	0.610247326	-0.055108926	-0.758357873	-0.222383777	-0.103798045	0.035560616	0.080800961	0
1196	1722183937	0.610484792	-0.055676874	-0.757833532	-0.223375787	-0.045968185	0.044933754	0.147588214	0
1199	1722233938	0.610553858	-0.055900423	-0.757647474	-0.223762002	0.041617952	0.001243226	0.068098829	0
1201	1722267272	0.610534555	-0.05606814	-0.757659926	-0.223730545	0.079695035	0.00462962	0.095777917	0
1204	1722317273	0.610060913	-0.056807527	-0.757968712	-0.223790122	0.026233384	0.042687521	0.036663801	0
1207	1722367274	0.6094287	-0.057398644	-0.758564278	-0.223343438	-0.014858713	0.027660283	0.057990288	0
1209	1722400608	0.609081885	-0.058014593	-0.758848856	-0.223163567	-0.063296702	0.018897173	0.098403995	0
1212	1722450609	0.608723287	-0.059480866	-0.758998021	-0.22324872	-0.120076386	0.021134373	0.076614817	0
1215	1722500610	0.608748425	-0.060764726	-0.758887063	-0.223211622	-0.159831204	-0.013077997	0.166569236	0
1217	1722533944	0.608916596	-0.061399516	-0.758722756	-0.223137756	-0.111399558	-0.070439509	0.22953339	0
1220	1722583945	0.609242217	-0.06226469	-0.75835731	-0.223251472	-0.034528612	-0.139130563	0.275851375	0
1224	1722650613	0.609334163	-0.063181855	-0.758071662	-0.223712508	-0.044988506	-0.050734704	0.27729082	0
1227	1722700614	0.609197818	-0.063893319	-0.757973827	-0.224212711	-0.037402043	-0.070446255	0.197546421	0
1230	1722750615	0.608889463	-0.064368182	-0.758063404	-0.224611298	-0.108541961	-0.025559028	0.150770861	0
1234	1722817283	0.608815271	-0.065383075	-0.757736794	-0.225619082	-0.130958089	0.001437394	0.15674049	0
1236	1722850617	0.609081922	-0.066047811	-0.757246291	-0.226351392	-0.134004219	0.006385137	0.137454427	0
1239	1722900618	0.609580534	-0.066292185	-0.756671955	-0.226857823	-0.052755209	-0.027859616	0.240738606	0
1242	1722950619	0.610187618	-0.066446493	-0.755994095	-0.227439801	0.007535327	-0.07367068	0.278571527	0
1244	1722983953	0.610469529	-0.066696355	-0.755533564	-0.228139396	0.038293854	-0.015182202	0.121053849	0
1247	1723033954	0.610740126	-0.06687741	-0.755025975	-0.229040798	0.023699276	0.00299805	0.063903286	0
1250	1723083955	0.610847973	-0.066538413	-0.754925715	-0.229182367	0.051155884	0.016789444	0.051689862	0
1254	1723150623	0.610871953	-0.066664194	-0.754796526	-0.229507183	0.051810761	-0.002559727	0.098449753	0
1257	1723200624	0.610806855	-0.067100541	-0.754711703	-0.229832002	0.056023197	-0.02175439	0.070606553	0
1259	1723233958	0.610618784	-0.067331033	-0.754798831	-0.229978167	0.014190366	0.017489149	0.081641924	0
1262	1723283959	0.610178987	-0.067729972	-0.755098018	-0.230046164	0.009275593	0.029385087	0.073139188	0
1265	1723333960	0.609852141	-0.067828641	-0.755448546	-0.229732748	-0.057042691	0.047456505	0.082115377	0
1267	1723367294	0.609739008	-0.068152758	-0.755562568	-0.22956208	-0.039600669	0.039492843	0.122954221	0
1270	1723417295	0.609764464	-0.068463692	-0.755627876	-0.229186681	0.006483845	-0.058529291	0.2028212	0
1273	1723467296	0.609815388	-0.069049911	-0.755493981	-0.229316695	-0.01384178	-0.092532775	0.170236001	0
1276	1723517297	0.609675708	-0.069032943	-0.755617212	-0.229287184	-0.005216528	-0.07551185	0.179350202	0
1278	1723550631	0.609431839	-0.068650302	-0.75587318	-0.229206686	-0.016246575	-0.047602596	0.153775743	0
1281	1723600632	0.609080277	-0.068278217	-0.756147335	-0.229348011	-0.016499915	-0.019741315	0.11217104	0
1284	1723650633	0.608724139	-0.068111351	-0.756440504	-0.229376396	-0.021803502	-0.01313188	0.112320612	0
1286	1723683967	0.608368067	-0.068122033	-0.75676787	-0.229238031	-0.048834169	0.040008836	0.125876307	0
1289	1723733968	0.607942078	-0.068780508	-0.757028181	-0.229312024	-0.079180615	0.019313907	0.138762525	0
1292	1723783969	0.608044227	-0.069584319	-0.756812044	-0.229512028	-0.101186335	0.000159865	0.210405695	0
1294	1723817303	0.608182608	-0.070425637	-0.756479152	-0.229985735	-0.101180282	-0.029589	0.182666104	0
1297	1723867304	0.608361079	-0.071510438	-0.755986371	-0.23079788	-0.051522151	-0.065811401	0.189484642	0
1300	1723917305	0.60849437	-0.072275538	-0.755541185	-0.23166434	-0.025577148	-0.086047347	0.197681023	0
1303	1723967306	0.608527007	-0.072788172	-0.75516394	-0.232646056	-0.02904613	-0.063185823	0.217822981	0
1305	1724000640	0.608394555	-0.073208849	-0.754980364	-0.233454878	0.008646383	-0.09370092	0.178224718	0
1308	1724050641	0.608025258	-0.073806212	-0.754816327	-0.234755704	-0.032015892	-0.0461926	0.141751065	0
1311	1724100642	0.607489647	-0.07393385	-0.754982165	-0.235567495	-0.080058095	0.017713519	0.207807534	0
1313	1724133976	0.607120357	-0.074294109	-0.755014801	-0.236300463	-0.09974888	0.033408024	0.07236016	0
1316	1724183977	0.606974833	-0.074394757	-0.754980541	-0.236751674	-0.123574064	0.007656232	0.124772212	0
1319	1724233978	0.607049981	-0.07497582	-0.75456974	-0.237683516	-0.081084399	0.013424462	0.109962974	0
1321	1724267312	0.607270671	-0.075336927	-0.754183974	-0.238229328	-0.007606261	-0.029103453	0.104724263	0
1324	1724317313	0.607482345	-0.075815363	-0.753724669	-0.238990284	0.008854099	-0.065584764	0.142666548	0
1327	1724367314	0.607435174	-0.076189565	-0.753524159	-0.239622625	0.076381071	-0.070496351	0.120463182	0
1330	1724417315	0.607109265	-0.076719167	-0.753467831	-0.240455271	0.050173585	-0.057753566	0.125966561	0
1334	1724483983	0.606068709	-0.077206389	-0.753992793	-0.241277355	-0.0359489	-0.03281384	0.153866341	0
1336	1724517317	0.605523631	-0.0774192	-0.75428461	-0.241665319	-0.033676004	-0.001352194	0.082669913	0
1339	1724567318	0.604909255	-0.077664503	-0.754653837	-0.241972321	-0.159744521	0.030672846	0.082073159	0
1342	1724617319	0.604603857	-0.078074	-0.754782993	-0.242200866	-0.077492499	-0.008179549	0.141117649	0
1344	1724650653	0.60450208	-0.078504656	-0.754709572	-0.242544258	-0.082229017	0.016459619	0.145616797	0
1347	1724700654	0.604408992	-0.078992928	-0.754612592	-0.242919173	-0.023790625	0.002143802	0.10764198	0
1351	1724767322	0.604315741	-0.079559782	-0.754510996	-0.24328149	-0.030255128	-0.036734719	0.151776168	0
1354	1724817323	0.604161679	-0.079960008	-0.754485323	-0.243612314	-0.046421821	-0.027329014	0.08971353	0
1357	1724867324	0.603977676	-0.080122987	-0.754518415	-0.243912349	-0.030196567	-0.060327382	0.219774256	0
1359	1724900658	0.603845386	-0.080454675	-0.754424595	-0.244420388	0.006752151	-0.073808112	0.145823793	0
1363	1724967326	0.603521402	-0.080768628	-0.75433222	-0.24540018	-0.036301806	-0.041084736	0.119885832	0
1366	1725017327	0.603213019	-0.081043792	-0.754274821	-0.246242668	-0.039290387	-0.03733387	0.118428941	0
1369	1725067328	0.602990092	-0.081518201	-0.754060066	-0.247287584	-0.024796586	-0.027949475	0.073159857	0
1371	1725100662	0.602905274	-0.081654792	-0.753954453	-0.247770879	-0.021817403	-0.01022828	0.13823328	0
1374	1725150663	0.602665738	-0.081761422	-0.753972591	-0.248262784	-0.035995192	-0.009437861	0.122201785	0
1377	1725200664	0.602254689	-0.081904074	-0.754183269	-0.248573146	-0.040383931	-0.009243083	0.086457035	0
1380	1725250665	0.602037985	-0.082026734	-0.754334892	-0.248597568	-0.076861315	-0.026752603	0.148597546	0
1382	1725283999	0.602002046	-0.082436158	-0.754248819	-0.248810239	-0.038458147	-0.043735797	0.144116914	0
1385	1725334000	0.601907142	-0.082941714	-0.754158293	-0.249146008	-0.064717018	-0.040811713	0.099941434	0
1388	1725384001	0.601765627	-0.083119126	-0.754210997	-0.249269157	-0.085018196	-0.032350757	0.104225785	0
1392	1725450669	0.601698625	-0.083208945	-0.754230171	-0.249342906	-0.065867915	-0.064980434	0.13198133	0
1394	1725484003	0.601641409	-0.083250309	-0.754231173	-0.249464102	-0.037264153	-0.04247437	0.103575156	0
1397	1725534004	0.601533756	-0.083054221	-0.754362808	-0.24939104	0.007902566	-0.039834814	0.094643072	0
1400	1725584005	0.601312341	-0.082809363	-0.754601838	-0.249283259	-0.05055823	-0.049413854	0.09507294	0
1402	1725617339	0.601121793	-0.082658565	-0.754792707	-0.249215009	-0.094156027	0.011439755	0.145659541	0
1405	1725667340	0.600870952	-0.08286823	-0.754933985	-0.249322349	-0.072275267	-0.01550241	0.062188452	0
1408	1725717341	0.600863909	-0.082910734	-0.754985929	-0.249167856	-0.123362887	-0.027077233	0.083824969	0
1411	1725767342	0.601022276	-0.082831182	-0.75495754	-0.248898238	-0.06299912	-0.044004341	0.134156209	0
1413	1725800676	0.601238445	-0.082870961	-0.754816937	-0.248789323	-0.097976323	-0.009446262	0.114687272	0
1416	1725850677	0.601573324	-0.083015053	-0.754551431	-0.248737161	-0.067725335	-0.035120918	0.128219029	0
1419	1725900678	0.601883339	-0.083081541	-0.754345909	-0.24858832	0.01398929	-0.086153287	0.128396624	0
1421	1725934012	0.602117926	-0.08316495	-0.754173994	-0.248513946	-0.028854411	-0.045569226	0.153703088	0
1424	1725984013	0.6023123	-0.083034492	-0.754142386	-0.248182248	-0.079995339	-0.01967523	0.160550367	0
1427	1726034014	0.602520989	-0.082753254	-0.754185177	-0.247639001	-0.082260258	-0.01246762	0.119459158	0
1429	1726067348	0.602836454	-0.082600047	-0.754046404	-0.247344825	-0.078548912	-0.053465659	0.197011312	0
1432	1726117349	0.603657435	-0.082525314	-0.753456148	-0.247166154	-0.074019899	-0.043454584	0.162745356	0
1435	1726167350	0.604473117	-0.082349769	-0.752856744	-0.247057664	-0.037332381	-0.045136008	0.140068854	0
1438	1726217351	0.60513063	-0.081936353	-0.752402551	-0.246969139	0.001343504	-0.085772123	0.176561329	0
1440	1726250685	0.605539717	-0.081709057	-0.752087501	-0.247001361	0.038267602	-0.054302041	0.099640372	0
1443	1726300686	0.606117845	-0.081261437	-0.751691076	-0.24693777	-0.05038367	-0.026172552	0.146992707	0
1446	1726350687	0.606590852	-0.080929857	-0.751291708	-0.247100518	-0.04155768	-0.044215971	0.090052257	0
1450	1726417355	0.60775166	-0.080328696	-0.750364697	-0.247261082	-0.070849134	-0.016385686	0.068616614	0
1452	1726450689	0.608749491	-0.079594332	-0.749738213	-0.246944147	-0.091345055	-0.030438411	0.059378639	0
1455	1726500690	0.610436691	-0.078661162	-0.748553133	-0.246673215	-0.09293778	-0.008247062	0.094634879	0
1458	1726550691	0.611984369	-0.077633024	-0.747536372	-0.246247068	-0.025680364	-0.018183496	0.105777808	0
1460	1726584025	0.613176143	-0.076713209	-0.746802948	-0.24579556	-0.002903962	-0.059664895	0.024275763	0
1463	1726634026	0.616292879	-0.073735937	-0.745222604	-0.243699344	-0.104754	-0.139385829	0.109485217	0
1467	1726700694	0.62436587	-0.067444221	-0.740341625	-0.239818297	-0.228640186	0.099161546	-0.17220262	0
1470	1726750695	0.63454476	-0.059285232	-0.734493288	-0.233147632	-0.400312891	0.062857498	-0.082362082	0
1474	1726817363	0.65350263	-0.052368787	-0.719943605	-0.227756511	-0.589611035	-0.143191915	0.054640774	0
1477	1726867364	0.671687779	-0.047496494	-0.704066751	-0.225542945	-0.457433368	-0.360814798	0.099458421	0
1479	1726900698	0.685608303	-0.043146119	-0.691428523	-0.223620804	-0.413882623	-0.223187277	-0.003691412	0
1482	1726950699	0.708151546	-0.035050507	-0.669940638	-0.220164467	-0.234883483	-0.384199242	0.023536803	0
1485	1727000700	0.732394899	-0.025485122	-0.645278395	-0.215786962	-0.110954581	-0.453544075	-0.12207682	0
1487	1727034034	0.749683332	-0.016469592	-0.627002056	-0.211121	-0.032181648	-0.378839243	-0.202009162	0
1490	1727084035	0.775440277	-0.002303911	-0.598040584	-0.202569811	-0.070224345	-0.262990531	-0.238103179	0
1493	1727134036	0.800442003	0.012905471	-0.567470818	-0.192621182	0.070578353	-0.252590402	-0.272272696	0
1496	1727184037	0.824658647	0.026632375	-0.534549828	-0.182989931	0.132233706	-0.338288963	-0.263962054	0
1498	1727217371	0.840009804	0.034898775	-0.511566992	-0.177383253	0.224776201	-0.228950591	-0.121872136	0
1502	1727284039	0.867826994	0.050202418	-0.46520995	-0.167139846	0.417599145	0.013591491	-0.180661202	0
1505	1727334040	0.885620797	0.060397592	-0.431740173	-0.160088592	0.6794292	0.024529348	-0.202331092	0
1508	1727384041	0.900485204	0.072360091	-0.401017751	-0.151905162	0.640419694	0.122998318	-0.383474037	0
1510	1727417375	0.908909435	0.08213231	-0.382126934	-0.14531665	0.820879272	0.03944509	-0.347768551	0
1513	1727467376	0.919773103	0.097320617	-0.355664583	-0.134345977	0.36290491	0.178116052	-0.378272219	0
1516	1727517377	0.928985263	0.113081631	-0.330435955	-0.122519412	0.251861897	0.175249601	-0.164679651	0
1519	1727567378	0.937297494	0.127650221	-0.304806438	-0.110778447	0.130898875	0.082002612	-0.164288365	0
1521	1727600712	0.942630532	0.135071564	-0.287047489	-0.103957166	0.046953946	0.24572531	-0.059365619	0
1524	1727650713	0.949797716	0.14464384	-0.260658333	-0.094972062	0.271144313	0.140876063	-0.237207852	0
1528	1727717381	0.958749846	0.146804742	-0.227020488	-0.087799767	0.033405601	0.426340647	0.04846954	0
1532	1727784049	0.965630401	0.14782159	-0.196085311	-0.085189534	0.237734942	0.409759114	0.508370299	0
1535	1727834050	0.968963831	0.15073497	-0.177352916	-0.083270684	0.157483959	0.323252955	0.255930369	0
1537	1727867384	0.970657262	0.152812219	-0.166990067	-0.08116171	0.53434752	0.114169668	0.104029023	0
1540	1727917385	0.972982403	0.153821298	-0.154095231	-0.076804374	0.447674077	0.295504243	-0.000690527	0
1543	1727967386	0.974819889	0.153138721	-0.144943275	-0.072568334	0.149976976	0.415306552	0.102611977	0
1547	1728034054	0.975933788	0.152929363	-0.139044894	-0.069515248	0.253292662	0.403319029	0.566652595	0
1551	1728100722	0.976366263	0.150043866	-0.138769467	-0.07027655	0.309596607	0.238577359	0.217214422	0
1554	1728150723	0.976732033	0.145334289	-0.140250497	-0.07212682	0.163040517	0.237789001	-0.319556214	0
1558	1728217391	0.976314365	0.144219041	-0.143526636	-0.073561083	0.33555455	0.062243707	-0.384284837	0
1560	1728250725	0.976314536	0.142383214	-0.145675689	-0.07290775	0.251882281	0.019134783	-0.320821603	0
1563	1728300726	0.976333824	0.140534297	-0.148210714	-0.071105267	-0.032132694	0.085043925	-0.183697514	0
1566	1728350727	0.97622949	0.140651911	-0.149550767	-0.069480866	0.094772742	0.104331011	0.027085163	0
1568	1728384061	0.976325973	0.140064406	-0.149905568	-0.06854107	-0.037084133	0.09190903	-0.001559348	0
1571	1728434062	0.976312314	0.140707316	-0.149871623	-0.067484917	0.22036278	0.016254131	0.007806027	0
1574	1728484063	0.976533837	0.13939284	-0.150134058	-0.066415861	0.016499001	0.150460273	-0.08056833	0
1577	1728534064	0.976459847	0.139867292	-0.15061958	-0.065399166	0.291401076	0.053414236	-0.059800549	0
1579	1728567398	0.976451994	0.139397378	-0.15139063	-0.064736011	0.170162362	0.152450937	-6.13E-05	0
1582	1728617399	0.976335983	0.138793076	-0.152971609	-0.06406416	0.200179914	0.147616164	0.020879766	0
1585	1728667400	0.976074463	0.138804651	-0.154686141	-0.063907043	0.213266539	0.05248276	-0.051953806	0
1587	1728700734	0.975915503	0.138467577	-0.155924478	-0.064056376	0.235211208	0.029159027	-0.063009541	0
1590	1728750735	0.975724416	0.137400449	-0.157726639	-0.064848183	0.069867591	0.076717445	-0.191195435	0
1593	1728800736	0.975240672	0.138674337	-0.15893842	-0.066435215	0.309164168	-0.012375873	-0.151721757	0
1595	1728834070	0.97513932	0.137859986	-0.159831326	-0.067467603	0.128311522	0.074697224	-0.172184106	0
1598	1728884071	0.974962161	0.137131221	-0.160966429	-0.068801323	0.173561111	-0.011431329	-0.148600822	0
1602	1728950739	0.974822984	0.136471289	-0.16202252	-0.069602017	0.086318024	0.027904576	-0.099361449	0
1605	1729000740	0.974721041	0.136636409	-0.162477887	-0.069644248	0.098410147	0.027519852	-0.083001108	0
1608	1729050741	0.97463451	0.137033806	-0.162651705	-0.069668717	0.020408814	0.099063356	-0.129055302	0
1610	1729084075	0.974567091	0.137563969	-0.162545615	-0.069814482	0.179022602	0.042593767	-0.142388656	0
1613	1729134076	0.974672873	0.136824954	-0.16234719	-0.070250359	0.083417606	0.124612569	-0.205811109	0
1617	1729200744	0.974700853	0.13682247	-0.161813719	-0.071092755	0.16996263	0.154362702	-0.146048772	0
1620	1729250745	0.974715583	0.136706025	-0.161545991	-0.071720908	0.236406174	0.120843692	-0.126419714	0
1622	1729284079	0.974671124	0.136675703	-0.161698124	-0.072039359	0.147923426	0.151230076	-0.134390394	0
1625	1729334080	0.974561791	0.136699915	-0.162118488	-0.072526171	0.116355986	0.169678314	-0.096631492	0
1628	1729384081	0.974446935	0.136706983	-0.162563069	-0.073059019	0.175582673	0.130801607	-0.085996403	0
1631	1729434082	0.974302625	0.13680531	-0.1630257	-0.073765319	0.111162131	0.145997998	-0.121981448	0
1633	1729467416	0.97417706	0.136999652	-0.163402906	-0.07422696	0.196772119	0.092868738	-0.130788358	0
1636	1729517417	0.974006046	0.136825255	-0.164197076	-0.075035932	0.092688043	0.144955205	-0.149500105	0
1639	1729567418	0.973807796	0.136602268	-0.165153912	-0.075910359	0.118316157	0.158139259	-0.056689968	0
1641	1729600752	0.973714282	0.136284692	-0.165759448	-0.076359578	0.08557545	0.086547339	-0.039874699	0
1645	1729667420	0.973587483	0.135359028	-0.166959426	-0.077005827	0.052310328	0.084450553	-0.015461654	0
1648	1729717421	0.973504246	0.134960419	-0.167540857	-0.077493415	0.075698709	0.049841193	-0.062337884	0
1651	1729767422	0.973566018	0.133926271	-0.167890133	-0.077755168	0.060776974	0.078792362	-0.121758367	0
1654	1729817423	0.973582457	0.133522866	-0.168108389	-0.077771545	0.08101017	0.120857713	-0.202990301	0
1656	1729850757	0.97350885	0.133838681	-0.168322539	-0.077686873	0.141195375	0.070038579	-0.202891359	0
1659	1729900758	0.973412006	0.133974019	-0.168967263	-0.077266382	0.165140162	0.088740692	-0.110549267	0
1662	1729950759	0.973456832	0.133044552	-0.169594748	-0.076932212	0.073383825	0.125194894	-0.100717537	0
1664	1729984093	0.973435691	0.132717939	-0.169956114	-0.076966373	0.086921517	0.050784679	-0.078601549	0
1667	1730034094	0.97337323	0.13254744	-0.170421502	-0.077021049	0.114018341	0.074634358	-0.052887275	0
1670	1730084095	0.973372251	0.13204573	-0.170846853	-0.07695283	0.177873808	0.056454115	-0.100571806	0
1674	1730150763	0.973264895	0.131731959	-0.171712199	-0.076922402	0.184035426	0.058604882	-0.152096227	0
1677	1730200764	0.973130355	0.131775745	-0.172519216	-0.076743634	0.12811043	0.035602861	-0.167261323	0
1679	1730234098	0.972991026	0.132086467	-0.17315617	-0.076541287	0.211796914	0.082374941	-0.098255861	0
1682	1730284099	0.972770708	0.132989779	-0.173748679	-0.076434709	0.077207563	0.082989595	-0.104884931	0
1685	1730334100	0.972718837	0.132843159	-0.173993179	-0.076792788	0.017218592	0.085903322	-0.084920303	0
1687	1730367434	0.972673184	0.133040278	-0.173947327	-0.07713293	0.109668391	0.017241378	-0.107359363	0
1690	1730417435	0.972634443	0.133257163	-0.173910978	-0.077328788	0.10085298	0.083180079	-0.097852136	0
1693	1730467436	0.972612039	0.133426407	-0.173987525	-0.077146338	0.078670984	0.100228803	-0.149859606	0
1695	1730500770	0.972554497	0.133718279	-0.174132881	-0.077038373	0.088308531	0.104796569	-0.128641804	0
1698	1730550771	0.972542038	0.133717642	-0.174232754	-0.076970923	0.013824233	0.111372392	-0.106523739	0
1701	1730600772	0.972524301	0.133977597	-0.174159292	-0.07690922	0.051312541	0.043398171	-0.110656335	0
1703	1730634106	0.972567306	0.133650183	-0.174188788	-0.076868265	0.073892456	0.095058527	-0.096230823	0
1706	1730684107	0.972642162	0.133256283	-0.174144321	-0.076705555	0.106681727	0.05196479	-0.126643824	0
1709	1730734108	0.97273678	0.132590334	-0.17422006	-0.07648745	0.068975822	0.035326844	-0.163566338	0
1712	1730784109	0.972775599	0.132201727	-0.17434087	-0.076391095	0.167317241	0.105924977	-0.109472748	0
1714	1730817443	0.972792795	0.1320712	-0.174338794	-0.076402621	0.129411089	0.019550145	-0.121440659	0
1717	1730867444	0.972827016	0.131617749	-0.174489883	-0.076404484	0.120592312	0.075132639	-0.160277261	0
1720	1730917445	0.972773381	0.131759614	-0.174704408	-0.076352622	0.163103148	0.060189165	-0.159409839	0
1722	1730950779	0.97271046	0.13199837	-0.174879322	-0.076341425	0.149247789	0.062846451	-0.174434588	0
1725	1731000780	0.972575727	0.132398247	-0.175254797	-0.076504345	0.144514084	0.058840948	-0.113804409	0
1728	1731050781	0.972384972	0.132935389	-0.175632821	-0.077128207	0.113754647	0.088856633	-0.078371796	0
1730	1731084115	0.972325358	0.132828933	-0.175794151	-0.07769356	0.105853336	0.054152184	-0.082250803	0
1733	1731134116	0.972211825	0.133018721	-0.175994574	-0.078333244	0.094224966	0.076365508	-0.087717924	0
1736	1731184117	0.972178402	0.132955108	-0.1760809	-0.07866136	0.10307984	0.063285422	-0.178099838	0
1739	1731234118	0.972027896	0.133706452	-0.176208935	-0.078960534	0.229950158	0.020963702	-0.166113786	0
1741	1731267452	0.971975045	0.133594175	-0.176435729	-0.079294019	0.108110732	0.106803399	-0.173291698	0
1744	1731317453	0.971758655	0.13399111	-0.176925923	-0.080179281	0.167478181	0.083260234	-0.104933191	0
1747	1731367454	0.971545823	0.134213219	-0.177494549	-0.081124657	0.091506172	0.083923937	-0.078576774	0
1749	1731400788	0.971380921	0.134535813	-0.177908534	-0.081656447	0.094698537	0.056954001	-0.05016017	0
1753	1731467456	0.971097821	0.135408283	-0.178480539	-0.082330526	0.122635293	0.012096979	-0.122932932	0
1756	1731517457	0.97102328	0.13545158	-0.178795017	-0.082456059	0.005635959	0.077795763	-0.137209689	0
1759	1731567458	0.970944033	0.135916949	-0.178787017	-0.082640612	0.07140482	0.096094254	-0.071874215	0
1762	1731617459	0.970926972	0.135768435	-0.178735047	-0.083195738	0.040337318	0.103393741	-0.076886903	0
1764	1731650793	0.970878924	0.135824027	-0.178797955	-0.083529876	0.124220113	0.068891641	-0.095023468	0
1767	1731700794	0.970861255	0.135405454	-0.179179955	-0.08359623	0.076402609	0.105332764	-0.175531939	0
1770	1731750795	0.970836532	0.135244259	-0.17959488	-0.083253212	0.123882647	0.04783485	-0.160408415	0
1772	1731784129	0.970863518	0.134880183	-0.179769074	-0.083153148	0.108527448	0.100651551	-0.110813593	0
1775	1731834130	0.970895898	0.134481905	-0.179795368	-0.083363053	0.068538828	0.099297895	-0.094750517	0
1778	1731884131	0.9708582	0.134380968	-0.179954982	-0.083620067	0.144808506	0.022458763	-0.051916372	0
1782	1731950799	0.970818474	0.134180099	-0.180360856	-0.083529358	0.120634741	0.053946761	-0.071790592	0
1785	1732000800	0.970803814	0.134187924	-0.18053574	-0.083309078	0.096274965	0.072100013	-0.176486959	0
1787	1732034134	0.970813373	0.13423177	-0.180489958	-0.083226203	0.080329477	0.073656643	-0.180339122	0
1790	1732084135	0.970805553	0.134723989	-0.180256106	-0.083028682	0.112621395	0.057305733	-0.127590695	0
1793	1732134136	0.970826415	0.135012045	-0.180087667	-0.08268163	0.076663614	0.077691687	-0.113426166	0
1795	1732167470	0.970848958	0.135063685	-0.180011608	-0.082498011	0.069236895	0.078747774	-0.09351156	0
1798	1732217471	0.970820949	0.135204414	-0.180060503	-0.082490402	0.069716084	0.067758557	-0.172493615	0
1801	1732267472	0.970839814	0.135043409	-0.180023055	-0.082613753	0.060682228	0.090328115	-0.201474153	0
1805	1732334140	0.970793467	0.135280685	-0.179723223	-0.083419085	0.152703937	0.052528051	-0.12665956	0
1807	1732367474	0.97080807	0.135135784	-0.179510196	-0.08394105	0.071468942	0.05060997	-0.102075047	0
1811	1732434142	0.970760674	0.135228141	-0.179473732	-0.084417082	0.068114007	0.056030094	-0.103127796	0
1814	1732484143	0.970675644	0.135585062	-0.179801806	-0.084123697	0.097549844	0.010834035	-0.180047605	0
1817	1732534144	0.970624637	0.135836996	-0.180067006	-0.083737676	0.082223487	-0.006919664	-0.202835791	0
1820	1732584145	0.970630583	0.136189504	-0.179860093	-0.083540636	0.068127132	0.074362064	-0.152049158	0
1822	1732617479	0.970658882	0.136241672	-0.179648582	-0.083581862	0.120443518	0.064189964	-0.172909637	0
1825	1732667480	0.970684417	0.136331936	-0.179338272	-0.083804239	0.099642703	0.070016233	-0.081537015	0
1828	1732717481	0.970694512	0.13619085	-0.179325638	-0.083943629	0.039111581	0.102472255	-0.095293018	0
1830	1732750815	0.970647544	0.136311557	-0.179485957	-0.083948173	0.087270611	0.05561245	-0.113687976	0
1833	1732800816	0.9705971	0.13623921	-0.179859116	-0.083850138	0.066425074	0.073829915	-0.134959796	0
1836	1732850817	0.970584156	0.135840431	-0.180180555	-0.083956783	0.09861402	0.060376959	-0.199078516	0
1838	1732884151	0.970586049	0.135625265	-0.180241854	-0.084150949	0.044016484	0.072457105	-0.174488048	0
1841	1732934152	0.970566891	0.135521951	-0.180380763	-0.084240671	0.088509592	0.050030786	-0.137177509	0
1844	1732984153	0.970553598	0.135212452	-0.180718058	-0.084168219	0.033495915	0.077847595	-0.094926416	0
1847	1733034154	0.970521574	0.134901274	-0.181169214	-0.084066857	0.124530288	0.02294116	-0.224616416	0
1849	1733067488	0.970478047	0.134748661	-0.181437965	-0.084234338	0.074124875	0.069401842	-0.23672568	0
1852	1733117489	0.970355909	0.134876195	-0.181592448	-0.08509997	0.126444348	0.041828685	-0.134851024	0
1855	1733167490	0.97032724	0.134252812	-0.18162678	-0.086330422	0.097567243	0.019309971	-0.086208521	0
1857	1733200824	0.970245013	0.134279764	-0.181704646	-0.087045856	0.087099147	0.019878847	-0.007367137	0
1860	1733250825	0.970190599	0.13419857	-0.18182213	-0.0875309	0.050023865	0.031112251	-0.080349368	0
1863	1733300826	0.970136862	0.134641947	-0.18188206	-0.087320858	0.097543671	0.0018289	-0.111047033	0
1865	1733334160	0.970191506	0.13450762	-0.181884029	-0.086915719	0.030508807	0.0487848	-0.134223679	0
1868	1733384161	0.97022659	0.134974117	-0.181656113	-0.086275188	0.097894134	0.07267525	-0.090938731	0
1871	1733434162	0.970318464	0.134846392	-0.181360661	-0.086063002	0.043615524	0.098473447	-0.154333528	0
1874	1733484163	0.97031873	0.134794671	-0.181227444	-0.086420898	0.091793064	0.059283636	-0.136968801	0
1876	1733517497	0.970282332	0.13478481	-0.181357165	-0.086572687	0.143628539	0.074111618	-0.144493718	0
1879	1733567498	0.970198245	0.134966177	-0.181767408	-0.086371902	0.083652598	0.072198719	-0.143225016	0
1883	1733634166	0.970081852	0.13512493	-0.182485553	-0.085915523	0.050046796	0.027435438	-0.12993362	0
1886	1733684167	0.970085024	0.135051562	-0.182625724	-0.085696944	0.014523329	0.036940953	-0.117804762	0
1888	1733717501	0.970139635	0.134829138	-0.182536883	-0.085618211	0.025399384	0.003826227	-0.131467558	0
1893	1733800836	0.970306877	0.134477228	-0.181856037	-0.085725263	0.069844683	0.081830781	-0.141215922	0
1895	1733834170	0.970367847	0.134313229	-0.181626915	-0.085777981	0.054529022	0.037124153	-0.131896554	0
1898	1733884171	0.970422467	0.134198178	-0.1813989	-0.085822631	0.105227985	0.029434166	-0.180669638	0
1901	1733934172	0.970496034	0.13396813	-0.181041234	-0.086104934	0.077681815	0.103943865	-0.130766026	0
1903	1733967506	0.970539683	0.133820228	-0.180749425	-0.086455285	0.109594956	-0.00789935	-0.116248113	0
1906	1734017507	0.970567728	0.133575164	-0.180550777	-0.086933175	0.039681109	0.008182831	-0.100379876	0
1909	1734067508	0.970554525	0.133720679	-0.180488155	-0.086986891	0.05600454	0.001951448	-0.145311488	0
1911	1734100842	0.970576474	0.133741347	-0.180438192	-0.086813701	0.004243067	-0.007325512	-0.164412578	0
1914	1734150843	0.970642805	0.133964117	-0.180093392	-0.086443799	0.064754223	0.022223662	-0.136231984	0
1917	1734200844	0.970750424	0.134043694	-0.179568345	-0.086203892	0.115330719	0.044824184	-0.157695897	0
1921	1734267512	0.970937133	0.133718699	-0.178857106	-0.086084424	0.104014525	0.059813524	-0.1386736	0
1924	1734317513	0.970990833	0.133496659	-0.178759779	-0.086025492	0.087967016	0.045380922	-0.170300465	0
1926	1734350847	0.971002844	0.133347003	-0.178860371	-0.085912866	0.096262284	0.061240046	-0.157307374	0
1929	1734400848	0.970940069	0.133602557	-0.179069702	-0.085789167	0.126445679	0.019613472	-0.166170727	0
1933	1734467516	0.970920833	0.133240707	-0.179260202	-0.086170935	0.102520646	0.044555211	-0.166779735	0
1936	1734517517	0.970885698	0.133138255	-0.17918923	-0.086869936	0.06153105	-0.002490231	-0.157848135	0
1938	1734550851	0.970857405	0.133117117	-0.179218032	-0.087158643	0.084829595	-0.003502308	-0.137705482	0
1941	1734600852	0.970770962	0.133544527	-0.179365568	-0.087164169	0.078477995	0.050005751	-0.16200624	0
1944	1734650853	0.970745677	0.133438248	-0.179750241	-0.08681541	0.020640547	0.076757269	-0.093454497	0
1946	1734684187	0.97071696	0.133435225	-0.179971497	-0.086682669	0.090879105	0.031486619	-0.152566821	0
1951	1734767522	0.970693286	0.133270756	-0.18001745	-0.087104347	0.140762758	0.027767231	-0.104183324	0
1953	1734800856	0.970679987	0.133274566	-0.179778861	-0.08773719	0.106991052	-0.009515295	-0.128306146	0
1956	1734850857	0.970638259	0.13332918	-0.179354553	-0.088975524	0.103163664	0.003585701	-0.194066128	0
1959	1734900858	0.970469344	0.134231835	-0.179147386	-0.089873699	0.069158773	0.04774423	-0.217119275	0
1961	1734934192	0.970356933	0.134681376	-0.179309294	-0.09009177	0.062736968	0.119371797	-0.181523849	0
1964	1734984193	0.970162512	0.135363158	-0.179801164	-0.090183462	-0.02577255	0.095916287	-0.101601734	0
1967	1735034194	0.969989456	0.135557641	-0.180338356	-0.090678871	0.010428199	0.073489246	-0.115234533	0
1969	1735067528	0.969945494	0.135390208	-0.180495483	-0.091085732	-0.025237152	0.052295151	-0.123189643	0
1972	1735117529	0.969951757	0.13507711	-0.180431327	-0.091609499	0.025888291	0.036507704	-0.085107046	0
1975	1735167530	0.969926078	0.135727522	-0.180059721	-0.091651182	0.105803785	-0.0315585	-0.099943808	0
1978	1735217531	0.969920209	0.13654821	-0.179797242	-0.091007283	0.111374621	0.08851176	-0.151146844	0
1980	1735250865	0.969915268	0.137062278	-0.179844171	-0.090190792	0.070204369	0.03428707	-0.198531752	0
1983	1735300866	0.969864204	0.137752953	-0.180246696	-0.088874507	0.032114287	0.110729517	-0.129259365	0
1986	1735350867	0.969800398	0.138283742	-0.180598263	-0.088028757	-0.011143255	0.124741572	-0.148225162	0
1988	1735384201	0.969766526	0.138341762	-0.180767489	-0.087963386	-0.03907291	0.12592406	-0.122414593	0
1991	1735434202	0.969803022	0.13774469	-0.180785445	-0.088459714	-0.007257244	0.104491202	-0.162799559	0
1994	1735484203	0.969789147	0.138047521	-0.180468678	-0.088785971	0.173603289	-0.063161075	-0.104411181	0
1996	1735517537	0.969722644	0.138737727	-0.180405076	-0.088565488	0.146094422	-0.040095554	-0.15321383	0
1999	1735567538	0.969552961	0.14038878	-0.180618601	-0.087378298	0.137229208	-0.017074772	-0.137282837	0
2002	1735617539	0.969248819	0.143123109	-0.181077666	-0.085342727	0.226733744	-0.019290606	-0.111308832	0
2005	1735667540	0.968792622	0.147136806	-0.18139953	-0.082980885	0.221382277	-0.149941201	-0.028837308	0
2007	1735700874	0.968349837	0.150748431	-0.181437827	-0.081570941	0.253679584	-0.118796593	-0.101325392	0
2010	1735750875	0.967698457	0.156443089	-0.180868598	-0.0798236	0.167940539	-0.12305429	-0.230743336	0
2013	1735800876	0.966882077	0.162799901	-0.18015606	-0.078606847	0.217307584	0.005987087	-0.275260864	0
2015	1735834210	0.966382383	0.166499883	-0.179851194	-0.077694451	0.059224496	0.065411994	-0.232712972	0
2018	1735884211	0.965420086	0.173297875	-0.1795834	-0.075377091	0.192785951	-0.070035386	-0.118866106	0
2021	1735934212	0.96449002	0.179921865	-0.179285573	-0.072414136	0.097486609	-0.113740766	-0.039477871	0
2023	1735967546	0.96373314	0.185373043	-0.178722894	-0.070095631	0.388351678	-0.406584804	0.10354288	0
2026	1736017547	0.962339781	0.194776716	-0.177840609	-0.065855099	0.467289791	-0.582897072	0.031370235	0
2032	1736117549	0.955117628	0.232596903	-0.176639842	-0.049470842	0.703494901	-1.12262218	-0.318116164	0
2034	1736150883	0.950418684	0.252855737	-0.176363373	-0.040795358	0.496059532	-0.874830081	-0.364544551	0
2037	1736200884	0.941332343	0.287253695	-0.175057741	-0.027083596	0.203332812	-0.774441078	-0.649243307	0
2040	1736250885	0.930841362	0.322683061	-0.170860861	-0.014716235	-0.13723802	-0.279210714	-0.545881786	0
2042	1736284219	0.922929265	0.346938921	-0.166662437	-0.007654382	-0.128161464	-0.481296443	-0.480836135	0
2045	1736334220	0.910590843	0.381530906	-0.158926357	0.000947227	-0.345246712	-0.165758289	-0.464203984	0
2048	1736384221	0.896879591	0.415684613	-0.150857495	0.007437624	-0.228100773	-0.057693112	-0.495376944	0
2050	1736417555	0.886779948	0.43860372	-0.145302151	0.011635566	-0.163341492	-0.054426309	-0.71936839	0
2053	1736467556	0.870386928	0.472532344	-0.13724095	0.017455691	-0.058491815	0.157129764	-0.528074186	0
2056	1736517557	0.852534541	0.506185044	-0.128473904	0.021354481	-0.115268225	0.23684216	-0.24222067	0
2063	1736634226	0.811542699	0.574508166	-0.105051706	0.017405577	-0.125451731	0.687153192	0.014104282	0
2065	1736667560	0.800115363	0.591583656	-0.098260751	0.013748046	-0.010140316	0.510058198	-0.125990603	0
2068	1736717561	0.782673461	0.61599183	-0.089029115	0.00708067	-0.470890358	0.07309037	0.58740328	0
2071	1736767562	0.765754299	0.63815431	-0.079871225	-0.00013056	-0.329072285	-0.230784521	0.256877738	0
2073	1736800896	0.755551813	0.650795363	-0.074797379	-0.003493639	-0.418623219	-0.023635133	0.259082721	0
2076	1736850897	0.742016819	0.666521528	-0.07171777	-0.00408101	-0.476105223	0.175904028	0.674543399	0
2079	1736900898	0.72554848	0.684672489	-0.06926955	-0.002171545	-0.164850174	0.303764814	0.529693082	0
2081	1736934232	0.718100063	0.692504044	-0.069068308	-0.000130575	-0.331718724	0.349907074	0.745076698	0
2084	1736984233	0.703847147	0.706988915	-0.068981382	0.002726939	-0.123600133	0.216188777	0.092361425	0
2087	1737034234	0.691407351	0.719054646	-0.069941782	0.004943597	0.173749659	0.102179073	0.405916197	0
2091	1737100902	0.678348256	0.731310206	-0.070696266	0.005573516	0.046489251	0.147996484	0.492432881	0
2095	1737167570	0.669251418	0.739625413	-0.071046427	0.003032011	-0.067883188	0.313689725	0.451202682	0
2098	1737217571	0.6615776	0.746436525	-0.071741507	0.000866113	0.041615418	0.302767173	0.026535394	0
2100	1737250905	0.656929967	0.750493087	-0.072132432	0.000240148	-0.08108281	0.119105172	0.142612862	0
2103	1737300906	0.649386628	0.757036318	-0.072060426	-0.000561587	-0.088652597	0.135847465	-0.019715673	0
2106	1737350907	0.641828625	0.763487688	-0.071695088	-0.001543136	0.023124727	0.106622942	0.035656948	0
2108	1737384241	0.637261496	0.767345893	-0.071232751	-0.001990252	-0.060396204	0.041445241	0.11711441	0
2111	1737434242	0.630604308	0.772852752	-0.070911896	-0.002886704	0.179221561	-0.075810662	0.143997374	0
2114	1737484243	0.624818451	0.777576859	-0.070429777	-0.003972146	-0.013692467	-0.058798431	0.143164695	0
2117	1737534244	0.619397451	0.781834506	-0.0711724	-0.004011576	0.080386442	0.062021481	-0.014839025	0
2119	1737567578	0.615619698	0.784723272	-0.072183646	-0.003360851	-0.093598843	0.248716992	0.319469753	0
2122	1737617579	0.610902229	0.788270957	-0.073633346	-0.002344379	0.010019962	0.181564225	0.357867551	0
2125	1737667580	0.607018162	0.791199575	-0.07433636	-0.002507729	0.08200664	0.146899252	0.025256275	0
2129	1737734248	0.604409216	0.792892864	-0.077478873	-0.002725842	-0.032258293	0.151413293	0.104456528	0
2131	1737767582	0.601890413	0.794503116	-0.080559259	-0.001713315	-0.02408656	0.223447933	-0.149373672	0
2134	1737817583	0.597648224	0.797100001	-0.086294247	0.001220836	-0.02411589	0.158372052	0.127574194	0
2137	1737867584	0.595082426	0.798571765	-0.090275144	0.003231317	-0.006903411	0.007805825	0.292762702	0
2140	1737917585	0.594256457	0.79907448	-0.091270488	0.002989596	-0.053299439	0.195104931	-0.013550364	0
2142	1737950919	0.594647364	0.798794425	-0.09119421	0.002365496	-0.032787442	0.211997994	-0.026354174	0
2145	1738000920	0.594575249	0.798804466	-0.091595342	0.001411199	-0.014814612	0.245634112	-0.266073114	0
2149	1738067588	0.592799769	0.799901167	-0.093514643	0.001252349	-0.016539699	0.212583943	-0.077340411	0
2152	1738117589	0.591987794	0.800363051	-0.094706392	0.000369785	0.005309068	0.183288771	0.16835551	0
2154	1738150923	0.590952227	0.801104695	-0.094901781	-0.000620788	0.059057109	0.176957397	-0.209194393	0
2157	1738200924	0.590690086	0.801294176	-0.094905497	-0.002411104	-0.025099626	0.073820393	-0.021318176	0
2160	1738250925	0.590699736	0.801292029	-0.094808706	-0.004026892	0.01260139	0.020538493	-0.061523145	0
2162	1738284259	0.590787862	0.801250774	-0.094564455	-0.004946103	-0.016005495	0.076836818	-0.056484199	0
2165	1738334260	0.590938927	0.801204784	-0.093962931	-0.005748605	-0.069301298	0.139987767	0.113529134	0
2168	1738384261	0.590905668	0.801296524	-0.09336933	-0.006044852	-0.000743169	0.229098351	0.137315039	0
2171	1738434262	0.591587251	0.800834639	-0.092989087	-0.006436965	-0.044365064	0.181466471	0.103421401	0
2175	1738500930	0.592104628	0.800447573	-0.092916627	-0.007892611	-0.001396083	0.142076446	0.035303131	0
2177	1738534264	0.592734028	0.799950877	-0.093073849	-0.00906779	0.054101729	0.140849294	0.047740121	0
2180	1738584265	0.593320809	0.799464222	-0.0933697	-0.010462996	-0.002519961	0.219166371	-0.020139699	0
2183	1738634266	0.593838441	0.798916498	-0.09469022	-0.01104976	0.034656128	0.207418735	-0.010528016	0
2185	1738667600	0.593979197	0.798677099	-0.09581853	-0.011064143	0.02165252	0.218876786	-0.024982155	0
2188	1738717601	0.594024843	0.798470475	-0.097257597	-0.010970273	-0.043594708	0.178534962	-0.023070892	0
2191	1738767602	0.59409028	0.798296924	-0.098289344	-0.010861149	0.057638348	0.084332169	-0.054141967	0
2194	1738817603	0.594507719	0.797900748	-0.098996077	-0.01071188	-0.009993863	0.118032685	-0.10525206	0
2196	1738850937	0.594873791	0.797577317	-0.099410917	-0.010633244	0.007013529	0.11493472	-0.095721965	0
2199	1738900938	0.595512706	0.797066957	-0.099659803	-0.010807757	0.001108624	0.166823936	-0.036806979	0
2204	1738984273	0.596321617	0.796433098	-0.099839345	-0.011267441	-0.048375395	0.23458953	-0.016067965	0
2207	1739034274	0.596722921	0.796078909	-0.100262923	-0.011290337	-0.004852448	0.202942624	-0.065221319	0
2210	1739084275	0.597084341	0.79580316	-0.10028773	-0.011401344	0.004349767	0.178024657	-0.103154447	0
2212	1739117609	0.597234524	0.795699835	-0.100174791	-0.011734866	0.056099205	0.153380656	-0.135652097	0
2215	1739167610	0.597770732	0.795295152	-0.100097612	-0.01249965	0.041784638	0.169417181	-0.069300008	0
2218	1739217611	0.597908212	0.795163058	-0.100180486	-0.013614384	0.058952076	0.183324271	-0.060751695	0
2221	1739267612	0.597688979	0.795230962	-0.100788134	-0.014742879	0.038787079	0.196047316	-0.008768862	0
2223	1739300946	0.597916164	0.794968175	-0.101427343	-0.015308685	-0.056324417	0.138923224	0.081576315	0
2226	1739350947	0.598162933	0.794689754	-0.102033172	-0.016078923	-0.114969449	0.146639051	-0.010750469	0
2229	1739400948	0.598294193	0.794596098	-0.101903504	-0.016636577	-0.125080129	0.146939937	-0.109496133	0
2233	1739467616	0.599163018	0.793994096	-0.101424035	-0.017035807	0.005197073	0.113738988	-0.028478603	0
2235	1739500950	0.599419249	0.793820094	-0.101278378	-0.016997447	0.005452355	0.097859947	-0.067316013	0
2238	1739550951	0.599816052	0.793526291	-0.101275681	-0.016732154	0.012058595	0.127249313	0.005954078	0
2241	1739600952	0.600519773	0.792994485	-0.101325904	-0.016395424	-0.012522582	0.221631689	0.120879052	0
2243	1739634286	0.601156594	0.792526418	-0.101204801	-0.016438185	-0.028152029	0.258960321	0.052126533	0
2246	1739684287	0.60229019	0.791699231	-0.100854184	-0.016949575	-0.017463528	0.241678852	-0.022930088	0
2249	1739734288	0.603425047	0.790877042	-0.10033471	-0.018018422	-0.029279866	0.203483865	-0.036212772	0
2252	1739784289	0.604520628	0.790024949	-0.100330012	-0.018689027	-0.007073671	0.094997126	-0.056035148	0
2254	1739817623	0.604293755	0.790159983	-0.100640281	-0.018649207	-0.035295669	0.143846099	-0.096122052	0
2258	1739884291	0.604127473	0.790176205	-0.101577317	-0.018265011	-0.045451241	0.109291585	-7.04E-05	0
2261	1739934292	0.604312231	0.789998591	-0.101886219	-0.018114966	-0.047365236	0.125235547	-0.009146971	0
2264	1739984293	0.604667639	0.789723373	-0.10195085	-0.017890329	-0.080056745	0.198871397	-0.075577314	0
2266	1740017627	0.604919042	0.789503232	-0.102239044	-0.017457862	-0.075581226	0.162893809	0.016482724	0
2269	1740067628	0.604799137	0.789556981	-0.102684845	-0.016540864	-0.080365884	0.195814348	-0.019927263	0
2272	1740117629	0.605116774	0.789332436	-0.102597406	-0.016179206	-0.025379985	0.201662072	0.006201957	0
2275	1740167630	0.606130454	0.788615609	-0.102070151	-0.016522057	-0.050910662	0.164358217	-0.037962779	0
2277	1740200964	0.606517828	0.788355109	-0.101730555	-0.016829724	-0.046303373	0.168152233	-0.050257725	0
2280	1740250965	0.607194872	0.787858477	-0.101511824	-0.016992862	-0.037388758	0.115077117	-0.004957776	0
2283	1740300966	0.607351914	0.787753005	-0.101390488	-0.016994852	-0.06414642	0.177833798	-0.076850189	0
2285	1740334300	0.607488053	0.787640929	-0.101437475	-0.01704321	-0.037966155	0.150370172	0.000665591	0
2288	1740384301	0.607631773	0.78753461	-0.101390635	-0.017111536	-0.047315608	0.1750851	0.058135937	0
2291	1740434302	0.607489704	0.787664618	-0.101227927	-0.017135245	-0.008770331	0.197563143	-0.059891211	0
2293	1740467636	0.607330716	0.78779239	-0.101209646	-0.017004672	-0.014582644	0.166361696	0.002533798	0
2296	1740517637	0.60702676	0.788036973	-0.101186412	-0.016659849	-0.003916721	0.140542585	0.002601185	0
2299	1740567638	0.606650884	0.788347584	-0.101023653	-0.016643697	-0.000820212	0.129662163	0.013057572	0
2302	1740617639	0.606801557	0.78822792	-0.101040552	-0.016715936	-0.052228348	0.125154153	0.085301979	0
2304	1740650973	0.606637333	0.788375503	-0.100867217	-0.016763586	-0.021695542	0.14925156	-0.002047875	0
2307	1740700974	0.606824737	0.788258515	-0.100640918	-0.016842112	-0.013286268	0.099561329	0.010725734	0
2310	1740750975	0.606962013	0.788195223	-0.10034838	-0.016601452	-0.024383537	0.102902384	-0.028799543	0
2315	1740834310	0.607044054	0.788186494	-0.100026955	-0.015942894	-0.007224598	0.171930037	-0.039036212	0
2318	1740884311	0.607055144	0.788187445	-0.100022814	-0.015493233	0.028452152	0.202141127	0.021656002	0
2320	1740917645	0.606895304	0.78830609	-0.100106634	-0.0151743	0.03043342	0.192802662	-0.034117987	0
2323	1740967646	0.60685454	0.788337289	-0.100153995	-0.014868189	-0.01143053	0.18604345	-0.013791839	0
2327	1741034314	0.607039431	0.788216749	-0.099976561	-0.014905449	-0.001667315	0.122343473	-0.027437556	0
2330	1741084315	0.607118571	0.788189625	-0.099675827	-0.015128973	0.013045249	0.177096686	-0.015325683	0
2333	1741134316	0.607024522	0.788257524	-0.099724307	-0.015045543	-0.025094497	0.245257185	-0.050418546	0
2335	1741167650	0.606914327	0.788325329	-0.099865179	-0.015004083	-0.037225679	0.215912909	0.030694083	0
2338	1741217651	0.606613918	0.78852747	-0.100065305	-0.015195957	0.002777072	0.21327438	-0.002109586	0
2341	1741267652	0.606714643	0.788442937	-0.100044216	-0.015691783	0.016837735	0.087932407	-0.014313758	0
2345	1741334320	0.607239249	0.788022207	-0.100023519	-0.016637046	-0.061036724	0.134022006	-0.011972855	0
2347	1741367654	0.607214288	0.788000099	-0.10034291	-0.016671909	-0.091716195	0.174768017	-0.063575181	0
2350	1741417655	0.606761712	0.788265136	-0.101102565	-0.016017861	-0.074731195	0.196435104	-0.066269372	0
2353	1741467656	0.606383466	0.788532543	-0.10139731	-0.015300543	-0.026369745	0.147877251	0.008113905	0
2356	1741517657	0.606376168	0.788573916	-0.101152521	-0.015076115	-0.047132484	0.128928856	-0.008991916	0
2358	1741550991	0.606393384	0.788604312	-0.100808089	-0.015100698	-0.026759365	0.199161946	-0.012310755	0
2361	1741600992	0.606530084	0.788541536	-0.100476727	-0.015097361	-0.023348174	0.206422516	0.03283084	0
2364	1741650993	0.606380752	0.788649269	-0.100563961	-0.014886338	-0.008130735	0.139941519	0.007611957	0
2366	1741684327	0.606359328	0.788645478	-0.100740793	-0.014763763	0.006718985	0.130790957	-0.02393495	0
2369	1741734328	0.606538679	0.788483245	-0.100941978	-0.014687408	-0.022244056	0.117510038	-0.006125806	0
2373	1741800996	0.606874116	0.788187898	-0.101230772	-0.014696132	-0.035840629	0.164849075	0.018023941	0
2376	1741850997	0.606932692	0.788144121	-0.10122378	-0.014673077	-0.055521345	0.185881279	0.022970545	0
2379	1741900998	0.607105427	0.7880327	-0.101067155	-0.014590887	-0.069127894	0.143362217	-0.006542524	0
2383	1741967666	0.607332424	0.787875194	-0.100995253	-0.014140894	-0.035950986	0.130692456	-0.01072346	0
2385	1742001000	0.60724619	0.787949123	-0.100981511	-0.013819484	-0.011838569	0.175089847	-0.095063064	0
2388	1742051001	0.607319559	0.787906932	-0.100925687	-0.013402437	0.01711577	0.19369713	-0.03460193	0
2391	1742101002	0.607301075	0.787954067	-0.100689247	-0.013246442	-0.020213626	0.222911393	-0.055772839	0
2393	1742134336	0.607364092	0.787912753	-0.100627145	-0.013286486	-0.053507155	0.238943104	-0.023532088	0
2396	1742184337	0.607109349	0.788110561	-0.100625089	-0.013212651	-0.027307165	0.199618515	-0.03642808	0
2399	1742234338	0.606784488	0.78834889	-0.100719901	-0.01319526	0.004911221	0.158177434	-0.026564757	0
2401	1742267672	0.606659205	0.788446807	-0.100696196	-0.013285979	-0.013334201	0.175338332	0.012465075	0
2404	1742317673	0.606486786	0.788600831	-0.100525478	-0.013309239	0.01588566	0.197815233	-0.014597585	0
2407	1742367674	0.606342547	0.788730342	-0.100367541	-0.013398519	0.004600999	0.197887508	-0.045725365	0
2410	1742417675	0.606389094	0.788715479	-0.1001646	-0.013682551	0.062522286	0.148876529	0.022478404	0
2412	1742451009	0.606350512	0.788756519	-0.100030417	-0.014004483	0.043866443	0.137047338	-0.051653701	0
2415	1742501010	0.606221878	0.788836484	-0.100102853	-0.014541497	0.024647612	0.16190639	0.010277057	0
2418	1742551011	0.606155741	0.788878743	-0.100127835	-0.014831171	0.046076201	0.138941163	0.025427986	0
2420	1742584345	0.606119938	0.788920536	-0.099981977	-0.015053694	-0.019984062	0.142627539	0.045915801	0
2423	1742634346	0.605990911	0.789028475	-0.099878962	-0.015273284	-0.009676589	0.159096369	0.025022921	0
2426	1742684347	0.605866808	0.789098313	-0.100063953	-0.015377554	-0.010158236	0.158223993	0.015615879	0
2428	1742717681	0.605874078	0.789055126	-0.100352711	-0.015425408	-0.027089208	0.192280968	0.044663442	0
2431	1742767682	0.605740112	0.789117174	-0.100672614	-0.015428144	-0.013221111	0.146714325	0.018608792	0
2434	1742817683	0.606033059	0.788855499	-0.100929332	-0.015626977	-0.00024137	0.145866999	0.011661039	0
2438	1742884351	0.606361951	0.788550695	-0.101296891	-0.015872185	-0.045115157	0.145560785	-0.05642437	0
2441	1742934352	0.606553831	0.788353242	-0.101696561	-0.015793251	-0.050504367	0.129667421	0.010031202	0
2443	1742967686	0.606722469	0.788193062	-0.101938558	-0.015750355	-0.042937063	0.154095108	0.016172415	0
2446	1743017687	0.60677745	0.788148527	-0.101984152	-0.01556464	-0.049933578	0.151876884	0.014512445	0
2449	1743067688	0.607005145	0.788002017	-0.101791174	-0.015366559	0.013448615	0.142230017	0.004850499	0
2451	1743101022	0.60694952	0.788081581	-0.101540604	-0.015139584	-0.015177828	0.163109409	-0.034617917	0
2455	1743167690	0.607086984	0.787998701	-0.101408401	-0.014824902	-0.015764691	0.164885124	0.035568665	0
2458	1743217691	0.607229422	0.787896552	-0.10135652	-0.014775242	0.027763296	0.214630892	0.021522133	0
2461	1743267692	0.607242475	0.787895733	-0.101279629	-0.014809718	0.027936633	0.245902719	-0.018760798	0
2464	1743317693	0.607276189	0.787833437	-0.101529366	-0.01502974	-0.014020371	0.165856399	0.014868648	0
2466	1743351027	0.607269082	0.787776183	-0.101963283	-0.01537649	-0.057541483	0.178868318	0.026294894	0
2469	1743401028	0.607030105	0.787854872	-0.102704463	-0.015841252	-0.093699151	0.119682187	0.098090945	0
2472	1743451029	0.605922884	0.788667263	-0.102975389	-0.016046065	-0.089475405	0.140269352	-0.0488988	0
2474	1743484363	0.605649755	0.788855509	-0.103134025	-0.016085196	-0.101410885	0.055190593	-0.05780206	0
2477	1743534364	0.605961638	0.788641692	-0.102924482	-0.016165547	-0.09199794	0.035896513	-0.014561139	0
2480	1743584365	0.606735116	0.788112334	-0.102446025	-0.016008108	-0.107495679	0.169860245	0.058114934	0
2484	1743651033	0.607063571	0.78792758	-0.102085288	-0.014917924	-0.098188316	0.166292899	0.045495405	0
2486	1743684367	0.607111987	0.787920248	-0.101934005	-0.014358842	-0.06262068	0.205473565	-0.0663653	0
2489	1743734368	0.607677131	0.787529018	-0.101657738	-0.013865602	-0.042052616	0.222413395	0.015561021	0
2493	1743801036	0.607877874	0.787389113	-0.101564918	-0.013690949	-0.012512782	0.27167794	-0.012621401	0
2496	1743851037	0.607701298	0.787527703	-0.10156802	-0.013534616	-0.037153997	0.199519774	-0.016264071	0
2499	1743901038	0.607618778	0.787589742	-0.101553059	-0.013740302	-0.001135896	0.146673778	-0.022967327	0
2501	1743934372	0.607628641	0.787577879	-0.101561055	-0.013923729	-0.059407019	0.161374027	-0.028229054	0
2504	1743984373	0.607125246	0.787949174	-0.10167643	-0.014033504	-0.103183541	0.158193973	-0.077532136	0
2507	1744034374	0.606690101	0.788318294	-0.101432318	-0.01388786	-0.050100402	0.13162441	-0.0153826	0
2509	1744067708	0.606686319	0.788353674	-0.101195299	-0.013773395	-0.072105781	0.115191174	0.042405409	0
2513	1744134376	0.606245981	0.788771355	-0.100629925	-0.013385712	-0.090037783	0.123356042	0.00737371	0
2516	1744184377	0.606050837	0.788977379	-0.100243421	-0.012974355	-0.015021299	0.172240335	0.064220744	0
2519	1744234378	0.605957079	0.789103427	-0.099884599	-0.012444576	-0.02690949	0.16454371	0.049781076	0
2522	1744284379	0.606348504	0.788850905	-0.099510453	-0.012385925	-0.037061282	0.168057594	0.077172882	0
2524	1744317713	0.606642091	0.788665634	-0.099188641	-0.012389677	-0.08184471	0.123660282	0.005513947	0
2528	1744384381	0.607236799	0.788263718	-0.09878793	-0.012030209	-0.103005903	0.05186504	-0.084030477	0
2531	1744434382	0.607878996	0.787861048	-0.098092134	-0.011663161	-0.143785945	-0.070059844	-0.140773199	0
2534	1744484383	0.609351572	0.786915762	-0.096596314	-0.011108467	-0.210706216	-0.122600567	-0.059653617	0
2536	1744517717	0.61012385	0.786492571	-0.095215975	-0.010594392	-0.195054514	-0.240289258	-0.196129793	0
2539	1744567718	0.612102611	0.785407832	-0.091389394	-0.010625883	-0.060404887	-0.945560228	0.001300744	0
2542	1744617719	0.617653521	0.781952532	-0.083107354	-0.012146339	0.00679135	-1.876822353	-0.246043477	0
2547	1744701054	0.627746769	0.77521925	-0.069775382	-0.010025189	-0.295310184	-1.105833689	-0.329696984	0
2550	1744751055	0.636049539	0.768989011	-0.063594679	-0.007252702	-0.341497287	-0.952634882	0.202837997	0
2553	1744801056	0.645733278	0.761552275	-0.054823153	-0.007815895	-0.495301874	-0.422551424	0.089548609	0
2555	1744834390	0.656212369	0.752943436	-0.048691826	-0.009519173	-0.55702633	-0.205033746	0.110648152	0
2558	1744884391	0.676501231	0.735244967	-0.039818866	-0.013243166	-0.81133927	-0.488171274	0.200475555	0
2561	1744934392	0.698880243	0.714259263	-0.032111408	-0.019208569	-0.822375433	-0.235242924	0.097970537	0
2563	1744967726	0.714473158	0.698686826	-0.028580583	-0.023408867	-0.746361429	-0.319227846	0.108965984	0
2566	1745017727	0.736903036	0.674933528	-0.024887833	-0.028622452	-0.440798961	0.182261088	0.091281807	0
2569	1745067728	0.761933084	0.646382211	-0.026370134	-0.03086468	-0.212984464	0.782703576	0.346790772	0
2572	1745117729	0.788259015	0.613586193	-0.032955069	-0.032766936	-0.138940714	1.336646653	0.196721039	0
2574	1745151063	0.803876938	0.592603091	-0.039011423	-0.032886989	0.168927095	1.422934598	0.164147813	0
2577	1745201064	0.825743421	0.560826651	-0.051629712	-0.030913491	-0.306335425	0.724566192	-0.098314247	0
2580	1745251065	0.843970574	0.530687841	-0.071277238	-0.031680293	0.006477093	-0.24856543	-0.081972987	0
2582	1745284399	0.854406963	0.510835887	-0.088764573	-0.034004253	0.323721756	0.56376736	-0.389674292	0
2585	1745334400	0.867683688	0.481826062	-0.116622758	-0.036983724	0.653094503	1.468581041	-0.914021845	0
2588	1745384401	0.879256686	0.452771517	-0.142972978	-0.038266979	0.826232106	1.369448405	-0.723280233	0
2590	1745417735	0.886941454	0.432255843	-0.158196224	-0.038258315	0.778657732	0.875181205	-0.668272546	0
2594	1745484403	0.901843504	0.388294854	-0.185787372	-0.03726194	0.4751821	0.348349029	-0.553390121	0
2599	1745567738	0.916118818	0.335391227	-0.21687947	-0.034674656	0.315237556	0.192332967	-0.501200949	0
2601	1745601072	0.920134181	0.31634353	-0.228371735	-0.033559053	0.303518709	-0.361293844	-0.26058288	0
2604	1745651073	0.923986433	0.292154703	-0.244830679	-0.030864874	-0.142475367	0.290583167	-0.520725032	0
2607	1745701074	0.925656644	0.276764938	-0.256757224	-0.025232399	0.303380166	0.0196914	-0.811188684	0
2609	1745734408	0.925692967	0.271790571	-0.262295035	-0.020584748	0.212221259	-0.075274715	-0.688839846	0
2612	1745784409	0.924724615	0.270418159	-0.267542743	-0.013389754	0.496340066	-0.151925206	-0.595461572	0
2615	1745834410	0.924224396	0.270153035	-0.269741243	-0.008140384	0.983491081	-0.475662313	0.060031309	0
2617	1745867744	0.925135433	0.266870595	-0.269941275	-0.006018657	0.628628422	-0.19486731	-0.486300789	0
2621	1745934412	0.92702575	0.264290266	-0.26601508	-0.003145128	0.262924165	-0.510560329	-0.046410739	0
2624	1745984413	0.927899104	0.264175753	-0.263082318	-0.001455618	0.2407791	0.042940621	-0.217382137	0
2628	1746051081	0.929257586	0.266684196	-0.255642494	0.002606439	0.226521565	0.11414552	0.002534206	0
2631	1746101082	0.930670693	0.267264003	-0.249764241	0.006311693	-0.030877776	-0.385599631	-0.008430179	0
2634	1746151083	0.930717058	0.267939798	-0.248809821	0.008227764	-0.082252643	-0.381628167	-0.0756975	0
2636	1746184417	0.930606618	0.268495514	-0.248595619	0.009038781	0.202969127	-0.090453437	-0.237687054	0
2639	1746234418	0.931545547	0.26693385	-0.246726814	0.009751546	0.464698929	0.194295771	-0.082658164	0
2642	1746284419	0.933510679	0.263581701	-0.242870622	0.009816284	0.42271875	0.220173975	0.027351175	0
2644	1746317753	0.934876279	0.261483463	-0.239872288	0.009696768	0.178053391	0.320037572	0.00843547	0
2647	1746367754	0.936787072	0.257668597	-0.236542231	0.009200513	0.056747806	0.1330428	0.080665533	0
2650	1746417755	0.9379136	0.255268599	-0.234678489	0.009056953	0.040076311	0.044557105	-0.13547372	0
2653	1746467756	0.938259049	0.254945249	-0.233647256	0.009046386	0.022634295	0.049464128	-0.205164802	0
2657	1746534424	0.938870404	0.25521476	-0.230859555	0.009573762	0.022230599	-0.072074702	-0.120286111	0
2659	1746567758	0.93907704	0.255402559	-0.229809236	0.009568729	0.089384265	-0.018833509	-0.219620736	0
2662	1746617759	0.939366233	0.256253694	-0.227676043	0.00942039	0.228974161	-0.132503828	-0.074440598	0
2665	1746667760	0.940222091	0.254713279	-0.225902704	0.008457744	-0.062416111	0.033492238	-0.109296758	0
2667	1746701094	0.940512177	0.254255696	-0.225228144	0.007947863	0.040608112	-0.072804133	-0.157911388	0
2670	1746751095	0.940770865	0.254260972	-0.224158491	0.007383	0.213318715	0.059302793	-0.137622224	0
2673	1746801096	0.941473388	0.253215186	-0.2224111	0.006575101	0.228347234	0.069819592	-0.0848368	0
2675	1746834430	0.94203757	0.252479799	-0.220863642	0.006198363	0.037507859	0.154760452	-0.139651561	0
2678	1746884431	0.942649753	0.252259701	-0.218500998	0.005813788	0.050210346	0.185812176	-0.199401076	0
2681	1746934432	0.9432345	0.25170964	-0.216623471	0.005020665	0.021108101	0.062157964	-0.141911197	0
2684	1746984433	0.943392633	0.25227439	-0.215291996	0.004162694	0.048929713	0.047664602	-0.041393766	0
2686	1747017767	0.943495855	0.252526712	-0.214551547	0.003669415	-0.035899278	0.066332062	-0.1192553	0
2689	1747067768	0.943467585	0.253307933	-0.213761594	0.003160433	0.00485998	0.003950963	-0.168860131	0
2692	1747117769	0.943459981	0.254352543	-0.212557518	0.00271095	0.182534816	0.021191445	-0.245135438	0
2694	1747151103	0.943829102	0.254032889	-0.211303566	0.00217272	0.198769814	0.062288883	-0.154685018	0
2697	1747201104	0.944502709	0.253540377	-0.208877163	0.001496966	0.094849725	-0.021930573	-0.130429216	0
2700	1747251105	0.944944785	0.253612009	-0.206783648	0.000907906	-0.033331672	0.071491139	-0.152424664	0
2702	1747284439	0.945099461	0.254003546	-0.205593202	0.000801808	0.039468266	0.035284739	-0.152553546	0
2705	1747334440	0.944962315	0.255988376	-0.203749382	0.001537317	0.149680591	0.118901823	-0.149355396	0
2708	1747384441	0.945192772	0.256695843	-0.201771152	0.002503927	0.105834938	0.161207331	0.181267562	0
2711	1747434442	0.945842452	0.256182536	-0.199349293	0.003524854	0.233693966	-0.039765836	-0.272983575	0
2713	1747467776	0.945828764	0.257043595	-0.19829593	0.003906865	0.069045056	-0.014594818	-0.250216406	0
2716	1747517777	0.945862913	0.25791078	-0.197007357	0.003671588	0.139909137	-0.181047479	-0.208468653	0
2719	1747567778	0.945975451	0.258748383	-0.195378493	0.002639272	0.116902818	-0.133558066	-0.100289007	0
2721	1747601112	0.946199099	0.258712152	-0.19435115	0.001708098	-0.043172675	-0.113661097	-0.128150261	0
2725	1747667780	0.946341092	0.259426671	-0.192707807	-0.000201833	-0.004301687	0.053291919	-0.20417746	0
2734	1747817783	0.949442285	0.250801437	-0.18879534	-0.00378227	0.051905042	0.041927509	-0.145186195	0
2738	1747884451	0.949339389	0.251851871	-0.187897425	-0.004462923	0.210703531	0.057131939	-0.106193895	0
2740	1747917785	0.949500775	0.251750699	-0.187207941	-0.004801012	0.204224288	0.046745587	-0.203223991	0
2744	1747984453	0.950293441	0.250254173	-0.1851342	-0.006368198	0.194965282	-0.058456924	-0.000639672	0
2747	1748034454	0.951192802	0.248084775	-0.183350007	-0.00830495	0.106676973	0.058671487	-0.179215272	0
2750	1748084455	0.952277811	0.24575665	-0.180733381	-0.010299765	0.134116899	-0.051448449	-0.175692111	0
2752	1748117789	0.952891435	0.244576565	-0.179006697	-0.011697008	0.021741663	0.057350755	-0.156665628	0
2756	1748184457	0.953536911	0.243637378	-0.176608127	-0.01475659	0.09320042	0.024473091	-0.081517568	0
2761	1748267792	0.954548509	0.241238543	-0.173968166	-0.019395539	0.110234365	-0.044986159	-0.248207542	0
2763	1748301126	0.955144314	0.239657506	-0.172613904	-0.0216347	0.057253285	0.168950738	-0.242385507	0
2767	1748367794	0.956451247	0.237355955	-0.168009158	-0.025220746	-0.238918161	0.251856431	-0.152358939	0
2771	1748434462	0.957338236	0.236592617	-0.163689117	-0.027079684	-0.296886707	0.196721605	-0.055756931	0
2774	1748484463	0.957941411	0.235908376	-0.161072892	-0.027404645	-0.137324607	0.018861565	0.006457407	0
2783	1748634466	0.958877343	0.236720132	-0.154682829	-0.024311367	0.113231048	0.133745567	-0.222883982	0
2789	1748734468	0.9594048	0.238548585	-0.148694528	-0.022955162	0.022996825	0.282438395	0.128274693	0
2794	1748817803	0.960346363	0.236791449	-0.14570645	-0.020839929	-0.116498198	0.47676746	0.083739677	0
2797	1748867804	0.960228389	0.236809472	-0.146735542	-0.018745531	0.081963354	0.323198052	0.022183571	0
2800	1748917805	0.960018602	0.236179044	-0.149318165	-0.016965515	0.097795443	0.264624824	-0.044104454	0
2804	1748984473	0.959822485	0.234402134	-0.153484925	-0.01545361	0.13845021	0.147356356	-0.145114795	0
2806	1749017807	0.95979696	0.233124327	-0.155610446	-0.015107347	0.04433671	0.085642148	-0.171913617	0
2810	1749084475	0.959346567	0.232238546	-0.159689524	-0.014787779	0.09502805	-0.01533985	-0.233808835	0
2814	1749151143	0.958946361	0.231845205	-0.162701128	-0.014071969	0.043708777	-0.013383867	-0.139916604	0
2817	1749201144	0.958579844	0.232225666	-0.164409207	-0.012866043	-0.04416981	0.129609997	-0.172693929	0
2821	1749267812	0.958092597	0.232895437	-0.166471266	-0.010276569	0.01492801	0.170977908	-0.130894623	0
2824	1749317813	0.957972803	0.232307717	-0.168088326	-0.008218739	0.022125382	0.058925608	-0.209547504	0
2828	1749384481	0.95746649	0.232390194	-0.170925143	-0.006108435	0.157777216	-0.001008691	-0.179856037	0
2831	1749434482	0.957053138	0.232482524	-0.173134042	-0.005076563	0.092273564	0.056460699	-0.229277455	0
2835	1749501150	0.956908333	0.231715695	-0.174961275	-0.004778134	0.048293579	0.005104905	-0.261683093	0
2837	1749534484	0.956919964	0.231329779	-0.175405721	-0.004852728	0.098129072	-0.131754815	-0.166340295	0
2840	1749584485	0.956808213	0.231235715	-0.176132445	-0.005044726	0.120842865	-0.118234173	-0.160849148	0
2843	1749634486	0.956515161	0.23179188	-0.176981611	-0.005364692	0.046786993	0.002177528	-0.180532337	0
2846	1749684487	0.956293447	0.232469004	-0.177281417	-0.005683761	0.07545351	0.033462398	-0.147940699	0
2848	1749717821	0.95636661	0.232240707	-0.177180806	-0.005841587	0.072674627	-0.017475271	-0.208942478	0
2851	1749767822	0.956474492	0.232141857	-0.176721292	-0.006024123	-0.007824285	0.020572691	-0.167602045	0
2855	1749834490	0.956617286	0.232111203	-0.175985735	-0.006064461	-0.06141065	0.041705135	-0.140373695	0
2859	1749901158	0.95682206	0.231934011	-0.175099379	-0.006194107	-0.104127335	0.026048457	-0.147418062	0
2862	1749951159	0.956981953	0.231857299	-0.174326308	-0.006170371	0.037422063	0.020315512	-0.190523555	0
2864	1749984493	0.95709303	0.231946647	-0.173600398	-0.006048749	0.010080982	-0.029600589	-0.188589147	0
2867	1750034494	0.957159083	0.232327644	-0.172728246	-0.005942186	0.058071924	0.035035552	-0.12782457	0
2870	1750084495	0.95725928	0.232525476	-0.171911137	-0.005756184	0.171135323	0.063221148	-0.080145688	0
2873	1750134496	0.957678261	0.231316805	-0.171211602	-0.005609978	0.092966843	0.346515685	-0.055587085	0
2875	1750167830	0.957761582	0.231673082	-0.17027323	-0.005230871	0.143324917	0.267712976	-0.045288828	0
2879	1750234498	0.958830432	0.228531308	-0.168505013	-0.004868768	0.081176982	0.246869328	-0.227120636	0
2883	1750301166	0.959590616	0.225313814	-0.168488854	-0.005571432	0.024680159	0.033321427	-0.133038538	0
2886	1750351167	0.959594871	0.224651343	-0.169308384	-0.006642956	0.040026223	0.05702298	-0.103257127	0
2889	1750401168	0.959489262	0.224281787	-0.170347215	-0.007737108	0.071193535	0.036337476	-0.196017348	0
2891	1750434502	0.959514199	0.22363873	-0.171017777	-0.008434476	0.008728929	0.008325123	-0.157993847	0
2894	1750484503	0.959352879	0.223745179	-0.171749936	-0.009061304	0.080035612	0.000529711	-0.100635557	0
2897	1750534504	0.959386362	0.223248702	-0.172198796	-0.009241229	0.003202931	0.110090909	-0.101833946	0
2900	1750584505	0.959601936	0.222385773	-0.172136284	-0.008819967	0.015514377	0.110650051	-0.141245508	0
2902	1750617839	0.959764105	0.221736646	-0.172089809	-0.008415468	0.029934233	0.112073156	-0.136239058	0
2905	1750667840	0.959864329	0.221360299	-0.172042299	-0.007844416	0.10683613	0.025551467	-0.150083846	0
2909	1750734508	0.959993587	0.220519181	-0.172412624	-0.007582321	0.13349477	0.065410418	-0.154132375	0
2912	1750784509	0.960072512	0.220223937	-0.172358584	-0.007396411	0.21107052	0.037291379	-0.132200209	0
2914	1750817843	0.960219196	0.219727324	-0.172172328	-0.007462492	0.101823491	0.041345455	-0.129681948	0
2917	1750867844	0.960208108	0.219962969	-0.171930405	-0.007524493	0.135806624	0.043081277	-0.101050652	0
2920	1750917845	0.960207313	0.219884485	-0.172021472	-0.007832212	0.150638749	-0.006821127	-0.097099197	0
2923	1750967846	0.960132059	0.21993451	-0.172353418	-0.008339056	0.122471923	0.08249388	-0.139901036	0
2925	1751001180	0.960008197	0.220309907	-0.172546293	-0.008693913	0.159589743	0.010540908	-0.08337611	0
2928	1751051181	0.95981808	0.220875761	-0.17283767	-0.009502159	0.123481931	-0.008185534	-0.12527603	0
2931	1751101182	0.959727484	0.22093122	-0.173208796	-0.010548247	0.039017147	0.022533725	-0.106894729	0
2933	1751134516	0.959665731	0.221051399	-0.173357545	-0.011185959	0.045312093	0.022267925	-0.190576963	0
2937	1751201184	0.959561533	0.221508255	-0.173272777	-0.012341116	0.027010112	0.021917879	-0.114903069	0
2940	1751251185	0.959558976	0.221630922	-0.17308309	-0.012982696	-0.05226841	0.036291455	-0.176957221	0
2943	1751301186	0.959538931	0.221983666	-0.172710224	-0.013396654	0.003201402	-0.032829309	-0.187310189	0
2945	1751334520	0.959481333	0.222373505	-0.172503095	-0.013721439	-0.01687709	0.039516046	-0.196939716	0
2948	1751384521	0.959383734	0.223105231	-0.172060441	-0.014216621	0.023226015	0.055911982	-0.131814664	0
2951	1751434522	0.959474904	0.223106392	-0.171505095	-0.014746134	0.056567355	0.088409665	-0.147267673	0
2954	1751484523	0.959587959	0.223046212	-0.170906636	-0.01523999	0.003444455	0.127647246	-0.074015153	0
2956	1751517857	0.95967725	0.222778137	-0.170720781	-0.015617068	0.087810077	0.158189627	-0.10741805	0
2959	1751567858	0.959679985	0.222846696	-0.170577131	-0.016034932	0.131681715	0.22223923	-0.105158395	0
2962	1751617859	0.960065767	0.220746651	-0.171056817	-0.016858339	0.013092269	0.244815161	-0.109549698	0
2966	1751684527	0.960154581	0.218616221	-0.173167866	-0.017972724	-0.01988688	0.064239246	-0.079285592	0
2968	1751717861	0.959938302	0.218176173	-0.174842491	-0.018647181	0.105393965	-0.01841658	-0.157059352	0
2971	1751767862	0.959581543	0.217492832	-0.177503902	-0.019811471	0.074428693	-0.022649711	-0.19543611	0
2975	1751834530	0.959238138	0.216959468	-0.179843439	-0.02114524	0.02680636	-0.086924399	-0.181449396	0
2978	1751884531	0.959177692	0.216090082	-0.18108188	-0.022194253	-0.007172594	-0.018430427	-0.202570792	0
2981	1751934532	0.959209129	0.215340057	-0.181719749	-0.022900631	-0.070919756	-0.036720695	-0.188947746	0
2983	1751967866	0.959208362	0.215118639	-0.181951283	-0.02317371	-0.055277733	-0.024736922	-0.130825534	0
2986	1752017867	0.959185747	0.214858485	-0.182376466	-0.023180987	-0.098524598	0.048019922	-0.165685892	0
2989	1752067868	0.959138307	0.215048311	-0.182441415	-0.022870537	0.050265261	0.046438193	-0.165233054	0
2991	1752101202	0.959171668	0.215116888	-0.182218181	-0.022604671	0.08251066	0.087503744	-0.159856712	0
2994	1752151203	0.959263303	0.214991875	-0.181904536	-0.02243098	0.059070093	0.077027911	-0.122462773	0
2997	1752201204	0.959225054	0.215235222	-0.181823367	-0.022391031	0.118438519	0.093017408	-0.106775042	0
2999	1752234538	0.959282067	0.214931571	-0.181866352	-0.0225159	0.079639463	0.10225534	-0.155532929	0
3002	1752284539	0.959304038	0.214637439	-0.182066723	-0.022764919	0.119740497	0.074100221	-0.086136885	0
3005	1752334540	0.959368371	0.213802119	-0.182646942	-0.023261063	0.081805944	0.135486382	-0.1507784	0
3008	1752384541	0.959411427	0.21299637	-0.183273772	-0.023937088	0.082860144	0.127851344	-0.045763757	0
3010	1752417875	0.959492381	0.212141372	-0.183768422	-0.024486237	0.032360398	0.068701537	-0.086337106	0
3013	1752467876	0.959389564	0.211689288	-0.184743304	-0.02508429	0.036989696	0.071895034	-0.161209468	0
3016	1752517877	0.959235961	0.211374678	-0.185874267	-0.025256141	-0.014242302	0.062247126	-0.15415566	0
3020	1752584545	0.958962351	0.211288671	-0.187393025	-0.025142808	-0.026903874	0.000647449	-0.168620876	0
3024	1752651213	0.958662414	0.211480701	-0.188752772	-0.024792741	0.035619478	-0.0260904	-0.21200262	0
3026	1752684547	0.958631129	0.211341032	-0.189101927	-0.024531361	-0.020678355	-0.03415556	-0.196202038	0
3029	1752734548	0.95862361	0.211326041	-0.189201043	-0.024187684	0.048456598	-0.011821535	-0.179783527	0
3032	1752784549	0.958713714	0.211381637	-0.188762272	-0.023550448	0.066847772	0.001251741	-0.151131374	0
3035	1752834550	0.958971291	0.210886377	-0.188089925	-0.022873109	0.038968375	-0.00946842	-0.062541714	0
3037	1752867884	0.959081651	0.210685382	-0.187818853	-0.022318953	0.053871378	0.039983922	-0.201343402	0
3040	1752917885	0.959112767	0.210858504	-0.187555868	-0.021545005	0.198785831	0.087349753	-0.08744738	0
3043	1752967886	0.959265497	0.210602607	-0.187122518	-0.021009806	0.188234281	0.087027694	-0.130360417	0
3045	1753001220	0.95935247	0.210273301	-0.187050943	-0.020974325	0.196174258	-0.022602011	-0.067150045	0
3049	1753067888	0.959348362	0.209879598	-0.187486878	-0.021211914	0.13728511	0.021369182	-0.124618815	0
3052	1753117889	0.959459233	0.208952681	-0.187899413	-0.021692562	0.05372292	0.014136536	-0.147277041	0
3055	1753167890	0.959626492	0.207841783	-0.188201599	-0.022337129	0.074659068	-0.027906237	-0.176593851	0
3057	1753201224	0.959596804	0.207822623	-0.188341054	-0.02261367	0.038841758	0.006219593	-0.206389667	0
3060	1753251225	0.959532818	0.208017615	-0.188403958	-0.023008497	0.009087426	0.032271841	-0.15565311	0
3064	1753317893	0.959343878	0.209082547	-0.188162584	-0.02320892	0.128064311	0.042503073	-0.191841725	0
3068	1753384561	0.959535905	0.209426186	-0.186819903	-0.023018309	0.001049401	0.058575536	-0.167814659	0
3071	1753434562	0.959489795	0.210338325	-0.186074388	-0.022659333	-0.036605266	-0.060271862	-0.088062452	0
3075	1753501230	0.959085986	0.211878941	-0.186429643	-0.022480543	0.099632543	0.020930591	-0.125556525	0
3078	1753551231	0.958945953	0.212308685	-0.186642741	-0.022631161	0.147088089	0.078793078	-0.235133544	0
3082	1753617899	0.959105211	0.211893105	-0.186210884	-0.023324088	0.076058186	0.092845466	-0.077123405	0
3084	1753651233	0.959325724	0.210922009	-0.186094298	-0.023978607	0.046683244	0.095936918	-0.056044187	0
3087	1753701234	0.959575967	0.209915876	-0.185886811	-0.024400439	-0.056426587	0.196126849	-0.173537912	0
3090	1753751235	0.959749781	0.209066058	-0.185961774	-0.024289073	0.045422354	0.03634911	-0.20336385	0
3093	1753801236	0.959743515	0.208653761	-0.186418829	-0.024576683	0.089408823	-0.0519433	-0.101651095	0
3095	1753834570	0.959692166	0.208495424	-0.186827599	-0.024820407	0.031993512	0.010850646	-0.196258557	0
3098	1753884571	0.95995914	0.206695413	-0.18737449	-0.025421572	0.020049107	0.073681155	-0.227918169	0
3101	1753934572	0.960747874	0.203490409	-0.18677878	-0.025862397	0.055143692	-0.016311962	-0.239242633	0
3103	1753967906	0.961299556	0.201646146	-0.185906317	-0.026092844	0.014189186	0.00571289	-0.097532539	0
3106	1754017907	0.961653827	0.200775309	-0.184983064	-0.026314592	-0.078437587	0.070465576	-0.108816325	0
3110	1754084575	0.961617467	0.201320605	-0.184607284	-0.026115352	0.086385788	-0.011700818	-0.15370916	0
3113	1754134576	0.961333562	0.203053934	-0.184276136	-0.025479165	0.116770508	0.112107315	-0.187953815	0
3116	1754184577	0.961348029	0.203761603	-0.183489505	-0.02495552	0.093793943	-0.002058579	-0.148078065	0
3120	1754251245	0.961514859	0.204253072	-0.182104589	-0.024653124	0.074621808	-0.069562654	-0.055260725	0
3124	1754317913	0.961623919	0.20446036	-0.181314565	-0.024503649	0.040770916	0.062670477	-0.178480225	0
3126	1754351247	0.961620993	0.204773803	-0.180984555	-0.024440683	0.106411131	0.003891412	-0.148110925	0
3129	1754401248	0.961671423	0.204943456	-0.180511066	-0.024535886	0.192065502	-0.012974561	-0.102572016	0
3132	1754451249	0.961920667	0.204106615	-0.180074378	-0.024946698	0.107124544	0.021730191	-0.16236481	0
3134	1754484583	0.961952069	0.20387892	-0.180094489	-0.025447551	0.121527006	-0.014017465	-0.134128806	0
3137	1754534584	0.961940524	0.203554891	-0.180362217	-0.026557572	0.055358005	0.114218845	-0.156189485	0
3140	1754584585	0.961843682	0.203895369	-0.180364875	-0.02742121	0.051765327	0.043899651	-0.08680224	0
3143	1754634586	0.961827317	0.203753426	-0.180492276	-0.028200932	-0.016544965	0.065071157	-0.134476009	0
3145	1754667920	0.961771986	0.203943874	-0.180538074	-0.028417382	0.011977269	0.094507977	-0.181959568	0
3148	1754717921	0.961770888	0.203924777	-0.180511069	-0.028761049	0.059720826	0.004844372	-0.133598977	0
3151	1754767922	0.961699353	0.204158769	-0.180559376	-0.029186705	0.088658147	-0.005583846	-0.121058146	0
3153	1754801256	0.961706982	0.203979505	-0.180670353	-0.029500284	-0.015471647	0.058062876	-0.167537422	0
3156	1754851257	0.961691049	0.204000554	-0.180657774	-0.029947787	0.067287491	0.032829462	-0.178651525	0
3159	1754901258	0.961791549	0.20357072	-0.180519439	-0.030474749	0.055109029	0.036665767	-0.170936172	0
3161	1754934592	0.961901407	0.203044313	-0.180468874	-0.030816795	-0.020762752	0.057995323	-0.162960167	0
3164	1754984593	0.96206858	0.202327198	-0.180316289	-0.031205591	-0.031925811	0.012618117	-0.108790634	0
3168	1755051261	0.962051275	0.202082241	-0.180644019	-0.031430103	0.039229217	0.055749758	-0.168843895	0
3171	1755101262	0.962094005	0.201713683	-0.18080027	-0.031590788	0.115329139	-0.012204601	-0.200297173	0
3175	1755167930	0.962236383	0.201137393	-0.180617636	-0.031971256	0.112963238	0.015787423	-0.161690215	0
3178	1755217931	0.962341499	0.200897	-0.180288382	-0.032176611	0.150685219	-0.020162992	-0.062914096	0
3180	1755251265	0.96250333	0.200175084	-0.180198856	-0.03233648	0.004786771	0.054569602	-0.172288919	0
3183	1755301266	0.962485653	0.2003344	-0.180079912	-0.032537987	0.048022859	0.035853874	-0.080010087	0
3186	1755351267	0.962433693	0.200588381	-0.180059872	-0.03262101	0.055645983	0.101228451	-0.17335538	0
3188	1755384601	0.962392813	0.200804187	-0.180040951	-0.032603793	0.03058523	0.070526994	-0.087040359	0
3191	1755434602	0.962430236	0.200715514	-0.179960554	-0.032488813	0.031913306	0.088533611	-0.174582753	0
3195	1755501270	0.962856501	0.198862178	-0.179757887	-0.032377382	0.137072305	0.105375276	-0.192547991	0
3198	1755551271	0.963203893	0.198043804	-0.178799879	-0.032365353	0.100926842	0.008269636	-0.187271743	0
3201	1755601272	0.963376059	0.198134276	-0.177742748	-0.032509894	-0.013208267	-0.009495424	-0.131028158	0
3203	1755634606	0.963264861	0.199118678	-0.177202083	-0.032741123	-0.006038783	-0.036428705	-0.105397655	0
3206	1755684607	0.962876469	0.201299995	-0.176800532	-0.032996805	0.055676339	0.014708158	-0.109119111	0
3209	1755734608	0.962823636	0.201604334	-0.176693668	-0.033251852	0.113166429	0.093955405	-0.12843854	0
3211	1755767942	0.962947343	0.201332797	-0.176316193	-0.033318466	0.061802532	0.096456584	-0.12826297	0
3214	1755817943	0.963284522	0.199989664	-0.175964848	-0.033517697	-0.030047833	0.110496848	-0.140567645	0
3217	1755867944	0.963564416	0.198826683	-0.175719428	-0.033678617	0.122602507	0.067763937	-0.171039286	0
3220	1755917945	0.964014683	0.197126713	-0.175110405	-0.033957269	0.093777758	-0.063542716	-0.111505647	0
3225	1756001280	0.964429127	0.19594959	-0.173998039	-0.034711666	0.220475274	-0.153949443	-0.173852653	0
3228	1756051281	0.964543244	0.195689548	-0.173517992	-0.035403913	0.060714702	0.021904927	-0.101275433	0
3230	1756084615	0.964657843	0.195426668	-0.173098515	-0.035785013	0.021266791	0.073194677	-0.153343444	0
3233	1756134616	0.964736552	0.195637763	-0.172345626	-0.036141893	0.058833817	-0.007793092	-0.127949694	0
3236	1756184617	0.964661702	0.196465505	-0.171792352	-0.036283506	0.041827062	0.100133557	-0.16885607	0
3238	1756217951	0.964646591	0.196864657	-0.171425358	-0.036257533	0.069762056	0.076115807	-0.133569341	0
3242	1756284619	0.964302289	0.199677597	-0.170193567	-0.035834383	0.239346682	0.127322548	-0.197825711	0
3245	1756334620	0.964461175	0.201070169	-0.167739405	-0.03534009	0.052747985	0.10023787	-0.221934328	0
3248	1756384621	0.965307538	0.19914036	-0.165123549	-0.03547798	-0.140569442	-0.016071609	-0.102969991	0
3251	1756434622	0.965606325	0.198695153	-0.163853256	-0.035731953	-0.034505835	-0.105289685	-0.055396512	0
3255	1756501290	0.965221043	0.200842067	-0.163603293	-0.035281228	0.161214749	0.141038005	-0.191682296	0
