sep=									
DeviceTag:	Xsens_2								
FirmwareVersion:	2.2.1								
AppVersion:	2023.0.0								
SyncStatus:	Un-synced								
OutputRate:	60Hz								
FilterProfile:	General								
Measurement Mode:	Sensor fusion Mode - Extended (Quaternion)								
StartTime:	2023-07-13 15:18:37.505 +0200								
© Movella Technologies B. V. 2005-2023									
PacketCounter	SampleTimeFine	Quat_W	Quat_X	Quat_Y	Quat_Z	FreeAcc_X	FreeAcc_Y	FreeAcc_Z	Status
1	766376666	0	0	0.707106781	0.707106781	-0.01968255	0.16945553	-0.04949605	0
2	766393333	0.00057497	7.29E-05	-0.707165494	-0.707047826	-0.018725569	0.173706334	-0.04624744	0
3	766410000	0.001177183	0.000134421	-0.707291264	-0.706921258	-0.028463522	0.161021954	-0.019183542	0
4	766426667	0.001606049	0.00010404	-0.70757026	-0.706641166	-0.022434242	0.156380761	0.024062696	0
5	766443334	0.001777456	5.85E-05	-0.707785414	-0.706425258	0.015911003	0.172754047	0.014260133	0
6	766460001	0.001844459	0.000110956	-0.708026916	-0.706183031	0.005729877	0.1651807	0.009407968	0
7	766476668	0.00185921	0.000186975	-0.70809356	-0.706116151	-0.027960393	0.166382003	-0.012740721	0
8	766493335	0.001912218	0.000233953	-0.708277245	-0.705931748	-0.033254897	0.175572104	0.00071387	0
9	766510002	0.001956649	0.000264905	-0.708440327	-0.705767953	-0.025304431	0.154574005	-0.008586008	0
10	766526669	0.002030188	0.000321289	-0.708509665	-0.705698115	0.011856606	0.156497213	0.04299565	0
11	766543336	0.002053552	0.000382332	-0.708589782	-0.705617572	0.030793464	0.16876714	-0.020374478	0
12	766560003	0.002077595	0.000465124	-0.708654736	-0.705552218	-0.013939246	0.168852213	0.001940535	0
13	766576670	0.002083131	0.000541162	-0.708850626	-0.705355341	-0.03538343	0.181465039	-0.000229083	0
14	766593337	0.002101402	0.000612986	-0.708932643	-0.705272795	-0.036849446	0.170147061	0.025707839	0
15	766610004	0.002134438	0.000677084	-0.709106771	-0.705097563	-0.002170712	0.179822645	0.023342608	0
16	766626671	0.002164979	0.000764038	-0.709159796	-0.70504405	-0.014667943	0.164925697	0.027644801	0
17	766643338	0.002183615	0.000837007	-0.709295666	-0.70490722	0.020058276	0.167642024	0.001289102	0
18	766660005	0.002178516	0.000911116	-0.709371168	-0.704831164	-0.02982344	0.16913003	9.52E-06	0
19	766676672	0.002194065	0.000986782	-0.709485135	-0.704716294	-0.043878675	0.16342012	0.016272058	0
20	766693339	0.002208374	0.001071077	-0.709552309	-0.704648491	-0.032102424	0.176070586	0.023972957	0
21	766710006	0.002232365	0.001153307	-0.709597372	-0.704602907	-0.017692231	0.166144865	0.040849259	0
22	766726673	0.002256881	0.001234248	-0.709739064	-0.704459966	0.006082966	0.15019106	0.019224556	0
23	766743340	0.002254956	0.001312352	-0.709789312	-0.704409203	-0.019912459	0.172108946	-0.010322574	0
24	766760007	0.002266116	0.001382584	-0.709920685	-0.704276632	-0.047262112	0.164981128	0.051184034	0
25	766776674	0.002270135	0.00145049	-0.709997973	-0.704198567	-0.046389613	0.16425981	0.014817757	0
26	766793341	0.002290876	0.001531408	-0.710150546	-0.704044465	-0.035931579	0.1693242	0.026622028	0
27	766810008	0.002312636	0.001613428	-0.710124061	-0.704070925	-0.011052275	0.165318544	0.013969586	0
28	766826675	0.002324332	0.001681418	-0.710215541	-0.703978449	-0.010777826	0.165429652	0.005582482	0
29	766843342	0.002319554	0.001743925	-0.710311934	-0.703881052	-0.045867279	0.167848864	-0.005240944	0
30	766860009	0.002336834	0.001822511	-0.710378284	-0.703813833	-0.072946867	0.174411679	0.025458199	0
31	766876676	0.002355025	0.001903593	-0.710496994	-0.70369372	-0.048581486	0.17028419	0.031910638	0
32	766893343	0.002376183	0.001979295	-0.710547796	-0.703642143	-0.012667166	0.168259095	0.021373639	0
33	766910010	0.002388737	0.002054038	-0.710588124	-0.70360116	-0.015117108	0.161241852	0.000396619	0
34	766926677	0.002397302	0.002127734	-0.710604233	-0.703584643	-0.052085596	0.165874889	0.003217741	0
35	766943344	0.002396533	0.002190127	-0.710666782	-0.703521275	-0.074114605	0.16966165	0.01257725	0
36	766960011	0.002420328	0.002260562	-0.71083075	-0.703355299	-0.056899774	0.173880422	0.026048827	0
37	766976678	0.002464979	0.002344787	-0.710821703	-0.703364011	-0.038589686	0.161062141	0.029549421	0
38	766993345	0.002486575	0.002424183	-0.710893971	-0.703290625	-0.017431867	0.153722392	0.021343832	0
39	767010012	0.002497481	0.002494292	-0.710836526	-0.703348402	-0.036144412	0.162698511	0.039186469	0
40	767026679	0.002508226	0.002567989	-0.71096594	-0.703217282	-0.078863583	0.163138155	0.03099349	0
41	767043346	0.002533891	0.002647607	-0.711021641	-0.703160576	-0.084960303	0.161017853	0.019132024	0
42	767060013	0.002565079	0.002725128	-0.711103442	-0.703077442	-0.040312152	0.159570246	0.024371569	0
43	767076680	0.002590112	0.002800949	-0.711157757	-0.703022112	-0.013130868	0.180544883	0.034060534	0
44	767093347	0.002606909	0.002865125	-0.711159694	-0.703019832	-0.018163936	0.169123044	0.014842755	0
45	767110014	0.002617517	0.002945712	-0.711166583	-0.703012491	-0.069837429	0.165311673	0.056973767	0
46	767126681	0.002623591	0.003015516	-0.711244237	-0.702933609	-0.079453353	0.167240357	0.03767114	0
47	767143348	0.002649653	0.003105311	-0.711306788	-0.702869824	-0.064677703	0.156223175	0.031305563	0
48	767160015	0.002683941	0.003180984	-0.711359397	-0.702816111	-0.04585764	0.166409319	0.02622864	0
49	767176682	0.00270148	0.003243457	-0.711421718	-0.702752675	-0.036834132	0.179376201	0.023356883	0
50	767193349	0.002711047	0.003303417	-0.711514218	-0.702658704	-0.044596111	0.16427895	0.024280457	0
51	767210016	0.002743528	0.003371105	-0.711593141	-0.70257833	-0.079776643	0.159376503	0.023579993	0
52	767226683	0.002772503	0.003451528	-0.711692723	-0.702476952	-0.084089551	0.1745866	0.028296572	0
53	767243350	0.002801319	0.003540246	-0.711763175	-0.702405012	-0.060526132	0.157632752	0.022461393	0
54	767260017	0.002806151	0.003604586	-0.711820428	-0.702346646	-0.033269536	0.16392853	0.029555541	0
55	767276684	0.002810048	0.003666925	-0.711913329	-0.702252141	-0.066305975	0.16927658	0.059293627	0
56	767293351	0.002822296	0.003736927	-0.711989766	-0.702174226	-0.107425761	0.177312212	0.047683403	0
57	767310018	0.002838913	0.003822237	-0.712034922	-0.702127909	-0.084469054	0.164008863	0.045314819	0
58	767326685	0.002875601	0.003920355	-0.712066936	-0.702094752	-0.062941487	0.17079265	0.036346155	0
59	767343352	0.002885046	0.003993348	-0.712134627	-0.702025642	-0.030300815	0.169469556	-0.013001802	0
60	767360019	0.002889953	0.004050688	-0.712236117	-0.701922328	-0.083196854	0.165115547	0.051852345	0
61	767376686	0.002892851	0.00411009	-0.712314306	-0.701842623	-0.093105097	0.157366822	0.061759732	0
62	767393353	0.002920242	0.004182978	-0.712416801	-0.70173804	-0.079729909	0.171677356	0.063788841	0
63	767410020	0.002951127	0.004280725	-0.712452055	-0.701701529	-0.0891022	0.156564484	0.02364683	0
64	767426687	0.00295939	0.004352392	-0.712501798	-0.701650545	-0.087556516	0.158116599	-5.82E-05	0
65	767443354	0.002951515	0.004396905	-0.712578318	-0.701572588	-0.07312335	0.176577453	0.011202585	0
66	767460021	0.002964231	0.004463551	-0.712652889	-0.701496365	-0.072542519	0.165040482	0.076478118	0
67	767476688	0.00298271	0.004551949	-0.712701178	-0.701446658	-0.071602835	0.167839699	0.080583228	0
68	767493355	0.003016532	0.004645617	-0.712747888	-0.701398436	-0.072670368	0.168149211	0.009815271	0
69	767510022	0.00302115	0.004711852	-0.712790682	-0.701354485	-0.097830684	0.158096795	-0.011850635	0
70	767526689	0.003013237	0.004756546	-0.712867678	-0.701275958	-0.087427482	0.16176461	0.029095923	0
71	767543356	0.003021373	0.004823134	-0.712946367	-0.701195469	-0.093467135	0.181584541	0.082619804	0
72	767560023	0.003026323	0.004888482	-0.713020929	-0.701119176	-0.060879349	0.173612452	0.107642524	0
73	767576690	0.003081641	0.004997378	-0.713100987	-0.701036741	-0.076896952	0.165661131	0.057965844	0
74	767593357	0.00310936	0.005078381	-0.71316305	-0.700972899	-0.078178336	0.141801935	-0.015792093	0
75	767610024	0.003096074	0.005121092	-0.713213277	-0.700921544	-0.113062415	0.167952335	0.020212977	0
76	767626691	0.003092154	0.005176655	-0.713275231	-0.700858107	-0.092050467	0.171044718	0.060514566	0
77	767643358	0.00307423	0.005213659	-0.713336719	-0.700795328	-0.106001691	0.166622239	0.119709344	0
78	767660025	0.003138595	0.00532425	-0.713390509	-0.700739454	-0.144434716	0.171135536	0.106391602	0
79	767676692	0.003170532	0.005399998	-0.71345472	-0.700673355	-0.122984686	0.166066175	0.006018501	0
80	767693359	0.003192337	0.005477497	-0.713498498	-0.700628075	-0.064790727	0.171268853	0.004189382	0
81	767710026	0.003169762	0.005499335	-0.713561281	-0.700564064	-0.050914314	0.164443272	0.038317943	0
82	767726693	0.003156017	0.005534873	-0.713628014	-0.700495869	-0.103922217	0.158385877	0.103286411	0
83	767743360	0.003166355	0.005599955	-0.713686185	-0.700436038	-0.155212051	0.16240405	0.085722316	0
84	767760027	0.00322186	0.005699309	-0.713749287	-0.700370682	-0.141533308	0.170742391	0.066910781	0
85	767776694	0.003255525	0.005780371	-0.713814419	-0.70030348	-0.093132083	0.1612811	-0.024117829	0
86	767793361	0.00323947	0.005814045	-0.71388179	-0.700234598	-0.089994463	0.165293341	0.037587631	0
87	767810028	0.003219033	0.005849603	-0.713948903	-0.700165969	-0.080234663	0.172597717	0.086502983	0
88	767826695	0.00321947	0.005910301	-0.714008042	-0.700105149	-0.134339246	0.163404376	0.15023927	0
89	767843362	0.003270878	0.006015392	-0.714060983	-0.700050019	-0.155382442	0.163889726	0.071825619	0
90	767860029	0.003307445	0.006080407	-0.714121165	-0.699987893	-0.111048618	0.165989544	0.011364414	0
91	767876696	0.003307514	0.006125063	-0.714177827	-0.699929693	-0.090594519	0.157867528	0.015467493	0
92	767893363	0.003284619	0.006154084	-0.71422887	-0.69987746	-0.08480155	0.162881694	0.077409605	0
93	767910030	0.003296617	0.006210706	-0.714291666	-0.699812814	-0.121281926	0.176691136	0.13531146	0
94	767926697	0.003339097	0.006290468	-0.714355943	-0.699746288	-0.138311347	0.171177478	0.074467268	0
95	767943364	0.00337392	0.006365429	-0.714407212	-0.699693099	-0.126749253	0.160885537	0.004667091	0
96	767960031	0.003375174	0.006406193	-0.714461828	-0.699636953	-0.103370133	0.164816218	-0.00220596	0
97	767976698	0.003345597	0.006424754	-0.714513863	-0.699583782	-0.104433314	0.170273609	0.062043361	0
98	767993365	0.003343226	0.006464519	-0.714575927	-0.699520033	-0.128188804	0.176563904	0.127295907	0
99	768010032	0.003363617	0.006529398	-0.714611067	-0.699483435	-0.125005671	0.170074112	0.097414343	0
100	768026699	0.003416975	0.006613454	-0.714659472	-0.699432931	-0.117225849	0.170635545	0.035401096	0
101	768043366	0.003433041	0.006662536	-0.714715886	-0.69937474	-0.12052942	0.160637127	0.014623604	0
102	768060033	0.003425448	0.006685006	-0.714765667	-0.699323686	-0.134339718	0.16219931	0.071507167	0
103	768076700	0.003435798	0.006716597	-0.714814755	-0.699273158	-0.101941852	0.171540326	0.11124309	0
104	768093367	0.003461565	0.006777019	-0.714860649	-0.69922553	-0.118088923	0.174933711	0.086099091	0
105	768110034	0.003504293	0.006840141	-0.714910238	-0.699174001	-0.12916371	0.170966787	0.051455194	0
106	768126701	0.003497398	0.00688377	-0.714945661	-0.699137385	-0.147468425	0.17407372	0.028406834	0
107	768143368	0.003503215	0.006924243	-0.71499602	-0.699085455	-0.125842365	0.186066966	0.049885777	0
108	768160035	0.003491821	0.006949439	-0.715042704	-0.699037512	-0.107988618	0.166124238	0.098972235	0
109	768176702	0.003509318	0.00699909	-0.715086561	-0.698992066	-0.109275589	0.166831741	0.086320232	0
110	768193369	0.003536071	0.00704786	-0.715136343	-0.698940509	-0.134557046	0.174218459	0.081240959	0
111	768210036	0.003552831	0.007097497	-0.715181755	-0.698893455	-0.138637177	0.167689061	0.041631738	0
112	768226703	0.003548878	0.007124818	-0.715227561	-0.69884632	-0.127787986	0.167548058	0.036446887	0
113	768243370	0.003534634	0.007145074	-0.715264745	-0.698808127	-0.135985184	0.185288156	0.086566245	0
114	768260037	0.003546126	0.007178584	-0.715304352	-0.698767184	-0.106626666	0.18712248	0.104017543	0
115	768276704	0.003565769	0.007220977	-0.715341745	-0.698728367	-0.125781512	0.167036722	0.092014434	0
116	768293371	0.003589543	0.007277951	-0.715391444	-0.69867677	-0.110751392	0.160206199	0.041443549	0
117	768310038	0.003586044	0.007302822	-0.715435462	-0.698631455	-0.135040241	0.167581644	0.05325799	0
118	768326705	0.003590108	0.007334258	-0.715469737	-0.698596002	-0.137325542	0.163526333	0.068663883	0
119	768343372	0.001652144	-0.000147753	-0.705163258	-0.709043037	-0.003896537	0.15932236	0.026288685	0
120	768360039	0.0016737	-0.000126975	-0.70520323	-0.709003235	0.009883834	0.148585548	0.018531233	0
121	768376706	0.001676584	-0.000113255	-0.705223724	-0.708982845	0.017882598	0.159843731	-0.009660489	0
122	768393373	0.001666819	-0.000114643	-0.705260067	-0.708946716	0.004766658	0.168140239	-0.037473295	0
123	768410040	0.001648088	-0.000121122	-0.705272943	-0.70893395	0.005978677	0.164560155	-0.021910528	0
124	768426707	0.001645072	-0.000122943	-0.705297742	-0.708909284	-0.020999356	0.171568952	0.012270131	0
125	768443374	0.001651207	-0.00011065	-0.705318339	-0.708888779	0.000412178	0.168990505	0.014618022	0
126	768460041	0.001663934	-9.76E-05	-0.705337699	-0.708869488	0.028193372	0.163770459	-0.012119986	0
127	768476708	0.001659102	-8.48E-05	-0.70536842	-0.708838932	-0.001148446	0.156285161	-0.032883734	0
128	768493375	0.001647684	-0.000104786	-0.705389657	-0.708817823	-0.008180986	0.153426148	-0.028601108	0
129	768510042	0.001641463	-0.00011594	-0.7054075	-0.708800079	-0.015724593	0.165808086	0.008659228	0
130	768526709	0.001652279	-0.000111018	-0.705438922	-0.708768781	0.002411956	0.169936013	0.018385419	0
131	768543376	0.001678465	-9.57E-05	-0.705462343	-0.70874541	0.013179503	0.16290694	0.009420801	0
132	768560043	0.001677709	-9.57E-05	-0.705476608	-0.708731213	0.03025623	0.156935602	-0.032349274	0
133	768576710	0.001669079	-0.000101575	-0.705493129	-0.708714787	-0.018996065	0.179965106	-0.017696914	0
134	768593377	0.001665516	-0.000113644	-0.705516899	-0.70869113	-0.019250882	0.173914259	-0.001395802	0
135	768610044	0.001662689	-0.000112481	-0.705542266	-0.708665883	-0.021264379	0.165645381	0.02562824	0
136	768626711	0.001680283	-0.000104606	-0.705553002	-0.708655153	0.027006598	0.163020819	0.002318915	0
137	768643378	0.001676232	-8.97E-05	-0.70556267	-0.70864554	0.017149204	0.169210657	0.00344701	0
138	768660045	0.001679889	-9.35E-05	-0.705563669	-0.708644536	0.012827184	0.171072242	-0.032628693	0
139	768676712	0.001662246	-0.000119054	-0.705590287	-0.70861807	-0.016131259	0.15754316	-0.018561758	0
140	768693379	0.00168198	-0.000113066	-0.705598532	-0.708609815	-0.013788972	0.162692425	0.007245972	0
141	768710046	0.001693693	-0.000106783	-0.705612977	-0.708595404	0.0160962	0.171399063	-0.014843533	0
142	768726713	0.001721043	-9.10E-05	-0.705627265	-0.708581113	0.021568754	0.166435392	-0.011570607	0
143	768743380	0.001709319	-9.18E-05	-0.705640695	-0.708567766	0.016480406	0.158045835	-0.013161727	0
144	768760047	0.001716793	-8.56E-05	-0.705661592	-0.708546938	-0.011081091	0.163347467	-0.008785151	0
145	768776714	0.001696366	-9.33E-05	-0.705671685	-0.708536934	-0.000182167	0.172802188	-0.010192926	0
146	768793381	0.001692785	-9.35E-05	-0.70568203	-0.708526639	-0.003788744	0.165983624	0.016253899	0
147	768810048	0.001690385	-8.76E-05	-0.705691282	-0.70851743	0.009467376	0.161430912	-0.01738259	0
148	768826715	0.001696085	-8.04E-05	-0.705712153	-0.70849663	0.013464779	0.165157864	0.001838414	0
149	768843382	0.001699155	-7.86E-05	-0.705727224	-0.70848161	-0.003764208	0.163643726	-0.026828688	0
150	768860049	0.00169784	-7.70E-05	-0.705734078	-0.708474786	-0.010450762	0.16132622	0.000133943	0
151	768876716	0.001694426	-7.55E-05	-0.705742011	-0.708466892	-0.014230653	0.162003546	0.001379865	0
152	768893383	0.001696013	-7.78E-05	-0.705768241	-0.708440758	-0.006366309	0.155431766	-0.009106925	0
153	768910050	0.001701979	-6.44E-05	-0.705782327	-0.708426712	0.016128738	0.1589168	-0.012568442	0
154	768926717	0.00169212	-6.57E-05	-0.7057943	-0.708414807	0.011108921	0.158483848	0.005198087	0
155	768943384	0.001697266	-6.48E-05	-0.705802505	-0.70840662	-0.00412506	0.175889143	-0.019345073	0
156	768960051	0.001702313	-5.35E-05	-0.705809883	-0.708399258	-0.00651839	0.157265167	-0.021352352	0
157	768976718	0.001715454	-5.20E-05	-0.705830971	-0.708378215	-0.002688311	0.168158226	0.003826826	0
158	768993385	0.001722959	-5.81E-05	-0.705829008	-0.708380152	0.024197724	0.166323836	-0.003066227	0
159	769010052	0.001719361	-6.31E-05	-0.705848632	-0.708360606	0.015785733	0.153612998	-0.013391309	0
160	769026719	0.001728345	-6.43E-05	-0.705857946	-0.708351303	-0.002589246	0.160478116	-0.008105415	0
161	769043386	0.001725368	-6.24E-05	-0.705865441	-0.708343842	-0.017030443	0.169569138	-0.022440883	0
162	769060053	0.001717046	-5.52E-05	-0.705875481	-0.708333858	0.004386673	0.172390936	-0.006711332	0
163	769076720	0.00171199	-6.71E-05	-0.705884988	-0.708324395	0.008416817	0.175169363	-0.011082379	0
164	769093387	0.001709445	-6.87E-05	-0.705887639	-0.708321759	-0.008771675	0.152569188	0.001904992	0
165	769110054	0.00170139	-8.26E-05	-0.705908909	-0.708300579	0.007522205	0.164101118	0.020852493	0
166	769126721	0.001696741	-8.42E-05	-0.70592846	-0.708281105	-0.006464547	0.178915178	0.018912841	0
167	769143388	0.00170258	-7.84E-05	-0.705947306	-0.708262307	-0.01113002	0.171512021	-0.009212413	0
168	769160055	0.00169766	-8.54E-05	-0.705958632	-0.708251029	0.000368531	0.163865262	-0.023965883	0
169	769176722	0.001689276	-7.68E-05	-0.705972361	-0.708237366	0.010960376	0.168935394	0.001410129	0
170	769193389	0.001694042	-6.96E-05	-0.705969216	-0.70824049	0.002058622	0.150498651	0.021134287	0
171	769210056	0.001702127	-6.45E-05	-0.705970959	-0.708238733	0.011065545	0.172056864	0.008945782	0
172	769226723	0.001717351	-6.50E-05	-0.705984314	-0.708225384	0.006616311	0.161926686	-0.01572287	0
173	769243390	0.001708792	-6.68E-05	-0.706001501	-0.708208272	-0.003406082	0.171669956	-0.001195134	0
174	769260057	0.001712497	-5.58E-05	-0.706006155	-0.708203625	-0.006601871	0.165845441	-0.01747205	0
175	769276724	0.001714953	-5.06E-05	-0.706020423	-0.708189394	-0.014143033	0.169067683	0.016100494	0
176	769293391	0.001722066	-4.93E-05	-0.706030876	-0.708178957	-0.003003058	0.171796002	-0.005282944	0
177	769310058	0.001715437	-4.93E-05	-0.706039364	-0.70817051	0.005367698	0.157943423	-0.000106507	0
178	769326725	0.001720964	-3.27E-05	-0.70604265	-0.708167221	0.002108624	0.176429584	-0.022264485	0
179	769343392	0.00171851	-5.60E-05	-0.706055414	-0.7081545	-0.000673764	0.173439249	-0.005513714	0
180	769360059	0.001718896	-5.09E-05	-0.706062589	-0.708147346	-0.009270495	0.160126955	0.008575806	0
181	769376726	0.001719016	-4.98E-05	-0.706076571	-0.708133404	0.010426983	0.168956833	0.007967912	0
182	769393393	0.001724262	-4.15E-05	-0.706090164	-0.708119838	0.007606727	0.16544759	0.012873466	0
183	769410060	0.001738188	-2.57E-05	-0.706094879	-0.708115104	-0.001236526	0.163704432	-0.010614191	0
184	769426727	0.001727512	-2.66E-05	-0.706097462	-0.708112554	0.001146645	0.154699697	-0.023321982	0
185	769443394	0.001736958	-1.97E-05	-0.706097684	-0.70811231	0.001392403	0.16568139	-0.014510557	0
186	769460061	0.001745871	-5.74E-06	-0.706104372	-0.708105619	-0.001038407	0.154664219	-0.001532223	0
187	769476728	0.001750683	2.27E-07	-0.70611321	-0.708096794	0.014735299	0.159301965	-0.002086851	0
188	769493395	0.001752528	3.78E-06	-0.706128013	-0.708082028	0.010779085	0.165298302	-0.014507391	0
189	769510062	0.00175818	-3.27E-06	-0.706133292	-0.70807675	-0.021211179	0.167267149	0.005629129	0
190	769526729	0.001760767	-8.23E-06	-0.706145757	-0.708064312	0.001144212	0.166284478	-0.014585185	0
191	769543396	0.001772662	-7.42E-06	-0.706155386	-0.708054679	-0.013698834	0.163937624	0.015750048	0
192	769560063	0.00176671	-1.72E-05	-0.706158854	-0.708051235	0.005250548	0.170075666	-0.011286081	0
193	769576730	0.001773772	-2.20E-05	-0.706174168	-0.708035943	-0.006797369	0.156549271	0.017925793	0
194	769593397	0.001771437	-1.43E-05	-0.706182527	-0.708027612	0.007830555	0.154772044	-0.01249391	0
195	769610064	0.001758398	-2.58E-05	-0.706195218	-0.708014987	-0.019964082	0.161292333	-0.010814916	0
196	769626731	0.001756022	-1.85E-05	-0.706202435	-0.708007795	-0.003275268	0.160906173	0.015094705	0
197	769643398	0.001746425	-2.81E-05	-0.706209292	-0.708000978	-0.004362836	0.158550019	0.003135234	0
198	769660065	0.001760275	-1.10E-05	-0.706222837	-0.707987434	0.003205412	0.172018104	0.007113946	0
199	769676732	0.00175727	-2.22E-05	-0.706239231	-0.707971087	-0.014463257	0.147445833	-0.003867742	0
200	769693399	0.001759299	-1.28E-05	-0.706250429	-0.707959911	-0.003298299	0.152103028	-0.007684208	0
201	769710066	0.001742812	-1.67E-05	-0.706256519	-0.707953877	-0.00108806	0.161612861	-0.011587848	0
202	769726733	0.00174452	-7.61E-06	-0.706263675	-0.707946733	-0.018331194	0.163249999	0.006756564	0
203	769743400	0.001747302	-6.46E-06	-0.706268289	-0.707942124	0.011472002	0.171458412	0.001428459	0
204	769760067	0.00174796	2.85E-06	-0.706276711	-0.70793372	0.016864017	0.168772172	-0.025985904	0
205	769776734	0.001749405	-1.28E-05	-0.706284731	-0.707925716	0.002909333	0.165558334	-0.035670095	0
206	769793401	0.001744832	-2.32E-05	-0.706292486	-0.707917989	-0.011832068	0.166059107	-0.022641477	0
207	769810068	0.001745464	-2.32E-05	-0.706291686	-0.707918786	-0.002973574	0.171036391	-0.014349805	0
208	769826735	0.001761024	-1.24E-05	-0.706297505	-0.707912942	-0.010170978	0.155072497	0.000158782	0
209	769843402	0.00176743	4.86E-06	-0.706304176	-0.70790627	0.010594979	0.169475207	-0.017585578	0
210	769860069	0.00177041	8.01E-06	-0.70631576	-0.707894705	0.02261087	0.158763218	-0.031630235	0
211	769876736	0.001770143	1.14E-05	-0.706328852	-0.707881642	-0.002963883	0.172784477	0.010413865	0
212	769893403	0.001769403	-1.71E-06	-0.706336491	-0.707874022	-0.018222812	0.169667301	-0.001547003	0
213	769910070	0.001775914	-2.52E-06	-0.70633963	-0.707870874	-0.010101842	0.165114364	0.012421954	0
214	769926737	0.001773848	2.46E-06	-0.706338693	-0.707871814	-0.001945183	0.166505232	0.01007371	0
215	769943404	0.001793116	8.78E-06	-0.706347972	-0.707862506	0.0103792	0.167638074	-0.011466933	0
216	769960071	0.001802014	9.24E-06	-0.706347264	-0.707863189	0.00920664	0.165017884	-0.032535181	0
217	769976738	0.001778462	2.16E-06	-0.706341311	-0.707869189	-0.006281018	0.174285297	0.014531003	0
218	769993405	0.001789279	5.43E-06	-0.706347262	-0.707863224	-0.000373723	0.163278781	0.016648508	0
219	770010072	0.001791875	1.11E-05	-0.706349892	-0.707860593	-0.005889194	0.166574011	0.011980079	0
220	770026739	0.001793849	1.96E-05	-0.706342997	-0.707867468	-0.004317994	0.171329011	-0.019028933	0
221	770043406	0.001782373	2.49E-05	-0.70634709	-0.707863412	0.012122973	0.164966498	-0.026459979	0
222	770060073	0.001781689	1.96E-05	-0.706351435	-0.707859079	0.000326294	0.15837007	-0.018904314	0
223	770076740	0.00178426	1.45E-05	-0.706357132	-0.707853387	-0.002266938	0.176073643	0.007734033	0
224	770093407	0.001784016	8.31E-06	-0.706354091	-0.707856423	-0.008389249	0.168211331	0.013148509	0
225	770110074	0.001783264	2.38E-05	-0.706359828	-0.7078507	0.003884423	0.154540784	-0.007608083	0
226	770126741	0.001789309	2.51E-05	-0.706362321	-0.707848196	-0.012391022	0.164265613	-0.006356125	0
227	770143408	0.001793751	1.45E-05	-0.706365106	-0.707845406	-0.012625148	0.160128508	0.000983205	0
228	770160075	0.001787874	1.61E-05	-0.706362439	-0.707848083	-0.014035739	0.164948879	0.003614906	0
229	770176742	0.001785641	4.26E-06	-0.706363201	-0.707847328	-0.009186883	0.169777496	0.005934644	0
230	770193409	0.001795304	1.16E-05	-0.706372135	-0.707838388	-0.011301924	0.166218344	-0.018830872	0
231	770210076	0.001792631	2.24E-05	-0.706377754	-0.707832787	0.005266653	0.15929772	0.005543368	0
232	770226743	0.001785351	1.56E-05	-0.706379831	-0.707830733	0.010042401	0.162430393	-0.010148071	0
233	770243410	0.001778968	1.33E-05	-0.706381692	-0.707828892	-0.002732548	0.154164251	0.004653425	0
234	770260077	0.001772033	1.36E-05	-0.706390714	-0.707819906	-0.015337825	0.162468397	0.003769798	0
235	770276744	0.001772707	1.74E-05	-0.70638948	-0.707821135	-0.010949318	0.168329885	-0.006144313	0
236	770293411	0.001785331	1.63E-05	-0.706401174	-0.707809433	-0.001885272	0.17421446	-0.004541431	0
237	770310078	0.001782743	1.65E-05	-0.706408375	-0.707802253	0.000999403	0.162591416	0.017373161	0
238	770326745	0.001781532	2.61E-05	-0.706413225	-0.707797415	0.005596964	0.156024657	-0.005858668	0
239	770343412	0.001727079	-0.000141857	-0.706420234	-0.707790541	-0.004311856	0.166789521	-0.01031989	0
240	770360079	0.001732644	-0.000142095	-0.706425264	-0.707785507	-0.022085791	0.155154838	0.015046149	0
241	770376746	0.001738269	-0.000134176	-0.706427454	-0.707783309	0.006644492	0.166863583	-0.01192873	0
242	770393413	0.001750558	-0.000125253	-0.706428282	-0.707782454	0.00383044	0.161454251	-0.023116179	0
243	770410080	0.001743502	-0.000130105	-0.706433376	-0.707777386	0.00466797	0.16161633	-0.012745704	0
244	770426747	0.001742056	-0.000130421	-0.706434238	-0.707776529	0.019732933	0.168199558	-0.003648301	0
245	770443414	0.001746204	-0.000129557	-0.706433102	-0.707777653	0.007841728	0.15844294	-0.002060001	0
246	770460081	0.001752235	-0.00013385	-0.706443722	-0.707767037	-0.013638906	0.170510069	0.010914134	0
247	770476748	0.001763834	-0.000125533	-0.706440784	-0.707769943	-0.001393449	0.173974901	-0.005248266	0
248	770493415	0.001771421	-0.000120512	-0.706457674	-0.707753066	0.003814788	0.156683717	-0.022155045	0
249	770510082	0.00177971	-0.000124828	-0.706455839	-0.707754876	0.00252685	0.174509696	-0.021403851	0
250	770526749	0.00177319	-0.000139063	-0.70646232	-0.70774842	-0.00269924	0.16928962	-0.004386298	0
251	770543416	0.001765664	-0.000127898	-0.70647227	-0.707738509	-0.002624812	0.161042045	0.004116394	0
252	770560083	0.001780598	-0.00012058	-0.706486098	-0.707724669	-0.003427444	0.164764731	0.001305952	0
253	770576750	0.001785986	-0.000128769	-0.706496925	-0.707713846	0.001651622	0.168526022	-0.018471564	0
254	770593417	0.001783723	-0.000130517	-0.706499125	-0.707711656	-0.010723386	0.164251279	-0.012929752	0
255	770610084	0.001773132	-0.000127626	-0.70650546	-0.707705359	0.000356857	0.166993233	-0.004808806	0
256	770626751	0.00177158	-0.000133451	-0.706514934	-0.707695904	-0.009546858	0.173118102	-0.006225663	0
257	770643418	0.001778526	-0.000125705	-0.706514978	-0.707695843	-0.00906197	0.169779912	0.009428708	0
258	770660085	0.001788223	-0.000117469	-0.706512097	-0.707698696	0.012472456	0.168344518	-0.025177791	0
259	770676752	0.001781513	-0.000112196	-0.706514033	-0.707696782	0.018344448	0.15035685	-0.02689484	0
260	770693419	0.001782318	-0.000120334	-0.706522423	-0.707688402	0.005444842	0.162532125	-0.017697836	0
261	770710086	0.001785563	-0.000116109	-0.706527916	-0.707682911	-0.00237409	0.165315107	0.007933683	0
262	770726753	0.001795928	-0.000116997	-0.706529201	-0.707681601	-0.012125649	0.164029568	-0.009319747	0
263	770743420	0.001798102	-0.000110016	-0.706534232	-0.707676574	-0.012259542	0.156749561	-0.006332969	0
264	770760087	0.001797595	-0.00011172	-0.706548559	-0.707662271	-0.017811216	0.161540399	-0.004704657	0
265	770776754	0.001797675	-0.000104221	-0.706550755	-0.707660079	-0.002605591	0.155001565	-0.008340344	0
266	770793421	0.001795068	-0.000108488	-0.706551731	-0.707659111	0.001943337	0.170077538	0.009775013	0
267	770810088	0.001788264	-0.000106266	-0.706546929	-0.707663923	-0.009289064	0.169512176	-0.000102824	0
268	770826755	0.00178992	-9.76E-05	-0.706548237	-0.707662614	-0.02255749	0.152068808	-0.016193232	0
269	770843422	0.001799889	-9.63E-05	-0.706557425	-0.707653415	-0.001883415	0.159772607	-0.014452178	0
270	770860089	0.001797399	-8.99E-05	-0.706555633	-0.707655212	-0.004605979	0.163079692	-0.003196007	0
271	770876756	0.001796903	-9.86E-05	-0.706560855	-0.707649998	0.008615726	0.16933934	-0.012156181	0
272	770893423	0.001783244	-9.36E-05	-0.706559323	-0.707651563	0.001997367	0.159419969	0.015056341	0
273	770910090	0.001792314	-8.60E-05	-0.706559749	-0.707651116	0.001640914	0.14692807	0.002855897	0
274	770926757	0.001794573	-7.96E-05	-0.706572008	-0.70763887	0.005400884	0.167776192	-0.015302187	0
275	770943424	0.001789367	-8.14E-05	-0.706574096	-0.707636798	0.005599922	0.145044716	-0.008259026	0
276	770960091	0.001781282	-8.06E-05	-0.706577761	-0.707633159	-0.010453888	0.157223818	0.005012898	0
277	770976758	0.00178155	-8.96E-05	-0.706577194	-0.707633723	0.004717443	0.162337435	0.007964089	0
278	770993425	0.001771847	-8.42E-05	-0.706587352	-0.707623606	-0.014198645	0.178348887	-0.002539445	0
279	771010092	0.001772333	-8.39E-05	-0.706593534	-0.707617431	-0.015745651	0.151116335	-0.011989249	0
280	771026759	0.001777719	-8.28E-05	-0.70660184	-0.707609124	-0.003938255	0.164741211	-0.012986204	0
281	771043426	0.001773472	-8.90E-05	-0.706606905	-0.707604077	-0.006517065	0.157014241	0.004144839	0
282	771060093	0.001774517	-9.09E-05	-0.706610354	-0.70760063	-0.004156627	0.170978967	0.010007865	0
283	771076760	0.00177554	-9.53E-05	-0.706610027	-0.707600952	-0.002223742	0.158558665	0.008356833	0
284	771093427	0.001793219	-8.78E-05	-0.706620636	-0.707590314	-0.015899224	0.159628692	0.002751847	0
285	771110094	0.001797769	-9.03E-05	-0.706626178	-0.707584769	-0.017974163	0.159874644	0.000371206	0
286	771126761	0.001790445	-9.31E-05	-0.706628005	-0.707582962	-0.010866316	0.162481092	-0.013950362	0
287	771143428	0.001775852	-8.80E-05	-0.706634169	-0.707576844	-0.010747878	0.167110956	-0.00292357	0
288	771160095	0.001772502	-9.23E-05	-0.706643013	-0.70756802	0.008879749	0.163421652	0.007975542	0
289	771176762	0.001770344	-8.77E-05	-0.706649401	-0.707561646	0.000909497	0.170419987	-0.014316744	0
290	771193429	0.001780048	-8.21E-05	-0.706653702	-0.707557326	-0.007609809	0.148556006	-0.000946943	0
291	771210096	0.001770837	-8.77E-05	-0.706657825	-0.707553231	-0.001622369	0.165563689	-0.006502774	0
292	771226763	0.001759506	-8.76E-05	-0.70665757	-0.707553514	-0.001952466	0.157225984	-0.018231566	0
293	771243430	0.001754036	-9.48E-05	-0.706657617	-0.707553479	0.01346203	0.167840335	0.010103047	0
294	771260097	0.001754672	-8.67E-05	-0.706660839	-0.707550261	-0.015612489	0.167159063	0.024377063	0
295	771276764	0.001758787	-7.24E-05	-0.706663871	-0.707547224	-0.000547384	0.187340563	-0.013816511	0
296	771293431	0.001753128	-8.43E-05	-0.706657723	-0.707553377	-0.011093702	0.163862524	-0.022556797	0
297	771310098	0.001743317	-9.12E-05	-0.706654547	-0.707556572	0.015177557	0.169818231	-0.051453425	0
298	771326765	0.001732521	-9.83E-05	-0.706661545	-0.707549609	0.006405947	0.158053313	-0.005477691	0
299	771343432	0.001740495	-8.48E-05	-0.706665394	-0.707545747	-0.008913462	0.163959321	0.005927181	0
300	771360099	0.001743816	-7.62E-05	-0.706656397	-0.707554726	0.011068655	0.1599244	-0.01428008	0
301	771376766	0.001744497	-7.49E-05	-0.706665813	-0.70754532	-0.010373033	0.172785386	-0.014402233	0
302	771393433	0.001728498	-8.83E-05	-0.706667472	-0.707543701	-0.016893402	0.149903703	0.009872144	0
303	771410100	0.001731724	-8.27E-05	-0.706666541	-0.707544623	-0.006366355	0.165932206	-0.010797898	0
304	771426767	0.001725089	-8.44E-05	-0.706671419	-0.707539767	0.005993392	0.172488224	0.002778615	0
305	771443434	0.001738932	-7.85E-05	-0.70668007	-0.707531094	0.002446103	0.174222015	-0.012914719	0
306	771460101	0.001748947	-7.87E-05	-0.706688598	-0.707522551	-0.000238958	0.154413467	0.005649282	0
307	771476768	0.001734068	-8.20E-05	-0.706692512	-0.707518678	-0.003857676	0.147985136	-0.012553564	0
308	771493435	0.001739667	-8.04E-05	-0.706693947	-0.707517231	0.008715953	0.154906058	0.016905927	0
309	771510102	0.001733177	-8.32E-05	-0.706706643	-0.707504565	0.00279741	0.158808672	0.014921484	0
310	771526769	0.001749102	-6.44E-05	-0.706711201	-0.707499976	-0.004170721	0.163305322	-0.008916783	0
311	771543436	0.001755541	-6.33E-05	-0.706713158	-0.707498005	0.006495302	0.1558751	0.000244045	0
312	771560103	0.001749701	-4.99E-05	-0.706716908	-0.707494275	0.020122087	0.15875083	0.00024516	0
313	771576770	0.001735253	-6.69E-05	-0.706718351	-0.707492867	0.00719898	0.169094493	-0.010864772	0
314	771593437	0.001731242	-7.93E-05	-0.706726459	-0.707484776	-0.008795735	0.161656383	0.006294184	0
315	771610104	0.001737706	-8.41E-05	-0.706732403	-0.707478822	-0.003241428	0.166101553	-0.014030182	0
316	771626771	0.001743765	-8.40E-05	-0.706727722	-0.707483483	0.005596116	0.161656994	-0.006537794	0
317	771643438	0.001745315	-8.27E-05	-0.706728479	-0.707482723	-0.009112386	0.155996271	-0.001844532	0
318	771660105	0.001736789	-0.000101838	-0.70673313	-0.707478095	0.001127452	0.155431004	-0.020736445	0
319	771676772	0.001737563	-9.77E-05	-0.706739427	-0.707471804	-0.009687763	0.155470089	0.009976649	0
320	771693439	0.001734698	-9.96E-05	-0.706738824	-0.707472413	-0.017790811	0.180151724	0.013949337	0
321	771710106	0.001741859	-9.10E-05	-0.706746408	-0.707464821	-0.022908159	0.159512016	-0.022806939	0
322	771726773	0.001732575	-9.46E-05	-0.70674614	-0.70746511	0.008065431	0.166429347	-0.015707568	0
323	771743440	0.001734034	-9.94E-05	-0.706746794	-0.707464453	-0.005523489	0.153374059	-0.002617775	0
324	771760107	0.001731336	-9.81E-05	-0.706750465	-0.707460792	0.002218517	0.156524019	-0.002950994	0
325	771776774	0.001733103	-9.55E-05	-0.706765415	-0.707445853	-0.009068235	0.161397853	0.011735611	0
326	771793441	0.001742717	-8.94E-05	-0.706775863	-0.707435393	0.000113542	0.185785238	-0.002203171	0
327	771810108	0.00173368	-9.28E-05	-0.706770952	-0.70744032	0.013017141	0.154109229	-0.027105423	0
328	771826775	0.001737632	-9.62E-05	-0.706787578	-0.7074237	-0.01869621	0.177701982	-0.002127493	0
329	771843442	0.001726289	-0.000102856	-0.706788776	-0.707422529	-0.002109874	0.164262706	-0.006328712	0
330	771860109	0.001733723	-0.000100834	-0.706795728	-0.707415566	-0.004463884	0.1622628	-0.006681701	0
331	771876776	0.00172915	-0.000101143	-0.706788319	-0.70742298	0.00634812	0.167110119	-0.005390078	0
332	771893443	0.00173047	-0.000107364	-0.70679615	-0.707415152	0.003743679	0.171298459	-0.0090041	0
333	771910110	0.001740887	-0.000116778	-0.706787055	-0.707424211	0.01417955	0.158326184	-0.017266947	0
334	771926777	0.001739715	-0.000125938	-0.706786101	-0.707425166	0.006588068	0.158082491	-0.003657485	0
335	771943444	0.001745848	-0.000129926	-0.706799647	-0.707411616	-0.006074943	0.159021429	0.003508199	0
336	771960111	0.001746761	-0.000132373	-0.706797588	-0.70741367	-0.00012794	0.169464433	0.00549213	0
337	771976778	0.001751641	-0.000125575	-0.706800666	-0.707410584	-0.00299252	0.168909808	-0.008801539	0
338	771993445	0.001753551	-0.000118301	-0.706799244	-0.707412002	0.009517837	0.165094711	-0.007967034	0
339	772010112	0.001759262	-0.000118582	-0.706798711	-0.707412519	0.013279237	0.178695861	-0.028407234	0
340	772026779	0.001751151	-0.000130015	-0.706797048	-0.707414199	-0.004986451	0.171655565	-0.003416631	0
341	772043446	0.001754361	-0.000134483	-0.70679872	-0.70741252	-0.005439694	0.154836939	0.016877126	0
342	772060113	0.001757873	-0.000119915	-0.706801964	-0.707409272	0.001011223	0.159972545	-0.01336187	0
343	772076780	0.001768502	-0.00010516	-0.706803646	-0.707407568	0.009054873	0.164755649	-0.003997903	0
344	772093447	0.00177303	-0.00010512	-0.706805225	-0.707405979	0.017320187	0.17839679	-0.022650027	0
345	772110114	0.001761509	-0.000117227	-0.706803775	-0.707407455	-0.002321687	0.171691422	-0.005757353	0
346	772126781	0.001758928	-0.00012937	-0.706799769	-0.707411461	0.003656424	0.172470164	-0.003335068	0
347	772143448	0.001760688	-0.000132739	-0.706807015	-0.707404217	0.006113281	0.158671222	-0.009573568	0
348	772160115	0.001776428	-0.000139398	-0.706806653	-0.707404538	0.003593933	0.171950926	0.005969732	0
349	772176782	0.001771976	-0.000134506	-0.706810172	-0.707401034	0.007371097	0.174842753	-0.019608625	0
350	772193449	0.001765344	-0.000135438	-0.706812851	-0.707398373	0.002553697	0.153430532	3.26E-05	0
351	772210116	0.001767495	-0.000143109	-0.706811525	-0.707399692	0.008773039	0.165342464	-0.001018836	0
352	772226783	0.00176444	-0.00014317	-0.706808944	-0.707402278	0.010390465	0.180928048	-0.00763815	0
353	772243450	0.001773194	-0.000131816	-0.706813566	-0.70739764	0.008937634	0.18607892	-0.002785848	0
354	772260117	0.001772451	-0.000131963	-0.706820496	-0.707390718	0.003038205	0.170493757	-0.021172281	0
355	772276784	0.001766574	-0.000134669	-0.706822097	-0.707389132	-0.007312669	0.17606829	-0.010375852	0
356	772293451	0.001767575	-0.000132765	-0.706820689	-0.707390537	0.000419918	0.17213742	-0.005661893	0
357	772310118	0.001763942	-0.000135257	-0.706825546	-0.707385692	-0.008726017	0.171306518	0.006980566	0
358	772326785	0.00178032	-0.000130085	-0.70682259	-0.707388606	0.001988101	0.173530877	-0.025163981	0
359	772343452	0.001763236	-0.000158855	-0.706836822	-0.707374422	0.00807231	0.171584476	-0.020313368	0
360	772360119	0.001768447	-0.000155305	-0.706842195	-0.70736904	-0.004012298	0.170606115	-0.001638687	0
361	772376786	0.001762162	-0.000149148	-0.706843886	-0.707367368	-0.006176708	0.164715483	-0.005274084	0
362	772393453	0.001757423	-0.000152975	-0.706841752	-0.707369512	0.002183229	0.175846887	-0.002468028	0
363	772410120	0.001758485	-0.000146779	-0.706847782	-0.707363485	0.004784433	0.173625121	-0.002476346	0
364	772426787	0.001765143	-0.000153587	-0.706854083	-0.70735717	-0.006671596	0.156257399	0.008902494	0
365	772443454	0.001775858	-0.000147221	-0.706855086	-0.707356143	-0.013246664	0.167743457	0.005477314	0
366	772460121	0.001765706	-0.000154709	-0.706848783	-0.707362464	0.000200255	0.173301863	-0.007589944	0
367	772476788	0.001772022	-0.000158152	-0.706846633	-0.707364596	-0.003471665	0.17278373	-0.004717735	0
368	772493455	0.00177923	-0.000154819	-0.706854716	-0.707356502	0.008226271	0.161316953	-0.021090792	0
369	772510122	0.001779634	-0.000147888	-0.706859216	-0.707352005	-0.001455425	0.164156181	0.005185222	0
370	772526789	0.001765896	-0.000143632	-0.706861013	-0.707350245	0.002969275	0.157496348	-0.020513627	0
371	772543456	0.001769195	-0.000145362	-0.706858389	-0.707352859	0.008674898	0.176818425	0.013414913	0
372	772560123	0.001765921	-0.000150924	-0.706863584	-0.707347675	-0.0074626	0.157283149	-0.006127693	0
373	772576790	0.001768918	-0.000143499	-0.706863282	-0.707347971	-0.006750055	0.164115945	-0.015896198	0
374	772593457	0.001770693	-0.000141021	-0.706863868	-0.70734738	-0.01077083	0.176997359	-0.002776648	0
375	772610124	0.001775699	-0.000140034	-0.706867183	-0.707344055	0.003134419	0.171774894	-0.011263817	0
376	772626791	0.001769521	-0.000142301	-0.706863376	-0.707347875	-0.003750431	0.158659203	-0.012371298	0
377	772643458	0.001763006	-0.000131129	-0.706867008	-0.707344264	0.005418476	0.173848553	-0.035092081	0
378	772660125	0.001763648	-0.000123635	-0.706869624	-0.707341649	0.00622988	0.149306903	-0.017351437	0
379	772676792	0.001761313	-0.000125593	-0.706871848	-0.707339432	0.001272213	0.180926717	-0.01431991	0
380	772693459	0.001755223	-0.00013111	-0.70687047	-0.707340823	0.004280319	0.168773089	-0.006116954	0
381	772710126	0.001751734	-0.00013317	-0.70687705	-0.707334256	-0.02441035	0.162222498	0.00338353	0
382	772726793	0.001744913	-0.000130178	-0.706876882	-0.707334442	0.000780346	0.163069255	0.011882506	0
383	772743460	0.001746609	-0.000135972	-0.706874925	-0.707336392	0.014567309	0.1662805	-0.02927948	0
384	772760127	0.001758346	-0.00014347	-0.706882863	-0.707328429	0.004688966	0.169099291	-0.017076478	0
385	772776794	0.001752003	-0.000151397	-0.706886583	-0.707324725	0.002804167	0.169403622	-0.017958409	0
386	772793461	0.001755254	-0.000164783	-0.706885338	-0.707325958	0.005733031	0.162631015	0.005055678	0
387	772810128	0.00175524	-0.000166362	-0.706889975	-0.707321324	0.000403027	0.174112085	-0.002644597	0
388	772826795	0.00176462	-0.000160828	-0.706890935	-0.707320342	-0.003643801	0.166503433	-0.010528422	0
389	772843462	0.001766969	-0.000162973	-0.706895108	-0.707316165	0.022208119	0.180230172	-0.020931473	0
390	772860129	0.001765717	-0.000160445	-0.706891296	-0.707319979	0.006658243	0.170967989	-0.014707038	0
391	772876796	0.001762958	-0.000166626	-0.706886025	-0.707325252	0.002156405	0.159873342	0.013926854	0
392	772893463	0.001752945	-0.000174243	-0.706887634	-0.707323666	0.007498119	0.172563965	-0.022874216	0
393	772910130	0.001760537	-0.000163527	-0.706886158	-0.707325125	-0.002470915	0.174817369	-0.003209165	0
394	772926797	0.001760163	-0.000163156	-0.706886591	-0.707324694	0.012174508	0.163262504	-0.007078805	0
395	772943464	0.001755106	-0.000171064	-0.706881159	-0.707330133	-0.000479859	0.162959474	0.001352333	0
396	772960131	0.001760868	-0.000160499	-0.706883649	-0.707327633	0.014884188	0.158018156	-0.0045138	0
397	772976798	0.001779532	-0.00015388	-0.706891355	-0.707319886	0.01303115	0.158302289	0.003556977	0
398	772993465	0.001782224	-0.000155317	-0.706896705	-0.707314533	-0.001651458	0.154308989	0.006380583	0
399	773010132	0.001788861	-0.000154075	-0.706892608	-0.707318611	-0.004462535	0.154785336	-0.010176359	0
400	773026799	0.00177942	-0.00016082	-0.706883866	-0.707327369	0.01333524	0.172034609	0.003103672	0
401	773043466	0.001776358	-0.000173573	-0.706883013	-0.707328226	0.009694598	0.163317234	0.004227052	0
402	773060133	0.001772981	-0.000184191	-0.70688935	-0.7073219	-0.001579894	0.167613224	0.00261272	0
403	773076800	0.001781981	-0.000183877	-0.706885049	-0.707326175	0.016847339	0.168771077	-0.013250509	0
404	773093467	0.001789868	-0.000175512	-0.70688988	-0.707321329	0.00486178	0.175459858	-0.018759904	0
405	773110134	0.001793786	-0.00017755	-0.706886273	-0.707324924	-0.006443178	0.16803397	-0.008403873	0
406	773126801	0.001783748	-0.000190957	-0.706886737	-0.707324482	0.009267561	0.16690046	-0.002879843	0
407	773143468	0.001785322	-0.000193446	-0.706885372	-0.707325842	0.014392126	0.157830084	-0.014721108	0
408	773160135	0.001790134	-0.000199259	-0.706887948	-0.707323254	-0.013543523	0.150538849	0.016506569	0
409	773176802	0.00179443	-0.000199804	-0.706892008	-0.707319184	-0.001511086	0.164404281	-0.009313316	0
410	773193469	0.001798254	-0.000188529	-0.706886921	-0.707324262	0.004092558	0.156706224	-0.008394971	0
411	773210136	0.00179706	-0.000188277	-0.706892173	-0.707319016	0.017930541	0.166583528	-0.008484582	0
412	773226803	0.001801979	-0.000196107	-0.706892995	-0.70731818	0.003823523	0.177520049	-0.004160778	0
413	773243470	0.001797158	-0.000207759	-0.706897608	-0.707313579	-0.007029796	0.170264844	0.017684908	0
414	773260137	0.001793442	-0.00020738	-0.706900039	-0.707311159	0.009179551	0.172683074	-0.004694493	0
415	773276804	0.001800463	-0.000208684	-0.706902368	-0.707308813	0.018877174	0.176761192	-0.025231511	0
416	773293471	0.001788859	-0.000214071	-0.706904766	-0.707306445	0.012721692	0.176167301	-0.007998072	0
417	773310138	0.001776106	-0.000219066	-0.706914871	-0.707296375	0.004592879	0.15160468	-0.010932331	0
418	773326805	0.001761419	-0.000222384	-0.706914337	-0.707296944	0.002200195	0.161961958	0.006497576	0
419	773343472	0.001764701	-0.000219624	-0.706916776	-0.7072945	0.01038515	0.170304488	-0.010092367	0
420	773360139	0.001770768	-0.000218746	-0.70691931	-0.707291953	-0.009861839	0.165492784	-0.011438812	0
421	773376806	0.001767606	-0.000215454	-0.70692575	-0.707285525	0.026193816	0.149232433	-0.031623055	0
422	773393473	0.001766516	-0.000226058	-0.706925584	-0.70728569	0.007507221	0.152835251	-0.016822174	0
423	773410140	0.0017577	-0.000234127	-0.706923852	-0.70728744	0.015578652	0.153533461	-0.004434168	0
424	773426807	0.001763139	-0.000239148	-0.706925353	-0.707285925	-0.000190112	0.160870806	0.007610717	0
425	773443474	0.001781583	-0.000233856	-0.706924426	-0.707286807	-0.010881294	0.17243791	-0.02162428	0
426	773460141	0.001796945	-0.00022537	-0.706929949	-0.70728125	0.001795182	0.163871247	0.007914959	0
427	773476808	0.001806479	-0.000228804	-0.70693772	-0.707273458	0.01460423	0.16907334	-0.005179228	0
428	773493475	0.001788746	-0.000231276	-0.706937826	-0.707273396	0.002034544	0.164128002	0.022655273	0
429	773510142	0.001790816	-0.000235584	-0.706935621	-0.707275594	-0.005286197	0.167795286	-0.008119666	0
430	773526809	0.00180097	-0.000230642	-0.706935321	-0.70727587	-0.001455342	0.166128452	0.008027333	0
431	773543476	0.001806307	-0.000232738	-0.706941086	-0.707270093	0.013890745	0.164960901	-0.02012629	0
432	773560143	0.001807198	-0.000229135	-0.706939291	-0.707271886	0.00788535	0.163585649	-0.008983953	0
433	773576810	0.001797045	-0.000229823	-0.706939653	-0.707271549	0.005265893	0.168383483	0.000581446	0
434	773593477	0.001799472	-0.000221287	-0.706941849	-0.707269351	-0.007224312	0.16912434	0.00309363	0
435	773610144	0.001810432	-0.000221006	-0.706941246	-0.707269926	-0.00061908	0.165165561	0.011400141	0
436	773626811	0.001818823	-0.000216727	-0.70694049	-0.707270662	-0.000100962	0.174375347	-0.020508312	0
437	773643478	0.001821137	-0.000219063	-0.706942499	-0.707268646	0.000678293	0.169139514	-0.024062132	0
438	773660145	0.001804824	-0.000215405	-0.706943357	-0.707267832	0.011604278	0.164217874	-0.00157449	0
439	773676812	0.001811256	-0.000212511	-0.706955607	-0.707255571	0.00513564	0.172736141	0.01279802	0
440	773693479	0.001811802	-0.000215099	-0.706959698	-0.707251481	0.011044386	0.174586822	0.011602895	0
441	773710146	0.00181544	-0.000210453	-0.706962015	-0.707249157	0.01266466	0.155246803	-0.009108431	0
442	773726813	0.001816853	-0.000208195	-0.70695889	-0.707252277	0.005328488	0.162069034	-0.009172076	0
443	773743480	0.00182441	-0.000208365	-0.706958461	-0.707252686	0.013054069	0.17442556	-0.007652119	0
444	773760147	0.001833036	-0.000215242	-0.706961788	-0.707249337	0.005211879	0.166317318	-0.008865125	0
445	773776814	0.001824757	-0.000221191	-0.706960818	-0.707250325	-0.003013158	0.177079032	-0.001721756	0
446	773793481	0.001821583	-0.00021819	-0.706960291	-0.707250862	0.008441285	0.1552125	-0.019011489	0
447	773810148	0.001805705	-0.000225623	-0.706965377	-0.707245816	0.022049861	0.155237415	-0.015039194	0
448	773826815	0.001799957	-0.000235375	-0.706964998	-0.707246206	0.000610227	0.163050426	-0.001669815	0
449	773843482	0.001788685	-0.000245164	-0.70696947	-0.707241761	0.009711094	0.158973399	0.008407306	0
450	773860149	0.001774789	-0.000250532	-0.706972326	-0.707238939	0.013960728	0.170765454	-0.013742991	0
451	773876816	0.001776616	-0.000241129	-0.706974443	-0.707236822	-0.002985449	0.168190559	-0.006173466	0
452	773893483	0.001775067	-0.000244831	-0.706978251	-0.707233018	-0.002396485	0.170886993	-0.017369545	0
453	773910150	0.001771277	-0.0002512	-0.706976241	-0.707235034	-0.010913639	0.167618166	0.009440014	0
454	773926817	0.001770954	-0.000251786	-0.706980456	-0.707230821	0.010696342	0.156800257	-0.002140142	0
455	773943484	0.001769671	-0.000255296	-0.706984278	-0.707227003	0.011103583	0.164869123	-0.004847678	0
456	773960151	0.001760718	-0.000257131	-0.706989471	-0.707221833	-0.005196668	0.166902841	0.017527483	0
457	773976818	0.001764366	-0.000249833	-0.706995433	-0.707215867	0.006187642	0.154555153	-0.0093003	0
458	773993485	0.001761161	-0.00025099	-0.7070031	-0.70720821	-0.002522587	0.171334504	-0.006578748	0
459	774010152	0.001753298	-0.00025763	-0.707009829	-0.707201499	0.002927101	0.168689966	0.003464914	0
460	774026819	0.001756084	-0.000257145	-0.70702067	-0.707190655	0.001858644	0.165485919	0.003319923	0
461	774043486	0.001767777	-0.000254344	-0.707019844	-0.707191452	0.00108268	0.16393731	-0.011483175	0
462	774060153	0.001767583	-0.000255903	-0.70702597	-0.707185328	0.002670761	0.17229601	-0.006451808	0
463	774076820	0.001764119	-0.000243459	-0.70702497	-0.70718634	0.007218136	0.170197624	0.007075756	0
464	774093487	0.001757955	-0.000246381	-0.707027038	-0.707184288	-0.003261749	0.160631097	-0.00863662	0
465	774110154	0.001759924	-0.000241829	-0.707031216	-0.707180107	0.010693558	0.161628265	-0.02347279	0
466	774126821	0.001760697	-0.000254443	-0.707037594	-0.707173724	0.001723558	0.156287506	-0.005390599	0
467	774143488	0.001758046	-0.000248326	-0.707037935	-0.707173392	0.017174717	0.173555049	-0.004145946	0
468	774160155	0.001759701	-0.000250308	-0.707038217	-0.707173105	-0.002102837	0.162869175	-0.005740622	0
469	774176822	0.001773876	-0.000248278	-0.70703314	-0.707178146	0.000255336	0.159369755	0.003380861	0
470	774193489	0.001770382	-0.000237488	-0.70704166	-0.707169641	-0.004582144	0.160294891	-0.022811445	0
471	774210156	0.001778484	-0.000243114	-0.707044812	-0.707166466	0.004836715	0.158139781	-0.006536141	0
472	774226823	0.001784323	-0.000237154	-0.707043889	-0.707167377	0.009187576	0.165596867	-0.004823203	0
473	774243490	0.001770926	-0.000239656	-0.707046605	-0.707164694	0.012311567	0.169035051	-0.005166611	0
474	774260157	0.001772507	-0.000243947	-0.707051259	-0.707160035	-0.00304787	0.158777454	0.010666411	0
475	774276824	0.001779645	-0.000249964	-0.707052928	-0.707158347	0.009390378	0.172924593	-0.024351983	0
476	774293491	0.001783422	-0.000244537	-0.707059476	-0.707151792	-0.008187247	0.155920181	0.007078622	0
477	774310158	0.001788475	-0.000241211	-0.707058954	-0.707152302	0.002986885	0.174403452	-0.001028795	0
478	774326825	0.001789627	-0.000240092	-0.707064186	-0.707147068	0.005944156	0.156312932	0.008727546	0
479	774343492	0.001788132	-0.000174595	-0.707069984	-0.707141294	0.006178174	0.159951376	0.006733756	0
480	774360159	0.001788423	-0.00016698	-0.707069563	-0.707141716	0.002719248	0.178528869	-0.009753114	0
481	774376826	0.001798031	-0.000161758	-0.707074664	-0.707136593	0.008163055	0.168409662	-0.02549738	0
482	774393493	0.001790071	-0.000163193	-0.707080229	-0.707131048	-0.001715773	0.161814694	0.001132707	0
483	774410160	0.001790155	-0.000165842	-0.707080334	-0.707130942	-0.004855701	0.151417493	0.004689115	0
484	774426827	0.001787042	-0.000165583	-0.707076013	-0.70713527	0.006674034	0.168664489	0.009014871	0
485	774443494	0.001789211	-0.000171655	-0.707073502	-0.707137775	-0.009181761	0.158961808	0.004865046	0
486	774460161	0.001791431	-0.000166313	-0.707081251	-0.707130022	-0.000812423	0.157013457	-0.001836597	0
487	774476828	0.001791216	-0.000163635	-0.707084375	-0.7071269	-0.009674894	0.17645268	0.003131546	0
488	774493495	0.001791481	-0.000153033	-0.707078729	-0.707132547	-0.003230746	0.16373809	-0.021980654	0
489	774510162	0.001796981	-0.000151403	-0.707079027	-0.707132235	0.005941583	0.16673089	-0.006651563	0
490	774526829	0.001804608	-0.000150453	-0.707083139	-0.707128104	-0.005430131	0.157001054	0.01121024	0
491	774543496	0.001816969	-0.00014943	-0.707082487	-0.707128725	-0.000109804	0.168982663	-0.013341628	0
492	774560163	0.00182641	-0.000155734	-0.707082047	-0.707129139	0.012040683	0.169779281	-0.027410702	0
493	774576830	0.001827339	-0.000157564	-0.707074195	-0.707136987	0.010079962	0.159895436	-0.008687282	0
494	774593497	0.001825043	-0.000164743	-0.707072539	-0.707138647	0.009394085	0.160679935	-0.000206443	0
495	774610164	0.00183275	-0.000163065	-0.707072514	-0.707138653	0.003390335	0.160277138	-0.006226564	0
496	774626831	0.001828826	-0.000166755	-0.707071518	-0.707139658	0.021645323	0.174674164	-0.005865033	0
497	774643498	0.001826317	-0.000167448	-0.70708279	-0.707128394	0.005835041	0.165538825	0.001301519	0
498	774660165	0.001823161	-0.000166711	-0.707084944	-0.707126248	0.005220185	0.156242843	-0.013113042	0
499	774676832	0.001816745	-0.000163958	-0.707087456	-0.707123753	0.015483354	0.160416476	0.015592828	0
500	774693499	0.001817048	-0.000165434	-0.707089876	-0.707121332	0.01318378	0.157365274	0.017457972	0
501	774710166	0.00181754	-0.000166839	-0.707094381	-0.707116825	-0.000107258	0.175423728	0.008793651	0
502	774726833	0.001822652	-0.000175066	-0.707100488	-0.707110703	0.004901649	0.165644248	-0.030790434	0
503	774743500	0.001815798	-0.0001719	-0.707098641	-0.707112569	-0.00925988	0.158298032	-0.011649801	0
504	774760167	0.001804458	-0.000175298	-0.70709438	-0.707116858	0.005669014	0.171224265	-0.000244816	0
505	774776834	0.001796846	-0.000179484	-0.707089679	-0.707121578	0.005716873	0.157056287	0.022417312	0
506	774793501	0.001801511	-0.000175871	-0.707088248	-0.707122997	0.004733318	0.169210589	0.002149474	0
507	774810168	0.001801354	-0.000176442	-0.707088103	-0.707123142	0.012108031	0.168506222	0.000996304	0
508	774826835	0.001790655	-0.000185535	-0.707086087	-0.707125183	0.003390076	0.155073442	-0.006626048	0
509	774843502	0.001791541	-0.000191969	-0.707089237	-0.707122029	-0.008448486	0.166038418	-0.01387338	0
510	774860169	0.001797266	-0.000188792	-0.70708911	-0.707122143	0.01783202	0.151895783	-0.003424526	0
511	774876836	0.001791922	-0.000187276	-0.707095293	-0.707115974	0.016584225	0.160507229	-0.014594505	0
512	774893503	0.001788822	-0.00018656	-0.707103383	-0.707107892	0.005396028	0.170647737	0.000204119	0
513	774910170	0.001788115	-0.000180783	-0.707103167	-0.707108112	-0.007123776	0.16241996	-0.001330234	0
514	774926837	0.001791032	-0.000177814	-0.70710013	-0.707111142	-0.02073088	0.158478168	0.009993939	0
515	774943504	0.001799881	-0.00017645	-0.707103412	-0.707107837	0.004771945	0.162142047	0.009065345	0
516	774960171	0.00180646	-0.000162712	-0.707097721	-0.707113515	0.02733732	0.154464905	-0.018236272	0
517	774976838	0.001802646	-0.000165189	-0.707102158	-0.707109087	0.003094286	0.166839582	-0.013325133	0
518	774993505	0.001800454	-0.000165481	-0.707105197	-0.707106054	-0.004197552	0.179702873	0.004110151	0
519	775010172	0.001811882	-0.000157942	-0.707104902	-0.707106321	-0.013347031	0.156411475	0.011170417	0
520	775026839	0.001815625	-0.000151728	-0.707099998	-0.707111217	0.010543493	0.169125693	-0.023235928	0
521	775043506	0.001802019	-0.000146014	-0.707105303	-0.707105948	0.012475228	0.149026197	-0.006858858	0
522	775060173	0.001793182	-0.000147239	-0.707109154	-0.70710212	0.014493478	0.16462038	0.00101639	0
523	775076840	0.001792569	-0.00014698	-0.707109445	-0.70710183	0.000115824	0.1593935	0.010293712	0
524	775093507	0.001794256	-0.000150759	-0.707106563	-0.707104707	-0.009018095	0.162490902	-0.005894191	0
525	775110174	0.001786133	-0.000156273	-0.707107568	-0.707103722	-0.004429835	0.17945012	-0.006924283	0
526	775126841	0.001785225	-0.000154378	-0.707109079	-0.707102213	-0.007693136	0.157305268	-0.01084228	0
527	775143508	0.001778198	-0.000161659	-0.707106227	-0.707105081	0.002808808	0.171119934	-0.005404789	0
528	775160175	0.001786408	-0.000156017	-0.707110907	-0.707100381	-0.015725405	0.168797342	0.019782853	0
529	775176842	0.001781932	-0.000174187	-0.707109493	-0.707101803	0.010661704	0.171554024	-0.006153929	0
530	775193509	0.001783302	-0.000174894	-0.707112253	-0.707099039	0.006040773	0.166221749	-0.017323047	0
531	775210176	0.001784082	-0.000177723	-0.707116759	-0.70709453	-0.019517216	0.174362589	-0.009528906	0
532	775226843	0.001782825	-0.000179235	-0.707116555	-0.707094737	0.016462213	0.157250723	-0.010976676	0
533	775243510	0.001772661	-0.000182127	-0.707114535	-0.707096782	-0.00786925	0.166919836	-0.003870933	0
534	775260177	0.001763859	-0.000191092	-0.707115511	-0.707095825	-0.006124322	0.163457323	-0.010870577	0
535	775276844	0.001766348	-0.000184727	-0.707117829	-0.707093503	0.005448148	0.161169024	-0.024056438	0
536	775293511	0.001778142	-0.000180706	-0.707120434	-0.707090869	0.011238494	0.155205947	-0.019842337	0
537	775310178	0.001773587	-0.00018006	-0.707128891	-0.707082423	0.01476711	0.159733285	-0.024886616	0
538	775326845	0.001763697	-0.00018153	-0.707136065	-0.707075274	0.013212084	0.163712451	-0.027051438	0
539	775343512	0.001766575	-0.000194932	-0.707139466	-0.707071861	0.004191224	0.165845907	0.008115887	0
540	775360179	0.001767985	-0.00019582	-0.707141376	-0.707069947	0.007457823	0.168705257	-0.012656798	0
541	775376846	0.00177205	-0.000188755	-0.707140047	-0.707071268	0.008371426	0.184773027	-0.009897137	0
542	775393513	0.001757539	-0.000187789	-0.707138246	-0.707073105	0.002272658	0.164519189	0.001938235	0
543	775410180	0.001754929	-0.000187953	-0.707144216	-0.707067141	0.003807514	0.16902076	-7.97E-05	0
544	775426847	0.001752456	-0.000193158	-0.707149201	-0.70706216	0.011105298	0.159838566	-0.00396715	0
545	775443514	0.001766835	-0.000189185	-0.707150126	-0.707061201	-0.004446801	0.158141728	-0.005930154	0
546	775460181	0.001772196	-0.00018936	-0.707150964	-0.70706035	-0.007199335	0.155747748	-0.022346105	0
547	775476848	0.001765804	-0.000181328	-0.707149157	-0.707062175	0.001922832	0.165674619	-0.031027553	0
548	775493515	0.001771116	-0.000179576	-0.707149532	-0.707061787	-0.005856266	0.162638151	-0.02091204	0
549	775510182	0.001760426	-0.000174012	-0.707145819	-0.707065528	0.004523727	0.162412684	0.005919476	0
550	775526849	0.001764759	-0.000176856	-0.707150172	-0.707061163	0.001882764	0.165365755	-0.020755267	0
551	775543516	0.001771286	-0.00018342	-0.707148779	-0.707062539	0.002826227	0.172387996	-0.035699914	0
552	775560183	0.001780146	-0.000192903	-0.707148419	-0.707062874	0.004321176	0.160886605	-0.010500356	0
553	775576850	0.001781386	-0.000195029	-0.707161453	-0.707049834	0.001045129	0.182045586	-0.02227815	0
554	775593517	0.001788601	-0.000182675	-0.707165841	-0.70704543	-0.004262109	0.175799776	-0.011391807	0
555	775610184	0.00179696	-0.000176226	-0.707175192	-0.707036058	0.01574288	0.168605522	-0.009162599	0
556	775626851	0.001794504	-0.000181258	-0.707175901	-0.707035354	-0.00101916	0.154762749	0.023027762	0
557	775643518	0.001796695	-0.000176852	-0.707181407	-0.707029842	0.014548537	0.159127109	-0.019713338	0
558	775660185	0.001791001	-0.000176794	-0.707180588	-0.707030676	-0.002962553	0.157397291	-0.002595404	0
559	775676852	0.001795136	-0.000174543	-0.70718316	-0.707028093	-0.003074235	0.175934165	-0.007669915	0
560	775693519	0.001786137	-0.000171846	-0.707192366	-0.707018909	0.015139497	0.167648771	0.002679597	0
561	775710186	0.00178874	-0.000172681	-0.707190837	-0.707020431	0.012607895	0.172167831	-0.030576506	0
562	775726853	0.001789611	-0.000177274	-0.707195248	-0.707016016	0.01385935	0.15454156	-0.008003126	0
563	775743520	0.001787609	-0.000170421	-0.707189775	-0.707021497	-0.008819596	0.157761355	0.000802599	0
564	775760187	0.001792708	-0.000177546	-0.707179461	-0.707031799	-0.006251076	0.16660577	-0.014701672	0
565	775776854	0.001788122	-0.000174316	-0.707178743	-0.707032529	0.004223643	0.167991067	-0.000496194	0
566	775793521	0.00178481	-0.00016624	-0.707175055	-0.707036228	0.015470127	0.169377438	-0.015641671	0
567	775810188	0.00178524	-0.000168258	-0.707172715	-0.707038567	0.013726116	0.161484939	-0.014953626	0
568	775826855	0.001792824	-0.000164237	-0.707178285	-0.707032978	0.009421069	0.168712804	-0.007878185	0
569	775843522	0.001788455	-0.000155229	-0.707187583	-0.707023691	-0.001029786	0.169743972	-0.016431988	0
570	775860189	0.00177582	-0.000163866	-0.70718259	-0.707028715	-0.002178796	0.163247981	-0.011361258	0
571	775876856	0.001766621	-0.000174837	-0.707176543	-0.707034784	0.009833254	0.159932979	-0.018578236	0
572	775893523	0.001762086	-0.000183877	-0.707177523	-0.707033813	0.011770337	0.148532709	-0.005038432	0
573	775910190	0.001760629	-0.000187151	-0.707180416	-0.707030922	0.014220524	0.168042788	-0.01065651	0
574	775926857	0.00176719	-0.000179515	-0.707174921	-0.707036404	0.000868093	0.165700018	-0.003017693	0
575	775943524	0.001762897	-0.000180031	-0.70717846	-0.707032874	0.003094276	0.161615107	-0.029941474	0
576	775960191	0.001768469	-0.000172827	-0.707175336	-0.707035987	-0.001272713	0.170332641	-0.00036864	0
577	775976858	0.001762981	-0.000175692	-0.707172369	-0.707038968	0.016247601	0.164024106	-0.01971631	0
578	775993525	0.001751904	-0.000177511	-0.707167811	-0.707043553	2.41E-05	0.159746629	0.018862932	0
579	776010192	0.001744173	-0.000182876	-0.70716457	-0.707046813	0.006900671	0.165169582	-0.007446832	0
580	776026859	0.001752051	-0.00018937	-0.70716615	-0.707045211	-0.013786006	0.163976683	-0.024250033	0
581	776043526	0.001754787	-0.000189015	-0.707168806	-0.707042548	-0.00400659	0.170677794	0.0104735	0
582	776060193	0.00175967	-0.000192977	-0.707175363	-0.707035977	0.01164866	0.168810228	-0.021913121	0
583	776076860	0.001762833	-0.000189617	-0.707175509	-0.707035824	0.000794848	0.164716798	-0.000406868	0
584	776093527	0.00176834	-0.000191859	-0.707181672	-0.707029645	0.003535814	0.164711933	0.000378392	0
585	776110194	0.001765221	-0.000190257	-0.70718206	-0.707029265	0.010789032	0.172724938	-0.010839215	0
586	776126861	0.001768132	-0.000187051	-0.707177871	-0.707033448	-0.004610407	0.161124195	-0.017518221	0
587	776143528	0.001766944	-0.000199022	-0.707183053	-0.707028265	0.014381487	0.162109655	-0.026014296	0
588	776160195	0.001764405	-0.000193718	-0.707186631	-0.707024695	0.014110237	0.152763494	0.010849287	0
589	776176862	0.001766018	-0.000205292	-0.707185697	-0.707025621	0.017584399	0.158050337	-0.011409501	0
590	776193529	0.001758445	-0.000200268	-0.707191034	-0.707020304	0.00828472	0.146684861	-0.017733318	0
591	776210196	0.001755755	-0.00020884	-0.70718344	-0.707027903	0.016501693	0.167466141	-0.024169958	0
592	776226863	0.001758462	-0.000207544	-0.707182185	-0.707029152	0.004367504	0.166139588	-0.007496412	0
593	776243530	0.001764824	-0.000201689	-0.70717886	-0.707032464	0.004396668	0.170069891	-0.020279918	0
594	776260197	0.00176428	-0.00020666	-0.707173689	-0.707037636	-0.009450116	0.15927339	0.002195734	0
595	776276864	0.001769686	-0.000213685	-0.707173584	-0.707037725	0.004064925	0.14561334	-0.038442871	0
596	776293531	0.001756058	-0.000216298	-0.707181082	-0.707030258	0.007016072	0.161743302	-0.020101385	0
597	776310198	0.001761052	-0.00022031	-0.707178298	-0.70703303	0.012534434	0.156146314	-0.015352863	0
598	776326865	0.001757044	-0.000221241	-0.707175065	-0.707036273	-0.018746999	0.157115996	-0.004566156	0
599	776343532	0.001812959	-0.000181482	-0.707193498	-0.707017706	-0.006055871	0.159437314	-0.000260428	0
600	776360199	0.001804537	-0.000186842	-0.70719712	-0.707014103	0.001638027	0.164783357	0.001589455	0
601	776376866	0.001789189	-0.000182465	-0.707201331	-0.707009931	0.017953653	0.155842666	-0.004863395	0
602	776393533	0.001776289	-0.000181907	-0.707201503	-0.707009792	0.005304769	0.157966702	-0.003319206	0
603	776410200	0.001775478	-0.000189756	-0.707196541	-0.707014756	-0.021448382	0.158042945	0.007230548	0
604	776426867	0.00178251	-0.000177039	-0.707197594	-0.707013688	0.004544179	0.16379688	-0.008208004	0
605	776443534	0.00179241	-0.000177687	-0.707189642	-0.707021617	0.027555526	0.157699355	-0.016516269	0
606	776460201	0.001775719	-0.000182912	-0.707185479	-0.707025821	0.015782807	0.157927379	-0.00372081	0
607	776476868	0.001768797	-0.000183821	-0.70718597	-0.707025347	0.009245724	0.164681365	-0.007783757	0
608	776493535	0.001768616	-0.000180856	-0.707184013	-0.707027306	-0.007296584	0.171165403	-0.011283173	0
609	776510202	0.001773771	-0.000176096	-0.707189165	-0.707022141	0.001348078	0.166023078	-0.009131834	0
610	776526869	0.001779461	-0.000165057	-0.707190287	-0.707021007	0.007679746	0.153720989	0.001253117	0
611	776543536	0.001768285	-0.000172522	-0.707192849	-0.70701847	0.021808184	0.168897386	-0.016719977	0
612	776560203	0.001767641	-0.000177767	-0.707197084	-0.707014235	-0.011445782	0.16832942	-0.005329361	0
613	776576870	0.001770072	-0.000186978	-0.707192052	-0.70701926	-0.008873866	0.171715423	-0.001545763	0
614	776593537	0.00177225	-0.000187566	-0.70719331	-0.707017996	0.003158368	0.170645957	-0.013578862	0
615	776610204	0.001776295	-0.00017382	-0.707193509	-0.70701779	0.00420917	0.166941337	-0.011770847	0
616	776626871	0.001772866	-0.00017655	-0.707189679	-0.707021628	0.011024931	0.175577777	-0.012618414	0
617	776643538	0.001773196	-0.000181569	-0.707187931	-0.707023375	0.016716761	0.172476591	-0.008043458	0
618	776660205	0.001772215	-0.000188448	-0.707185434	-0.707025873	0.001730658	0.171228533	-0.000572321	0
619	776676872	0.001782871	-0.000194537	-0.707188649	-0.707022629	-0.014122279	0.172307153	0.023191913	0
620	776693539	0.001795616	-0.000190988	-0.707186844	-0.707024403	-0.00285557	0.162641719	-0.017144482	0
621	776710206	0.001783098	-0.000194977	-0.707183439	-0.70702784	0.013489711	0.175480779	-0.002030234	0
622	776726873	0.00178132	-0.000204101	-0.707182064	-0.707029217	0.016323928	0.180050096	-0.016582396	0
623	776743540	0.001779359	-0.000200864	-0.707181942	-0.707029345	-0.003128289	0.161809676	-0.001084339	0
624	776760207	0.001785208	-0.000192875	-0.707181042	-0.707030232	-0.00100187	0.161528212	0.013107283	0
625	776776874	0.001781784	-0.000188045	-0.707181185	-0.707030099	-0.002758683	0.169893561	-0.006336098	0
626	776793541	0.001785273	-0.000180452	-0.707182811	-0.707028466	0.011798595	0.17047133	-0.019179736	0
627	776810208	0.001785928	-0.000184965	-0.707177485	-0.707033791	-0.014653383	0.149913451	-0.00943476	0
628	776826875	0.001785452	-0.000189554	-0.707180863	-0.707030412	0.015982982	0.175063231	-0.009017642	0
629	776843542	0.001784618	-0.000196972	-0.707182237	-0.707029037	0.017592067	0.158951393	-0.001262634	0
630	776860209	0.001788796	-0.000192911	-0.70718345	-0.707027815	0.003584923	0.161277351	0.004910559	0
631	776876876	0.001790564	-0.000199074	-0.707180874	-0.707030385	0.004387017	0.148626741	-0.01909747	0
632	776893543	0.001783276	-0.000208679	-0.707183573	-0.707027701	-0.00824625	0.156243321	-0.000269457	0
633	776910210	0.001776136	-0.000208295	-0.707184863	-0.707026429	0.001257399	0.157811574	0.007572214	0
634	776926877	0.001780228	-0.000198547	-0.707186367	-0.707024918	-0.008846072	0.157445094	0.006873261	0
635	776943544	0.001774384	-0.000201331	-0.707183714	-0.707027584	0.007799509	0.162668924	-0.018527498	0
636	776960211	0.001763585	-0.000210608	-0.707189537	-0.707021785	0.003955331	0.15243822	-0.004687	0
637	776976878	0.001769748	-0.000211846	-0.707191749	-0.707019557	-0.015509553	0.16197418	0.006207849	0
638	776993545	0.001763768	-0.000208139	-0.707196704	-0.707014616	-0.002229896	0.169232641	-0.003675396	0
639	777010212	0.001762442	-0.00020366	-0.707198995	-0.707012329	0.011970127	0.164453766	-0.003253079	0
640	777026879	0.001763032	-0.000211423	-0.707193597	-0.707017725	0.011298547	0.161850979	0.000505316	0
641	777043546	0.001762275	-0.000214504	-0.707196207	-0.707015115	-0.006327487	0.175633261	-0.017142559	0
642	777060213	0.001767176	-0.00020387	-0.70719828	-0.707013032	0.004691301	0.156098541	0.001811531	0
643	777076880	0.00176408	-0.000204516	-0.70720048	-0.70701084	0.002393903	0.161060892	-0.017815897	0
644	777093547	0.001758114	-0.000199565	-0.707195303	-0.707016035	0.007742635	0.159744503	-0.000100451	0
645	777110214	0.001757449	-0.000201419	-0.707191781	-0.707019558	-0.009830838	0.162474526	0.015561811	0
646	777126881	0.001752866	-0.000196015	-0.707187947	-0.707023406	-0.026665004	0.15823442	0.002849524	0
647	777143548	0.00175807	-0.000192632	-0.707189922	-0.707021418	-0.013704684	0.177380923	0.004092458	0
648	777160215	0.001763468	-0.000194349	-0.707189255	-0.707022071	0.000926677	0.165830923	0.000722325	0
649	777176882	0.001760849	-0.00020138	-0.707191463	-0.707019868	0.012573469	0.158741075	-0.016994431	0
650	777193549	0.001756888	-0.000202085	-0.707182797	-0.707028546	0.004166708	0.179433824	0.019699384	0
651	777210216	0.001755457	-0.000208055	-0.707178609	-0.707032736	-6.01E-05	0.172467233	0.018778138	0
652	777226883	0.001768367	-0.000210669	-0.707179247	-0.707032065	-0.000155399	0.17200917	-0.010537785	0
653	777243550	0.001763865	-0.000200063	-0.707184127	-0.707027199	-0.001370917	0.165977407	-0.014957556	0
654	777260217	0.001749556	-0.000205226	-0.707179074	-0.707032287	0.013219971	0.175107244	-0.006562712	0
655	777276884	0.001740057	-0.000209631	-0.70717984	-0.707031542	0.007314248	0.156387734	0.010345284	0
656	777293551	0.001745168	-0.000219162	-0.707177644	-0.707033724	-0.007296855	0.155238331	0.003342401	0
657	777310218	0.001748819	-0.00019846	-0.707183774	-0.707027589	-0.02083294	0.158783422	0.002996109	0
658	777326885	0.001743998	-0.000194428	-0.707184319	-0.707027057	0.000438678	0.145873737	-0.025614646	0
659	777343552	0.001755078	-0.000210691	-0.707178463	-0.707032882	0.017290716	0.181502258	-0.033966878	0
660	777360219	0.001736807	-0.000216278	-0.707176108	-0.707035281	-0.011891522	0.172774735	-0.001649993	0
661	777376886	0.001724916	-0.000222876	-0.707178105	-0.70703331	0.003589071	0.170589852	0.001752194	0
662	777393553	0.00172573	-0.000212208	-0.707173477	-0.707037941	0.007909146	0.153222896	-0.017866566	0
663	777410220	0.001731069	-0.000213648	-0.707172075	-0.70703933	0.001237334	0.158897656	-0.017028093	0
664	777426887	0.001731078	-0.000219054	-0.707178418	-0.707032984	1.18E-05	0.163932221	-0.016646431	0
665	777443554	0.001717175	-0.000228787	-0.707177372	-0.707034061	0.011893192	0.160283314	-0.019075002	0
666	777460221	0.001719692	-0.000242331	-0.707185871	-0.707025549	-0.005998395	0.155230974	0.005898903	0
667	777476888	0.00171401	-0.000247851	-0.707185189	-0.707026244	0.002272223	0.170184504	0.011386398	0
668	777493555	0.001718038	-0.00024758	-0.707182823	-0.707028601	0.0079508	0.166874673	-0.025579398	0
669	777510222	0.001713302	-0.000247584	-0.70718544	-0.707025995	0.004723026	0.173030185	-0.012928734	0
670	777526889	0.001710711	-0.000259515	-0.707187073	-0.707024363	0.004398415	0.172408125	-0.010388781	0
671	777543556	0.001699043	-0.00026648	-0.707186714	-0.707024748	-0.001254108	0.163602572	0.006949446	0
672	777560223	0.001694715	-0.000273141	-0.707190167	-0.707021302	0.005122232	0.173177609	0.017782654	0
673	777576890	0.001688101	-0.000270399	-0.707186704	-0.707024782	-0.014015701	0.172728012	0.01103746	0
674	777593557	0.001678687	-0.000268224	-0.707190188	-0.707021321	-0.005048834	0.166425949	-0.003381289	0
675	777610224	0.001673212	-0.00026693	-0.707191358	-0.707020164	0.006082728	0.169628785	0.002950641	0
676	777626891	0.001667601	-0.000264244	-0.707192612	-0.707018924	0.014502252	0.162405619	-0.001401807	0
677	777643558	0.001667687	-0.000266478	-0.707193121	-0.707018414	0.014198904	0.175089952	-0.002081581	0
678	777660225	0.001684969	-0.000260602	-0.707196569	-0.707014926	0.006806452	0.176609195	-0.007944381	0
679	777676892	0.001685085	-0.000255373	-0.707194266	-0.707017231	0.007447458	0.154742117	-0.032723232	0
680	777693559	0.001687192	-0.000252654	-0.707186078	-0.707025417	0.005034239	0.166567331	-0.027016566	0
681	777710226	0.001686173	-0.00025382	-0.707184027	-0.707027471	0.006750446	0.17316974	-0.018361102	0
682	777726893	0.001688995	-0.000246598	-0.707180759	-0.707030735	0.008210469	0.147729057	0.002387306	0
683	777743560	0.001686694	-0.00025625	-0.707177982	-0.707033515	0.011614851	0.157780752	-0.00991248	0
684	777760227	0.001682101	-0.000251207	-0.70717341	-0.707038101	3.98E-05	0.176554397	-0.005903237	0
685	777776894	0.001681842	-0.000257146	-0.707170243	-0.707041266	-0.006308733	0.161620805	-0.00504907	0
686	777793561	0.001672338	-0.000246876	-0.707173866	-0.707037669	0.015296634	0.171822272	-0.020955472	0
687	777810228	0.001660858	-0.000244485	-0.707173263	-0.7070383	0.017571367	0.172498137	-0.006369911	0
688	777826895	0.001655312	-0.000253073	-0.70717716	-0.707034412	0.004585135	0.171041491	0.00207745	0
689	777843562	0.001656923	-0.00026214	-0.707180272	-0.707031293	0.00763815	0.169386428	0.007449745	0
690	777860229	0.001658506	-0.000270273	-0.707178348	-0.707033211	-0.002549445	0.16135313	-0.019633072	0
691	777876896	0.001656109	-0.000275738	-0.707174709	-0.707036854	-0.000527528	0.172344865	-0.024781835	0
692	777893563	0.001643262	-0.000282227	-0.707173804	-0.707037787	0.01661941	0.167823879	-0.016363385	0
693	777910230	0.00162978	-0.000295235	-0.707172694	-0.707038922	0.01402326	0.160229919	0.008001127	0
694	777926897	0.001629565	-0.000297714	-0.707172921	-0.707038695	0.004099791	0.172386939	0.014786847	0
695	777943564	0.00164533	-0.000285609	-0.707176723	-0.70703486	0.016282114	0.167907659	-0.016173418	0
696	777960231	0.001656911	-0.000284666	-0.707176286	-0.70703527	0.011174856	0.165864739	-0.040048888	0
697	777976898	0.001651645	-0.00029416	-0.707175153	-0.707036412	0.003363052	0.161076091	-0.016185219	0
698	777993565	0.001648829	-0.000300971	-0.70717181	-0.70703976	0.001682225	0.18356146	-0.011507552	0
699	778010232	0.001637449	-0.000296392	-0.707170261	-0.707041338	0.005549966	0.171466311	-0.004816361	0
700	778026899	0.001647829	-0.00028569	-0.707172317	-0.707039261	0.003845621	0.163560966	-0.020087978	0
701	778043566	0.001647153	-0.000279865	-0.707167128	-0.707044455	0.007429234	0.15890109	-0.01778111	0
702	778060233	0.001641416	-0.000285683	-0.707167259	-0.707044335	0.001247471	0.169985342	-0.016942819	0
703	778076900	0.001639902	-0.000289741	-0.707168969	-0.707042626	0.002404286	0.162799371	-0.007606424	0
704	778093567	0.001633422	-0.000288521	-0.707165441	-0.707046171	0.005256998	0.167107191	0.01294153	0
705	778110234	0.001636075	-0.000285094	-0.707164489	-0.707047118	0.014322166	0.171504436	0.005454937	0
706	778126901	0.001641209	-0.000288683	-0.707173973	-0.70703762	0.010814598	0.166160923	-0.016664103	0
707	778143568	0.001633535	-0.000285923	-0.707179096	-0.707032514	-0.007339444	0.171918155	-0.012034636	0
708	778160235	0.00163529	-0.000298051	-0.707182232	-0.707029368	0.000861148	0.173516789	0.015199882	0
709	778176902	0.001622691	-0.000305743	-0.707182833	-0.707028793	0.006984176	0.17265417	0.001071296	0
710	778193569	0.001621544	-0.000303307	-0.707181476	-0.707030154	-0.004355677	0.171497975	0.008010012	0
711	778210236	0.001631088	-0.000294074	-0.707175077	-0.707036536	0.011560788	0.17061364	-0.02043319	0
712	778226903	0.00162758	-0.000289524	-0.707176418	-0.707035205	0.019705251	0.162024421	-0.030793303	0
713	778243570	0.001614004	-0.000287774	-0.707176092	-0.707035563	-0.002578882	0.173839839	-0.017029762	0
714	778260237	0.001617857	-0.000302008	-0.707177103	-0.707034537	0.008147172	0.175082896	-0.011986131	0
715	778276904	0.001624199	-0.000292943	-0.70717367	-0.70703796	-0.000325789	0.178164833	0.018896301	0
716	778293571	0.001625993	-0.000284109	-0.707176542	-0.707035087	0.005951907	0.163666104	0.010224306	0
717	778310238	0.00162219	-0.000274668	-0.707178682	-0.707032959	0.006352213	0.161242722	-0.031773737	0
718	778326905	0.001605214	-0.000276176	-0.707178535	-0.707033144	0.006096576	0.167043057	-0.022041111	0
719	778343572	0.001726424	-0.000215732	-0.707255192	-0.706956198	0.004520173	0.163480675	-0.016129929	0
720	778360239	0.001722371	-0.000213468	-0.707258353	-0.706953047	0.005070186	0.165712793	-0.003783763	0
721	778376906	0.001727305	-0.000215642	-0.707257124	-0.706954264	0.010944969	0.169124301	0.005496597	0
722	778393573	0.001724411	-0.00020713	-0.707266143	-0.70694525	-0.003539013	0.177432374	-0.024707833	0
723	778410240	0.001711478	-0.000214159	-0.70726426	-0.706947163	0.007165927	0.149011607	-0.033610186	0
724	778426907	0.001705447	-0.000220215	-0.707261548	-0.706949889	-0.002829973	0.166468074	0.004766089	0
725	778443574	0.001705829	-0.000225592	-0.707257908	-0.706953528	0.009128339	0.158080627	0.005723796	0
726	778460241	0.001711985	-0.000221316	-0.707263885	-0.706947535	0.003430198	0.184025989	0.027392342	0
727	778476908	0.001730716	-0.000212563	-0.707267907	-0.706943468	0.005828467	0.171113415	-0.016727364	0
728	778493575	0.001731841	-0.000210005	-0.7072644	-0.706946975	0.008862212	0.164477179	-0.012887414	0
729	778510242	0.001740652	-0.000213485	-0.707260044	-0.70695131	0.001397832	0.169178962	-0.021478838	0
730	778526909	0.001740679	-0.000214563	-0.707260154	-0.7069512	-0.000634236	0.176390825	0.00048119	0
731	778543576	0.00173713	-0.000212507	-0.707260166	-0.706951197	-0.001709539	0.158868633	0.012997989	0
732	778560243	0.001748696	-0.000209292	-0.707265708	-0.706945625	0.00855685	0.161458887	0.001726867	0
733	778576910	0.001759959	-0.000210174	-0.707261934	-0.706949372	0.01004934	0.163446949	-0.021798666	0
734	778593577	0.001768149	-0.000198403	-0.707261876	-0.706949414	0.011601711	0.163023983	-0.017359387	0
735	778610244	0.00176191	-0.000199222	-0.707259819	-0.706951486	0.008534053	0.156568818	-0.019981146	0
736	778626911	0.001742454	-0.000205532	-0.707260093	-0.706951259	0.030619326	0.160439251	-0.018304502	0
737	778643578	0.001738087	-0.000208833	-0.707263008	-0.706948353	-0.002290094	0.167729484	0.005326825	0
738	778660245	0.001750285	-0.000208181	-0.707261739	-0.706949592	-0.009715227	0.161688081	0.01655121	0
739	778676912	0.001749392	-0.000202311	-0.707257487	-0.70695385	0.001112982	0.167182865	-0.013647162	0
740	778693579	0.001758617	-0.000196584	-0.707261742	-0.706949571	-0.003661915	0.168883403	-0.004269917	0
741	778710246	0.001750578	-0.000198412	-0.707257444	-0.706953891	-0.022924341	0.158364953	0.00861381	0
742	778726913	0.001756945	-0.000200294	-0.707260151	-0.706951167	-0.007562647	0.178125369	0.011269984	0
743	778743580	0.001765189	-0.00019449	-0.707259811	-0.706951487	0.010591343	0.164015779	-0.012451622	0
744	778760247	0.001768413	-0.000177865	-0.707253885	-0.706957412	0.005043358	0.1737063	-0.022638583	0
745	778776914	0.001765236	-0.000176419	-0.707248881	-0.706962427	-0.003762532	0.174485618	-0.015103992	0
746	778793581	0.001761339	-0.00019159	-0.707250433	-0.70696088	0.002205814	0.165050728	-0.005659742	0
747	778810248	0.001755323	-0.000199307	-0.707250374	-0.706960952	-0.003995432	0.154247248	-0.004977956	0
748	778826915	0.001757774	-0.000190038	-0.707247139	-0.706964185	0.003452366	0.165107197	0.016471315	0
749	778843582	0.001762976	-0.000191482	-0.707247487	-0.706963823	-0.00066644	0.16319824	-0.006836251	0
750	778860249	0.001766232	-0.000184998	-0.707253087	-0.706958215	-0.002424385	0.179148844	-0.029335851	0
751	778876916	0.001752792	-0.00019063	-0.707256349	-0.706954983	0.017939612	0.165731271	-0.02814073	0
752	778893583	0.001750375	-0.000192782	-0.707257025	-0.706954312	-0.011811611	0.16873977	0.010217309	0
753	778910250	0.001761687	-0.000186912	-0.707252656	-0.706958657	-0.001765295	0.158852681	-0.007506797	0
754	778926917	0.001765355	-0.000190043	-0.707256444	-0.706954857	-0.002260587	0.162946289	0.008816803	0
755	778943584	0.001765632	-0.000190531	-0.707254978	-0.706956323	0.002187307	0.161479876	-0.018124117	0
756	778960251	0.001766232	-0.000199543	-0.707251442	-0.706959856	-0.015804787	0.173048581	-0.008973433	0
757	778976918	0.001752492	-0.000208855	-0.707258112	-0.706953215	0.005051594	0.159450791	0.00090718	0
758	778993585	0.001753984	-0.000211754	-0.707264793	-0.706946526	-0.001237534	0.163239877	0.00793488	0
759	779010252	0.001753536	-0.000205611	-0.707277378	-0.706933938	0.003395778	0.15908569	0.010799387	0
760	779026919	0.001761044	-0.000198702	-0.707280529	-0.706930769	0.002762309	0.157379481	-0.008918845	0
761	779043586	0.001752342	-0.000198083	-0.707282277	-0.706929042	-0.014151229	0.158510223	0.001256231	0
762	779060253	0.001756167	-0.000197827	-0.707279852	-0.706931459	0.01182672	0.171099011	-0.014220139	0
763	779076920	0.001757739	-0.000199892	-0.707277037	-0.706934271	0.010494737	0.161179628	-0.009391948	0
764	779093587	0.001750753	-0.000201206	-0.707284606	-0.706926715	0.003577964	0.162207779	0.012551617	0
765	779110254	0.001769916	-0.00017801	-0.707289539	-0.706921738	0.003312697	0.167637689	-0.020045636	0
766	779126921	0.001751313	-0.000199468	-0.707283096	-0.706928225	0.013191659	0.152167774	-0.024965737	0
767	779143588	0.001772039	-0.000182141	-0.707286227	-0.706925046	0.013445862	0.162447219	-0.005164436	0
768	779160255	0.001748116	-0.000204711	-0.707280913	-0.706930415	0.00277487	0.159043617	-0.015400415	0
769	779176922	0.001746377	-0.000203901	-0.707278133	-0.706933202	-0.006164563	0.156468762	0.027757567	0
770	779193589	0.001760828	-0.000189431	-0.707280697	-0.706930605	-0.004718509	0.161687669	-0.049412123	0
771	779210256	0.001736515	-0.000219969	-0.707277957	-0.706933397	-0.014791923	0.154272428	-0.009041786	0
772	779226923	0.001749203	-0.000193588	-0.707276748	-0.706934583	0.021879292	0.17002535	-0.013172743	0
773	779243590	0.001718123	-0.000241268	-0.707276845	-0.706934548	0.013188681	0.16343737	0.019482573	0
774	779260257	0.00175342	-0.000203206	-0.707279999	-0.706931318	-0.023655717	0.161392199	0.026652999	0
775	779276924	0.001744244	-0.000209101	-0.707279395	-0.706931942	-0.017928104	0.159879029	-0.04057558	0
776	779293591	0.001756609	-0.000197674	-0.707281372	-0.706929938	-0.018956806	0.166229874	-0.008936701	0
777	779310258	0.001748891	-0.000205072	-0.707283664	-0.706927661	0.028018041	0.149635089	-0.023733466	0
778	779326925	0.00174235	-0.000200517	-0.707280755	-0.706930589	-0.004994442	0.157334134	0.022838594	0
779	779343592	0.001755669	-0.000187392	-0.707277193	-0.706934123	-0.002205062	0.17038369	0.01365432	0
780	779360259	0.001747014	-0.000182557	-0.70727541	-0.70693593	-0.009285569	0.172695072	-0.017733741	0
781	779376926	0.001772766	-0.000154559	-0.707278377	-0.706932904	0.003477951	0.175231766	-0.034824584	0
782	779393593	0.001761207	-0.00017536	-0.707279779	-0.706931525	0.00849407	0.154519011	-0.016943365	0
783	779410260	0.001768526	-0.000171339	-0.707287372	-0.706923912	0.013102652	0.152690542	0.008412198	0
784	779426927	0.001757185	-0.000183105	-0.707289853	-0.706921454	-0.002841339	0.153038225	0.024718341	0
785	779443594	0.00177213	-0.000160559	-0.707295407	-0.706915866	0.006024412	0.158408562	0.01060898	0
786	779460261	0.001778551	-0.000160525	-0.70729526	-0.706915997	0.007940313	0.169180358	-0.028383918	0
787	779476928	0.001776238	-0.000163625	-0.70729868	-0.70691258	-0.008017564	0.160869052	-0.021889663	0
788	779493595	0.001760729	-0.00017259	-0.707296232	-0.706915065	0.032180893	0.151617964	-0.024843091	0
789	779510262	0.001754502	-0.000161895	-0.707291387	-0.706919931	-0.009129647	0.17743242	0.034160295	0
790	779526929	0.001768267	-0.000154145	-0.707289878	-0.706921408	0.001848199	0.178544114	-0.004985056	0
791	779543596	0.001770397	-0.000168628	-0.707293858	-0.706917418	-0.002627801	0.165564996	-0.026898346	0
792	779560263	0.001780202	-0.000162942	-0.70729685	-0.706914401	0.001107762	0.166291637	-0.043890486	0
793	779576930	0.00175596	-0.000183937	-0.70729823	-0.706913076	0.011466417	0.167022147	-0.007109327	0
794	779593597	0.001759256	-0.000179494	-0.707293046	-0.706918255	-0.007999519	0.145496328	0.008739735	0
795	779610264	0.001758984	-0.000173962	-0.707294535	-0.706916768	0.011599299	0.171270489	0.007035908	0
796	779626931	0.001772657	-0.000163593	-0.70729634	-0.70691493	-0.010620152	0.155430655	-0.013118534	0
797	779643598	0.001765752	-0.000175447	-0.707294603	-0.706916683	-0.014865607	0.174151796	-0.027841889	0
798	779660265	0.001763742	-0.000184908	-0.707294967	-0.706916321	-0.014719809	0.163051358	-0.012856493	0
799	779676932	0.001756283	-0.000184246	-0.707298452	-0.706912853	0.007250067	0.172699094	0.005765802	0
800	779693599	0.001757535	-0.000181229	-0.707295965	-0.706915339	0.004002286	0.164974899	0.020759452	0
801	779710266	0.001769381	-0.000166029	-0.707302308	-0.706908966	-0.011207017	0.156965613	-0.001821152	0
802	779726933	0.001756113	-0.000172359	-0.707302233	-0.706909073	0.00213075	0.171145792	-0.037274269	0
803	779743600	0.00175112	-0.000179186	-0.707303516	-0.7069078	-0.012664646	0.166046903	-0.011948847	0
804	779760267	0.001744303	-0.000191678	-0.707306946	-0.706904382	-0.0077659	0.169196092	-0.007963004	0
805	779776934	0.001743463	-0.000195342	-0.707309171	-0.706902157	0.00305883	0.162133674	0.005842246	0
806	779793601	0.00174438	-0.000197745	-0.707311954	-0.706899369	0.007708453	0.167837205	0.018194714	0
807	779810268	0.00175966	-0.000188316	-0.707311897	-0.70689939	-0.017206588	0.155610777	-0.018883534	0
808	779826935	0.001743104	-0.000201042	-0.707312845	-0.706898479	0.003817693	0.159616702	-0.038445589	0
809	779843602	0.001746707	-0.000203808	-0.707309599	-0.706901718	0.002005122	0.17123612	-0.012911592	0
810	779860269	0.001749071	-0.000205616	-0.707311781	-0.706899528	0.012130265	0.158675789	0.018908832	0
811	779876936	0.001764003	-0.000201392	-0.707318349	-0.70689292	0.015722023	0.174593776	-0.00079378	0
812	779893603	0.001778429	-0.000187279	-0.707317435	-0.706893803	0.001721611	0.170777646	-0.014830255	0
813	779910270	0.001764639	-0.000191159	-0.707317814	-0.706893457	-0.024641602	0.160123196	0.010037724	0
814	779926937	0.001749964	-0.000198716	-0.707322671	-0.706888632	-0.015847671	0.164595487	-0.005921129	0
815	779943604	0.00174691	-0.000194682	-0.707323222	-0.706888089	-0.001291506	0.166681441	0.029229076	0
816	779960271	0.001750016	-0.000180643	-0.707321259	-0.706890049	0.010085428	0.172574325	0.008632898	0
817	779976938	0.001752087	-0.000173297	-0.707323929	-0.706887374	0.023898954	0.148745786	-0.022750644	0
818	779993605	0.001748104	-0.000179654	-0.707325912	-0.706885398	-0.008631893	0.158261217	-0.019828846	0
819	780010272	0.001731436	-0.000194356	-0.707322391	-0.706888959	-0.014827864	0.16296007	-0.017895358	0
820	780026939	0.001731426	-0.000197901	-0.70731983	-0.70689152	-7.09E-05	0.158694204	0.006260021	0
821	780043606	0.001727402	-0.000195557	-0.707324067	-0.706887291	0.00475698	0.163705681	0.008349867	0
822	780060273	0.0017469	-0.000178973	-0.707325951	-0.706885362	0.006046671	0.158870503	-0.003201768	0
823	780076940	0.00175612	-0.000183959	-0.707330524	-0.706880762	0.003623397	0.163848813	-0.040744581	0
824	780093607	0.001749877	-0.000198827	-0.707330661	-0.706880636	-0.002015618	0.170469576	-0.030838682	0
825	780110274	0.001744274	-0.000208353	-0.707327211	-0.7068841	-0.003741609	0.165928129	-0.004712126	0
826	780126941	0.001753016	-0.000201219	-0.70732991	-0.70688138	0.014398363	0.152654243	0.026014608	0
827	780143608	0.001756891	-0.000188758	-0.707330195	-0.706881089	0.003150587	0.168761125	-0.003951251	0
828	780160275	0.001756014	-0.000176862	-0.707332224	-0.706879064	0.008315401	0.159512155	-0.032372285	0
829	780176942	0.001738609	-0.000177995	-0.707329152	-0.70688218	-0.009622307	0.172560128	-0.036270388	0
830	780193609	0.001733692	-0.000185287	-0.707326812	-0.706884531	-0.025815036	0.152316117	-0.000478924	0
831	780210276	0.001729206	-0.000185059	-0.70732096	-0.706890398	-0.01221181	0.163979388	0.008299537	0
832	780226943	0.001745011	-0.000166206	-0.70731713	-0.706894196	3.00E-05	0.17499956	0.016684453	0
833	780243610	0.001751811	-0.00015417	-0.707322877	-0.706888432	0.015797723	0.152467535	-0.012461931	0
834	780260277	0.001744937	-0.000161249	-0.707321443	-0.706889882	0.001495364	0.1568181	-0.006246929	0
835	780276944	0.001729547	-0.000176067	-0.707321928	-0.706889431	-0.020829401	0.155371957	-0.000379384	0
836	780293611	0.001725252	-0.000169927	-0.70732971	-0.706881656	-0.011628895	0.161055071	0.006194454	0
837	780310278	0.001728546	-0.000173273	-0.707329933	-0.706881425	0.013641443	0.163323173	-0.009040506	0
838	780326945	0.001730924	-0.000166762	-0.707329348	-0.706882005	0.015673391	0.162161716	-0.009234799	0
839	780343612	0.001730752	-0.000210791	-0.707319886	-0.706891462	0.013876143	0.156091189	-0.011484452	0
840	780360279	0.001725335	-0.000231152	-0.707322394	-0.706888959	-0.028663224	0.156480235	0.006578997	0
841	780376946	0.001725104	-0.00023002	-0.707321702	-0.706889653	-0.022731893	0.172716988	0.000757117	0
842	780393613	0.00173465	-0.000221905	-0.707321156	-0.706890178	0.002850539	0.1558813	0.004841086	0
843	780410280	0.001742393	-0.000219583	-0.707324095	-0.706887219	0.023393961	0.167895515	0.004743686	0
844	780426947	0.001755787	-0.000223807	-0.707325401	-0.706885878	0.030844848	0.157207996	-0.016107502	0
845	780443614	0.001751847	-0.000233987	-0.707328803	-0.70688248	-0.020229833	0.166547996	0.003805625	0
846	780460281	0.001753461	-0.000242491	-0.707332166	-0.706879108	-0.023991167	0.165345366	0.006394732	0
847	780476948	0.001762287	-0.000244311	-0.707334521	-0.706876729	-0.01860767	0.162470854	0.004142021	0
848	780493615	0.001781609	-0.000223037	-0.70733302	-0.706878189	0.002345065	0.165953069	-0.003413566	0
849	780510282	0.001775246	-0.00022491	-0.707332445	-0.706878781	0.01474857	0.160532937	-0.016366826	0
850	780526949	0.001767238	-0.000230372	-0.707332837	-0.706878406	0.022604107	0.170588433	-0.000713029	0
851	780543616	0.001760186	-0.000236432	-0.707327803	-0.706883459	-0.005823147	0.160947229	-0.012099489	0
852	780560283	0.001764576	-0.000231725	-0.707325509	-0.706885745	-0.021634582	0.16766556	-0.017601601	0
853	780576950	0.001774641	-0.00022052	-0.707324942	-0.706886291	0.004808019	0.16316295	-0.009147028	0
854	780593617	0.001781204	-0.000219498	-0.707321524	-0.706889695	0.021657688	0.159473173	0.000533227	0
855	780610284	0.001773276	-0.000228055	-0.707329433	-0.706881798	0.009146984	0.150458596	0.007136297	0
856	780626951	0.001769598	-0.000231486	-0.707320539	-0.706890706	0.005907809	0.159709201	0.001199671	0
857	780643618	0.001769855	-0.000237317	-0.707322601	-0.70688864	-0.019733942	0.161240683	0.010030692	0
858	780660285	0.001778981	-0.00023061	-0.707328946	-0.70688227	-0.00481916	0.170380314	-0.005662929	0
859	780676952	0.001783956	-0.000232556	-0.707328094	-0.70688311	0.012894736	0.177943571	-0.01426156	0
860	780693619	0.001771276	-0.000244033	-0.707323079	-0.706888156	0.021518596	0.161068875	-0.004856199	0
861	780710286	0.001759463	-0.000247365	-0.707325231	-0.706886031	-0.008467037	0.168216783	-0.004598064	0
862	780726953	0.001767462	-0.000248873	-0.707329526	-0.706881713	-0.004541753	0.153394202	-0.013827379	0
863	780743620	0.001780133	-0.000237237	-0.707331211	-0.706879999	-0.023297242	0.164665613	0.001561394	0
864	780760287	0.001780716	-0.000230066	-0.707338169	-0.706873037	0.006841542	0.160937593	-0.019929269	0
865	780776954	0.001766757	-0.000242372	-0.707347139	-0.706864092	0.030737727	0.163471482	-0.007113307	0
866	780793621	0.001763706	-0.000257158	-0.707361642	-0.706849582	0.023609761	0.153858654	0.006587298	0
867	780810288	0.001756638	-0.000256727	-0.707367174	-0.706844063	-0.017655815	0.158969612	0.022233303	0
868	780826955	0.001764122	-0.000252884	-0.707373378	-0.706837837	-0.036355858	0.159349074	0.020328469	0
869	780843622	0.001766728	-0.00025096	-0.707377003	-0.706834203	0.006225897	0.164941089	-0.01570476	0
870	780860289	0.001771863	-0.000238727	-0.707377175	-0.706834023	0.014097942	0.160643999	-0.00581414	0
871	780876956	0.001770361	-0.00024326	-0.707377423	-0.706833777	0.011689332	0.158282823	0.001139399	0
872	780893623	0.001767811	-0.00025184	-0.707380532	-0.706830669	0.004904841	0.159832535	0.008048855	0
873	780910290	0.0017686	-0.000245709	-0.707384439	-0.706826759	-0.008926594	0.175642732	-0.000108639	0
874	780926957	0.001784517	-0.000243683	-0.707382449	-0.706828711	-0.006483472	0.170391574	-0.013221147	0
875	780943624	0.001779644	-0.000244548	-0.707383961	-0.70682721	0.016200694	0.164618879	-0.027727251	0
876	780960291	0.001769666	-0.000237922	-0.70738694	-0.706824256	0.023056297	0.164779443	0.004918293	0
877	780976958	0.001759186	-0.000246663	-0.707390568	-0.706820648	0.006170443	0.173421561	-0.00207615	0
878	780993625	0.001761127	-0.000245427	-0.707392662	-0.706818548	-0.01024721	0.164168268	0.006537777	0
879	781010292	0.001770409	-0.000233862	-0.707391936	-0.706819256	-0.007368554	0.162704185	-0.008660443	0
880	781026959	0.001762191	-0.000236244	-0.707399106	-0.706812099	0.003550209	0.166146477	-0.007656811	0
881	781043626	0.001745243	-0.000237334	-0.707397758	-0.706813491	0.00239883	0.169941501	0.006058855	0
882	781060293	0.001729402	-0.000236527	-0.707399027	-0.706812259	0.011626518	0.157197812	0.032793227	0
883	781076960	0.001724654	-0.000238352	-0.707392861	-0.706818441	0.009207736	0.15805441	0.005580981	0
884	781093627	0.00173228	-0.000231789	-0.707391192	-0.706820095	0.004101103	0.16845594	-0.005459635	0
885	781110294	0.001736919	-0.000230316	-0.707390794	-0.706820483	-0.002797968	0.158320467	-0.033267361	0
886	781126961	0.001722239	-0.000233687	-0.707392382	-0.706818928	0.016661277	0.154916719	-0.0223737	0
887	781143628	0.001719562	-0.000249166	-0.70740126	-0.706810044	0.01099421	0.154740528	0.014393047	0
888	781160295	0.00171435	-0.000256719	-0.707405368	-0.706805943	0.009036958	0.166965692	0.012021166	0
889	781176962	0.001714482	-0.000256071	-0.707405579	-0.706805732	-0.007150396	0.163014816	-0.017782792	0
890	781193629	0.001709577	-0.000257619	-0.707405967	-0.706805355	-0.020236409	0.163785148	-0.010063746	0
891	781210296	0.001701859	-0.000267841	-0.707404199	-0.706807139	0.009719615	0.161249023	-0.017252815	0
892	781226963	0.001698376	-0.000270514	-0.707405144	-0.7068062	0.003631176	0.150872294	0.02122178	0
893	781243630	0.001687033	-0.000273407	-0.70740147	-0.706809903	-0.008090745	0.151190966	0.023131195	0
894	781260297	0.001695717	-0.000260127	-0.707409106	-0.706802245	-0.000488626	0.163351651	-0.023374186	0
895	781276964	0.001707515	-0.000259822	-0.707409907	-0.706801415	-0.011020986	0.147168865	-0.021095334	0
896	781293631	0.001702381	-0.000263516	-0.707416172	-0.706795156	-0.006527519	0.164948655	-0.029106406	0
897	781310298	0.001692164	-0.000276992	-0.70741463	-0.706796718	0.017564924	0.159708096	-0.01496196	0
898	781326965	0.001683375	-0.000281068	-0.707413333	-0.706798036	0.011998888	0.157595205	0.015788799	0
899	781343632	0.001682168	-0.000274262	-0.707402692	-0.706808691	0.001699589	0.155101348	0.025901921	0
900	781360299	0.001700824	-0.000268329	-0.707404237	-0.706807103	-0.002552303	0.153818498	-0.020142707	0
901	781376966	0.001702314	-0.000266686	-0.707406602	-0.706804733	-0.004907715	0.172154566	-0.045940095	0
902	781393633	0.001699537	-0.000279964	-0.707410487	-0.706800846	0.023744865	0.155330077	-0.029313748	0
903	781410300	0.001689309	-0.000294833	-0.707410372	-0.706800979	0.011860566	0.174028972	0.005104913	0
904	781426967	0.001692536	-0.000295891	-0.707404373	-0.706806976	0.008408502	0.166495764	-0.000386178	0
905	781443634	0.001698573	-0.000301259	-0.707403622	-0.706807711	-0.001287745	0.165873561	-0.013624191	0
906	781460301	0.001703836	-0.000299741	-0.707396278	-0.706815048	-0.005024334	0.171304785	-0.015340822	0
907	781476968	0.001697936	-0.000312101	-0.707400588	-0.706810744	-0.0170636	0.165892869	-0.00083516	0
908	781493635	0.001699128	-0.000316645	-0.707402332	-0.706808994	0.000564009	0.1584474	-0.003188152	0
909	781510302	0.001694249	-0.000313597	-0.707405019	-0.706806318	0.011232885	0.174657006	0.028151066	0
910	781526969	0.001697724	-0.000307957	-0.707406614	-0.706804716	0.027148585	0.169707127	-0.005540831	0
911	781543636	0.001699028	-0.000305759	-0.707408289	-0.706803037	-0.008460426	0.148214859	-0.032618204	0
912	781560303	0.001697071	-0.000313548	-0.707410201	-0.706801124	-0.010211545	0.174669293	-0.028273689	0
913	781576970	0.001692627	-0.000319533	-0.707416446	-0.706794882	0.00134374	0.15731961	-0.003302986	0
914	781593637	0.001694261	-0.000321294	-0.707416401	-0.706794922	0.010646102	0.172912153	0.003354562	0
915	781610304	0.001702492	-0.000300218	-0.707423506	-0.7067878	0.025039348	0.161879385	-0.010749409	0
916	781626971	0.001720366	-0.000298904	-0.707422625	-0.706788639	0.00293229	0.176410492	-0.035017862	0
917	781643638	0.001694218	-0.000314989	-0.707421577	-0.706789745	-0.019043448	0.174006471	-0.01369014	0
918	781660305	0.001711163	-0.000317542	-0.707422802	-0.706788477	0.001741423	0.178299684	0.001981001	0
919	781676972	0.001709513	-0.000325772	-0.707423422	-0.706787856	0.011982527	0.165885451	-0.001973356	0
920	781693639	0.001724055	-0.000315389	-0.707424601	-0.706786645	0.03502346	0.17788762	-0.010151789	0
921	781710306	0.00171331	-0.00031499	-0.707420733	-0.706790543	0.021744256	0.164558567	-0.026682092	0
922	781726973	0.001712386	-0.000310212	-0.707423847	-0.706787431	-0.036636555	0.16043893	-0.005307809	0
923	781743640	0.001708544	-0.000321133	-0.707425025	-0.706786256	-0.030594221	0.172132517	-0.004435854	0
924	781760307	0.001705806	-0.000323915	-0.707427521	-0.706783763	-0.000114532	0.159324626	-0.000132862	0
925	781776974	0.001701926	-0.000329425	-0.707427849	-0.706783442	0.035663844	0.159830942	0.019717231	0
926	781793641	0.00170326	-0.000327348	-0.707429999	-0.706781288	0.03389841	0.169500472	-0.014392847	0
927	781810308	0.001689856	-0.000331034	-0.707429913	-0.706781404	0.001397681	0.179748622	-0.017845755	0
928	781826975	0.001680345	-0.000342772	-0.707426552	-0.706784785	-0.0204031	0.166082312	-0.019657287	0
929	781843642	0.001688202	-0.000332648	-0.707424841	-0.706786483	-0.006923001	0.160540465	0.006602479	0
930	781860309	0.001700328	-0.000324659	-0.707424913	-0.706786387	0.019165371	0.170569109	-0.007114733	0
931	781876976	0.001713618	-0.000308856	-0.707418536	-0.706792744	0.027903421	0.159391871	-0.005392493	0
932	781893643	0.001712959	-0.000315119	-0.707419146	-0.706792132	0.017357054	0.152255821	-0.005077191	0
933	781910310	0.001715195	-0.000319552	-0.707422394	-0.706788874	-0.011410812	0.181775117	0.0013691	0
934	781926977	0.001703531	-0.000322832	-0.707421818	-0.706789477	-0.019770352	0.168215135	-0.014909689	0
935	781943644	0.001712033	-0.000324174	-0.707418979	-0.706792297	0.005996532	0.165851229	-0.003405329	0
936	781960311	0.001708499	-0.000325306	-0.70741285	-0.70679844	0.032775022	0.156176757	0.000126219	0
937	781976978	0.001711053	-0.000323193	-0.707417037	-0.706794244	0.03596434	0.166380121	-0.017273831	0
938	781993645	0.001711952	-0.000320121	-0.707412828	-0.706798456	-0.009757903	0.160166061	-0.025111033	0
939	782010312	0.001704196	-0.000332554	-0.707412429	-0.706798868	-0.018439047	0.159117668	-0.009014471	0
940	782026979	0.001708616	-0.000319936	-0.707410733	-0.706800561	0.00105329	0.157678865	-0.004185758	0
941	782043646	0.001720494	-0.000323179	-0.707412969	-0.706798293	0.011829853	0.160568264	-0.018431143	0
942	782060313	0.001714931	-0.000315991	-0.707408201	-0.706803082	0.022346701	0.168412669	-0.003297434	0
943	782076980	0.001700559	-0.000327505	-0.707408817	-0.706802495	0.027957363	0.168654588	-0.019124401	0
944	782093647	0.001687475	-0.000339436	-0.707407516	-0.706803823	-0.007897724	0.155992098	-0.013833778	0
945	782110314	0.001697487	-0.000336351	-0.707409051	-0.706802263	-0.042203482	0.169433914	0.025379522	0
946	782126981	0.001704252	-0.000330774	-0.707408776	-0.706802526	-0.000161091	0.163449524	0.003633234	0
947	782143648	0.001715267	-0.00032799	-0.707407505	-0.706803772	0.037374704	0.162971792	-0.014148113	0
948	782160315	0.001722882	-0.000323826	-0.707410196	-0.706801063	0.010868293	0.161812649	-0.015081735	0
949	782176982	0.001708276	-0.000337177	-0.707417466	-0.706793815	-0.012482107	0.174410005	-0.004817545	0
950	782193649	0.00171324	-0.0003214	-0.707416407	-0.70679487	-0.031326303	0.166087746	0.0028126	0
951	782210316	0.001735346	-0.000310876	-0.707420603	-0.706790621	-0.00777432	0.160828154	-0.022076073	0
952	782226983	0.001726739	-0.000330627	-0.707418963	-0.706792275	0.01888514	0.159346924	-0.006323079	0
953	782243650	0.001713815	-0.000332413	-0.707421844	-0.706789422	0.020607628	0.16116831	0.006048511	0
954	782260317	0.001712762	-0.000332547	-0.707426185	-0.70678508	-0.012396671	0.157201152	0.007661029	0
955	782276984	0.001722071	-0.000307266	-0.707431992	-0.706779256	-0.007037139	0.165187829	-0.009633923	0
956	782293651	0.001733347	-0.000309825	-0.70742899	-0.706782232	-0.005871669	0.15951162	-0.020412165	0
957	782310318	0.001739829	-0.000314818	-0.707431975	-0.706779226	0.032795074	0.152665501	-0.03285551	0
958	782326985	0.001721881	-0.000323339	-0.707435974	-0.706775264	0.029023442	0.156771071	-0.00425282	0
959	782343652	0.00173195	-0.000233006	-0.707416764	-0.706794502	0.002735357	0.152899697	0.018892025	0
960	782360319	0.001747861	-0.00023081	-0.707422324	-0.706788898	-0.012631932	0.162451592	0.002972122	0
961	782376986	0.001753443	-0.000233059	-0.707422145	-0.706789063	-0.032722805	0.166768804	-0.03666099	0
962	782393653	0.001754714	-0.000226555	-0.707423523	-0.706787683	-0.005161717	0.160421072	-0.010239949	0
963	782410320	0.00174543	-0.000232014	-0.707424446	-0.70678678	0.015658915	0.164978709	0.000533017	0
964	782426987	0.001742027	-0.000237211	-0.707428375	-0.706782854	0.021408216	0.157065809	0.01733102	0
965	782443654	0.001749354	-0.000226841	-0.707431115	-0.706780097	-0.013164698	0.160852053	-0.013911562	0
966	782460321	0.001760392	-0.000220188	-0.707423395	-0.706787799	-0.01897132	0.164227938	-0.012884863	0
967	782476988	0.00175352	-0.000225657	-0.707424219	-0.706786989	0.002859168	0.151289299	-0.022566736	0
968	782493655	0.001747637	-0.000234616	-0.70741912	-0.706792105	0.015072974	0.167902429	-0.004577079	0
969	782510322	0.001749815	-0.000251088	-0.707420127	-0.706791086	0.013224563	0.159052724	0.01372665	0
970	782526989	0.001745574	-0.000251215	-0.707421164	-0.706790058	0.007210523	0.178062697	0.019575722	0
971	782543656	0.001747931	-0.000247818	-0.70741523	-0.706795993	-0.000332554	0.170786308	-0.031559465	0
972	782560323	0.001759269	-0.000246144	-0.707409768	-0.706801432	-0.015964492	0.172831946	-0.028077735	0
973	782576990	0.001755057	-0.000262215	-0.707405755	-0.706805454	-0.009401792	0.159661459	-0.00811973	0
974	782593657	0.001747053	-0.000259831	-0.707399964	-0.706811269	0.026962088	0.169833622	-0.002164786	0
975	782610324	0.001748045	-0.000255013	-0.70740206	-0.706809172	0.021221689	0.16531548	0.00192501	0
976	782626991	0.00174368	-0.000251996	-0.707399572	-0.706811674	-0.004669714	0.160648101	-0.017118537	0
977	782643658	0.001746768	-0.000260472	-0.7073922	-0.70681904	-0.001536504	0.157664699	-0.040827297	0
978	782660325	0.001740847	-0.000269301	-0.707392106	-0.706819146	0.002696742	0.16721332	-0.017384537	0
979	782676992	0.001747807	-0.000270967	-0.707392653	-0.706818581	-0.008738957	0.160969469	-0.000485196	0
980	782693659	0.001749102	-0.000265448	-0.707393103	-0.706818129	0.026190093	0.164272545	0.00363872	0
981	782710326	0.001760589	-0.000264381	-0.707394169	-0.706817034	0.013221339	0.167784273	-0.001623664	0
982	782726993	0.00176642	-0.000267506	-0.707389048	-0.706822143	-0.009194079	0.1583991	-0.01753567	0
983	782743660	0.001764066	-0.00027316	-0.707391204	-0.70681999	-0.027867814	0.165479503	-0.021626135	0
984	782760327	0.001767193	-0.000273989	-0.70739065	-0.706820536	-0.011912484	0.15800558	0.003820722	0
985	782776994	0.00177282	-0.000269509	-0.707391955	-0.706819218	0.009017237	0.149126702	0.024549503	0
986	782793661	0.001776531	-0.000258843	-0.707387736	-0.706823435	0.028234171	0.170769448	0.00077741	0
987	782810328	0.001779237	-0.000249599	-0.707379652	-0.706831522	0.005806767	0.172176388	-0.02569825	0
988	782826995	0.001778639	-0.000252841	-0.70738358	-0.706827591	-0.016384407	0.159327703	-0.048016383	0
989	782843662	0.001780192	-0.000271867	-0.707383152	-0.706828009	-0.013958572	0.164236279	-0.011725656	0
990	782860329	0.001778546	-0.000276989	-0.707389657	-0.7068215	0.019246016	0.168559549	0.020216151	0
991	782876996	0.001788466	-0.000260986	-0.707396855	-0.706814278	0.012385738	0.146130159	0.017378731	0
992	782893663	0.001795473	-0.000259828	-0.707391597	-0.706819523	0.015990649	0.177483739	-0.00893814	0
993	782910330	0.001812058	-0.000256026	-0.707389548	-0.706821532	-0.0034246	0.174861613	-0.015233028	0
994	782926997	0.001813719	-0.000269241	-0.707391458	-0.706819611	-0.009465907	0.157451664	-0.025116755	0
995	782943664	0.001817769	-0.000263994	-0.707388217	-0.706822847	0.001132274	0.159488408	-0.014074291	0
996	782960331	0.001827864	-0.000255528	-0.707386381	-0.706824661	0.023484806	0.171516262	0.016076055	0
997	782976998	0.001837349	-0.000240406	-0.707380564	-0.706830463	0.021609719	0.164168274	-0.022884825	0
998	782993665	0.001841583	-0.000239807	-0.707383829	-0.706827185	-0.001416863	0.15619063	-0.017838747	0
999	783010332	0.001834723	-0.00024198	-0.707372956	-0.706838084	-0.021647089	0.158427229	-0.045842087	0
1000	783026999	0.001837145	-0.000250959	-0.707367322	-0.706843712	-0.013085015	0.169607721	-0.007517333	0
1001	783043666	0.001840095	-0.000235643	-0.707373384	-0.706837644	0.004305009	0.177042509	0.002864431	0
1002	783060333	0.00184791	-0.000234697	-0.707377209	-0.706833795	0.040772936	0.165097636	-0.008761499	0
1003	783077000	0.001853251	-0.000236743	-0.707375229	-0.706835762	0.01239865	0.166306276	-0.025462054	0
1004	783093667	0.001848132	-0.000244167	-0.707373464	-0.706837539	-0.007259048	0.163315261	-0.014968172	0
1005	783110334	0.001839288	-0.000258171	-0.707377971	-0.706833047	-0.020036307	0.163147856	-0.003415195	0
1006	783127001	0.00184716	-0.000257814	-0.707381557	-0.706829438	-0.018851327	0.166019483	0.000285982	0
1007	783143668	0.001850338	-0.000256172	-0.707384302	-0.706826683	0.008474191	0.156719942	0.003171075	0
1008	783160335	0.001849327	-0.000253992	-0.70738289	-0.706828099	0.019203923	0.169698049	0.007590395	0
1009	783177002	0.00185091	-0.00026162	-0.70738462	-0.706826362	0.01053232	0.169072407	-0.011254854	0
1010	783193669	0.001822935	-0.000280494	-0.707384622	-0.706826425	-0.02246221	0.168161012	4.48E-05	0
1011	783210336	0.001841673	-0.000262101	-0.707388191	-0.706822812	-0.023333823	0.146363127	0.00503392	0
1012	783227003	0.001848212	-0.000263078	-0.707394016	-0.706816964	-0.004891463	0.1807163	-0.0361314	0
