sep=,
DeviceTag:,Xsens_1,,,,,,,,,,,,,,,,,
FirmwareVersion:,2.2.1,,,,,,,,,,,,,,,,,
AppVersion:,2023.0.0,,,,,,,,,,,,,,,,,
StartTime:,2023-07-03 12:47:07.000 +0200,,,,,,,,,,,,,,,,,
© Movella Technologies B. V. 2005-2023,,,,,,,,,,,,,,,,,,,

PacketCounter,SampleTimeFine,Quat_W,Quat_X,Quat_Y,Quat_Z,Acc_X,Acc_Y,Acc_Z,Gyr_X,Gyr_Y,Gyr_Z,Mag_X,Mag_Y,Mag_Z,Status,
0, 1710937904, 0.20363213, 0.65184903, -0.047227677, 0.7289694, 0.0, 0.0, 0.0, 0.0, 0.0, 0.0, -0.68310546875, -0.679443359375, -0.284912109375, 0, 
1, 1710954571, 0.20094241, 0.6516265, -0.045457084, 0.7300265, 9.49287223815918, 1.8582103252410889, 1.4605249166488647, 21.63732147216797, 8.45852279663086, 9.014665603637695, -0.682861328125, -0.68017578125, -0.280029296875, 0, 
2, 1710971238, 0.197407, 0.651196, -0.04387728, 0.73147047, 9.481858253479004, 1.7987490892410278, 1.4974373579025269, 23.199542999267578, 8.38412094116211, 10.390087127685547, -0.685546875, -0.6767578125, -0.27880859375, 0, 
3, 1710987905, 0.19368944, 0.65059865, -0.04276486, 0.73306006, 9.537153244018555, 1.744563102722168, 1.540381669998169, 23.795644760131836, 8.322754859924316, 12.035107612609863, -0.681640625, -0.677490234375, -0.276123046875, 0, 
4, 1711004572, 0.18946661, 0.6500702, -0.04155386, 0.7347005, 9.455812454223633, 1.7637795209884644, 1.4265968799591064, 26.51372528076172, 7.622249603271484, 13.373215675354004, -0.68701171875, -0.67724609375, -0.269287109375, 0, 
5, 1711021239, 0.18456592, 0.6500689, -0.03975616, 0.73604715, 9.502508163452148, 1.6751315593719482, 1.591254711151123, 29.556264877319336, 5.6996684074401855, 14.638229370117188, -0.68798828125, -0.678466796875, -0.265869140625, 0, 
6, 1711037906, 0.17959964, 0.64996684, -0.038204495, 0.7374468, 9.465144157409668, 1.7190827131271362, 1.60080087184906, 29.56725311279297, 5.271857738494873, 16.393449783325195, -0.6904296875, -0.67626953125, -0.255859375, 0, 
7, 1711054573, 0.1742179, 0.6500542, -0.036340106, 0.73875374, 9.404346466064453, 1.7281489372253418, 1.5071992874145508, 30.826622009277344, 3.3239541053771973, 17.711645126342773, -0.693115234375, -0.67724609375, -0.253173828125, 0, 
8, 1711071240, 0.16882375, 0.6504791, -0.03440303, 0.7397243, 9.367115020751953, 1.7391154766082764, 1.541508436203003, 32.302433013916016, 0.9367762207984924, 18.24118423461914, -0.697265625, -0.675048828125, -0.246826171875, 0, 
9, 1711087907, 0.16339825, 0.6511304, -0.032233775, 0.7404671, 9.274162292480469, 1.7828028202056885, 1.5529823303222656, 33.850860595703125, -0.8426045179367065, 18.05128288269043, -0.700439453125, -0.674560546875, -0.238525390625, 0, 
10, 1711104574, 0.15793096, 0.6519732, -0.029780295, 0.74101436, 9.270197868347168, 1.8290417194366455, 1.493376612663269, 35.21724319458008, -2.4960672855377197, 17.716938018798828, -0.701904296875, -0.67333984375, -0.230712890625, 0, 
11, 1711121241, 0.15249218, 0.6530123, -0.027010487, 0.74134463, 9.242194175720215, 1.8408339023590088, 1.477062702178955, 36.61467742919922, -3.9314632415771484, 16.771522521972656, -0.70654296875, -0.672119140625, -0.223876953125, 0, 
12, 1711137908, 0.14727537, 0.65420806, -0.024044892, 0.7414471, 9.247303009033203, 1.8890520334243774, 1.4572436809539795, 37.31096267700195, -5.257159233093262, 15.264233589172363, -0.710205078125, -0.672119140625, -0.216064453125, 0, 
13, 1711154575, 0.14225166, 0.6555179, -0.02090458, 0.7413663, 9.336201667785645, 2.0367965698242188, 1.431583285331726, 37.54560470581055, -6.308079242706299, 13.903512954711914, -0.7138671875, -0.673095703125, -0.204345703125, 0, 
14, 1711171242, 0.13734144, 0.6569114, -0.017512247, 0.74114645, 9.366065979003906, 2.1269490718841553, 1.411020278930664, 37.70436096191406, -7.055435657501221, 12.67761516571045, -0.714599609375, -0.671630859375, -0.196044921875, 0, 
15, 1711187909, 0.13270216, 0.6583655, -0.014082386, 0.7407747, 9.325119972229004, 2.2134978771209717, 1.34307861328125, 37.0588264465332, -7.80963134765625, 11.681763648986816, -0.7177734375, -0.673095703125, -0.18603515625, 0, 
16, 1711204576, 0.12825201, 0.65980715, -0.010595416, 0.7403337, 9.399290084838867, 2.312837600708008, 1.244616150856018, 36.037532806396484, -7.891845703125, 10.934041976928711, -0.718017578125, -0.67333984375, -0.178466796875, 0, 
17, 1711221243, 0.12399371, 0.66120243, -0.0070974855, 0.7398557, 9.49599552154541, 2.3911542892456055, 1.1871651411056519, 35.70553207397461, -7.448394775390625, 10.471624374389648, -0.723876953125, -0.6708984375, -0.168212890625, 0, 
18, 1711237910, 0.11959984, 0.6625084, -0.0033776413, 0.739437, 9.61691951751709, 2.355988025665283, 1.1604726314544678, 36.10768508911133, -6.473443984985352, 10.462250709533691, -0.725830078125, -0.672607421875, -0.163330078125, 0, 
19, 1711254577, 0.11536546, 0.6636549, 1.1207268E-4, 0.7390894, 9.82300090789795, 2.2501680850982666, 1.1448713541030884, 36.767494201660156, -4.890072822570801, 11.267278671264648, -0.7265625, -0.672119140625, -0.151123046875, 0, 
20, 1711271244, 0.110706724, 0.66457945, 0.003734038, 0.7389617, 10.089606285095215, 2.0966620445251465, 1.18559992313385, 37.6199836730957, -2.723919630050659, 12.69706916809082, -0.72705078125, -0.673095703125, -0.142333984375, 0, 
21, 1711287911, 0.10568072, 0.665227, 0.0072535845, 0.73908865, 10.22270679473877, 1.9742547273635864, 1.2946605682373047, 38.06569290161133, -0.20612581074237823, 14.81433391571045, -0.72998046875, -0.67041015625, -0.134033203125, 0, 
22, 1711304578, 0.10037491, 0.66551775, 0.010553933, 0.7395266, 10.237940788269043, 1.8738154172897339, 1.4134730100631714, 38.066158294677734, 2.8510053157806396, 17.017885208129883, -0.733154296875, -0.66552734375, -0.12890625, 0, 
23, 1711321245, 0.09501612, 0.6653932, 0.013461618, 0.7402991, 10.163792610168457, 1.7765626907348633, 1.4656009674072266, 37.829036712646484, 6.3368916511535645, 19.037158966064453, -0.738525390625, -0.66552734375, -0.120849609375, 0, 
24, 1711337912, 0.08925338, 0.6649455, 0.016332174, 0.74136, 10.007944107055664, 1.73569917678833, 1.4728235006332397, 37.880374908447266, 8.923538208007812, 20.82252311706543, -0.73876953125, -0.664306640625, -0.112060546875, 0, 
25, 1711354579, 0.08352864, 0.6642029, 0.018734219, 0.7426349, 9.88980484008789, 1.6662100553512573, 1.5882441997528076, 36.126678466796875, 11.101950645446777, 22.629152297973633, -0.748046875, -0.659912109375, -0.107666015625, 0, 
26, 1711371246, 0.077771656, 0.66331846, 0.020860035, 0.74399275, 9.678539276123047, 1.7068767547607422, 1.5587385892868042, 34.55836868286133, 11.80882453918457, 23.742740631103516, -0.748779296875, -0.658203125, -0.103271484375, 0, 
27, 1711387913, 0.07216914, 0.66233766, 0.022765227, 0.7453739, 9.544034004211426, 1.8291041851043701, 1.6006464958190918, 31.98828887939453, 12.026568412780762, 23.68186378479004, -0.7509765625, -0.655029296875, -0.09765625, 0, 
28, 1711404580, 0.06696484, 0.66116565, 0.024516381, 0.7468431, 9.435815811157227, 1.9637824296951294, 1.5935460329055786, 29.429471969604492, 13.153907775878906, 22.32114028930664, -0.755126953125, -0.6494140625, -0.096923828125, 0, 
29, 1711421247, 0.062408682, 0.65987885, 0.026162624, 0.7483185, 9.335505485534668, 2.129164934158325, 1.5808554887771606, 26.525806427001953, 13.599468231201172, 19.59030532836914, -0.760009765625, -0.6455078125, -0.09228515625, 0, 
30, 1711437914, 0.058374852, 0.6585562, 0.02793828, 0.74974376, 9.227197647094727, 2.287572145462036, 1.5653162002563477, 23.068044662475586, 13.248496055603027, 16.213008880615234, -0.761474609375, -0.64501953125, -0.08935546875, 0, 
31, 1711454581, 0.055240795, 0.6572373, 0.029615326, 0.75107306, 9.188765525817871, 2.430879592895508, 1.4702568054199219, 19.896530151367188, 12.724394798278809, 12.38674259185791, -0.765869140625, -0.6416015625, -0.088623046875, 0, 
32, 1711471248, 0.052806295, 0.65594095, 0.031485062, 0.7523044, 9.247076988220215, 2.4653916358947754, 1.3358054161071777, 17.243446350097656, 12.07153034210205, 8.054632186889648, -0.765869140625, -0.640380859375, -0.088134765625, 0, 
33, 1711487915, 0.051106624, 0.6547301, 0.033507176, 0.7533884, 9.15929126739502, 2.421908140182495, 1.282285213470459, 15.219595909118652, 11.025320053100586, 3.8112382888793945, -0.767578125, -0.639892578125, -0.088623046875, 0, 
34, 1711504582, 0.04980368, 0.6535285, 0.03573752, 0.7544158, 9.273172378540039, 2.269670248031616, 1.1857246160507202, 14.002734184265137, 10.764503479003906, 0.8855728507041931, -0.7685546875, -0.639892578125, -0.088623046875, 0, 
35, 1711521249, 0.048619192, 0.65234447, 0.03819399, 0.7553967, 9.591292381286621, 2.1185507774353027, 1.1061556339263916, 13.740959167480469, 10.560779571533203, -0.8378883004188538, -0.770751953125, -0.638671875, -0.08349609375, 0, 
36, 1711537916, 0.04757235, 0.65131414, 0.04075636, 0.7562182, 9.988320350646973, 1.7870664596557617, 1.1971620321273804, 15.680840492248535, 9.480448722839355, -1.8001841306686401, -0.766845703125, -0.64111328125, -0.084716796875, 0, 
37, 1711554583, 0.04612522, 0.65060747, 0.04370429, 0.7567511, 9.93087100982666, 1.4264178276062012, 1.449233889579773, 18.84821891784668, 6.807839393615723, -1.7631229162216187, -0.76904296875, -0.639404296875, -0.080322265625, 0, 
38, 1711571250, 0.044275712, 0.65009713, 0.04678999, 0.7571157, 9.73180866241455, 1.1927175521850586, 1.5481951236724854, 21.72536849975586, 5.293308734893799, -0.5468384623527527, -0.768310546875, -0.639404296875, -0.076904296875, 0, 
39, 1711587917, 0.04195907, 0.64956737, 0.049949344, 0.75750047, 9.64472484588623, 0.9163404107093811, 1.413580298423767, 23.13611602783203, 5.535236358642578, 1.0465370416641235, -0.76611328125, -0.643310546875, -0.071533203125, 0, 
40, 1711604584, 0.03941711, 0.6490789, 0.0528381, 0.7578595, 9.522505760192871, 0.673003077507019, 1.279176115989685, 23.31318473815918, 5.332996845245361, 3.1256258487701416, -0.76611328125, -0.6416015625, -0.07275390625, 0, 
41, 1711621251, 0.036690414, 0.64861155, 0.055322394, 0.7582191, 9.48526382446289, 0.5686080455780029, 1.33640718460083, 22.535518646240234, 5.330602169036865, 5.554841995239258, -0.769775390625, -0.639404296875, -0.0693359375, 0, 
42, 1711637918, 0.033857282, 0.64805365, 0.05741842, 0.7586722, 9.537281036376953, 0.6147089004516602, 1.4881441593170166, 21.056625366210938, 6.232043266296387, 7.443781852722168, -0.76904296875, -0.64208984375, -0.06591796875, 0, 
43, 1711654585, 0.031054715, 0.6473375, 0.059222743, 0.75926447, 9.753364562988281, 0.5835160613059998, 1.6434296369552612, 19.425382614135742, 7.624312400817871, 8.219731330871582, -0.76953125, -0.638427734375, -0.06201171875, 0, 
44, 1711671252, 0.028261758, 0.64644384, 0.060852356, 0.7600057, 10.069801330566406, 0.5189343094825745, 1.7308807373046875, 17.943748474121094, 9.094341278076172, 8.507285118103027, -0.772705078125, -0.634033203125, -0.061279296875, 0, 
45, 1711687919, 0.02555055, 0.64536583, 0.062306035, 0.7608997, 10.312397956848145, 0.5080804824829102, 1.91761314868927, 16.692733764648438, 10.65977954864502, 8.512996673583984, -0.772705078125, -0.63623046875, -0.060302734375, 0, 
46, 1711704586, 0.02299503, 0.64413893, 0.06361917, 0.76191163, 10.347092628479004, 0.49739059805870056, 2.0129480361938477, 15.6174955368042, 11.873861312866211, 8.05119800567627, -0.773681640625, -0.63330078125, -0.05859375, 0, 
47, 1711721253, 0.02051059, 0.64277834, 0.06482487, 0.76302904, 10.286191940307617, 0.4891106188297272, 2.0379855632781982, 14.473821640014648, 12.904658317565918, 7.810335159301758, -0.77880859375, -0.6328125, -0.058837890625, 0, 
48, 1711737920, 0.01817193, 0.64129806, 0.06584893, 0.76424515, 10.155519485473633, 0.45757314562797546, 2.050629138946533, 13.318314552307129, 13.883472442626953, 7.65224027633667, -0.777587890625, -0.63232421875, -0.058349609375, 0, 
49, 1711754587, 0.015816463, 0.6397626, 0.0668462, 0.7654969, 9.972284317016602, 0.43979817628860474, 2.073223829269409, 12.776195526123047, 14.225337982177734, 7.541645050048828, -0.778564453125, -0.62939453125, -0.058349609375, 0, 
50, 1711771254, 0.013520318, 0.63817114, 0.06776767, 0.766787, 9.884084701538086, 0.371158629655838, 2.1188321113586426, 12.359170913696289, 14.636259078979492, 7.392079830169678, -0.778076171875, -0.62841796875, -0.058349609375, 0, 
51, 1711787921, 0.011207678, 0.6365863, 0.0686671, 0.7680605, 9.746394157409668, 0.38027337193489075, 2.21421217918396, 11.934906959533691, 14.434542655944824, 7.319799423217773, -0.78369140625, -0.627685546875, -0.059814453125, 0, 
52, 1711804588, 0.008995246, 0.634938, 0.06933651, 0.76939285, 9.63328742980957, 0.4104096293449402, 2.285175323486328, 10.632101058959961, 14.948629379272461, 7.677685737609863, -0.782470703125, -0.626708984375, -0.060302734375, 0, 
53, 1711821255, 0.0068767555, 0.63312566, 0.0697646, 0.77086806, 9.591055870056152, 0.4814712107181549, 2.3084709644317627, 8.892075538635254, 16.319076538085938, 8.029809951782227, -0.781494140625, -0.625, -0.0634765625, 0, 
54, 1711837922, 0.004956677, 0.6311088, 0.069789924, 0.7725326, 9.537591934204102, 0.45861634612083435, 2.394824504852295, 6.022578239440918, 18.082117080688477, 8.572774887084961, -0.78662109375, -0.627685546875, -0.061767578125, 0, 
55, 1711854589, 0.003055941, 0.62901586, 0.06979199, 0.77424717, 9.39072322845459, 0.46870315074920654, 2.3195080757141113, 5.768155097961426, 18.633573532104492, 8.426846504211426, -0.787109375, -0.62109375, -0.063232421875, 0, 
56, 1711871256, 0.0012881057, 0.62690175, 0.06962076, 0.7759804, 9.43010139465332, 0.33770501613616943, 2.5487401485443115, 4.1794867515563965, 18.711231231689453, 8.353363990783691, -0.7900390625, -0.62158203125, -0.068603515625, 0, 
57, 1711887923, -1.316535E-4, 0.6247037, 0.06914898, 0.777794, 9.261685371398926, 0.21280576288700104, 2.5187675952911377, 1.1264739036560059, 19.285802841186523, 7.666955947875977, -0.791748046875, -0.620361328125, -0.072998046875, 0, 
58, 1711904590, -0.0012558675, 0.6225872, 0.068458684, 0.77954924, 9.151970863342285, 0.17889399826526642, 2.4407641887664795, -1.2933980226516724, 18.409597396850586, 6.9516282081604, -0.791259765625, -0.6181640625, -0.07568359375, 0, 
59, 1711921257, -0.0021924025, 0.6206069, 0.067643836, 0.78119576, 9.084522247314453, 0.11798810213804245, 2.4848825931549072, -2.629845142364502, 17.10862922668457, 6.459197998046875, -0.78955078125, -0.6181640625, -0.077880859375, 0, 
60, 1711937924, -0.0030427717, 0.6187615, 0.06666665, 0.78273916, 9.069770812988281, 0.09264340251684189, 2.501631259918213, -3.8576793670654297, 15.877237319946289, 6.6451826095581055, -0.7919921875, -0.61767578125, -0.081787109375, 0, 
61, 1711954591, -0.0037906468, 0.6170816, 0.06547963, 0.7841611, 9.069296836853027, 0.05195530876517296, 2.6108622550964355, -5.269542694091797, 14.418888092041016, 6.991581439971924, -0.79248046875, -0.61328125, -0.087158203125, 0, 
62, 1711971258, -0.0042855814, 0.6154017, 0.06405009, 0.78559536, 9.629627227783203, 0.17272207140922546, 2.591116428375244, -7.56877326965332, 14.347111701965332, 6.585660457611084, -0.79541015625, -0.61083984375, -0.089111328125, 0, 
63, 1711987925, -0.0044860807, 0.61394644, 0.06266406, 0.78684384, 9.526403427124023, 0.4746478497982025, 2.822927236557007, -8.549007415771484, 12.214681625366211, 4.831493854522705, -0.79443359375, -0.613525390625, -0.09521484375, 0, 
64, 1712004592, -0.004083707, 0.6123632, 0.060928814, 0.7882146, 10.567458152770996, 1.1587144136428833, 2.553934097290039, -12.9976224899292, 13.156222343444824, 2.967529296875, -0.794677734375, -0.6162109375, -0.09912109375, 0, 
65, 1712021259, -0.0033482448, 0.61134005, 0.059973467, 0.7890852, 9.783154487609863, 1.1970293521881104, 3.0097715854644775, -10.021698951721191, 7.898462295532227, -1.823631763458252, -0.794677734375, -0.612060546875, -0.1025390625, 0, 
66, 1712037926, -0.0027139215, 0.61061364, 0.059753522, 0.7896666, 9.590166091918945, 1.1026498079299927, 2.6346325874328613, -5.44843053817749, 5.071712017059326, -4.154232978820801, -0.794189453125, -0.6103515625, -0.10400390625, 0, 
67, 1712054593, -0.002062302, 0.6101466, 0.060140252, 0.7900001, 9.633777618408203, 1.0203176736831665, 2.2635092735290527, -2.25752329826355, 2.602891206741333, -6.655967712402344, -0.793701171875, -0.612548828125, -0.10693359375, 0, 
68, 1712071260, -0.0014516041, 0.6102595, 0.060930368, 0.7898539, 9.548818588256836, 0.7504074573516846, 2.2627272605895996, 0.3830380439758301, -2.4867184162139893, -7.808399677276611, -0.79150390625, -0.6142578125, -0.104736328125, 0, 
69, 1712087927, -9.589436E-4, 0.6109528, 0.061565883, 0.78926903, 9.585686683654785, 0.6033793091773987, 2.4405486583709717, 0.15998975932598114, -7.385135173797607, -6.272045612335205, -0.7880859375, -0.616943359375, -0.10498046875, 0, 
70, 1712104594, -5.414014E-4, 0.611988, 0.061946146, 0.7884373, 9.580312728881836, 0.572899341583252, 2.4476327896118164, -0.7958444952964783, -10.217338562011719, -4.648648738861084, -0.78857421875, -0.61865234375, -0.102294921875, 0, 
71, 1712121261, -3.5559642E-4, 0.6131477, 0.062182516, 0.7875172, 9.554887771606445, 0.5502863526344299, 2.402431011199951, -0.6247772574424744, -11.149795532226562, -2.7588157653808594, -0.7890625, -0.619140625, -0.09716796875, 0, 
72, 1712137928, -4.2831877E-4, 0.6143544, 0.062272277, 0.786569, 9.458443641662598, 0.5673850178718567, 2.4089930057525635, -0.2992525100708008, -11.387776374816895, -0.7288801074028015, -0.7890625, -0.620849609375, -0.098388671875, 0, 
73, 1712154595, -6.107837E-4, 0.6155317, 0.062135562, 0.7856588, 9.242721557617188, 0.6531040668487549, 2.457401990890503, -1.0503196716308594, -11.004661560058594, 0.8057374954223633, -0.786865234375, -0.619384765625, -0.09521484375, 0, 
74, 1712171262, -7.21667E-4, 0.6166843, 0.061664972, 0.78479135, 9.010031700134277, 0.734814465045929, 2.4686200618743896, -3.060533285140991, -10.70733642578125, 1.8524006605148315, -0.78955078125, -0.619873046875, -0.090576171875, 0, 
75, 1712187929, -7.2586513E-4, 0.6178482, 0.06109561, 0.78391993, 8.90782642364502, 0.8235596418380737, 2.3783679008483887, -4.233570098876953, -10.856159210205078, 1.6676180362701416, -0.788330078125, -0.620361328125, -0.087890625, 0, 
76, 1712204596, -5.4066925E-4, 0.6189937, 0.060552523, 0.78305817, 8.980777740478516, 0.8725228905677795, 2.437776803970337, -4.811726093292236, -10.79258918762207, 0.5740705728530884, -0.7861328125, -0.619384765625, -0.088623046875, 0, 
77, 1712221263, -2.9359412E-4, 0.62012666, 0.060194362, 0.7821891, 9.098394393920898, 0.8590995669364929, 2.4186880588531494, -4.062899589538574, -10.79206371307373, -0.5204439163208008, -0.788818359375, -0.61865234375, -0.08837890625, 0, 
78, 1712237930, -8.06485E-5, 0.6212491, 0.059948426, 0.7813167, 9.239112854003906, 0.8187911510467529, 2.436333179473877, -3.3195676803588867, -10.74771499633789, -0.7966897487640381, -0.787109375, -0.619384765625, -0.085205078125, 0, 
79, 1712254597, 3.918251E-5, 0.62227935, 0.05978123, 0.78050935, 9.371626853942871, 0.7893515229225159, 2.3811140060424805, -2.5453715324401855, -9.94962215423584, -0.6573693752288818, -0.789306640625, -0.620361328125, -0.083984375, 0, 
80, 1712271264, 9.8967925E-5, 0.62320864, 0.059608728, 0.7797807, 9.52069091796875, 0.8216363787651062, 2.295562982559204, -2.3704755306243896, -9.054495811462402, -0.345060795545578, -0.78857421875, -0.619384765625, -0.0830078125, 0, 
81, 1712287931, 1.5028034E-4, 0.6239957, 0.059383657, 0.77916807, 9.657651901245117, 0.9175159335136414, 2.214118480682373, -2.6060867309570312, -7.781454563140869, -0.10531304776668549, -0.7890625, -0.621337890625, -0.080322265625, 0, 
82, 1712304598, 1.6937537E-4, 0.6246686, 0.0591088, 0.77864975, 9.737154006958008, 1.045475959777832, 2.1504034996032715, -2.8350508213043213, -6.748184680938721, 0.24230897426605225, -0.7890625, -0.619384765625, -0.080810546875, 0, 
83, 1712321265, 1.5412064E-4, 0.6252608, 0.058764327, 0.77820057, 9.764220237731934, 1.1173697710037231, 2.097539186477661, -3.0609676837921143, -5.98460578918457, 0.7312425971031189, -0.790283203125, -0.620361328125, -0.07958984375, 0, 
84, 1712337932, 2.2615523E-4, 0.6257559, 0.05822029, 0.7778433, 9.73990535736084, 1.138988733291626, 2.114504098892212, -4.518433094024658, -5.0850629806518555, 1.1250122785568237, -0.791259765625, -0.62255859375, -0.077392578125, 0, 
85, 1712354599, 5.113028E-4, 0.6261072, 0.057412248, 0.7776204, 9.722574234008789, 1.1266359090805054, 2.094817638397217, -6.974280834197998, -3.8140199184417725, 1.0865164995193481, -0.787353515625, -0.619384765625, -0.07861328125, 0, 
86, 1712371266, 0.0010039101, 0.6263161, 0.05638663, 0.77752686, 9.733747482299805, 1.1287591457366943, 2.1237130165100098, -9.06508731842041, -2.558600902557373, 0.8975719213485718, -0.79296875, -0.61767578125, -0.080078125, 0, 
87, 1712387933, 0.0017882797, 0.62631935, 0.055174444, 0.7776097, 9.834236145019531, 1.0862945318222046, 1.9698160886764526, -11.139652252197266, -0.7794011235237122, 0.14942452311515808, -0.7919921875, -0.621337890625, -0.081298828125, 0, 
88, 1712404600, 0.0028426922, 0.6260745, 0.0539135, 0.77789205, 9.963321685791016, 1.054409384727478, 1.720694899559021, -13.021421432495117, 1.2967846393585205, -1.2295575141906738, -0.790283203125, -0.621337890625, -0.08251953125, 0, 
89, 1712421267, 0.0040883454, 0.6256346, 0.052537207, 0.77833444, 10.025416374206543, 0.9797154664993286, 1.7377876043319702, -14.379436492919922, 3.019522190093994, -1.7695890665054321, -0.787109375, -0.618896484375, -0.085205078125, 0, 
90, 1712437934, 0.0054110973, 0.6250623, 0.051070124, 0.77888376, 9.99755859375, 0.971880316734314, 1.7983664274215698, -15.218059539794922, 4.20928430557251, -1.8168960809707642, -0.789306640625, -0.620361328125, -0.089111328125, 0, 
91, 1712454601, 0.0067844493, 0.6243733, 0.04960367, 0.7795201, 9.94034194946289, 0.9692912697792053, 1.8264583349227905, -15.48211669921875, 5.233178615570068, -2.1176280975341797, -0.792236328125, -0.6201171875, -0.0927734375, 0, 
92, 1712471268, 0.008160617, 0.6235971, 0.048237562, 0.7802138, 9.832712173461914, 0.8888516426086426, 1.8521735668182373, -15.025300979614258, 5.985462665557861, -2.585841417312622, -0.786865234375, -0.620361328125, -0.097900390625, 0, 
93, 1712487935, 0.009384072, 0.62276596, 0.04703967, 0.7809366, 9.720807075500488, 0.7845001816749573, 1.8738017082214355, -13.425453186035156, 6.5075273513793945, -2.485093593597412, -0.78759765625, -0.619873046875, -0.10107421875, 0, 
94, 1712504602, 0.010503318, 0.6218434, 0.045701277, 0.7817365, 9.654890060424805, 0.7923500537872314, 1.810538649559021, -13.808631896972656, 7.383559226989746, -1.359619379043579, -0.78759765625, -0.623046875, -0.10400390625, 0, 
95, 1712521269, 0.0115534365, 0.6209259, 0.044167403, 0.78253883, 9.591757774353027, 0.8608419299125671, 1.7867261171340942, -14.667105674743652, 7.402665138244629, -0.17343014478683472, -0.788330078125, -0.621826171875, -0.10546875, 0, 
96, 1712537936, 0.012536998, 0.6200393, 0.042501356, 0.7833185, 9.601821899414062, 0.908070981502533, 1.8950920104980469, -15.132593154907227, 7.187634468078613, 0.7521688938140869, -0.786865234375, -0.620361328125, -0.111572265625, 0, 
97, 1712554603, 0.013499914, 0.6192603, 0.04076782, 0.7840105, 9.714978218078613, 0.8764908909797668, 1.8998258113861084, -15.277982711791992, 6.277473449707031, 1.2096887826919556, -0.785888671875, -0.621337890625, -0.11669921875, 0, 
98, 1712571270, 0.01446982, 0.618433, 0.039075844, 0.7847321, 9.938459396362305, 0.8424754738807678, 1.9268776178359985, -15.057112693786621, 6.703388214111328, 1.0022132396697998, -0.78564453125, -0.61865234375, -0.115478515625, 0, 
99, 1712587937, 0.015524391, 0.6174865, 0.03733586, 0.7855417, 10.14296817779541, 0.9168221950531006, 1.9228066205978394, -15.76906967163086, 7.72951078414917, 0.7183472514152527, -0.7841796875, -0.61767578125, -0.12158203125, 0, 
100, 1712604604, 0.016646508, 0.6164054, 0.03550964, 0.7864518, 10.235200881958008, 0.9553185701370239, 2.0518927574157715, -16.474214553833008, 8.907646179199219, 0.7295401692390442, -0.78564453125, -0.61962890625, -0.128662109375, 0, 
101, 1712621271, 0.017715545, 0.6152024, 0.033501837, 0.7874578, 10.218174934387207, 0.9816023111343384, 2.124286651611328, -17.317237854003906, 10.000516891479492, 1.768853783607483, -0.787841796875, -0.617919921875, -0.13525390625, 0, 
102, 1712637938, 0.018572403, 0.6138037, 0.031567287, 0.7886087, 10.096009254455566, 0.9401131272315979, 2.13059139251709, -16.085405349731445, 11.763826370239258, 2.5960042476654053, -0.78466796875, -0.61572265625, -0.13916015625, 0, 
103, 1712654605, 0.019228052, 0.6121845, 0.029814566, 0.7899187, 9.907297134399414, 0.8113985061645508, 2.1195995807647705, -14.366394996643066, 13.727465629577637, 2.8921000957489014, -0.785888671875, -0.617919921875, -0.141845703125, 0, 
104, 1712671272, 0.019762497, 0.610457, 0.02823422, 0.7912994, 9.713603973388672, 0.746492862701416, 2.1413869857788086, -13.0020170211792, 14.689786911010742, 2.803237199783325, -0.78662109375, -0.6162109375, -0.151123046875, 0, 
105, 1712687939, 0.020038059, 0.6087268, 0.02707186, 0.79266477, 9.549768447875977, 0.6912533640861511, 2.2315971851348877, -9.533063888549805, 14.785265922546387, 2.4853439331054688, -0.78564453125, -0.613525390625, -0.155029296875, 0, 
106, 1712704606, 0.020076584, 0.60699975, 0.026280565, 0.7940137, 9.435521125793457, 0.7052125334739685, 2.265160083770752, -6.565187931060791, 14.813056945800781, 2.2088797092437744, -0.786865234375, -0.614990234375, -0.155517578125, 0, 
107, 1712721273, 0.020184118, 0.60519767, 0.025774583, 0.795402, 9.377068519592285, 0.8389603495597839, 2.1351001262664795, -5.3607497215271, 15.429795265197754, 0.6220818161964417, -0.785888671875, -0.614013671875, -0.162109375, 0, 
108, 1712737940, 0.020169387, 0.60301596, 0.025342206, 0.79707146, 9.858778953552246, 0.7713561058044434, 2.0899243354797363, -4.489598274230957, 18.742769241333008, 0.9866281151771545, -0.784423828125, -0.615234375, -0.16650390625, 0, 
109, 1712754607, 0.019925267, 0.6005789, 0.02535772, 0.79891515, 9.69784164428711, 0.8892353773117065, 2.085444450378418, -1.142833948135376, 21.01251220703125, 0.37288305163383484, -0.784912109375, -0.614990234375, -0.16943359375, 0, 
110, 1712771274, 0.019541636, 0.59808284, 0.025479352, 0.8007909, 9.800931930541992, 0.7961600422859192, 2.396090507507324, -0.00587172107771039, 21.554058074951172, 0.7061304450035095, -0.782958984375, -0.61181640625, -0.17431640625, 0, 
111, 1712787941, 0.019324483, 0.59521306, 0.025447397, 0.80293244, 9.736079216003418, 0.8432295918464661, 2.403883218765259, -1.6566520929336548, 24.682100296020508, 0.38913458585739136, -0.7841796875, -0.614013671875, -0.17529296875, 0, 
112, 1712804608, 0.019196099, 0.59232295, 0.025255566, 0.80507606, 9.640511512756348, 0.9581513404846191, 2.520728826522827, -2.8636534214019775, 24.801687240600586, 0.5706009864807129, -0.780029296875, -0.613037109375, -0.185546875, 0, 
113, 1712821275, 0.018989578, 0.58944184, 0.025207708, 0.8071941, 9.661086082458496, 1.0285097360610962, 2.5781266689300537, -1.7646484375, 24.706743240356445, 0.4257991909980774, -0.7783203125, -0.614013671875, -0.18994140625, 0, 
114, 1712837942, 0.018481102, 0.5866007, 0.025533024, 0.80926293, 9.590879440307617, 0.7570556402206421, 2.7918388843536377, 1.4793286323547363, 24.40949058532715, 0.5898873209953308, -0.778076171875, -0.615234375, -0.19482421875, 0, 
115, 1712854609, 0.017880954, 0.5839711, 0.025961556, 0.8111623, 9.440781593322754, 0.6272665858268738, 3.0457587242126465, 2.5448312759399414, 22.59918975830078, 0.7212677001953125, -0.777587890625, -0.615234375, -0.1982421875, 0, 
116, 1712871276, 0.017435925, 0.5815995, 0.026218161, 0.81286585, 9.369292259216309, 0.847263753414154, 2.935189723968506, 0.9787267446517944, 20.32179832458496, 0.5436175465583801, -0.773681640625, -0.61474609375, -0.199951171875, 0, 
117, 1712887943, 0.01710283, 0.5793294, 0.026324812, 0.81448877, 9.436068534851074, 0.9530946016311646, 2.9220845699310303, -0.23642472922801971, 19.40703582763672, 0.5517110824584961, -0.77490234375, -0.6162109375, -0.20556640625, 0, 
118, 1712904610, 0.016692428, 0.57706314, 0.026498735, 0.816099, 9.368207931518555, 0.7170379757881165, 3.0976243019104004, 0.36776044964790344, 19.36836051940918, 0.7042732834815979, -0.775634765625, -0.6162109375, -0.20556640625, 0, 
119, 1712921277, 0.016291019, 0.5749533, 0.02661366, 0.81759113, 9.230934143066406, 0.656308650970459, 3.1307339668273926, 0.16270487010478973, 18.031103134155273, 0.9460188746452332, -0.774169921875, -0.617919921875, -0.212158203125, 0, 
120, 1712937944, 0.015916742, 0.5730142, 0.026771393, 0.81895363, 9.124427795410156, 0.7275489568710327, 3.1359095573425293, 0.24221953749656677, 16.55588722229004, 0.6035894155502319, -0.771484375, -0.619384765625, -0.216552734375, 0, 
121, 1712954611, 0.015598466, 0.5713028, 0.026865434, 0.82015145, 9.033123970031738, 0.7590023875236511, 3.227585554122925, -0.3656023442745209, 14.609301567077637, 0.5364583730697632, -0.770263671875, -0.613037109375, -0.217041015625, 0, 
122, 1712971278, 0.015277604, 0.56986237, 0.026859185, 0.8211591, 9.077797889709473, 0.7419338822364807, 3.2764341831207275, -0.7698989510536194, 12.330023765563965, 1.0130468606948853, -0.767578125, -0.617919921875, -0.218994140625, 0, 
123, 1712987945, 0.01487015, 0.5686269, 0.02690377, 0.8220211, 9.131684303283691, 0.6652547121047974, 3.4035396575927734, -0.09746276587247849, 10.625202178955078, 1.3313871622085571, -0.768798828125, -0.615234375, -0.22216796875, 0, 
124, 1713004612, 0.014357849, 0.5675775, 0.026902528, 0.8227551, 9.144576072692871, 0.5919201374053955, 3.401793956756592, 0.01609758473932743, 9.079499244689941, 2.0951194763183594, -0.767333984375, -0.61572265625, -0.22509765625, 0, 
125, 1713021279, 0.013858486, 0.5666184, 0.026725179, 0.82343036, 9.26154613494873, 0.7390881180763245, 3.3958442211151123, -1.0019625425338745, 8.320542335510254, 2.7206454277038574, -0.76708984375, -0.61474609375, -0.22119140625, 0, 
126, 1713037946, 0.01330889, 0.5657288, 0.026624931, 0.82405406, 9.296728134155273, 0.6737657785415649, 3.4403762817382812, -0.2780323624610901, 7.75155782699585, 2.7481794357299805, -0.767822265625, -0.615234375, -0.22607421875, 0, 
127, 1713054613, 0.012765638, 0.56496567, 0.026622826, 0.82458603, 9.326062202453613, 0.6317734122276306, 3.504687786102295, 0.24641983211040497, 6.688885688781738, 2.335801839828491, -0.767333984375, -0.615234375, -0.227294921875, 0, 
128, 1713071280, 0.012264893, 0.56442636, 0.026505925, 0.8249667, 9.254189491271973, 0.7270615100860596, 3.5738589763641357, -0.5492579340934753, 4.814176082611084, 2.5598230361938477, -0.766357421875, -0.61572265625, -0.227783203125, 0, 
129, 1713087947, 0.011691457, 0.56424874, 0.026513161, 0.82509613, 9.219636917114258, 0.770862877368927, 3.6931772232055664, 0.5243687629699707, 1.8097423315048218, 2.548950433731079, -0.7685546875, -0.61572265625, -0.229248046875, 0, 
130, 1713104614, 0.011009329, 0.5641648, 0.026723403, 0.8251561, 9.236413955688477, 0.6851432919502258, 3.615648031234741, 2.0638201236724854, 1.030501127243042, 2.382441997528076, -0.76953125, -0.61669921875, -0.228759765625, 0, 
131, 1713121281, 0.010265762, 0.56417847, 0.02706399, 0.8251453, 9.27083683013916, 0.5997444987297058, 3.593994140625, 3.0389087200164795, 0.21743902564048767, 2.2379865646362305, -0.765625, -0.615234375, -0.228271484375, 0, 
132, 1713137948, 0.009437169, 0.5642468, 0.027505187, 0.82509404, 9.267169952392578, 0.6533119082450867, 3.588911533355713, 3.967458963394165, -0.2298804223537445, 2.347506523132324, -0.766845703125, -0.61474609375, -0.2265625, 0, 
133, 1713154615, 0.008405366, 0.56430537, 0.028211353, 0.8250414, 9.231030464172363, 0.619581937789917, 3.5724036693573, 6.181933403015137, -0.13119466602802277, 2.44630765914917, -0.765625, -0.618408203125, -0.226318359375, 0, 
134, 1713171282, 0.007414864, 0.5642921, 0.0289273, 0.825035, 9.201886177062988, 0.5567506551742554, 3.5319483280181885, 6.1018548011779785, 0.44671115279197693, 2.182253837585449, -0.76708984375, -0.616455078125, -0.22119140625, 0, 
135, 1713187949, 0.006539369, 0.5640748, 0.029631838, 0.82516617, 9.210107803344727, 0.6825907230377197, 3.4219579696655273, 5.524582862854004, 2.1116390228271484, 1.5293854475021362, -0.768310546875, -0.617431640625, -0.223388671875, 0, 
136, 1713204616, 0.005635929, 0.56373656, 0.030360134, 0.82537735, 9.216776847839355, 0.7305195331573486, 3.365043878555298, 5.8026604652404785, 3.123943328857422, 1.6044310331344604, -0.767822265625, -0.616943359375, -0.22119140625, 0, 
137, 1713221283, 0.0045659617, 0.5631732, 0.031251043, 0.8257352, 9.246390342712402, 0.6672384738922119, 3.349438190460205, 7.234309196472168, 5.0143537521362305, 1.850543737411499, -0.768310546875, -0.617431640625, -0.222900390625, 0, 
138, 1713237950, 0.0034000503, 0.5624, 0.03226139, 0.8262289, 9.238027572631836, 0.6301735639572144, 3.407257318496704, 8.216379165649414, 6.765340328216553, 1.884390950202942, -0.7666015625, -0.61962890625, -0.218994140625, 0, 
139, 1713254617, 0.0022906738, 0.56146276, 0.03316085, 0.82683426, 9.219891548156738, 0.7262862920761108, 3.387350082397461, 7.4169793128967285, 8.127501487731934, 1.989211082458496, -0.768310546875, -0.618408203125, -0.22119140625, 0, 
140, 1713271284, 0.0012289131, 0.560377, 0.033858843, 0.8275445, 9.214337348937988, 0.8075984716415405, 3.342526435852051, 6.065423011779785, 9.37409782409668, 2.4731757640838623, -0.76611328125, -0.617431640625, -0.222900390625, 0, 
141, 1713287951, 1.7096274E-4, 0.55921996, 0.03452728, 0.8283001, 9.122949600219727, 0.7614020109176636, 3.3775546550750732, 5.937065124511719, 9.973294258117676, 2.5875625610351562, -0.767333984375, -0.619140625, -0.2216796875, 0, 
142, 1713304618, -8.3402684E-4, 0.5580563, 0.035149623, 0.8290579, 9.076476097106934, 0.7902817726135254, 3.398561477661133, 5.320989608764648, 10.009332656860352, 2.410156011581421, -0.765625, -0.61962890625, -0.22119140625, 0, 
143, 1713321285, -0.0017685009, 0.5568529, 0.035869136, 0.8298344, 8.98159408569336, 0.8053439259529114, 3.412672996520996, 5.634975910186768, 10.303584098815918, 1.6516997814178467, -0.76171875, -0.620361328125, -0.225341796875, 0, 
144, 1713337952, -0.0025754652, 0.55566293, 0.036512326, 0.83060175, 8.944242477416992, 0.789294421672821, 3.469545364379883, 4.729925155639648, 10.172178268432617, 1.2386051416397095, -0.763916015625, -0.6201171875, -0.224609375, 0, 
145, 1713354619, -0.003261492, 0.5544836, 0.03711707, 0.8313603, 9.020172119140625, 0.8398512601852417, 3.4376347064971924, 3.965064764022827, 10.049569129943848, 0.673857569694519, -0.76123046875, -0.621337890625, -0.224365234375, 0, 
146, 1713371286, -0.0038475427, 0.5532709, 0.037600603, 0.83214366, 9.069994926452637, 0.9087252020835876, 3.436326742172241, 2.9482409954071045, 10.329568862915039, 0.5949960947036743, -0.76416015625, -0.62353515625, -0.22802734375, 0, 
147, 1713387953, -0.0044546127, 0.5519609, 0.038039606, 0.83299, 9.051270484924316, 0.8787274360656738, 3.42598032951355, 2.5962705612182617, 11.135444641113281, 0.8081962466239929, -0.762939453125, -0.622314453125, -0.2275390625, 0, 
148, 1713404620, -0.005053847, 0.5506539, 0.038399693, 0.83383465, 9.01773452758789, 0.8779089450836182, 3.4481863975524902, 2.206521987915039, 11.135906219482422, 1.1173927783966064, -0.76025390625, -0.62451171875, -0.228759765625, 0, 
149, 1713421287, -0.005628636, 0.5493488, 0.03881263, 0.83467245, 9.03087043762207, 0.7838830947875977, 3.5198049545288086, 2.4011402130126953, 11.106169700622559, 0.7859387397766113, -0.75927734375, -0.623046875, -0.233154296875, 0, 
150, 1713437954, -0.0061270357, 0.54803115, 0.0392647, 0.8355135, 9.054194450378418, 0.8014428019523621, 3.5646960735321045, 2.3060789108276367, 11.180639266967773, 0.19173675775527954, -0.75927734375, -0.6240234375, -0.234130859375, 0, 
151, 1713454621, -0.0065184794, 0.5467656, 0.039711494, 0.83631814, 9.043648719787598, 0.8207987546920776, 3.6331162452697754, 1.9149726629257202, 10.732123374938965, -0.3630281388759613, -0.759521484375, -0.6240234375, -0.23583984375, 0, 
152, 1713471288, -0.00680081, 0.5455982, 0.039988343, 0.83706474, 9.039237976074219, 0.8503504991531372, 3.8154873847961426, 0.5234212279319763, 9.937383651733398, -0.3179113268852234, -0.75830078125, -0.62451171875, -0.237060546875, 0, 
153, 1713487955, -0.007071809, 0.54450893, 0.040174555, 0.8377626, 8.971600532531738, 0.8414062261581421, 3.8982326984405518, -0.12636668980121613, 9.302765846252441, -0.049093157052993774, -0.75390625, -0.625244140625, -0.236083984375, 0, 
154, 1713504622, -0.007278866, 0.5433955, 0.040338986, 0.8384757, 9.020381927490234, 0.806461751461029, 3.875422239303589, -0.46117597818374634, 9.480583190917969, -0.31636178493499756, -0.754638671875, -0.625244140625, -0.239990234375, 0, 
155, 1713521289, -0.007532214, 0.5421105, 0.040619284, 0.8392911, 9.0636625289917, 0.7187286019325256, 3.9606077671051025, 0.3667612075805664, 10.861991882324219, -0.524016797542572, -0.75732421875, -0.6240234375, -0.241455078125, 0, 
156, 1713537956, -0.007830346, 0.54068834, 0.041008305, 0.8401864, 9.04241943359375, 0.7103710770606995, 4.097075462341309, 1.1336698532104492, 11.956820487976074, -0.7164323925971985, -0.755859375, -0.626220703125, -0.2431640625, 0, 
157, 1713554623, -0.008217686, 0.53941554, 0.041636724, 0.8409697, 8.967591285705566, 0.7278268933296204, 4.094282627105713, 2.8149521350860596, 10.677759170532227, -1.0693371295928955, -0.75537109375, -0.62744140625, -0.245361328125, 0, 
158, 1713571290, -0.008536773, 0.5379743, 0.042193867, 0.8418614, 8.893782615661621, 0.7419121265411377, 4.028505325317383, 2.1849308013916016, 12.034709930419922, -1.2259844541549683, -0.75146484375, -0.6279296875, -0.248291015625, 0, 
159, 1713587957, -0.008819905, 0.5365232, 0.042696822, 0.8427586, 8.878472328186035, 0.8280341029167175, 4.015275478363037, 1.7116848230361938, 12.099509239196777, -1.247255802154541, -0.75439453125, -0.629638671875, -0.2470703125, 0, 
160, 1713604624, -0.009082437, 0.535183, 0.043141842, 0.84358495, 8.922479629516602, 0.8740755915641785, 4.082280158996582, 1.2982059717178345, 11.191398620605469, -1.1154656410217285, -0.747802734375, -0.628662109375, -0.250244140625, 0, 
161, 1713621291, -0.009391652, 0.5338645, 0.043607526, 0.84439266, 8.887096405029297, 0.9072091579437256, 4.113903522491455, 1.6317600011825562, 11.010479927062988, -0.8859883546829224, -0.74951171875, -0.6279296875, -0.2529296875, 0, 
162, 1713637958, -0.009796427, 0.5326884, 0.0441275, 0.84510356, 8.867627143859863, 0.9059092402458191, 4.207231044769287, 2.2605645656585693, 9.84702205657959, -0.495228111743927, -0.75, -0.6279296875, -0.25341796875, 0, 
163, 1713654625, -0.010328444, 0.5316125, 0.0448713, 0.8457354, 8.892239570617676, 0.9100180268287659, 4.17495584487915, 4.072164058685303, 8.9951171875, -0.5150395035743713, -0.747802734375, -0.630859375, -0.25341796875, 0, 
164, 1713671292, -0.010926057, 0.53062755, 0.045693625, 0.8463021, 8.926779747009277, 0.875774621963501, 4.154994487762451, 4.759404182434082, 8.23962116241455, -0.38734737038612366, -0.7451171875, -0.632568359375, -0.251953125, 0, 
165, 1713687959, -0.0114756115, 0.52977645, 0.04646017, 0.84678614, 8.943477630615234, 0.953416645526886, 4.20308256149292, 4.283942699432373, 7.149786949157715, -0.40181857347488403, -0.746826171875, -0.629638671875, -0.25341796875, 0, 
166, 1713704626, -0.012014613, 0.5290197, 0.047170687, 0.84721243, 8.947545051574707, 0.9975207448005676, 4.239641189575195, 3.972581386566162, 6.393917083740234, -0.19011668860912323, -0.743408203125, -0.6298828125, -0.255859375, 0, 
167, 1713721293, -0.01258777, 0.5283696, 0.047851767, 0.8475714, 8.907221794128418, 0.9380089044570923, 4.223212718963623, 3.9361343383789062, 5.542306900024414, 0.17133615911006927, -0.746826171875, -0.6318359375, -0.2568359375, 0, 
168, 1713737960, -0.01313347, 0.52779007, 0.04842419, 0.8478916, 8.890351295471191, 0.9557942152023315, 4.249691963195801, 3.127951145172119, 4.984116554260254, 0.4071138799190521, -0.746337890625, -0.6318359375, -0.25634765625, 0, 
169, 1713754627, -0.0136576705, 0.5273065, 0.048916515, 0.848156, 8.913978576660156, 0.9536357522010803, 4.193078994750977, 2.586357593536377, 4.221588134765625, 0.6193790435791016, -0.744140625, -0.634033203125, -0.255859375, 0, 
170, 1713771294, -0.014154997, 0.5269367, 0.04929155, 0.84835595, 8.938194274902344, 0.922084629535675, 4.206332683563232, 1.755853295326233, 3.32598876953125, 0.916857898235321, -0.7451171875, -0.633056640625, -0.255859375, 0, 
171, 1713787961, -0.0146114845, 0.52661675, 0.04954955, 0.8485318, 8.946466445922852, 0.8944453597068787, 4.2003936767578125, 0.9755108952522278, 2.9544119834899902, 1.1559138298034668, -0.741455078125, -0.63427734375, -0.257568359375, 0, 
172, 1713804628, -0.015045732, 0.5262682, 0.049695406, 0.84873194, 8.953298568725586, 0.8699378967285156, 4.181031227111816, 0.23019413650035858, 3.218235492706299, 1.4282280206680298, -0.744140625, -0.633544921875, -0.258544921875, 0, 
173, 1713821295, -0.015432442, 0.5258985, 0.04965413, 0.8489566, 8.95652961730957, 0.8838289976119995, 4.182934284210205, -1.0208007097244263, 3.441898822784424, 1.8344199657440186, -0.742919921875, -0.628662109375, -0.258056640625, 0, 
174, 1713837962, -0.015840767, 0.5255502, 0.04949488, 0.84917396, 8.93815803527832, 0.8726484775543213, 4.198977470397949, -1.6369013786315918, 3.319047212600708, 2.4025990962982178, -0.744140625, -0.633544921875, -0.25537109375, 0, 
175, 1713854629, -0.016318716, 0.5251644, 0.049257107, 0.84941727, 8.970768928527832, 0.828764796257019, 4.25697135925293, -1.9610044956207275, 3.6618735790252686, 3.0303282737731934, -0.744873046875, -0.633056640625, -0.2607421875, 0, 
176, 1713871296, -0.016786851, 0.52470005, 0.04889231, 0.84971625, 8.966233253479004, 0.8230088949203491, 4.200181007385254, -2.6848833560943604, 4.343619346618652, 3.4364047050476074, -0.741943359375, -0.631591796875, -0.255859375, 0, 
177, 1713887963, -0.017325358, 0.524218, 0.04855083, 0.8500226, 8.981203079223633, 0.8498287796974182, 4.193399429321289, -2.335948944091797, 4.501100063323975, 3.7419393062591553, -0.74365234375, -0.6298828125, -0.259033203125, 0, 
178, 1713904630, -0.017868275, 0.5236213, 0.04811669, 0.85040367, 8.886069297790527, 0.8025010824203491, 4.29414701461792, -2.917574882507324, 5.460308074951172, 4.040224552154541, -0.741943359375, -0.632568359375, -0.261474609375, 0, 
179, 1713921297, -0.018429592, 0.52317077, 0.04776145, 0.8506891, 8.824687957763672, 0.8364254236221313, 4.231894016265869, -2.3029086589813232, 4.267845153808594, 3.9660117626190186, -0.745361328125, -0.62744140625, -0.262451171875, 0, 
180, 1713937964, -0.018989993, 0.5227141, 0.04752419, 0.85097057, 8.821442604064941, 0.852394700050354, 4.234095573425293, -1.7031996250152588, 4.2733378410339355, 3.5003979206085205, -0.744140625, -0.628662109375, -0.261962890625, 0, 
181, 1713954631, -0.019479629, 0.52230704, 0.04726422, 0.8512239, 8.834665298461914, 0.869366466999054, 4.2964372634887695, -2.089106559753418, 3.867812395095825, 3.19789981842041, -0.744384765625, -0.62646484375, -0.266845703125, 0, 
182, 1713971298, -0.019877419, 0.52187544, 0.046891417, 0.85150003, 8.84461498260498, 0.899928092956543, 4.306275367736816, -3.016235113143921, 4.087890148162842, 3.099367618560791, -0.745361328125, -0.6259765625, -0.265625, 0, 
183, 1713987965, -0.020206785, 0.52142334, 0.046452798, 0.85179317, 8.815825462341309, 0.9023723006248474, 4.306369304656982, -3.659114122390747, 4.2592902183532715, 2.935549020767212, -0.744873046875, -0.625244140625, -0.267822265625, 0, 
184, 1714004632, -0.020484308, 0.5208997, 0.04595001, 0.8521343, 8.820170402526855, 0.8691461682319641, 4.282975196838379, -4.201770782470703, 4.847960472106934, 2.8605806827545166, -0.745361328125, -0.6259765625, -0.268798828125, 0, 
185, 1714021299, -0.020709055, 0.52032, 0.045473024, 0.8525083, 8.80383014678955, 0.8778026700019836, 4.278504848480225, -4.22958517074585, 5.2801737785339355, 2.45556640625, -0.74658203125, -0.626953125, -0.268310546875, 0, 
186, 1714037966, -0.020857584, 0.5197456, 0.044995837, 0.85288036, 8.820218086242676, 0.898410975933075, 4.29163932800293, -4.524540901184082, 5.222916603088379, 2.015091896057129, -0.74169921875, -0.624267578125, -0.27392578125, 0, 
187, 1714054633, -0.020996042, 0.51914525, 0.044535846, 0.85326666, 8.7791748046875, 0.8798527121543884, 4.367340087890625, -4.387154579162598, 5.43255615234375, 1.937434434890747, -0.74609375, -0.624267578125, -0.27392578125, 0, 
188, 1714071300, -0.021140805, 0.5185911, 0.04412004, 0.85362166, 8.741026878356934, 0.8776862025260925, 4.389615058898926, -4.20114278793335, 5.040515422821045, 1.8007522821426392, -0.74560546875, -0.624755859375, -0.27392578125, 0, 
189, 1714087967, -0.021262292, 0.5181003, 0.043689147, 0.8539388, 8.791682243347168, 0.8781006932258606, 4.427278518676758, -4.439328193664551, 4.524765491485596, 1.724464774131775, -0.744384765625, -0.623779296875, -0.27490234375, 0, 
190, 1714104634, -0.021359337, 0.5176064, 0.04321491, 0.85425985, 8.81416130065918, 0.8479821681976318, 4.428125381469727, -4.715240478515625, 4.561148166656494, 1.7819653749465942, -0.746826171875, -0.626220703125, -0.276123046875, 0, 
191, 1714121301, -0.021458086, 0.51709265, 0.042782582, 0.8545903, 8.799243927001953, 0.8340015411376953, 4.460777759552002, -4.533198356628418, 4.703785419464111, 1.615418791770935, -0.74462890625, -0.620849609375, -0.27880859375, 0, 
192, 1714137968, -0.021535445, 0.51657087, 0.042346552, 0.85492545, 8.747688293457031, 0.8137713074684143, 4.472466945648193, -4.60161018371582, 4.763988018035889, 1.5281561613082886, -0.7451171875, -0.619384765625, -0.281982421875, 0, 
193, 1714154635, -0.021575682, 0.51612484, 0.04189567, 0.8552161, 8.733534812927246, 0.8299112319946289, 4.540952682495117, -4.832854747772217, 4.150155067443848, 1.3969680070877075, -0.74072265625, -0.618896484375, -0.281005859375, 0, 
194, 1714171302, -0.021646157, 0.51574916, 0.04148197, 0.85546106, 8.733985900878906, 0.7861961126327515, 4.5395331382751465, -4.455822467803955, 3.5768520832061768, 1.5074739456176758, -0.74462890625, -0.620361328125, -0.281005859375, 0, 
195, 1714187969, -0.021731518, 0.51544535, 0.04108446, 0.8556613, 8.743607521057129, 0.7614362239837646, 4.5395989418029785, -4.416711807250977, 2.9883108139038086, 1.5215353965759277, -0.74365234375, -0.619384765625, -0.283203125, 0, 
196, 1714204636, -0.021784652, 0.51524, 0.040701993, 0.8558017, 8.76932430267334, 0.7339186072349548, 4.588195323944092, -4.373669624328613, 2.187260627746582, 1.3596630096435547, -0.744140625, -0.619384765625, -0.286376953125, 0, 
197, 1714221303, -0.021833535, 0.5151076, 0.04028934, 0.85589975, 8.79801082611084, 0.7223736047744751, 4.573644161224365, -4.566187381744385, 1.6081061363220215, 1.4776990413665771, -0.74462890625, -0.619873046875, -0.285888671875, 0, 
198, 1714237970, -0.0218821, 0.5149455, 0.039834347, 0.8560173, 8.789190292358398, 0.698136568069458, 4.5725417137146, -4.734680652618408, 1.8607370853424072, 1.6656582355499268, -0.74365234375, -0.620849609375, -0.286376953125, 0, 
199, 1714254637, -0.021965591, 0.5146837, 0.039402906, 0.85619265, 8.776148796081543, 0.6535512804985046, 4.555264949798584, -4.535503387451172, 2.6518237590789795, 1.7293438911437988, -0.7431640625, -0.615966796875, -0.28759765625, 0, 
200, 1714271304, -0.022062132, 0.5143518, 0.038999848, 0.85640794, 8.75686264038086, 0.6407572031021118, 4.6214518547058105, -4.396734237670898, 3.200768232345581, 1.6480494737625122, -0.745849609375, -0.619140625, -0.2890625, 0, 
201, 1714287971, -0.022198522, 0.5140777, 0.03875276, 0.85658014, 8.719304084777832, 0.6365561485290527, 4.55980920791626, -3.354168653488159, 2.6893975734710693, 1.3477786779403687, -0.744873046875, -0.619384765625, -0.290283203125, 0, 
202, 1714304638, -0.02220366, 0.5138696, 0.038377855, 0.85672176, 8.710541725158691, 0.6387709379196167, 4.5743818283081055, -4.487185001373291, 2.1802170276641846, 1.098400592803955, -0.745361328125, -0.616455078125, -0.290771484375, 0, 
203, 1714321305, -0.022164721, 0.5137373, 0.037940003, 0.8568217, 8.722516059875488, 0.6255333423614502, 4.622202396392822, -5.106564998626709, 1.577012538909912, 1.0471370220184326, -0.744873046875, -0.6171875, -0.29296875, 0, 
204, 1714337972, -0.02210583, 0.5137585, 0.037511826, 0.85682935, 8.726081848144531, 0.6756110191345215, 4.579507350921631, -4.989629745483398, 0.34300532937049866, 1.0201411247253418, -0.743896484375, -0.616455078125, -0.29345703125, 0, 
205, 1714354639, -0.022101315, 0.5138873, 0.03716229, 0.85676754, 8.723698616027832, 0.697382926940918, 4.562283992767334, -4.327476978302002, -0.536400318145752, 1.1139732599258423, -0.740478515625, -0.613525390625, -0.29248046875, 0, 
206, 1714371306, -0.022102077, 0.5140621, 0.036888387, 0.8566745, 8.692288398742676, 0.7173712849617004, 4.572638034820557, -3.823291540145874, -0.926699697971344, 0.9247338771820068, -0.7431640625, -0.614501953125, -0.29345703125, 0, 
207, 1714387973, -0.022113802, 0.5142624, 0.036701486, 0.85656184, 8.734094619750977, 0.7215836644172668, 4.616631031036377, -3.2922496795654297, -1.1610426902770996, 0.6942449808120728, -0.743896484375, -0.616455078125, -0.294189453125, 0, 
208, 1714404640, -0.022109762, 0.5144506, 0.036572125, 0.8564545, 8.803948402404785, 0.7003903985023499, 4.618124008178711, -3.0343172550201416, -1.0881619453430176, 0.39333420991897583, -0.744873046875, -0.614990234375, -0.294677734375, 0, 
209, 1714421307, -0.022098528, 0.5146358, 0.036421422, 0.85634995, 8.788490295410156, 0.6686564683914185, 4.573342323303223, -3.158231496810913, -1.0610125064849854, 0.45064258575439453, -0.74658203125, -0.615966796875, -0.29345703125, 0, 
210, 1714437974, -0.022116268, 0.5148384, 0.036362704, 0.8562303, 8.750394821166992, 0.6644617915153503, 4.598814964294434, -2.572136163711548, -1.227712631225586, 0.28249526023864746, -0.74658203125, -0.61474609375, -0.29345703125, 0, 
211, 1714454641, -0.022145465, 0.51513666, 0.036383893, 0.85604906, 8.68931770324707, 0.6661044359207153, 4.5879130363464355, -2.0986084938049316, -2.023998737335205, 0.09066895395517349, -0.7470703125, -0.615478515625, -0.29296875, 0, 
212, 1714471308, -0.02216406, 0.51553875, 0.036521576, 0.85580075, 8.690766334533691, 0.6639012098312378, 4.564916133880615, -1.4754770994186401, -2.899709463119507, -0.35066986083984375, -0.744384765625, -0.6181640625, -0.291259765625, 0, 
213, 1714487975, -0.022156665, 0.51592743, 0.036709704, 0.85555863, 8.741697311401367, 0.6766892671585083, 4.506593704223633, -1.2080038785934448, -2.8134849071502686, -0.6450878977775574, -0.744384765625, -0.61376953125, -0.29296875, 0, 
214, 1714504642, -0.022184372, 0.5162984, 0.03696029, 0.8553233, 8.745492935180664, 0.6731154322624207, 4.513287544250488, -0.6376985907554626, -2.683218479156494, -0.6176950931549072, -0.7431640625, -0.61767578125, -0.29150390625, 0, 
215, 1714521309, -0.022197086, 0.5167062, 0.03724797, 0.8550642, 8.738454818725586, 0.6814782619476318, 4.539961338043213, -0.48135876655578613, -2.9958600997924805, -0.8196000456809998, -0.745361328125, -0.615966796875, -0.28955078125, 0, 
216, 1714537976, -0.022216933, 0.5171064, 0.03762733, 0.8548051, 8.797086715698242, 0.6729088425636292, 4.474498271942139, 0.030184563249349594, -2.9680442810058594, -1.1227902173995972, -0.744873046875, -0.615966796875, -0.290283203125, 0, 
217, 1714554643, -0.02226152, 0.5175186, 0.03809132, 0.85453385, 8.847874641418457, 0.7242690920829773, 4.467156410217285, 0.6590275168418884, -3.0871944427490234, -1.2435797452926636, -0.744873046875, -0.615966796875, -0.290283203125, 0, 
218, 1714571310, -0.022353098, 0.5180221, 0.038592223, 0.85420394, 8.837320327758789, 0.759519100189209, 4.449360370635986, 1.1576554775238037, -3.818462610244751, -0.9990553259849548, -0.7431640625, -0.615966796875, -0.28759765625, 0, 
219, 1714587977, -0.022472495, 0.5187003, 0.039180703, 0.8537623, 8.814723014831543, 0.7799655795097351, 4.410030841827393, 1.7202900648117065, -5.2494964599609375, -1.0982662439346313, -0.745849609375, -0.61767578125, -0.286865234375, 0, 
220, 1714604644, -0.022553181, 0.519331, 0.039710626, 0.85335225, 8.807162284851074, 0.7600035071372986, 4.353958606719971, 1.2245049476623535, -4.859415054321289, -1.1267603635787964, -0.745849609375, -0.61865234375, -0.28369140625, 0, 
221, 1714621311, -0.022694608, 0.5199984, 0.040322654, 0.85291326, 8.828166007995605, 0.7501996159553528, 4.427116394042969, 1.8356881141662598, -5.175053596496582, -1.0805679559707642, -0.7451171875, -0.619384765625, -0.28369140625, 0, 
222, 1714637978, -0.022878904, 0.5206821, 0.0410319, 0.8524573, 8.82412052154541, 0.7536044716835022, 4.330164432525635, 2.689448595046997, -5.327934741973877, -1.0972416400909424, -0.748046875, -0.619873046875, -0.282470703125, 0, 
223, 1714654645, -0.022994554, 0.5214219, 0.041692544, 0.8519696, 8.837349891662598, 0.7577889561653137, 4.269499778747559, 2.1836113929748535, -5.777310848236084, -1.2831645011901855, -0.743896484375, -0.62158203125, -0.2783203125, 0, 
224, 1714671312, -0.02311956, 0.5221955, 0.042320892, 0.8514613, 8.829849243164062, 0.7739045023918152, 4.246242523193359, 1.9669657945632935, -6.039468288421631, -1.1188205480575562, -0.7451171875, -0.620849609375, -0.277587890625, 0, 
225, 1714687979, -0.023228135, 0.52294785, 0.042885415, 0.8509684, 8.853096008300781, 0.8077455163002014, 4.204545497894287, 1.603803277015686, -5.845260143280029, -0.9516719579696655, -0.747802734375, -0.620361328125, -0.277587890625, 0, 
226, 1714704646, -0.023312004, 0.5236486, 0.04341411, 0.8505081, 8.854857444763184, 0.7683846354484558, 4.187047004699707, 1.40257728099823, -5.415645599365234, -0.9298627376556396, -0.748291015625, -0.62255859375, -0.2763671875, 0, 
227, 1714721313, -0.023398273, 0.52427065, 0.04397259, 0.85009384, 8.889899253845215, 0.7727745771408081, 4.204247951507568, 1.540399193763733, -4.790465354919434, -1.0665065050125122, -0.74658203125, -0.624267578125, -0.273681640625, 0, 
228, 1714737980, -0.023450391, 0.5248446, 0.044484325, 0.8497115, 8.935332298278809, 0.7866554260253906, 4.258733749389648, 1.1524178981781006, -4.390766620635986, -1.1052457094192505, -0.743408203125, -0.623779296875, -0.272216796875, 0, 
229, 1714754647, -0.023526149, 0.5253017, 0.044995885, 0.84940004, 8.9475736618042, 0.7530863881111145, 4.221253395080566, 1.2901246547698975, -3.438998222351074, -0.9792184233665466, -0.74658203125, -0.624267578125, -0.272216796875, 0, 
230, 1714771314, -0.023621136, 0.5256461, 0.04549243, 0.84915763, 8.947933197021484, 0.7361039519309998, 4.237733364105225, 1.2947475910186768, -2.516453981399536, -0.8424592614173889, -0.7470703125, -0.62744140625, -0.26953125, 0, 
231, 1714787981, -0.023742417, 0.52597016, 0.045980748, 0.84892726, 8.914787292480469, 0.759543240070343, 4.291770935058594, 1.1887751817703247, -2.3518927097320557, -0.734207272529602, -0.748779296875, -0.626220703125, -0.267578125, 0, 
232, 1714804648, -0.023838213, 0.52637184, 0.046405986, 0.8486525, 8.855795860290527, 0.8331906795501709, 4.281423568725586, 0.5332820415496826, -2.976893663406372, -0.7081719040870667, -0.744384765625, -0.623779296875, -0.26904296875, 0, 
233, 1714821315, -0.023827687, 0.52680457, 0.04670795, 0.84836775, 8.87813949584961, 0.8497529029846191, 4.248884677886963, -0.24058647453784943, -3.1871097087860107, -0.7102465033531189, -0.745849609375, -0.6259765625, -0.264404296875, 0, 
234, 1714837982, -0.023852114, 0.52724797, 0.047051806, 0.8480724, 8.897978782653809, 0.796247661113739, 4.262083053588867, -0.04531526565551758, -3.294990301132202, -0.7265617847442627, -0.746337890625, -0.6259765625, -0.262939453125, 0, 
235, 1714854649, -0.023854896, 0.5277407, 0.047432177, 0.84774476, 8.918570518493652, 0.7866937518119812, 4.302953720092773, 0.07444331049919128, -3.7155256271362305, -0.9650416970252991, -0.745849609375, -0.626953125, -0.2666015625, 0, 
236, 1714871316, -0.023794405, 0.528269, 0.047799785, 0.84739655, 8.944995880126953, 0.794284999370575, 4.281858444213867, 0.0806800052523613, -3.9973673820495605, -1.127746343612671, -0.744873046875, -0.628173828125, -0.26513671875, 0, 
237, 1714887983, -0.023709364, 0.5288189, 0.048128426, 0.8470374, 8.95138931274414, 0.8251722455024719, 4.216498374938965, -0.23623234033584595, -4.166616439819336, -1.1181801557540894, -0.744873046875, -0.629150390625, -0.262939453125, 0, 
238, 1714904650, -0.023631122, 0.52937174, 0.048459284, 0.8466752, 8.941702842712402, 0.8373009562492371, 4.199883460998535, -0.2392418384552002, -4.195123672485352, -1.0981508493423462, -0.748046875, -0.62744140625, -0.26171875, 0, 
239, 1714921317, -0.02355203, 0.52995324, 0.048792858, 0.8462945, 8.918486595153809, 0.8279902338981628, 4.214127540588379, -0.25222745537757874, -4.432310581207275, -1.1066288948059082, -0.747314453125, -0.6279296875, -0.259521484375, 0, 
240, 1714937984, -0.023450872, 0.53065383, 0.049079258, 0.84584165, 8.887784957885742, 0.855361819267273, 4.204659461975098, -0.6837885975837708, -5.395616054534912, -1.0420206785202026, -0.7451171875, -0.628662109375, -0.26025390625, 0, 
241, 1714954651, -0.023293523, 0.5314127, 0.049344663, 0.84535384, 8.899367332458496, 0.8397908806800842, 4.1615214347839355, -0.7229377627372742, -5.85793924331665, -1.1352126598358154, -0.746337890625, -0.63037109375, -0.258056640625, 0, 
242, 1714971318, -0.023188664, 0.5321116, 0.049629185, 0.8449004, 8.934934616088867, 0.8480964303016663, 4.156841278076172, -0.6263778209686279, -5.38575553894043, -1.0094285011291504, -0.74951171875, -0.6279296875, -0.25830078125, 0, 
243, 1714987985, -0.023054495, 0.532734, 0.049848735, 0.84449893, 8.984359741210938, 0.8506338596343994, 4.193105220794678, -1.1237636804580688, -4.752507209777832, -0.9752867817878723, -0.746826171875, -0.63037109375, -0.255615234375, 0, 
244, 1715004652, -0.022971693, 0.5334976, 0.050205827, 0.8439978, 8.989426612854004, 0.869795560836792, 4.125744819641113, -0.0461604930460453, -5.937517166137695, -1.0775840282440186, -0.74951171875, -0.629150390625, -0.256103515625, 0, 
245, 1715021319, -0.022801068, 0.5342693, 0.05040817, 0.84350216, 8.958608627319336, 0.8456424474716187, 4.12614631652832, -1.2554000616073608, -5.9698920249938965, -1.0054329633712769, -0.748779296875, -0.628662109375, -0.2529296875, 0, 
246, 1715037986, -0.022650344, 0.535172, 0.050605007, 0.8429217, 9.003500938415527, 0.8710036277770996, 4.061984539031982, -1.3738205432891846, -7.047994136810303, -0.8791495561599731, -0.747802734375, -0.629638671875, -0.25341796875, 0, 
247, 1715054653, -0.022629278, 0.53631675, 0.05089153, 0.84217715, 8.99120044708252, 0.8541718125343323, 4.057677268981934, -0.21444879472255707, -9.012068748474121, -0.2808753550052643, -0.75048828125, -0.630126953125, -0.25, 0, 
248, 1715071320, -0.0226899, 0.53743124, 0.05124847, 0.8414432, 8.92883014678955, 0.8363707661628723, 3.9680333137512207, 0.4995373487472534, -8.779143333435059, -0.07415518164634705, -0.751953125, -0.629638671875, -0.24609375, 0, 
249, 1715087987, -0.02280744, 0.53851104, 0.051635705, 0.8407258, 8.974313735961914, 0.8267941474914551, 3.964308977127075, 0.5978004932403564, -8.523042678833008, 0.01338263787329197, -0.75048828125, -0.63232421875, -0.247802734375, 0, 
250, 1715104654, -0.022858864, 0.5396115, 0.05204113, 0.8399934, 9.029651641845703, 0.885462760925293, 3.927177667617798, 1.042027235031128, -8.677103042602539, -0.18399524688720703, -0.745849609375, -0.63134765625, -0.245361328125, 0, 
251, 1715121321, -0.022902925, 0.5407114, 0.052439697, 0.8392597, 9.059798240661621, 0.925849974155426, 3.8394923210144043, 0.9505260586738586, -8.680140495300293, -0.20767423510551453, -0.74755859375, -0.633056640625, -0.244140625, 0, 
252, 1715137988, -0.022836972, 0.5416962, 0.052699532, 0.83860993, 9.094436645507812, 0.9130396842956543, 3.847820520401001, 0.08349741250276566, -7.68789005279541, -0.23363268375396729, -0.74755859375, -0.633544921875, -0.241455078125, 0, 
253, 1715154655, -0.022737477, 0.5425011, 0.05287282, 0.8380813, 9.113566398620605, 0.9096717834472656, 3.877945899963379, -0.6681777834892273, -6.203403472900391, -0.2307768315076828, -0.751953125, -0.63134765625, -0.238037109375, 0, 
254, 1715171322, -0.022662211, 0.5431623, 0.053013023, 0.8376461, 9.113134384155273, 0.8982478380203247, 3.866177797317505, -1.081169843673706, -5.034528732299805, -0.14993035793304443, -0.75244140625, -0.63134765625, -0.238037109375, 0, 
255, 1715187989, -0.022595426, 0.54371434, 0.053139463, 0.83728147, 9.098060607910156, 0.8800559043884277, 3.8377625942230225, -1.225010633468628, -4.1432576179504395, -0.1322575807571411, -0.7529296875, -0.630859375, -0.236328125, 0, 
256, 1715204656, -0.02252154, 0.5441611, 0.05324368, 0.8369867, 9.126335144042969, 0.8746948838233948, 3.8553202152252197, -1.402647614479065, -3.272477149963379, -0.14059452712535858, -0.750732421875, -0.63232421875, -0.234130859375, 0, 
257, 1715221323, -0.022478346, 0.54449487, 0.053358622, 0.83676344, 9.120231628417969, 0.8599264621734619, 3.809163808822632, -1.165806770324707, -2.3396623134613037, -0.02824440412223339, -0.75, -0.63134765625, -0.233154296875, 0, 
258, 1715237990, -0.022501145, 0.54472715, 0.053528678, 0.8366008, 9.106070518493652, 0.8399683833122253, 3.8063130378723145, -0.72132408618927, -1.51923668384552, 0.05454224348068237, -0.748046875, -0.633544921875, -0.236572265625, 0, 
259, 1715254657, -0.02251361, 0.54490733, 0.05368724, 0.836473, 9.050928115844727, 0.8208094835281372, 3.8456878662109375, -0.5815939903259277, -1.066672921180725, 0.11001936346292496, -0.748291015625, -0.633544921875, -0.232177734375, 0, 
260, 1715271324, -0.022541575, 0.5450541, 0.05387308, 0.8363647, 9.070351600646973, 0.8524519801139832, 3.85060715675354, -0.5029757618904114, -0.8127229809761047, 0.029851598665118217, -0.751220703125, -0.634033203125, -0.23583984375, 0, 
261, 1715287991, -0.02252168, 0.5451332, 0.054023523, 0.8363039, 9.133461952209473, 0.8797505497932434, 3.8211631774902344, -0.7747905254364014, -0.24844957888126373, -0.0990891233086586, -0.748291015625, -0.632568359375, -0.232666015625, 0, 
262, 1715304658, -0.022474136, 0.5450936, 0.05413866, 0.8363235, 9.163382530212402, 0.8850552439689636, 3.8227319717407227, -1.1052584648132324, 0.7318188548088074, -0.1859930455684662, -0.752197265625, -0.63134765625, -0.232421875, 0, 
263, 1715321325, -0.022448057, 0.54496413, 0.054296643, 0.83639836, 9.17223834991455, 0.9102006554603577, 3.759225845336914, -0.8701980113983154, 1.4506266117095947, -0.2966911494731903, -0.750732421875, -0.63232421875, -0.234130859375, 0, 
264, 1715337992, -0.022310117, 0.5446903, 0.054320067, 0.8365788, 9.087251663208008, 0.8875327706336975, 3.8498549461364746, -1.9157594442367554, 2.6748621463775635, -0.44081375002861023, -0.751220703125, -0.633056640625, -0.233154296875, 0, 
265, 1715354659, -0.022166166, 0.5444616, 0.054369528, 0.8367283, 9.071284294128418, 0.8944925665855408, 3.773408889770508, -1.8861128091812134, 2.282808780670166, -0.5888040065765381, -0.751220703125, -0.63623046875, -0.237060546875, 0, 
266, 1715371326, -0.021999566, 0.5442937, 0.054375455, 0.8368416, 9.073312759399414, 0.9013413786888123, 3.83329701423645, -2.1459662914276123, 1.8062074184417725, -0.5009651780128479, -0.74853515625, -0.633544921875, -0.238037109375, 0, 
267, 1715387993, -0.021736853, 0.54412544, 0.054269943, 0.8369647, 9.025339126586914, 0.9266560077667236, 3.828789472579956, -2.8548238277435303, 1.849890112876892, -0.523299515247345, -0.745849609375, -0.633544921875, -0.237060546875, 0, 
268, 1715404660, -0.02151266, 0.5440112, 0.054167677, 0.8370513, 9.000022888183594, 0.9253240823745728, 3.8383169174194336, -2.9284088611602783, 1.3965836763381958, -0.37812668085098267, -0.748046875, -0.63671875, -0.237060546875, 0, 
269, 1715421327, -0.021270806, 0.5439103, 0.05406748, 0.8371296, 9.016481399536133, 0.8874409794807434, 3.8624765872955322, -2.81937575340271, 1.294235348701477, -0.41494494676589966, -0.7490234375, -0.632568359375, -0.23486328125, 0, 
270, 1715437994, -0.021069951, 0.5437872, 0.053997986, 0.837219, 9.037734985351562, 0.8520076870918274, 3.833286762237549, -3.0861189365386963, 1.4229007959365845, -0.5327505469322205, -0.746826171875, -0.634033203125, -0.23828125, 0, 
271, 1715454661, -0.020819029, 0.5436548, 0.053916503, 0.83731663, 9.0621337890625, 0.8855157494544983, 3.844639778137207, -2.8676939010620117, 1.5310759544372559, -0.5982037782669067, -0.746337890625, -0.633544921875, -0.237548828125, 0, 
272, 1715471328, -0.020621147, 0.54351807, 0.05392171, 0.83741003, 9.032930374145508, 0.8823745250701904, 3.8573336601257324, -2.3005518913269043, 1.5354171991348267, -0.6680623888969421, -0.749267578125, -0.63525390625, -0.23974609375, 0, 
273, 1715487995, -0.020438446, 0.5434327, 0.053969245, 0.83746684, 9.021625518798828, 0.8853186964988708, 3.854491710662842, -1.895666480064392, 1.1112838983535767, -0.676425039768219, -0.748046875, -0.634033203125, -0.2392578125, 0, 
274, 1715504662, -0.020278092, 0.543361, 0.054014854, 0.8375143, 9.050273895263672, 0.912883460521698, 3.8545596599578857, -1.8984324932098389, 0.9998046159744263, -0.5639981031417847, -0.746826171875, -0.633544921875, -0.23974609375, 0, 
275, 1715521329, -0.02012452, 0.5432687, 0.054097433, 0.83757263, 9.060240745544434, 0.921758770942688, 3.8880162239074707, -1.6793544292449951, 1.1561702489852905, -0.6772574186325073, -0.745849609375, -0.63427734375, -0.241455078125, 0, 
276, 1715537996, -0.019929586, 0.5431875, 0.0541809, 0.83762443, 9.062289237976074, 0.9203617572784424, 3.9110071659088135, -1.552008032798767, 1.0746575593948364, -0.8073698878288269, -0.746337890625, -0.636962890625, -0.237060546875, 0, 
277, 1715554663, -0.019776372, 0.54309845, 0.05431323, 0.83767724, 9.076288223266602, 0.9140881299972534, 3.90287709236145, -1.5022295713424683, 1.0973504781723022, -0.8989353179931641, -0.745361328125, -0.634765625, -0.23876953125, 0, 
278, 1715571330, -0.019617336, 0.5429854, 0.0544267, 0.83774686, 9.062543869018555, 0.9201317429542542, 3.921522617340088, -1.5843696594238281, 1.302969217300415, -0.8531014919281006, -0.74462890625, -0.634765625, -0.23876953125, 0, 
279, 1715587997, -0.019437252, 0.54284203, 0.05454374, 0.83783644, 9.08887004852295, 0.9263336658477783, 3.959300994873047, -1.6182039976119995, 1.544100046157837, -0.9912564158439636, -0.74267578125, -0.636474609375, -0.243896484375, 0, 
280, 1715604664, -0.019184979, 0.5426165, 0.054609045, 0.837984, 9.108260154724121, 0.919439971446991, 3.9626517295837402, -1.5317353010177612, 2.2716798782348633, -0.9972111582756042, -0.74755859375, -0.634765625, -0.241943359375, 0, 
281, 1715621331, -0.01903484, 0.5423107, 0.054732658, 0.8381773, 9.079920768737793, 0.9169315099716187, 4.0008931159973145, -1.3522801399230957, 2.8844895362854004, -0.8642684817314148, -0.744140625, -0.6357421875, -0.239990234375, 0, 
282, 1715637998, -0.01893585, 0.5419506, 0.054871824, 0.83840346, 9.029186248779297, 0.9163179993629456, 4.013995170593262, -1.3205204010009766, 3.313054084777832, -0.7469367384910583, -0.745849609375, -0.6357421875, -0.2431640625, 0, 
283, 1715654665, -0.01880131, 0.5415696, 0.054958254, 0.8386468, 9.002431869506836, 0.9539467096328735, 4.016982078552246, -1.5732154846191406, 3.504061222076416, -0.6936752796173096, -0.744873046875, -0.637939453125, -0.24609375, 0, 
284, 1715671332, -0.018577287, 0.5412194, 0.05496186, 0.83887774, 8.96841049194336, 1.0036097764968872, 4.037343502044678, -2.0895802974700928, 3.2795403003692627, -0.773689329624176, -0.7431640625, -0.634765625, -0.243896484375, 0, 
285, 1715687999, -0.018382076, 0.5409201, 0.0549588, 0.83907515, 8.96341323852539, 0.9915381073951721, 4.003512859344482, -2.3321452140808105, 2.838296890258789, -0.6786021590232849, -0.7421875, -0.637451171875, -0.243896484375, 0, 
286, 1715704666, -0.018168194, 0.5406829, 0.054961063, 0.83923244, 8.9467134475708, 0.9968288540840149, 3.9619455337524414, -2.3834733963012695, 2.316950559616089, -0.7824231386184692, -0.7421875, -0.637451171875, -0.24560546875, 0, 
287, 1715721333, -0.017948352, 0.54050356, 0.055003885, 0.8393501, 8.939351081848145, 0.9953948855400085, 3.9611012935638428, -2.0657217502593994, 1.8363407850265503, -0.9013428092002869, -0.741455078125, -0.638671875, -0.2412109375, 0, 
288, 1715738000, -0.017807035, 0.5403688, 0.05521828, 0.8394258, 8.952977180480957, 1.0322054624557495, 3.9819066524505615, -1.3254762887954712, 1.3771692514419556, -1.2740975618362427, -0.743896484375, -0.638427734375, -0.247802734375, 0, 
289, 1715754667, -0.017629895, 0.540528, 0.055523735, 0.8393069, 8.947527885437012, 1.0293807983398438, 3.892101526260376, -0.3262353837490082, -1.0152298212051392, -1.4593924283981323, -0.740478515625, -0.634765625, -0.2451171875, 0, 
290, 1715771334, -0.017383585, 0.5406731, 0.055743806, 0.8392039, 8.977398872375488, 1.0656238794326782, 3.88665771484375, -1.2234227657318115, -0.9033151268959045, -1.6006977558135986, -0.739501953125, -0.637451171875, -0.246337890625, 0, 
291, 1715788001, -0.017116586, 0.5409168, 0.055943914, 0.839039, 8.991361618041992, 1.1138273477554321, 3.90276837348938, -1.043941617012024, -1.6739757061004639, -1.4573689699172974, -0.740478515625, -0.63916015625, -0.243408203125, 0, 
292, 1715804668, -0.016907787, 0.54127914, 0.056214847, 0.8387913, 8.968835830688477, 1.1513805389404297, 3.8890199661254883, -0.7769163250923157, -2.686983346939087, -1.4687665700912476, -0.739501953125, -0.6396484375, -0.24462890625, 0, 
293, 1715821335, -0.016687943, 0.54168594, 0.056509167, 0.8385134, 8.987312316894531, 1.175698161125183, 3.9155566692352295, -0.48148682713508606, -3.042680263519287, -1.5164575576782227, -0.7392578125, -0.63916015625, -0.241943359375, 0, 
294, 1715838002, -0.016518166, 0.5421167, 0.05687601, 0.83821344, 9.001119613647461, 1.1873974800109863, 3.918853521347046, -0.043855343014001846, -3.270005702972412, -1.5436197519302368, -0.740478515625, -0.641845703125, -0.244140625, 0, 
295, 1715854669, -0.01631867, 0.54254156, 0.05725462, 0.8379166, 9.000164985656738, 1.2270007133483887, 3.9257538318634033, 0.22007714211940765, -3.2074339389801025, -1.6381691694259644, -0.73974609375, -0.6396484375, -0.240234375, 0, 
296, 1715871336, -0.016116874, 0.54298705, 0.05760791, 0.8376076, 9.005053520202637, 1.2163890600204468, 3.949265480041504, -0.28745779395103455, -3.406777858734131, -1.6730411052703857, -0.739501953125, -0.641357421875, -0.242919921875, 0, 
297, 1715888003, -0.015855884, 0.54338396, 0.057851747, 0.8373384, 9.02674674987793, 1.2138593196868896, 3.9105403423309326, -0.8305878043174744, -2.957312822341919, -1.5029340982437134, -0.73876953125, -0.64306640625, -0.237060546875, 0, 
298, 1715904670, -0.015619904, 0.54369456, 0.05803456, 0.83712876, 9.039337158203125, 1.1749639511108398, 3.901172637939453, -1.4322941303253174, -2.259789228439331, -1.2855205535888672, -0.73828125, -0.64306640625, -0.240966796875, 0, 
299, 1715921337, -0.01527708, 0.5439929, 0.058087096, 0.8369374, 9.016616821289062, 1.1664581298828125, 3.9001057147979736, -2.110185384750366, -2.100721597671509, -1.2375222444534302, -0.7421875, -0.641357421875, -0.240234375, 0, 
300, 1715938004, -0.014927525, 0.54430735, 0.058133405, 0.8367361, 9.018131256103516, 1.1524814367294312, 3.8895416259765625, -2.5726354122161865, -2.2760021686553955, -1.3911218643188477, -0.737548828125, -0.6435546875, -0.23828125, 0, 
301, 1715954671, -0.014535091, 0.5446485, 0.058146052, 0.8365201, 9.02968978881836, 1.1125202178955078, 3.8699700832366943, -2.7554593086242676, -2.48237681388855, -1.432576060295105, -0.73876953125, -0.64306640625, -0.24365234375, 0, 
302, 1715971338, -0.014121288, 0.5449996, 0.058101863, 0.83630145, 9.045692443847656, 1.0848485231399536, 3.8549020290374756, -2.8870832920074463, -2.521756410598755, -1.238214135169983, -0.736572265625, -0.6416015625, -0.237548828125, 0, 
303, 1715988005, -0.013714977, 0.545371, 0.058044605, 0.83607006, 9.04565143585205, 1.051496982574463, 3.8507633209228516, -3.2262332439422607, -2.716655969619751, -1.2404807806015015, -0.73828125, -0.642578125, -0.240966796875, 0, 
304, 1716004672, -0.013278952, 0.54576284, 0.057945706, 0.8358281, 9.046601295471191, 1.0338044166564941, 3.7958362102508545, -3.285872459411621, -2.851916551589966, -1.1412314176559448, -0.736083984375, -0.644775390625, -0.23779296875, 0, 
305, 1716021339, -0.012874567, 0.54617405, 0.0578667, 0.83557147, 9.047090530395508, 1.0046192407608032, 3.78517484664917, -3.2060766220092773, -3.0241494178771973, -1.0814260244369507, -0.73876953125, -0.640869140625, -0.238525390625, 0, 
306, 1716038006, -0.012480253, 0.54657054, 0.05777314, 0.8353247, 9.084332466125488, 0.9882223606109619, 3.7749502658843994, -3.2276546955108643, -2.8952276706695557, -0.9670267105102539, -0.740478515625, -0.64404296875, -0.238037109375, 0, 
307, 1716054673, -0.012151375, 0.5468849, 0.057686944, 0.8351297, 9.08303451538086, 0.9650256037712097, 3.7708635330200195, -3.18572735786438, -2.2262370586395264, -0.7437609434127808, -0.73828125, -0.641357421875, -0.23876953125, 0, 
308, 1716071340, -0.011851761, 0.54716957, 0.05763278, 0.8349512, 9.107463836669922, 1.0089167356491089, 3.7276172637939453, -2.8395326137542725, -1.977281093597412, -0.6940208673477173, -0.737548828125, -0.644775390625, -0.23876953125, 0, 
309, 1716088007, -0.01157515, 0.5473439, 0.057580896, 0.8348445, 9.109622955322266, 0.9563066363334656, 3.8266139030456543, -2.443969964981079, -1.0301107168197632, -0.5070865750312805, -0.737548828125, -0.644287109375, -0.2353515625, 0, 
310, 1716104674, -0.01135498, 0.54745996, 0.057458054, 0.8347798, 9.110100746154785, 0.9930387139320374, 3.8329904079437256, -3.040605306625366, -0.5535993576049805, -0.0845155119895935, -0.740966796875, -0.64306640625, -0.23681640625, 0, 
311, 1716121341, -0.011224714, 0.54748213, 0.0574432, 0.834768, 9.082417488098145, 1.0238999128341675, 3.7935707569122314, -2.1283578872680664, 0.20639994740486145, -0.030165357515215874, -0.73828125, -0.6435546875, -0.238037109375, 0, 
312, 1716138008, -0.011100782, 0.5474943, 0.057424992, 0.83476293, 9.083381652832031, 1.0489622354507446, 3.870119094848633, -1.8562097549438477, 0.3220668435096741, 0.1079062968492508, -0.73828125, -0.6435546875, -0.238037109375, 0, 
313, 1716154675, -0.011000134, 0.5474656, 0.05743545, 0.8347824, 9.068327903747559, 1.0646004676818848, 3.8771538734436035, -1.6519231796264648, 0.6499863266944885, 0.10052984952926636, -0.736083984375, -0.642578125, -0.23974609375, 0, 
314, 1716171342, -0.010852059, 0.54741335, 0.057427473, 0.8348192, 9.102362632751465, 1.0694910287857056, 3.8586151599884033, -1.4275047779083252, 0.8839071393013, 0.07126734405755997, -0.734375, -0.643798828125, -0.23828125, 0, 
315, 1716188009, -0.010732362, 0.5472903, 0.05743453, 0.8349009, 9.083014488220215, 1.0982539653778076, 3.8636512756347656, -1.5217337608337402, 1.4392033815383911, 0.046845629811286926, -0.736083984375, -0.64306640625, -0.23876953125, 0, 
316, 1716204676, -0.010642942, 0.5471517, 0.057434987, 0.8349929, 9.07286262512207, 1.1163383722305298, 3.843616008758545, -1.541314721107483, 1.567740559577942, 0.20712991058826447, -0.737548828125, -0.64306640625, -0.23974609375, 0, 
317, 1716221343, -0.01056564, 0.54701567, 0.05742602, 0.83508354, 9.042137145996094, 1.1298754215240479, 3.8458216190338135, -1.5684257745742798, 1.5489152669906616, 0.30750611424446106, -0.7373046875, -0.64697265625, -0.2431640625, 0, 
318, 1716238010, -0.010445078, 0.54691446, 0.05737291, 0.835155, 9.049304008483887, 1.1522256135940552, 3.836801290512085, -1.478793740272522, 1.318259835243225, 0.4196896255016327, -0.736572265625, -0.646240234375, -0.240478515625, 0, 
319, 1716254677, -0.010369209, 0.5468026, 0.05733354, 0.83523196, 9.048179626464844, 1.145103931427002, 3.8201911449432373, -1.595587968826294, 1.3742620944976807, 0.4951447546482086, -0.73583984375, -0.64306640625, -0.236572265625, 0, 
320, 1716271344, -0.010346865, 0.5466769, 0.057326645, 0.835315, 9.028461456298828, 1.1432015895843506, 3.795483112335205, -1.742540955543518, 1.4334019422531128, 0.4896124005317688, -0.737060546875, -0.644775390625, -0.23974609375, 0, 
321, 1716288011, -0.010320926, 0.54655355, 0.057309195, 0.83539724, 9.005876541137695, 1.136030673980713, 3.8149476051330566, -1.661323070526123, 1.436654806137085, 0.5625317096710205, -0.73486328125, -0.644775390625, -0.239990234375, 0, 
322, 1716304678, -0.010273214, 0.5464837, 0.0572448, 0.8354477, 9.007328987121582, 1.1257985830307007, 3.848820686340332, -1.8426096439361572, 1.0224719047546387, 0.6980869770050049, -0.735595703125, -0.644775390625, -0.244873046875, 0, 
323, 1716321345, -0.010114608, 0.54647255, 0.05705825, 0.83546996, 9.027616500854492, 1.118371605873108, 3.8467612266540527, -2.0820372104644775, 0.6362707614898682, 0.8581663966178894, -0.736083984375, -0.6435546875, -0.239990234375, 0, 
324, 1716338012, -0.010081173, 0.54649764, 0.0569428, 0.83546174, 9.025214195251465, 1.11410653591156, 3.8606882095336914, -2.2420268058776855, 0.24211686849594116, 0.9546365737915039, -0.73486328125, -0.64306640625, -0.2421875, 0, 
325, 1716354679, -0.009972616, 0.5465724, 0.05674408, 0.8354278, 9.040813446044922, 1.111735463142395, 3.8709990978240967, -2.491353750228882, -0.11099904775619507, 1.0380059480667114, -0.734375, -0.644775390625, -0.239501953125, 0, 
326, 1716371346, -0.00991389, 0.54665554, 0.056570824, 0.83538574, 9.041213989257812, 1.0874465703964233, 3.881756544113159, -2.5919859409332275, -0.22174833714962006, 1.0786019563674927, -0.736083984375, -0.644287109375, -0.240966796875, 0, 
327, 1716388013, -0.009860415, 0.54673576, 0.05635516, 0.8353484, 9.053802490234375, 1.0724976062774658, 3.867285966873169, -2.7802011966705322, -0.17923127114772797, 1.2780866622924805, -0.73828125, -0.64404296875, -0.241943359375, 0, 
328, 1716404680, -0.009832323, 0.54681236, 0.056147307, 0.8353126, 9.035308837890625, 1.0817155838012695, 3.8844921588897705, -2.659975051879883, -0.14674155414104462, 1.3871454000473022, -0.735107421875, -0.64697265625, -0.240966796875, 0, 
329, 1716421347, -0.009793678, 0.54691494, 0.05594438, 0.8352595, 9.056286811828613, 1.0393506288528442, 3.8533127307891846, -2.429370880126953, -0.34406179189682007, 1.404971718788147, -0.7373046875, -0.645263671875, -0.241943359375, 0, 
330, 1716438014, -0.009808257, 0.54699475, 0.055791873, 0.8352173, 9.075353622436523, 1.0126385688781738, 3.8231005668640137, -1.9931226968765259, -0.16103345155715942, 1.4917477369308472, -0.736083984375, -0.644287109375, -0.2421875, 0, 
331, 1716454681, -0.00983688, 0.5470478, 0.055659, 0.8351911, 9.09056568145752, 1.0113483667373657, 3.8053436279296875, -1.6879730224609375, 0.07128015160560608, 1.5379401445388794, -0.736572265625, -0.640380859375, -0.241943359375, 0, 
332, 1716471348, -0.009956826, 0.54703665, 0.055589356, 0.83520156, 9.104170799255371, 1.0149339437484741, 3.8708364963531494, -1.3299587965011597, 0.5743008255958557, 1.6729320287704468, -0.73779296875, -0.6435546875, -0.242431640625, 0, 
333, 1716488015, -0.01006148, 0.54700595, 0.055469014, 0.8352285, 9.106616020202637, 1.0346968173980713, 3.8611955642700195, -1.5093884468078613, 0.7643597722053528, 1.8287339210510254, -0.7373046875, -0.644775390625, -0.244140625, 0, 
334, 1716504682, -0.010166315, 0.5469033, 0.05530003, 0.8353056, 9.108495712280273, 1.0479121208190918, 3.843539237976074, -1.4538216590881348, 1.4034991264343262, 2.1049158573150635, -0.739990234375, -0.64306640625, -0.242919921875, 0, 
335, 1716521349, -0.010343507, 0.5466277, 0.055190135, 0.8354911, 9.08985424041748, 1.012062668800354, 3.860220193862915, -1.2605611085891724, 2.78690505027771, 2.0889463424682617, -0.7373046875, -0.64208984375, -0.244140625, 0, 
336, 1716538016, -0.010572978, 0.5464465, 0.055238582, 0.83560354, 9.043943405151367, 1.0247995853424072, 3.800379753112793, 0.05454224720597267, 1.9978803396224976, 1.8972222805023193, -0.73876953125, -0.641357421875, -0.24462890625, 0, 
337, 1716554683, -0.010764788, 0.5462823, 0.055202242, 0.8357109, 9.073769569396973, 1.009095549583435, 3.8848047256469727, -0.5591316819190979, 1.874401569366455, 2.0133888721466064, -0.73779296875, -0.639892578125, -0.245849609375, 0, 
338, 1716571350, -0.010890944, 0.54602724, 0.0550868, 0.8358834, 9.007989883422852, 1.0362199544906616, 3.7932567596435547, -1.0990217924118042, 2.6396963596343994, 1.9565800428390503, -0.73779296875, -0.640869140625, -0.242431640625, 0, 
339, 1716588017, -0.011071934, 0.5458931, 0.05496578, 0.8359765, 9.038360595703125, 1.051802635192871, 3.8598721027374268, -1.4524641036987305, 1.6104241609573364, 2.1497249603271484, -0.736572265625, -0.639892578125, -0.24365234375, 0, 
340, 1716604684, -0.011250132, 0.54582036, 0.05480891, 0.83603203, 8.992300033569336, 1.077926754951477, 3.8629848957061768, -1.4965691566467285, 1.1346169710159302, 2.3526928424835205, -0.73876953125, -0.6396484375, -0.2451171875, 0, 
341, 1716621351, -0.01147296, 0.5458445, 0.054700796, 0.83602035, 9.034468650817871, 1.0364282131195068, 3.854506731033325, -0.9609052538871765, 0.34604039788246155, 2.4937551021575928, -0.739501953125, -0.640380859375, -0.2451171875, 0, 
342, 1716638018, -0.011735033, 0.54586875, 0.05470151, 0.8360008, 9.037362098693848, 1.0633127689361572, 3.8335092067718506, -0.09841039776802063, 0.32807305455207825, 2.3447916507720947, -0.739501953125, -0.6396484375, -0.24560546875, 0, 
343, 1716654685, -0.011977555, 0.5459313, 0.054744598, 0.8359538, 9.054719924926758, 1.0679900646209717, 3.830664873123169, 0.01260144729167223, -0.009572746232151985, 2.0631155967712402, -0.739990234375, -0.638671875, -0.241943359375, 0, 
344, 1716671352, -0.012254748, 0.54598, 0.054825634, 0.83591264, 9.064361572265625, 1.0656516551971436, 3.8273890018463135, -0.04330466687679291, 0.05981845036149025, 1.9769545793533325, -0.7421875, -0.63916015625, -0.243408203125, 0, 
345, 1716688019, -0.012527717, 0.546024, 0.05489212, 0.8358755, 9.047346115112305, 1.0955039262771606, 3.826301336288452, 0.02956986054778099, 0.11870204657316208, 2.068058967590332, -0.73828125, -0.63916015625, -0.241455078125, 0, 
346, 1716704686, -0.012812065, 0.54608405, 0.05494597, 0.83582836, 9.041518211364746, 1.0813015699386597, 3.835167407989502, -0.02337799221277237, -0.005986968986690044, 2.179717540740967, -0.740966796875, -0.636474609375, -0.243408203125, 0, 
347, 1716721353, -0.013078622, 0.5461384, 0.055007774, 0.8357847, 9.034947395324707, 1.0313935279846191, 3.8234024047851562, 0.12091755867004395, 0.04871535673737526, 2.106106758117676, -0.740966796875, -0.63916015625, -0.2412109375, 0, 
348, 1716738020, -0.0133567145, 0.54621327, 0.055089995, 0.8357259, 9.02695083618164, 1.0345109701156616, 3.837064504623413, 0.10754772275686264, -0.1409146636724472, 2.0427792072296143, -0.741455078125, -0.63818359375, -0.242431640625, 0, 
349, 1716754687, -0.013604378, 0.5463153, 0.05512913, 0.83565265, 9.043742179870605, 1.0479403734207153, 3.833456039428711, -0.09931965172290802, -0.34418985247612, 2.0937998294830322, -0.740966796875, -0.637451171875, -0.24072265625, 0, 
350, 1716771354, -0.013869087, 0.5464266, 0.055151355, 0.8355741, 9.051074028015137, 1.0292446613311768, 3.839756965637207, -0.2506906986236572, -0.4215017855167389, 2.2199292182922363, -0.740966796875, -0.63916015625, -0.240234375, 0, 
351, 1716788021, -0.014130406, 0.5465353, 0.05516125, 0.83549803, 9.077722549438477, 1.0034236907958984, 3.8368825912475586, -0.321368932723999, -0.3948133885860443, 2.249730110168457, -0.740478515625, -0.635498046875, -0.242431640625, 0, 
352, 1716804688, -0.0143408775, 0.54664433, 0.055162735, 0.8354229, 9.041202545166016, 1.0210133790969849, 3.860196113586426, -0.3727864623069763, -0.39107391238212585, 2.0515389442443848, -0.740478515625, -0.637451171875, -0.2412109375, 0, 
353, 1716821355, -0.014488351, 0.54677594, 0.05512664, 0.8353367, 9.076227188110352, 1.020895004272461, 3.860898494720459, -0.5511021614074707, -0.5604251623153687, 1.9425824880599976, -0.744384765625, -0.6396484375, -0.243896484375, 0, 
354, 1716838022, -0.014614981, 0.54686356, 0.055056565, 0.8352818, 9.089436531066895, 1.0186728239059448, 3.8396964073181152, -0.6447677612304688, -0.17633703351020813, 1.9962282180786133, -0.745361328125, -0.638427734375, -0.240478515625, 0, 
355, 1716854689, -0.014826208, 0.54692024, 0.055042516, 0.8352418, 9.103597640991211, 1.004077672958374, 3.8094065189361572, -0.6152363419532776, 0.02366613782942295, 2.0448925495147705, -0.741943359375, -0.637451171875, -0.239990234375, 0, 
356, 1716871356, -0.0150202755, 0.54698044, 0.055076193, 0.8351968, 9.058544158935547, 0.9781104922294617, 3.8266453742980957, -0.25713229179382324, -0.011788245290517807, 1.8184759616851807, -0.744873046875, -0.636962890625, -0.240966796875, 0, 
357, 1716888023, -0.01515957, 0.54708666, 0.054954328, 0.8351327, 9.055400848388672, 0.9888861775398254, 3.8733911514282227, -1.3035774230957031, -0.3473401963710785, 2.12664794921875, -0.74755859375, -0.6357421875, -0.2392578125, 0, 
358, 1716904690, -0.015362059, 0.54716766, 0.054925244, 0.8350779, 9.031739234924316, 0.9803833961486816, 3.8186604976654053, -0.8444954752922058, -0.18509656190872192, 2.0259132385253906, -0.7431640625, -0.63427734375, -0.24267578125, 0, 
359, 1716921357, -0.015475659, 0.5473382, 0.054855574, 0.8349686, 9.054354667663574, 0.981309175491333, 3.8279287815093994, -0.36546120047569275, -0.8371447324752808, 2.0702104568481445, -0.74365234375, -0.637939453125, -0.239501953125, 0, 
360, 1716938024, -0.015674135, 0.54750323, 0.05487619, 0.83485526, 9.068621635437012, 0.9705240726470947, 3.878575086593628, -0.2896348237991333, -0.8688789010047913, 1.9423775672912598, -0.74755859375, -0.637939453125, -0.23828125, 0, 
361, 1716954691, -0.015920574, 0.54765385, 0.054912664, 0.8347494, 9.087353706359863, 0.9546636343002319, 3.8340344429016113, -0.29264435172080994, -0.7698601484298706, 2.0582494735717773, -0.744140625, -0.6357421875, -0.239501953125, 0, 
362, 1716971358, -0.0160974, 0.5477885, 0.05491029, 0.83465785, 9.061720848083496, 0.9730837941169739, 3.8195502758026123, -0.2380252182483673, -0.5966671109199524, 1.9866232872009277, -0.744140625, -0.63525390625, -0.2421875, 0, 
363, 1716988025, -0.016219635, 0.54789215, 0.054883588, 0.83458906, 9.035990715026855, 0.9405749440193176, 3.845456838607788, -0.1289791464805603, -0.30824241042137146, 1.9093241691589355, -0.745849609375, -0.633544921875, -0.241455078125, 0, 
364, 1717004692, -0.016350722, 0.5479795, 0.05487379, 0.8345299, 9.0426025390625, 0.941565215587616, 3.8321897983551025, -0.1048007532954216, -0.1878371238708496, 1.8528610467910767, -0.746337890625, -0.632080078125, -0.240966796875, 0, 
365, 1717021359, -0.016554795, 0.5480905, 0.054887753, 0.83445203, 9.06090259552002, 0.9678520560264587, 3.8435630798339844, -0.11618559807538986, -0.4084520936012268, 2.036760091781616, -0.745849609375, -0.63623046875, -0.23779296875, 0, 
366, 1717038026, -0.016772553, 0.5481781, 0.05491709, 0.8343884, 9.073271751403809, 0.9408982992172241, 3.8195791244506836, -0.10216264426708221, -0.23149394989013672, 2.0090341567993164, -0.746826171875, -0.63525390625, -0.237060546875, 0, 
367, 1717054693, -0.016995635, 0.54825795, 0.05494437, 0.8343294, 9.048038482666016, 0.9077758193016052, 3.8230695724487305, -0.1392882615327835, -0.1719188392162323, 2.0290634632110596, -0.746337890625, -0.634765625, -0.23876953125, 0, 
368, 1717071360, -0.01718561, 0.54835004, 0.054972377, 0.83426327, 9.06686782836914, 0.9231086373329163, 3.8103930950164795, -0.05590611696243286, -0.2642270028591156, 1.9071344137191772, -0.74560546875, -0.63427734375, -0.235595703125, 0, 
369, 1717088027, -0.017426528, 0.5484196, 0.055049863, 0.8342073, 9.072766304016113, 0.8866771459579468, 3.7653274536132812, 0.12185242027044296, -0.1101025864481926, 1.9021397829055786, -0.748046875, -0.633544921875, -0.237548828125, 0, 
370, 1717104694, -0.017640002, 0.54846996, 0.055121012, 0.834165, 9.07115364074707, 0.8991148471832275, 3.8091816902160645, 0.1966543197631836, 0.06088138371706009, 1.8312311172485352, -0.747314453125, -0.633056640625, -0.237548828125, 0, 
371, 1717121361, -0.01785329, 0.5485481, 0.055187132, 0.83410466, 9.080711364746094, 0.8905624747276306, 3.8577396869659424, 0.28084325790405273, -0.15629510581493378, 1.8993607759475708, -0.74853515625, -0.63623046875, -0.238037109375, 0, 
372, 1717138028, -0.018027842, 0.5485964, 0.055210307, 0.8340675, 9.085122108459473, 0.9242180585861206, 3.8256568908691406, 0.07567272335290909, 0.10789348930120468, 1.891548991203308, -0.746337890625, -0.633544921875, -0.23974609375, 0, 
373, 1717154695, -0.018086199, 0.5486179, 0.0551073, 0.8340592, 9.091960906982422, 0.9241385459899902, 3.8169074058532715, -0.18398241698741913, 0.4196512699127197, 2.0114293098449707, -0.74853515625, -0.6318359375, -0.237548828125, 0, 
374, 1717171362, -0.018225497, 0.54859596, 0.055057306, 0.8340737, 9.0775785446167, 0.9297590851783752, 3.799407720565796, -0.37238943576812744, 0.7082808613777161, 1.9744958877563477, -0.746337890625, -0.633056640625, -0.236572265625, 0, 
375, 1717188029, -0.018365985, 0.5485108, 0.05497164, 0.8341325, 9.068936347961426, 0.9599143862724304, 3.8049709796905518, -0.7279065847396851, 1.2299729585647583, 2.032111406326294, -0.75, -0.633056640625, -0.2353515625, 0, 
376, 1717204696, -0.018565567, 0.54839534, 0.0549294, 0.83420664, 9.071005821228027, 0.9888066649436951, 3.853569507598877, -0.832483172416687, 1.4289581775665283, 1.9936668872833252, -0.74853515625, -0.6318359375, -0.237060546875, 0, 
377, 1717221363, -0.018677844, 0.54828787, 0.05482198, 0.83428186, 9.073851585388184, 0.9643762111663818, 3.852175712585449, -1.000361442565918, 1.4068926572799683, 1.9327213764190674, -0.749755859375, -0.63232421875, -0.2392578125, 0, 
378, 1717238030, -0.018730164, 0.54816204, 0.054669518, 0.83437335, 9.083646774291992, 0.9649500846862793, 3.833592176437378, -1.2811793088912964, 1.5726838111877441, 1.8214342594146729, -0.74755859375, -0.634765625, -0.23876953125, 0, 
379, 1717254697, -0.018732501, 0.5480123, 0.054527402, 0.834481, 9.094407081604004, 0.9840251207351685, 3.87190318107605, -1.3035774230957031, 1.7587215900421143, 1.522687554359436, -0.74853515625, -0.633544921875, -0.237060546875, 0, 
380, 1717271364, -0.018833337, 0.5478724, 0.054498732, 0.83457243, 9.09043025970459, 0.9613967537879944, 3.8644115924835205, -0.8694807887077332, 1.6123963594436646, 1.4596037864685059, -0.7490234375, -0.63037109375, -0.237060546875, 0, 
381, 1717288031, -0.018950582, 0.54775125, 0.05452568, 0.83464754, 9.063407897949219, 0.9690971970558167, 3.899427652359009, -0.604286789894104, 1.4310070276260376, 1.3113830089569092, -0.7529296875, -0.63134765625, -0.235595703125, 0, 
382, 1717304698, -0.019125964, 0.5476184, 0.05464447, 0.834723, 9.063924789428711, 0.9414694905281067, 3.8825628757476807, -0.2962428629398346, 1.4696437120437622, 1.1448235511779785, -0.750244140625, -0.63134765625, -0.239013671875, 0, 
383, 1717321365, -0.019179126, 0.54747695, 0.054708537, 0.8348103, 9.067855834960938, 0.9271446466445923, 3.865156888961792, -0.3996541202068329, 1.580841064453125, 0.87636399269104, -0.750244140625, -0.63232421875, -0.238525390625, 0, 
384, 1717338032, -0.019243492, 0.5472682, 0.05481924, 0.83493847, 9.086233139038086, 0.9365411400794983, 3.854146957397461, -0.1317325234413147, 2.1148149967193604, 0.7239685654640198, -0.750732421875, -0.63232421875, -0.238525390625, 0, 
385, 1717354699, -0.019328116, 0.5469228, 0.054927576, 0.8351558, 9.0609769821167, 0.9538788795471191, 3.888485908508301, -0.02969152294099331, 3.245884656906128, 0.8084136247634888, -0.747314453125, -0.6298828125, -0.237548828125, 0, 
386, 1717371366, -0.01949245, 0.54675674, 0.055194467, 0.8352429, 9.0110445022583, 0.943022608757019, 3.8567628860473633, 0.9901742339134216, 1.7176645994186401, 0.6771613359451294, -0.750244140625, -0.630859375, -0.238525390625, 0, 
387, 1717388033, -0.019587176, 0.5466038, 0.05535325, 0.83533037, 9.043844223022461, 0.9153717756271362, 3.9286749362945557, 0.07695335894823074, 1.6276743412017822, 0.6777376532554626, -0.7490234375, -0.63134765625, -0.237548828125, 0, 
388, 1717404700, -0.019651629, 0.54636407, 0.05545813, 0.83547854, 9.015764236450195, 0.9169007539749146, 3.869330406188965, -0.4180825352668762, 2.3431780338287354, 0.644120991230011, -0.749755859375, -0.63232421875, -0.23974609375, 0, 
389, 1717421367, -0.019661838, 0.5462542, 0.05541922, 0.83555275, 9.062787055969238, 0.9346266984939575, 3.9088046550750732, -1.1394001245498657, 1.3420926332473755, 1.0371477603912354, -0.74951171875, -0.63134765625, -0.238037109375, 0, 
390, 1717438034, -0.019728808, 0.5461641, 0.05538669, 0.83561236, 9.05175495147705, 0.9297694563865662, 3.936422109603882, -1.2646719217300415, 1.1618177890777588, 1.2152202129364014, -0.750732421875, -0.630859375, -0.23974609375, 0, 
391, 1717454701, -0.019816829, 0.5461695, 0.055361312, 0.83560836, 9.028690338134766, 0.9014627933502197, 3.8821659088134766, -1.1341240406036377, 0.3791319727897644, 1.3488290309906006, -0.747314453125, -0.630859375, -0.238037109375, 0, 
392, 1717471368, -0.019928072, 0.5461775, 0.05541566, 0.8355969, 9.026261329650879, 0.8989614844322205, 3.8771963119506836, -0.33640357851982117, 0.35459500551223755, 1.2772924900054932, -0.749755859375, -0.630859375, -0.240234375, 0, 
393, 1717488035, -0.019978372, 0.5462409, 0.055431455, 0.8355533, 9.0436372756958, 0.8679397702217102, 3.886665105819702, -0.579160749912262, -0.08857510983943939, 1.1693092584609985, -0.748046875, -0.633544921875, -0.240234375, 0, 
394, 1717504702, -0.01998545, 0.5463047, 0.055368938, 0.8355155, 9.078990936279297, 0.8829566836357117, 3.8837480545043945, -1.0462466478347778, -0.06210438907146454, 1.2637690305709839, -0.751953125, -0.6328125, -0.2373046875, 0, 
395, 1717521369, -0.020092819, 0.546351, 0.055364415, 0.83548295, 9.094592094421387, 0.8974438905715942, 3.856961250305176, -1.0043572187423706, 0.032118331640958786, 1.3773870468139648, -0.750244140625, -0.63232421875, -0.239013671875, 0, 
396, 1717538036, -0.02016328, 0.5463636, 0.0553363, 0.8354749, 9.079530715942383, 0.8718112111091614, 3.880331039428711, -0.8378874659538269, 0.3445676565170288, 1.395520806312561, -0.75244140625, -0.63134765625, -0.2373046875, 0, 
397, 1717554703, -0.020280017, 0.5463715, 0.055337716, 0.8354668, 9.043703079223633, 0.855708658695221, 3.8985483646392822, -0.879994809627533, 0.35164961218833923, 1.4126814603805542, -0.74951171875, -0.629638671875, -0.23681640625, 0, 
398, 1717571370, -0.020371262, 0.5464072, 0.055312857, 0.8354429, 9.026803970336914, 0.8790481090545654, 3.8489320278167725, -1.0826680660247803, 0.1287166178226471, 1.386658787727356, -0.751220703125, -0.629150390625, -0.238525390625, 0, 
399, 1717588037, -0.020439198, 0.54645246, 0.05527495, 0.8354142, 9.034002304077148, 0.8837915658950806, 3.871310234069824, -1.0836541652679443, 0.06185467541217804, 1.3632872104644775, -0.750244140625, -0.63037109375, -0.24072265625, 0, 
400, 1717604704, -0.020444378, 0.54652447, 0.055136956, 0.8353761, 9.052635192871094, 0.8905383944511414, 3.881040573120117, -1.3698760271072388, -0.09465812891721725, 1.5757442712783813, -0.7529296875, -0.629638671875, -0.238525390625, 0, 
401, 1717621371, -0.020520603, 0.5466026, 0.055060983, 0.835328, 9.045380592346191, 0.8690159320831299, 3.8815035820007324, -1.4317946434020996, -0.20616300404071808, 1.5076401233673096, -0.750732421875, -0.6318359375, -0.239013671875, 0, 
402, 1717638038, -0.020536555, 0.546692, 0.05492241, 0.8352782, 9.044041633605957, 0.8836075663566589, 3.8617923259735107, -1.6247097253799438, -0.26021862030029297, 1.5406808853149414, -0.75, -0.629150390625, -0.237548828125, 0, 
403, 1717654705, -0.020582872, 0.54677194, 0.05478913, 0.83523357, 9.07369327545166, 0.8943446278572083, 3.8421988487243652, -1.7331154346466064, -0.19759558141231537, 1.6009730100631714, -0.751708984375, -0.629638671875, -0.23583984375, 0, 
404, 1717671372, -0.020646457, 0.546829, 0.054643758, 0.8352042, 9.052898406982422, 0.8960802555084229, 3.8548333644866943, -2.1018996238708496, -0.02979397214949131, 1.6063644886016846, -0.750732421875, -0.629150390625, -0.2373046875, 0, 
405, 1717688039, -0.020728795, 0.5469575, 0.054527856, 0.8351256, 9.059819221496582, 0.9097868800163269, 3.831573963165283, -1.471686601638794, -0.5917366743087769, 1.7716305255889893, -0.74951171875, -0.6259765625, -0.23681640625, 0, 
406, 1717704706, -0.02083481, 0.5470775, 0.054396093, 0.8350529, 9.019532203674316, 0.8584563732147217, 3.935818672180176, -1.5009232759475708, -0.5119786262512207, 1.9547228813171387, -0.751220703125, -0.629150390625, -0.2373046875, 0, 
407, 1717721373, -0.020909654, 0.5472826, 0.05422976, 0.8349275, 8.999110221862793, 0.8570500612258911, 3.8767306804656982, -1.7055433988571167, -1.1995517015457153, 1.9808223247528076, -0.75390625, -0.629638671875, -0.23779296875, 0, 
408, 1717738040, -0.020981092, 0.5474951, 0.05418023, 0.8347896, 9.024311065673828, 0.8577067255973816, 3.882033348083496, -1.0680816173553467, -1.3108773231506348, 1.5183721780776978, -0.754150390625, -0.62841796875, -0.240478515625, 0, 
409, 1717754707, -0.020980036, 0.5477799, 0.054107606, 0.8346073, 9.036463737487793, 0.8675563335418701, 3.9072041511535645, -1.1893961429595947, -1.895410418510437, 1.3134191036224365, -0.75390625, -0.625732421875, -0.239501953125, 0, 
410, 1717771374, -0.020925494, 0.5480873, 0.053971924, 0.83441556, 9.042153358459473, 0.8923425078392029, 3.892836093902588, -1.6301779747009277, -2.065504312515259, 1.3034559488296509, -0.75341796875, -0.6279296875, -0.23779296875, 0, 
411, 1717788041, -0.020858064, 0.54840904, 0.053807307, 0.8342165, 9.056628227233887, 0.901634931564331, 3.8844008445739746, -2.0613932609558105, -2.193990468978882, 1.264012336730957, -0.75390625, -0.625732421875, -0.23876953125, 0, 
412, 1717804708, -0.020738687, 0.5487275, 0.05360261, 0.8340232, 9.067041397094727, 0.8958370089530945, 3.877488613128662, -2.176445245742798, -2.144557476043701, 1.2297040224075317, -0.7548828125, -0.62646484375, -0.234375, 0, 
413, 1717821375, -0.02069807, 0.54902655, 0.053495884, 0.83383423, 9.069735527038574, 0.8692178130149841, 3.885636806488037, -2.128152847290039, -2.064607858657837, 1.0175286531448364, -0.75439453125, -0.62841796875, -0.236083984375, 0, 
414, 1717838042, -0.02059883, 0.5493197, 0.05335047, 0.833653, 9.087343215942383, 0.8487429022789001, 3.8597424030303955, -2.1747806072235107, -1.9900108575820923, 0.9604506492614746, -0.755126953125, -0.62744140625, -0.23779296875, 0, 
415, 1717854709, -0.020412832, 0.5496117, 0.053133838, 0.83347905, 9.087533950805664, 0.8581300377845764, 3.8477251529693604, -2.4426381587982178, -1.9442919492721558, 0.8991464972496033, -0.75439453125, -0.62646484375, -0.235107421875, 0, 
416, 1717871376, -0.020258438, 0.5499317, 0.052931756, 0.8332845, 9.077310562133789, 0.8765400648117065, 3.833519458770752, -2.6990599632263184, -2.2094221115112305, 0.8759799599647522, -0.75341796875, -0.6279296875, -0.235595703125, 0, 
417, 1717888043, -0.020074416, 0.55028725, 0.05273082, 0.83306694, 9.083200454711914, 0.8901740312576294, 3.8183419704437256, -2.609825372695923, -2.496873140335083, 0.7788310050964355, -0.75341796875, -0.62744140625, -0.236083984375, 0, 
418, 1717904710, -0.019903257, 0.5506431, 0.05258467, 0.83284515, 9.104731559753418, 0.8418816924095154, 3.7995433807373047, -2.2251739501953125, -2.5171587467193604, 0.6514462828636169, -0.75439453125, -0.625732421875, -0.23388671875, 0, 
419, 1717921377, -0.019770434, 0.5509532, 0.052505985, 0.8326481, 9.10528564453125, 0.847135066986084, 3.7906389236450195, -1.931319236755371, -2.1753954887390137, 0.5180424451828003, -0.755126953125, -0.625244140625, -0.236083984375, 0, 
420, 1717938044, -0.019632943, 0.55125856, 0.05244764, 0.8324529, 9.107705116271973, 0.8234483599662781, 3.776991844177246, -1.7520560026168823, -2.139819622039795, 0.43303394317626953, -0.752685546875, -0.626953125, -0.234619140625, 0, 
421, 1717954711, -0.019458793, 0.5515565, 0.052375607, 0.83226424, 9.122730255126953, 0.8678238391876221, 3.7848541736602783, -1.7374696731567383, -2.0666310787200928, 0.35431328415870667, -0.7548828125, -0.625732421875, -0.232177734375, 0, 
422, 1717971378, -0.019332973, 0.55182964, 0.052342854, 0.8320881, 9.146193504333496, 0.8930063843727112, 3.8186838626861572, -1.7328975200653076, -1.8962812423706055, 0.3347323536872864, -0.755615234375, -0.625244140625, -0.23486328125, 0, 
423, 1717988045, -0.019133314, 0.55207866, 0.052250978, 0.8319334, 9.129368782043457, 0.8689729571342468, 3.8067402839660645, -2.0749423503875732, -1.6764726638793945, 0.21865558624267578, -0.756591796875, -0.62744140625, -0.232666015625, 0, 
424, 1718004712, -0.018942416, 0.55230606, 0.05215463, 0.83179283, 9.123291015625, 0.8939283490180969, 3.777538299560547, -2.2640023231506348, -1.5102591514587402, 0.2128671258687973, -0.756591796875, -0.62841796875, -0.234375, 0, 
425, 1718021379, -0.018755147, 0.5525309, 0.05202757, 0.83165556, 9.151668548583984, 0.8520408272743225, 3.762535572052002, -2.2481486797332764, -1.4653346538543701, 0.4053722321987152, -0.75537109375, -0.625244140625, -0.23046875, 0, 
426, 1718038046, -0.018628165, 0.55273455, 0.051932313, 0.831529, 9.164881706237793, 0.8607379198074341, 3.774600028991699, -2.271148681640625, -1.3190091848373413, 0.476665198802948, -0.75537109375, -0.62646484375, -0.232177734375, 0, 
427, 1718054713, -0.018479161, 0.5528678, 0.05186092, 0.83144826, 9.177750587463379, 0.857530951499939, 3.785308837890625, -2.0194783210754395, -0.7377674579620361, 0.296095609664917, -0.7578125, -0.626953125, -0.233154296875, 0, 
428, 1718071380, -0.018237477, 0.55289835, 0.051746886, 0.8314404, 9.177530288696289, 0.9205679893493652, 3.7223916053771973, -2.325882911682129, 0.11957289278507233, -0.008753140456974506, -0.757080078125, -0.625732421875, -0.232177734375, 0, 
429, 1718088047, -0.01809328, 0.5527996, 0.05169634, 0.83151245, 9.138626098632812, 0.9304144978523254, 3.682912588119507, -1.985528588294983, 1.161868929862976, 0.11738300323486328, -0.755615234375, -0.626953125, -0.2333984375, 0, 
430, 1718104714, -0.017979138, 0.5526007, 0.0517089, 0.83164626, 9.146381378173828, 0.8437221646308899, 3.7024788856506348, -1.3370022773742676, 1.9862520694732666, 0.06775839626789093, -0.75439453125, -0.626953125, -0.23388671875, 0, 
431, 1718121381, -0.017821532, 0.55236316, 0.051724605, 0.83180654, 9.130425453186035, 0.8197305798530579, 3.730821132659912, -1.3029884099960327, 2.3056936264038086, -0.14453886449337006, -0.756103515625, -0.625732421875, -0.232177734375, 0, 
432, 1718138048, -0.017666193, 0.5520962, 0.051799607, 0.8319824, 9.13940715789795, 0.8362103700637817, 3.7073450088500977, -1.507928490638733, 2.4870190620422363, -0.558440089225769, -0.756591796875, -0.624267578125, -0.233154296875, 0, 
433, 1718154715, -0.017568523, 0.55179113, 0.051923335, 0.8321791, 9.145359992980957, 0.8268080353736877, 3.6636123657226562, -1.0140388011932373, 2.798354148864746, -0.43137550354003906, -0.75390625, -0.62744140625, -0.236083984375, 0, 
434, 1718171382, -0.01745691, 0.55149305, 0.052049473, 0.83237106, 9.133526802062988, 0.8450867533683777, 3.688840389251709, -0.5829257965087891, 2.7724595069885254, -0.36026182770729065, -0.756591796875, -0.62744140625, -0.2333984375, 0, 
435, 1718188049, -0.017460022, 0.5511864, 0.052290514, 0.832559, 9.100912094116211, 0.8482424020767212, 3.7280545234680176, -0.053472910076379776, 2.7924625873565674, -0.3316268026828766, -0.755615234375, -0.62841796875, -0.2373046875, 0, 
436, 1718204716, -0.0173844, 0.5509047, 0.052505415, 0.8327335, 9.069944381713867, 0.8675240278244019, 3.718493938446045, 0.05262129381299019, 2.6162092685699463, -0.48584091663360596, -0.752685546875, -0.62744140625, -0.234130859375, 0, 
437, 1718221383, -0.017387118, 0.5506058, 0.052769147, 0.8329144, 9.040689468383789, 0.8791521191596985, 3.757462739944458, 0.28515899181365967, 2.735884189605713, -0.3464309275150299, -0.75390625, -0.62841796875, -0.23828125, 0, 
438, 1718238050, -0.017448299, 0.5504111, 0.053081527, 0.83302194, 8.9965181350708, 0.9035188555717468, 3.752119779586792, 1.3453198671340942, 1.9183785915374756, 0.03822695463895798, -0.75341796875, -0.629638671875, -0.2373046875, 0, 
439, 1718254717, -0.01764116, 0.55051845, 0.053472638, 0.83292186, 9.041586875915527, 0.8653104305267334, 3.7931697368621826, 2.1826629638671875, -0.5703372359275818, 0.5778737664222717, -0.75244140625, -0.629150390625, -0.2373046875, 0, 
440, 1718271384, -0.017776882, 0.5505947, 0.053743493, 0.8328512, 8.988510131835938, 0.8990359306335449, 3.758040189743042, 1.4110548496246338, -0.27631622552871704, 0.7352765798568726, -0.75390625, -0.628662109375, -0.2373046875, 0, 
441, 1718288051, -0.017894566, 0.5507902, 0.05407386, 0.8326979, 9.029986381530762, 0.801716685295105, 3.7916781902313232, 1.6188764572143555, -1.2928458452224731, 0.432470440864563, -0.75439453125, -0.6279296875, -0.23291015625, 0, 
442, 1718304718, -0.017988022, 0.55104256, 0.054386064, 0.8325086, 9.033441543579102, 0.8917533159255981, 3.7765631675720215, 0.9545468091964722, -1.7980306148529053, 0.22559663653373718, -0.75341796875, -0.629638671875, -0.2333984375, 0, 
443, 1718321385, -0.018009098, 0.5513849, 0.054640125, 0.83226484, 9.04915714263916, 0.9612561464309692, 3.7696287631988525, 0.5813185572624207, -2.5231516361236572, 0.14613322913646698, -0.75439453125, -0.6279296875, -0.232421875, 0, 
444, 1718338052, -0.018068949, 0.55175173, 0.054871045, 0.83200526, 9.083828926086426, 0.9833235144615173, 3.708841562271118, 0.5825223922729492, -2.706641435623169, 0.4662535786628723, -0.753173828125, -0.629638671875, -0.23193359375, 0, 
445, 1718354719, -0.01815451, 0.5521421, 0.055085123, 0.83173037, 9.13839340209961, 0.9402654767036438, 3.7915761470794678, 0.8431829214096069, -2.8666696548461914, 0.7780754566192627, -0.7548828125, -0.629638671875, -0.230712890625, 0, 
446, 1718371386, -0.018252881, 0.55252236, 0.055145346, 0.8314717, 9.163862228393555, 0.9567622542381287, 3.7865145206451416, -0.3008532226085663, -2.748351573944092, 1.320181131362915, -0.753173828125, -0.628173828125, -0.230224609375, 0, 
447, 1718388053, -0.018351344, 0.5528827, 0.054995768, 0.83123976, 9.15587043762207, 0.9479116201400757, 3.760185480117798, -1.2020872831344604, -2.483682870864868, 2.2128477096557617, -0.751953125, -0.630859375, -0.2275390625, 0, 
448, 1718404720, -0.018563513, 0.5532303, 0.054843646, 0.83101374, 9.137988090515137, 0.9468504190444946, 3.7917933464050293, -0.9676286578178406, -2.359269142150879, 2.805103302001953, -0.75537109375, -0.629150390625, -0.22998046875, 0, 
449, 1718421387, -0.018835297, 0.5535397, 0.054812152, 0.8308036, 9.109166145324707, 0.8163145780563354, 3.714805841445923, 0.24508792161941528, -2.0515964031219482, 2.772305727005005, -0.755859375, -0.626953125, -0.22607421875, 0, 
450, 1718438054, -0.019150803, 0.5537928, 0.054852527, 0.830625, 9.113043785095215, 0.839702308177948, 3.7037711143493652, 0.22431600093841553, -1.6484781503677368, 2.518522024154663, -0.75244140625, -0.626953125, -0.226806640625, 0, 
451, 1718454721, -0.019351723, 0.5540442, 0.05477504, 0.830458, 9.102886199951172, 0.9426134824752808, 3.7165684700012207, -0.5594390034675598, -1.5974706411361694, 2.416020393371582, -0.75634765625, -0.629150390625, -0.22607421875, 0, 
452, 1718471388, -0.019588763, 0.5543187, 0.05461209, 0.8302798, 9.10270881652832, 0.9613056182861328, 3.7119739055633545, -0.9895018935203552, -1.7537977695465088, 2.933704376220703, -0.75634765625, -0.62744140625, -0.226806640625, 0, 
453, 1718488055, -0.019852089, 0.5546483, 0.05440334, 0.8300673, 9.10218334197998, 0.9336468577384949, 3.773890495300293, -0.9127148985862732, -2.1666741371154785, 3.364753007888794, -0.754638671875, -0.628662109375, -0.225830078125, 0, 
454, 1718504722, -0.020079577, 0.55502605, 0.05420931, 0.8298218, 9.113226890563965, 0.8683557510375977, 3.7599589824676514, -0.8064478039741516, -2.572340726852417, 3.1802008152008057, -0.758056640625, -0.626220703125, -0.2255859375, 0, 
455, 1718521389, -0.020303719, 0.55537176, 0.054087047, 0.82959306, 9.134243965148926, 0.8218271136283875, 3.7243354320526123, -0.6300403475761414, -2.355145215988159, 2.796663284301758, -0.7607421875, -0.6240234375, -0.22314453125, 0, 
456, 1718538056, -0.020516023, 0.55563986, 0.053992193, 0.82941455, 9.193421363830566, 0.8095012903213501, 3.7006442546844482, -0.7981365323066711, -1.7485727071762085, 2.503295660018921, -0.758544921875, -0.624755859375, -0.223876953125, 0, 
457, 1718554723, -0.020762466, 0.55589586, 0.05398281, 0.8292374, 9.212448120117188, 0.818946123123169, 3.624443292617798, -0.010097806341946125, -1.6623090505599976, 2.4130489826202393, -0.76025390625, -0.626220703125, -0.22265625, 0, 
458, 1718571390, -0.021052677, 0.5559395, 0.054006897, 0.82919925, 9.18054485321045, 0.7898990511894226, 3.619098424911499, 0.2339848279953003, 0.08541835099458694, 2.4067232608795166, -0.76025390625, -0.6279296875, -0.223876953125, 0, 
459, 1718588057, -0.021314243, 0.55607575, 0.053971086, 0.8291035, 9.247806549072266, 0.7672960162162781, 3.6514854431152344, 0.05437576398253441, -0.6444987654685974, 2.6012771129608154, -0.76171875, -0.623046875, -0.22265625, 0, 
460, 1718604724, -0.021601724, 0.5560611, 0.0539519, 0.82910717, 9.201886177062988, 0.8204908967018127, 3.6570262908935547, -0.012928009033203125, 0.585749626159668, 2.5311877727508545, -0.762939453125, -0.625732421875, -0.221923828125, 0, 
461, 1718621391, -0.021877399, 0.5560628, 0.05382275, 0.82910705, 9.217339515686035, 0.8358556628227234, 3.672741174697876, -0.7530325651168823, 0.4853990375995636, 2.8673672676086426, -0.762451171875, -0.625732421875, -0.22314453125, 0, 
462, 1718638058, -0.022098754, 0.5560418, 0.05354423, 0.82913345, 9.159489631652832, 0.8776835203170776, 3.69358491897583, -1.5577068328857422, 0.736736536026001, 3.2024199962615967, -0.76220703125, -0.62353515625, -0.221923828125, 0, 
463, 1718654725, -0.0223434, 0.5559919, 0.053242385, 0.82917994, 9.173120498657227, 0.8608132600784302, 3.641855001449585, -1.9047847986221313, 0.9687108993530273, 3.3099937438964844, -0.762451171875, -0.62451171875, -0.22314453125, 0, 
464, 1718671392, -0.022560809, 0.55589354, 0.052925166, 0.82926023, 9.186942100524902, 0.8023360967636108, 3.6358914375305176, -1.8863563537597656, 1.381229043006897, 3.2612528800964355, -0.763916015625, -0.6240234375, -0.221923828125, 0, 
465, 1718688059, -0.022789463, 0.55569834, 0.05264751, 0.8294025, 9.190918922424316, 0.768808901309967, 3.634042978286743, -1.9608250856399536, 2.1479578018188477, 3.020390272140503, -0.762451171875, -0.623046875, -0.22412109375, 0, 
466, 1718704726, -0.022957718, 0.5554402, 0.052313495, 0.82959175, 9.201986312866211, 0.76068514585495, 3.6438732147216797, -1.9209845066070557, 2.7129359245300293, 3.0652642250061035, -0.762939453125, -0.623046875, -0.221923828125, 0, 
467, 1718721393, -0.023174657, 0.5551487, 0.05200305, 0.82980037, 9.182263374328613, 0.7842398285865784, 3.6692769527435303, -2.1596055030822754, 2.95434832572937, 3.046746253967285, -0.762939453125, -0.622314453125, -0.221923828125, 0, 
468, 1718738060, -0.02341141, 0.5548307, 0.051674392, 0.830027, 9.14116382598877, 0.8135367631912231, 3.6511614322662354, -2.320030689239502, 3.1764490604400635, 3.170443058013916, -0.76416015625, -0.621826171875, -0.225341796875, 0, 
469, 1718754727, -0.0236672, 0.55445886, 0.051390048, 0.83028585, 9.150307655334473, 0.7755051851272583, 3.679274559020996, -1.7300291061401367, 3.6226093769073486, 3.1760003566741943, -0.763427734375, -0.61962890625, -0.224609375, 0, 
470, 1718771394, -0.023954773, 0.5540724, 0.051214423, 0.8305463, 9.102616310119629, 0.7695847749710083, 3.6572933197021484, -1.140181303024292, 3.698179006576538, 2.886704683303833, -0.765869140625, -0.618408203125, -0.2294921875, 0, 
471, 1718788061, -0.024133349, 0.55369633, 0.050989576, 0.8308056, 9.12238597869873, 0.7634181976318359, 3.653012275695801, -1.3322895765304565, 3.6346988677978516, 2.627363681793213, -0.762939453125, -0.61865234375, -0.228515625, 0, 
472, 1718804728, -0.024284117, 0.5533392, 0.05075903, 0.83105344, 9.135735511779785, 0.7758398056030273, 3.7102980613708496, -1.5545309782028198, 3.470278024673462, 2.4693081378936768, -0.763671875, -0.621826171875, -0.2275390625, 0, 
473, 1718821395, -0.024472004, 0.55297667, 0.05056967, 0.8313006, 9.161043167114258, 0.7504532337188721, 3.6946558952331543, -1.4351115226745605, 3.48738694190979, 2.434192657470703, -0.7646484375, -0.61865234375, -0.227294921875, 0, 
474, 1718838062, -0.024687458, 0.5525834, 0.0504196, 0.831565, 9.117146492004395, 0.7352214455604553, 3.7087790966033936, -1.3708237409591675, 3.7172229290008545, 2.338503837585449, -0.765869140625, -0.617919921875, -0.22998046875, 0, 
475, 1718854729, -0.024855452, 0.5522109, 0.050236486, 0.83181834, 9.08929443359375, 0.7140082120895386, 3.7805750370025635, -1.6437398195266724, 3.5513036251068115, 2.228407621383667, -0.76416015625, -0.61474609375, -0.22998046875, 0, 
476, 1718871396, -0.024995841, 0.551849, 0.05002552, 0.83206713, 9.110302925109863, 0.7019974589347839, 3.757667303085327, -1.7774637937545776, 3.475912570953369, 2.232313394546509, -0.765625, -0.61572265625, -0.227783203125, 0, 
477, 1718888063, -0.025194582, 0.5514833, 0.04985625, 0.8323136, 9.133325576782227, 0.6922833919525146, 3.8001720905303955, -1.7950085401535034, 3.473684310913086, 2.241431474685669, -0.76416015625, -0.617431640625, -0.2333984375, 0, 
478, 1718904730, -0.025289707, 0.55110383, 0.049561903, 0.83257943, 9.140840530395508, 0.6927711963653564, 3.836193323135376, -2.1845006942749023, 3.6536386013031006, 2.360466241836548, -0.759765625, -0.614990234375, -0.230224609375, 0, 
479, 1718921397, -0.025429001, 0.55066985, 0.049299262, 0.83287805, 9.154765129089355, 0.6692089438438416, 3.8771932125091553, -2.1621923446655273, 4.078054428100586, 2.356189250946045, -0.7646484375, -0.615234375, -0.23291015625, 0, 
480, 1718938064, -0.025568778, 0.55023605, 0.04898257, 0.83317924, 9.126810073852539, 0.6676485538482666, 3.865394115447998, -2.532449722290039, 4.092679500579834, 2.539320230484009, -0.764404296875, -0.616455078125, -0.236572265625, 0, 
481, 1718954731, -0.025650363, 0.54981905, 0.048624784, 0.8334728, 9.115915298461914, 0.6640820503234863, 3.841708183288574, -2.469557523727417, 3.9834799766540527, 2.5513839721679688, -0.76416015625, -0.61572265625, -0.23388671875, 0, 
482, 1718971398, -0.025818273, 0.5494246, 0.048346233, 0.83374375, 9.085234642028809, 0.6623696684837341, 3.851884365081787, -2.309708833694458, 3.7487523555755615, 2.535107135772705, -0.764892578125, -0.6142578125, -0.236083984375, 0, 
483, 1718988065, -0.025930425, 0.54911214, 0.048052706, 0.8339631, 9.053027153015137, 0.7120794057846069, 3.858247995376587, -2.4769210815429688, 3.0745232105255127, 2.3523476123809814, -0.765869140625, -0.614013671875, -0.235595703125, 0, 
484, 1719004732, -0.026069758, 0.5488502, 0.047834292, 0.8341437, 9.05731201171875, 0.7025563716888428, 3.829244375228882, -2.268242120742798, 2.615248918533325, 2.1286206245422363, -0.76318359375, -0.612548828125, -0.236083984375, 0, 
485, 1719021399, -0.026129944, 0.5486688, 0.04761562, 0.8342736, 9.044503211975098, 0.7241206765174866, 3.8111493587493896, -2.311309337615967, 1.9492672681808472, 1.8057208061218262, -0.765869140625, -0.61474609375, -0.236083984375, 0, 
486, 1719038066, -0.02618058, 0.5485791, 0.047446594, 0.8343408, 9.057584762573242, 0.7653136849403381, 3.801663875579834, -2.3084919452667236, 1.1623427867889404, 1.5143893957138062, -0.763671875, -0.61474609375, -0.235595703125, 0, 
487, 1719054733, -0.026223898, 0.5485322, 0.047327373, 0.83437693, 9.075512886047363, 0.7615261077880859, 3.8032782077789307, -1.9850162267684937, 0.791739821434021, 1.327928900718689, -0.764892578125, -0.613525390625, -0.239990234375, 0, 
488, 1719071400, -0.026201207, 0.54853326, 0.047236603, 0.8343822, 9.084339141845703, 0.735249936580658, 3.7998032569885254, -1.6140928268432617, 0.39677906036376953, 1.0251225233078003, -0.765869140625, -0.61474609375, -0.23828125, 0, 
489, 1719088067, -0.026185963, 0.5485627, 0.047202952, 0.8343652, 9.074311256408691, 0.7334132194519043, 3.7877163887023926, -1.5221307277679443, 0.1290239840745926, 0.773849368095398, -0.763671875, -0.613037109375, -0.23828125, 0, 
490, 1719104734, -0.026122876, 0.54855245, 0.047110897, 0.8343792, 9.061535835266113, 0.7371991872787476, 3.836282730102539, -1.945982575416565, 0.4747186005115509, 0.7335990071296692, -0.764892578125, -0.61474609375, -0.2373046875, 0, 
491, 1719121401, -0.026162488, 0.5485888, 0.047137838, 0.8343523, 9.041664123535156, 0.7495027780532837, 3.7855894565582275, -1.0628949403762817, 0.054644692689180374, 0.8283403515815735, -0.76318359375, -0.6142578125, -0.239013671875, 0, 
492, 1719138068, -0.026208567, 0.54882234, 0.04723219, 0.83419216, 9.086136817932129, 0.7345620393753052, 3.8529324531555176, -0.3136211037635803, -1.573663592338562, 0.8194398880004883, -0.765380859375, -0.6103515625, -0.2392578125, 0, 
493, 1719154735, -0.026190232, 0.5489001, 0.047270045, 0.8341392, 9.086621284484863, 0.7293111085891724, 3.7830255031585693, -0.8199201822280884, -0.28060635924339294, 0.6219788789749146, -0.764404296875, -0.61083984375, -0.239990234375, 0, 
494, 1719171402, -0.026136132, 0.5489802, 0.047305126, 0.8340863, 9.103094100952148, 0.6912670135498047, 3.830700397491455, -1.013283133506775, -0.3089595437049866, 0.40365612506866455, -0.764892578125, -0.61474609375, -0.23779296875, 0, 
495, 1719188069, -0.02605691, 0.5490853, 0.04733941, 0.83401763, 9.090475082397461, 0.7709680199623108, 3.87623929977417, -1.2519936561584473, -0.5260144472122192, 0.22870862483978271, -0.765869140625, -0.613525390625, -0.23876953125, 0, 
496, 1719204736, -0.025974328, 0.5492335, 0.047370918, 0.8339209, 9.066585540771484, 0.7609384059906006, 3.876439332962036, -1.2355117797851562, -0.8786884546279907, 0.25391149520874023, -0.767578125, -0.61083984375, -0.237060546875, 0, 
497, 1719221403, -0.025942115, 0.54939365, 0.04748123, 0.83381015, 9.056777954101562, 0.7882961630821228, 3.8582651615142822, -0.8924040198326111, -1.0119385719299316, 0.14548012614250183, -0.76416015625, -0.613525390625, -0.236083984375, 0, 
498, 1719238070, -0.025876975, 0.54954356, 0.04764572, 0.8337039, 9.093996047973633, 0.7477325797080994, 3.848214626312256, -0.5460563898086548, -0.9505961537361145, -0.19383051991462708, -0.7646484375, -0.6103515625, -0.235595703125, 0, 
499, 1719254737, -0.025757072, 0.5496735, 0.047820866, 0.83361185, 9.08731460571289, 0.7301690578460693, 3.892202854156494, -0.869096577167511, -0.8118009567260742, -0.6213576793670654, -0.7626953125, -0.616455078125, -0.236083984375, 0, 
500, 1719271404, -0.025539342, 0.54976827, 0.047955267, 0.83354837, 9.119278907775879, 0.7401857376098633, 3.8748366832733154, -1.0809135437011719, -0.5092252492904663, -0.9005873203277588, -0.764404296875, -0.61474609375, -0.23779296875, 0, 
501, 1719288071, -0.025275972, 0.5498169, 0.04806393, 0.8335181, 9.13365650177002, 0.7467414736747742, 3.8572194576263428, -1.357774019241333, -0.1275448501110077, -1.0709246397018433, -0.762451171875, -0.61376953125, -0.235595703125, 0, 
502, 1719304738, -0.024998698, 0.5498572, 0.04815383, 0.83349484, 9.114115715026855, 0.7563748359680176, 3.828338623046875, -1.6913665533065796, -0.06419182568788528, -1.1447274684906006, -0.76416015625, -0.615234375, -0.235595703125, 0, 
503, 1719321405, -0.024702903, 0.5499224, 0.048258852, 0.8334545, 9.058497428894043, 0.7296541333198547, 3.799149990081787, -1.7520816326141357, -0.2842177450656891, -1.3241702318191528, -0.761962890625, -0.616943359375, -0.235595703125, 0, 
504, 1719338072, -0.024359392, 0.5500042, 0.048374984, 0.8334039, 9.069989204406738, 0.740435779094696, 3.820845127105713, -1.760994791984558, -0.43155479431152344, -1.5946404933929443, -0.764892578125, -0.613037109375, -0.237060546875, 0, 
