sep=,
DeviceTag:,Xsens_5,,,,,,,,,,,,,,,,,
FirmwareVersion:,2.2.1,,,,,,,,,,,,,,,,,
AppVersion:,2023.0.0,,,,,,,,,,,,,,,,,
StartTime:,2023-06-20 14:10:10.000 +0200,,,,,,,,,,,,,,,,,
© Movella Technologies B. V. 2005-2023,,,,,,,,,,,,,,,,,,,

PacketCounter,SampleTimeFine,Quat_W,Quat_X,Quat_Y,Quat_Z,Acc_X,Acc_Y,Acc_Z,Gyr_X,Gyr_Y,Gyr_Z,Status,
0, 716344758, 0.6507939, 0.0010948791, -0.008162992, -0.7592098, 0.0, 0.0, 0.0, 0.0, 0.0, 0.0, 0, 
1, 716361425, 0.6508361, 9.596469E-4, -0.008250986, -0.75917286, 0.10915642976760864, 0.11399375647306442, 9.885466575622559, 1.0269603729248047, -0.7597751617431641, 0.48685264587402344, 0, 
2, 716378092, 0.65095156, 7.187653E-4, -0.008371986, -0.7590728, 0.08300594985485077, 0.11333867162466049, 9.928472518920898, 1.0269603729248047, -0.7589298486709595, 0.5056906938552856, 0, 
3, 716394759, 0.650985, 5.945947E-4, -0.008408924, -0.7590438, 0.09532863646745682, 0.12817035615444183, 9.910995483398438, 0.9712271690368652, -0.7622083425521851, 0.4975331425666809, 0, 
4, 716411426, 0.65099466, 5.324181E-4, -0.008501988, -0.75903463, 0.0920640304684639, 0.12907665967941284, 9.899041175842285, 0.958907425403595, -0.794173002243042, 0.49101462960243225, 0, 
5, 716428093, 0.65102315, 5.177301E-4, -0.008628464, -0.75900865, 0.08237356692552567, 0.12448862940073013, 9.909089088439941, 1.0540202856063843, -0.8097454905509949, 0.5352221727371216, 0, 
6, 716444760, 0.65106285, 5.278739E-4, -0.008751013, -0.75897324, 0.0939096137881279, 0.1330079585313797, 9.913575172424316, 1.0728071928024292, -0.8376889228820801, 0.4860585629940033, 0, 
7, 716461427, 0.6511215, 5.5901485E-4, -0.008885097, -0.75892144, 0.0953303650021553, 0.12333653122186661, 9.90714168548584, 1.1064751148223877, -0.7344313859939575, 0.4899773895740509, 0, 
8, 716478094, 0.6511781, 5.8306585E-4, -0.009010869, -0.7588714, 0.09199093282222748, 0.13293729722499847, 9.900668144226074, 1.0573370456695557, -0.7024154663085938, 0.5006450414657593, 0, 
9, 716494761, 0.6512045, 6.063813E-4, -0.009139989, -0.758847, 0.0958668515086174, 0.1222207173705101, 9.90614128112793, 1.0319676399230957, -0.7187180519104004, 0.5400373935699463, 0, 
10, 716511428, 0.6512682, 6.30264E-4, -0.009261964, -0.7587908, 0.0887560173869133, 0.11881372332572937, 9.899725914001465, 1.0246167182922363, -0.6638043522834778, 0.5309320688247681, 0, 
11, 716528095, 0.65132356, 6.492585E-4, -0.00938611, -0.75874186, 0.09893698990345001, 0.12170035392045975, 9.896899223327637, 1.0491154193878174, -0.7139156460762024, 0.49248743057250977, 0, 
12, 716544762, 0.65139127, 6.6427706E-4, -0.009497083, -0.75868237, 0.08466332405805588, 0.1313343495130539, 9.919750213623047, 0.9729431867599487, -0.6491153836250305, 0.4801676273345947, 0, 
13, 716561429, 0.65147597, 6.7252334E-4, -0.009631684, -0.7586079, 0.09563681483268738, 0.1347511112689972, 9.898612022399902, 1.0408425331115723, -0.8155084252357483, 0.5074836611747742, 0, 
14, 716578096, 0.6515321, 6.864966E-4, -0.009764777, -0.75855803, 0.08882924914360046, 0.1332239955663681, 9.896769523620605, 1.0351052284240723, -0.7639116048812866, 0.48687824606895447, 0, 
15, 716594763, 0.65158683, 7.031097E-4, -0.009904844, -0.75850916, 0.09559345990419388, 0.12337005138397217, 9.90317153930664, 1.0719746351242065, -0.7860921025276184, 0.48521333932876587, 0, 
16, 716611430, 0.6516641, 7.1436976E-4, -0.010038699, -0.75844085, 0.08896692097187042, 0.14775289595127106, 9.94330883026123, 1.025295615196228, -0.777768075466156, 0.5098912119865417, 0, 
17, 716628097, 0.65172964, 7.337975E-4, -0.010170671, -0.75838286, 0.0836917832493782, 0.12585751712322235, 9.90863037109375, 1.019596815109253, -0.7319213151931763, 0.49335822463035583, 0, 
18, 716644764, 0.65180534, 7.493253E-4, -0.0103100445, -0.75831586, 0.10036157816648483, 0.12123826146125793, 9.889331817626953, 1.050626516342163, -0.797541081905365, 0.4828442335128784, 0, 
19, 716661431, 0.65187347, 7.6206494E-4, -0.010445313, -0.7582554, 0.10729139298200607, 0.12156186252832413, 9.895671844482422, 1.0317500829696655, -0.7779473662376404, 0.4574108421802521, 0, 
20, 716678098, 0.6519631, 7.6956407E-4, -0.010577969, -0.75817657, 0.08946101367473602, 0.1200767308473587, 9.91771125793457, 1.0050615072250366, -0.771685004234314, 0.5968079566955566, 0, 
21, 716694765, 0.65205866, 7.824835E-4, -0.010721898, -0.7580924, 0.08416915684938431, 0.12309080362319946, 9.915854454040527, 1.0991625785827637, -0.7998590469360352, 0.5564935803413391, 0, 
22, 716711432, 0.65214425, 7.9325907E-4, -0.010850748, -0.7580169, 0.10128980129957199, 0.1260370910167694, 9.899248123168945, 1.016279935836792, -0.7548831105232239, 0.4901566803455353, 0, 
23, 716728099, 0.65221775, 8.028006E-4, -0.010985095, -0.75795186, 0.10174480825662613, 0.13909918069839478, 9.908276557922363, 1.040727138519287, -0.7763849496841431, 0.44838228821754456, 0, 
24, 716744766, 0.65229577, 8.1505836E-4, -0.0111131035, -0.7578828, 0.09477006644010544, 0.12293029576539993, 9.912076950073242, 1.0090571641921997, -0.7252364158630371, 0.5187532305717468, 0, 
25, 716761433, 0.65238625, 8.3518925E-4, -0.011230451, -0.757803, 0.09050175547599792, 0.12693360447883606, 9.920289993286133, 0.9935998916625977, -0.6375897526741028, 0.5004017353057861, 0, 
26, 716778100, 0.652467, 8.549248E-4, -0.011361508, -0.7577316, 0.0876714214682579, 0.14054423570632935, 9.8972806930542, 1.0638362169265747, -0.704285204410553, 0.4595046043395996, 0, 
27, 716794767, 0.6525601, 8.683662E-4, -0.0114934845, -0.75764936, 0.0778532326221466, 0.13085398077964783, 9.906566619873047, 1.0319037437438965, -0.7458291053771973, 0.5040515065193176, 0, 
28, 716811434, 0.65265596, 8.8312285E-4, -0.011628439, -0.75756484, 0.08997678011655807, 0.12541928887367249, 9.898283958435059, 1.052509069442749, -0.7620930671691895, 0.5433926582336426, 0, 
29, 716828101, 0.652744, 8.987783E-4, -0.0117681315, -0.7574867, 0.08118309825658798, 0.10662144422531128, 9.910407066345215, 1.084307312965393, -0.778702974319458, 0.511402428150177, 0, 
30, 716844768, 0.65283364, 9.128979E-4, -0.011897257, -0.7574075, 0.08430960029363632, 0.10694003105163574, 9.903969764709473, 1.036168098449707, -0.7440105676651001, 0.545006275177002, 0, 
31, 716861435, 0.65291846, 9.264915E-4, -0.0120239435, -0.7573324, 0.08201318234205246, 0.140101358294487, 9.895403861999512, 1.0302003622055054, -0.7402198314666748, 0.4818965792655945, 0, 
32, 716878102, 0.6529981, 9.476559E-4, -0.012145431, -0.75726163, 0.08687108755111694, 0.13854461908340454, 9.894458770751953, 1.0309816598892212, -0.6814643740653992, 0.4324128329753876, 0, 
33, 716894769, 0.6530784, 9.5594884E-4, -0.012270534, -0.7571904, 0.0969911590218544, 0.10295690596103668, 9.89748764038086, 0.9865819811820984, -0.7656916379928589, 0.4477803707122803, 0, 
34, 716911436, 0.6531667, 9.6682366E-4, -0.012398613, -0.75711215, 0.09480337053537369, 0.12427876889705658, 9.913750648498535, 1.0244245529174805, -0.7615039348602295, 0.47957858443260193, 0, 
35, 716928103, 0.6532534, 9.801304E-4, -0.01252545, -0.7570353, 0.08854284882545471, 0.11971068382263184, 9.89278793334961, 1.0310839414596558, -0.7409369945526123, 0.49582985043525696, 0, 
36, 716944770, 0.6533494, 9.897557E-4, -0.012650543, -0.7569502, 0.08640409260988235, 0.13394519686698914, 9.91735553741455, 1.0073795318603516, -0.7530645728111267, 0.5148472189903259, 0, 
37, 716961437, 0.6534394, 9.926901E-4, -0.012782927, -0.7568703, 0.08113808184862137, 0.12116508930921555, 9.911142349243164, 1.0138723850250244, -0.8209511041641235, 0.5439049005508423, 0, 
38, 716978104, 0.65353763, 0.001008538, -0.012903376, -0.75678355, 0.09231491386890411, 0.10279727727174759, 9.889287948608398, 1.0109269618988037, -0.7045413255691528, 0.5456721782684326, 0, 
39, 716994771, 0.65362835, 0.0010267346, -0.0130192265, -0.7567031, 0.09467209875583649, 0.12433014065027237, 9.909147262573242, 1.004946231842041, -0.6713984608650208, 0.46926942467689514, 0, 
40, 717011438, 0.6537173, 0.0010410313, -0.013146728, -0.7566241, 0.09486420452594757, 0.13724496960639954, 9.911728858947754, 1.0490834712982178, -0.7427299618721008, 0.4851045310497284, 0, 
41, 717028105, 0.6538142, 0.0010529954, -0.013277967, -0.7565381, 0.08247511833906174, 0.14225846529006958, 9.921850204467773, 1.0557682514190674, -0.7703146934509277, 0.5319629907608032, 0, 
42, 717044772, 0.65391237, 0.0010661604, -0.013395937, -0.7564509, 0.08912838995456696, 0.13143736124038696, 9.91093921661377, 0.9880418181419373, -0.7068721055984497, 0.5531767010688782, 0, 
43, 717061439, 0.654002, 0.001079756, -0.0135199595, -0.75637126, 0.09360204637050629, 0.12291084229946136, 9.884461402893066, 1.020499587059021, -0.7327153086662292, 0.5032127499580383, 0, 
44, 717078106, 0.6540992, 0.0010874972, -0.013645988, -0.7562849, 0.0995626300573349, 0.1268848329782486, 9.900833129882812, 1.0075459480285645, -0.7707757353782654, 0.5617312788963318, 0, 
45, 717094773, 0.6541767, 0.001099258, -0.013776544, -0.75621545, 0.0873449444770813, 0.1220184713602066, 9.922094345092773, 1.0493971109390259, -0.770391583442688, 0.4074147939682007, 0, 
46, 717111440, 0.65425706, 0.0011122593, -0.013897291, -0.7561437, 0.0821511521935463, 0.13040727376937866, 9.907383918762207, 1.0062652826309204, -0.7216634154319763, 0.4359729588031769, 0, 
47, 717128107, 0.6543467, 0.0011254441, -0.014016536, -0.756064, 0.10085074603557587, 0.1297207772731781, 9.921855926513672, 0.9990296959877014, -0.7165536880493164, 0.45890915393829346, 0, 
48, 717144774, 0.6544391, 0.0011373612, -0.014143445, -0.7559816, 0.08722065389156342, 0.14063221216201782, 9.906277656555176, 1.0352972745895386, -0.7555618286132812, 0.5221468806266785, 0, 
49, 717161441, 0.6545346, 0.001151112, -0.014266498, -0.75589657, 0.08354756981134415, 0.115056112408638, 9.892074584960938, 1.0223501920700073, -0.7300131916999817, 0.5334933400154114, 0, 
50, 717178108, 0.65462816, 0.0011684747, -0.014385564, -0.7558133, 0.0878954529762268, 0.11131860315799713, 9.933307647705078, 1.0225293636322021, -0.6955128312110901, 0.5430468916893005, 0, 
51, 717194775, 0.65471137, 0.0011978657, -0.014504757, -0.7557389, 0.09888143092393875, 0.12042858451604843, 9.915653228759766, 1.0802987813949585, -0.6376280784606934, 0.4283275306224823, 0, 
52, 717211442, 0.6548004, 0.0012117414, -0.01462593, -0.7556594, 0.09699056297540665, 0.1178058609366417, 9.906574249267578, 1.0255005359649658, -0.7253004908561707, 0.5080471634864807, 0, 
53, 717228109, 0.65488505, 0.0012314798, -0.014751537, -0.7555836, 0.09912597388029099, 0.13715685904026031, 9.901671409606934, 1.0787492990493774, -0.7141589522361755, 0.494536429643631, 0, 
54, 717244776, 0.65497303, 0.0012464487, -0.01488022, -0.7555047, 0.08846829831600189, 0.1286359578371048, 9.914777755737305, 1.0728967189788818, -0.7533975839614868, 0.5022585988044739, 0, 
55, 717261443, 0.65506727, 0.0012680709, -0.01501544, -0.75542027, 0.07130059599876404, 0.13084274530410767, 9.908567428588867, 1.137619972229004, -0.7512844204902649, 0.49530473351478577, 0, 
56, 717278110, 0.65515995, 0.0012809453, -0.015131778, -0.75533754, 0.08930665999650955, 0.13335174322128296, 9.922057151794434, 1.0025898218154907, -0.7161823511123657, 0.5073171257972717, 0, 
57, 717294777, 0.65524983, 0.0012909833, -0.015250246, -0.7552571, 0.0927310660481453, 0.12012408673763275, 9.893875122070312, 1.0033453702926636, -0.7423584461212158, 0.5132848620414734, 0, 
58, 717311444, 0.6553347, 0.0013090764, -0.015376589, -0.755181, 0.0875229761004448, 0.11766932159662247, 9.897683143615723, 1.0832058191299438, -0.7384781837463379, 0.438150018453598, 0, 
59, 717328111, 0.6554209, 0.0013239605, -0.015501618, -0.75510365, 0.08929530531167984, 0.11879013478755951, 9.938873291015625, 1.0651490688323975, -0.7514638304710388, 0.44329822063446045, 0, 
60, 717344778, 0.655518, 0.0013274511, -0.015628388, -0.7550168, 0.07759176194667816, 0.11981400102376938, 9.926223754882812, 1.0284332036972046, -0.8203107714653015, 0.5138612389564514, 0, 
61, 717361445, 0.6555989, 0.0013339142, -0.015750365, -0.75494397, 0.10148686170578003, 0.12105921655893326, 9.890182495117188, 1.0196479558944702, -0.7885125875473022, 0.4046230614185333, 0, 
62, 717378112, 0.6556928, 0.0013434998, -0.015873961, -0.7548598, 0.0875132605433464, 0.13442426919937134, 9.902978897094727, 1.046362042427063, -0.7798426747322083, 0.46909019351005554, 0, 
63, 717394779, 0.65578985, 0.0013485609, -0.01599232, -0.75477296, 0.08525243401527405, 0.1203140988945961, 9.915220260620117, 1.0004768371582031, -0.7828521132469177, 0.4735468327999115, 0, 
64, 717411446, 0.6558894, 0.00135732, -0.016109593, -0.754684, 0.08560413122177124, 0.11861888319253922, 9.915285110473633, 1.016548752784729, -0.7602362036705017, 0.5297538638114929, 0, 
65, 717428113, 0.6559821, 0.0013610861, -0.016228426, -0.75460094, 0.09861627221107483, 0.1256302446126938, 9.896673202514648, 1.0061949491500854, -0.797592282295227, 0.4785861372947693, 0, 
66, 717444780, 0.65608495, 0.0013663177, -0.016336108, -0.75450903, 0.09451425075531006, 0.13580842316150665, 9.89198112487793, 0.9594709277153015, -0.7400405406951904, 0.5545469522476196, 0, 
67, 717461447, 0.65618473, 0.0013747122, -0.016452793, -0.75441974, 0.09253112226724625, 0.1320142298936844, 9.927839279174805, 1.0222091674804688, -0.7677534818649292, 0.5215961933135986, 0, 
68, 717478114, 0.65628046, 0.0013754893, -0.016581371, -0.75433373, 0.07586805522441864, 0.12340604513883591, 9.895339012145996, 1.0525474548339844, -0.8634424805641174, 0.4789254665374756, 0, 
69, 717494781, 0.65637416, 0.0013801683, -0.016700514, -0.7542495, 0.08976943790912628, 0.12511059641838074, 9.922605514526367, 1.0250139236450195, -0.8058523535728455, 0.48262646794319153, 0, 
70, 717511448, 0.65647316, 0.0013848152, -0.016820982, -0.75416064, 0.09142512083053589, 0.11900768429040909, 9.886117935180664, 1.0366612672805786, -0.8146631717681885, 0.5088731646537781, 0, 
71, 717528115, 0.6565715, 0.0013905315, -0.016938293, -0.7540724, 0.09553566575050354, 0.11915477365255356, 9.88335132598877, 1.0303541421890259, -0.7972081899642944, 0.5284091830253601, 0, 
72, 717544782, 0.6566694, 0.0013985769, -0.017055303, -0.7539845, 0.08174461126327515, 0.1291336864233017, 9.902631759643555, 1.0441594123840332, -0.7868734002113342, 0.5068561434745789, 0, 
73, 717561449, 0.6567729, 0.0014053656, -0.017178372, -0.7538914, 0.09395752102136612, 0.11106619983911514, 9.908378601074219, 1.0726405382156372, -0.8263681530952454, 0.5070610046386719, 0, 
74, 717578116, 0.6568755, 0.0014059818, -0.017296484, -0.7537994, 0.08539566397666931, 0.12234051525592804, 9.901900291442871, 1.0266849994659424, -0.8392192721366882, 0.5084248781204224, 0, 
75, 717594783, 0.65697175, 0.001417782, -0.017408252, -0.75371283, 0.08421577513217926, 0.12192081660032272, 9.908401489257812, 1.047104835510254, -0.7572907209396362, 0.4441946744918823, 0, 
76, 717611450, 0.6570682, 0.001426729, -0.017526321, -0.75362605, 0.10413583368062973, 0.13505055010318756, 9.921534538269043, 1.0741775035858154, -0.8037649393081665, 0.4781058728694916, 0, 
77, 717628117, 0.6571688, 0.0014328962, -0.017644448, -0.75353557, 0.09592355042695999, 0.12765756249427795, 9.900837898254395, 1.0653538703918457, -0.8213481307029724, 0.5120042562484741, 0, 
78, 717644784, 0.6572657, 0.0014396298, -0.017756354, -0.7534485, 0.09172429889440536, 0.12154659628868103, 9.895620346069336, 1.0406503677368164, -0.7937504053115845, 0.47827237844467163, 0, 
79, 717661451, 0.6573562, 0.0014469435, -0.017877644, -0.7533667, 0.11063839495182037, 0.12451434880495071, 9.903507232666016, 1.0963836908340454, -0.8374841213226318, 0.4152010977268219, 0, 
80, 717678118, 0.6574633, 0.0014588903, -0.017986683, -0.75327045, 0.11464764922857285, 0.12916700541973114, 9.890546798706055, 1.0601671934127808, -0.7604410648345947, 0.5285115838050842, 0, 
81, 717694785, 0.65755886, 0.0014706228, -0.018102499, -0.75318426, 0.09890040010213852, 0.12658515572547913, 9.913847923278809, 1.0996365547180176, -0.7933405637741089, 0.4736492931842804, 0, 
82, 717711452, 0.6576583, 0.0014719223, -0.018221017, -0.75309455, 0.10541065037250519, 0.14226394891738892, 9.938143730163574, 1.0715649127960205, -0.8633401393890381, 0.49939003586769104, 0, 
83, 717728119, 0.6577544, 0.0014757883, -0.01833194, -0.7530079, 0.10031851381063461, 0.13099683821201324, 9.877192497253418, 1.0476425886154175, -0.8195294737815857, 0.4523266553878784, 0, 
84, 717744786, 0.6578567, 0.0014863239, -0.018432584, -0.7529161, 0.09006917476654053, 0.13900041580200195, 9.886398315429688, 1.0315066576004028, -0.7423712611198425, 0.5162432193756104, 0, 
85, 717761453, 0.6579664, 0.0014963037, -0.018536136, -0.7528177, 0.10308443754911423, 0.12273337692022324, 9.893960952758789, 1.0483342409133911, -0.7614142894744873, 0.5728984475135803, 0, 
86, 717778120, 0.65807277, 0.0015144387, -0.018629557, -0.7527223, 0.08243989199399948, 0.13158045709133148, 9.89236068725586, 1.0385501384735107, -0.6783908009529114, 0.5235300064086914, 0, 
87, 717794787, 0.65817297, 0.0015257956, -0.018719096, -0.7526325, 0.09347473829984665, 0.13512906432151794, 9.882953643798828, 0.9935421943664551, -0.7027100324630737, 0.46200183033943176, 0, 
88, 717811454, 0.6582738, 0.0015397853, -0.018813672, -0.7525419, 0.10139714181423187, 0.14116039872169495, 9.902836799621582, 1.0362961292266846, -0.71661776304245, 0.4847267270088196, 0, 
89, 717828121, 0.6583854, 0.0015518706, -0.0189004, -0.75244224, 0.1007494255900383, 0.1369747370481491, 9.908519744873047, 0.9937663078308105, -0.6931565403938293, 0.5610525608062744, 0, 
90, 717844788, 0.6584883, 0.0015674331, -0.018989129, -0.7523498, 0.10190316289663315, 0.12736296653747559, 9.919817924499512, 1.024411916732788, -0.6891865134239197, 0.508239209651947, 0, 
91, 717861455, 0.6585877, 0.0015775557, -0.019075131, -0.7522606, 0.10317934304475784, 0.14487995207309723, 9.915706634521484, 0.9925369620323181, -0.711085319519043, 0.4514686167240143, 0, 
92, 717878122, 0.6586909, 0.001595407, -0.019159403, -0.752168, 0.09014350920915604, 0.11686170101165771, 9.917749404907227, 1.0226960182189941, -0.6665449142456055, 0.4841633141040802, 0, 
93, 717894789, 0.6587961, 0.0016031316, -0.01924486, -0.75207376, 0.10566183924674988, 0.1192590668797493, 9.907344818115234, 0.991089940071106, -0.7302821278572083, 0.483753502368927, 0, 
94, 717911456, 0.65889883, 0.0016175885, -0.019326935, -0.7519815, 0.09711793810129166, 0.11973325163125992, 9.882851600646973, 1.0127837657928467, -0.6844737529754639, 0.4877874553203583, 0, 
95, 717928123, 0.65900356, 0.0016308564, -0.019408451, -0.7518876, 0.08387549966573715, 0.13585805892944336, 9.889148712158203, 1.0101072788238525, -0.6928620338439941, 0.47400787472724915, 0, 
96, 717944790, 0.65910894, 0.0016550563, -0.019485375, -0.7517932, 0.0863838866353035, 0.13060595095157623, 9.921384811401367, 1.0433908700942993, -0.6217866539955139, 0.4725991487503052, 0, 
97, 717961457, 0.65920997, 0.0016680706, -0.019567149, -0.75170255, 0.08432415872812271, 0.12602174282073975, 9.913393020629883, 1.0237972736358643, -0.7079350352287292, 0.4601641893386841, 0, 
98, 717978124, 0.65931946, 0.001686865, -0.01964349, -0.7516044, 0.09627067297697067, 0.12686733901500702, 9.90860652923584, 1.0295857191085815, -0.6588995456695557, 0.5060877799987793, 0, 
99, 717994791, 0.65942657, 0.001700249, -0.019719243, -0.7515085, 0.09964729100465775, 0.12652064859867096, 9.892120361328125, 1.0104913711547852, -0.6882771849632263, 0.5059212446212769, 0, 
100, 718011458, 0.6595349, 0.001717858, -0.01979457, -0.75141126, 0.09072709828615189, 0.1216520294547081, 9.901712417602539, 1.0334148406982422, -0.6715008616447449, 0.4890040457248688, 0, 
101, 718028125, 0.65964246, 0.0017389877, -0.019880729, -0.7513147, 0.08090364933013916, 0.1396980732679367, 9.940850257873535, 1.1135441064834595, -0.7072433829307556, 0.49606025218963623, 0, 
102, 718044792, 0.6597502, 0.0017503939, -0.019960523, -0.75121796, 0.08969157189130783, 0.13557811081409454, 9.91520881652832, 1.043634295463562, -0.7354558706283569, 0.49317893385887146, 0, 
103, 718061459, 0.6598576, 0.0017649623, -0.020024762, -0.75112176, 0.09748910367488861, 0.12318359315395355, 9.891684532165527, 0.983418881893158, -0.6549038887023926, 0.4786565601825714, 0, 
104, 718078126, 0.65997297, 0.0017885296, -0.020090744, -0.7510185, 0.09133975207805634, 0.13814549148082733, 9.896011352539062, 1.0425200462341309, -0.6208774447441101, 0.532379150390625, 0, 
105, 718094793, 0.6600772, 0.001802739, -0.020159526, -0.750925, 0.07684869319200516, 0.13201338052749634, 9.946111679077148, 1.0206788778305054, -0.6882644295692444, 0.46159204840660095, 0, 
106, 718111460, 0.6601912, 0.0018152402, -0.02021896, -0.75082314, 0.09570472687482834, 0.1312367022037506, 9.924702644348145, 0.9724181890487671, -0.6614992022514343, 0.5223646759986877, 0, 
107, 718128127, 0.66029793, 0.0018286435, -0.020290906, -0.7507275, 0.0953870639204979, 0.13311056792736053, 9.86883544921875, 1.0481548309326172, -0.7206517457962036, 0.45031607151031494, 0, 
108, 718144794, 0.66041464, 0.0018403986, -0.020352615, -0.7506231, 0.11888440698385239, 0.12819086015224457, 9.88958740234375, 0.9965454339981079, -0.6855494976043701, 0.5659317374229431, 0, 
109, 718161461, 0.6605244, 0.0018519885, -0.020420916, -0.7505246, 0.0915759727358818, 0.13186082243919373, 9.92686653137207, 1.0362129211425781, -0.7217403054237366, 0.4791751801967621, 0, 
110, 718178128, 0.66062677, 0.0018639594, -0.020485409, -0.75043267, 0.0940471738576889, 0.12065450102090836, 9.912616729736328, 1.0257822275161743, -0.7103042602539062, 0.4241783320903778, 0, 
111, 718194795, 0.6607366, 0.0018797828, -0.020550273, -0.75033414, 0.10035345703363419, 0.1311844289302826, 9.895707130432129, 1.0543276071548462, -0.6966526508331299, 0.4686804413795471, 0, 
112, 718211462, 0.66085184, 0.0018877705, -0.020609597, -0.7502311, 0.10641536116600037, 0.13188022375106812, 9.911202430725098, 0.999157726764679, -0.7164896130561829, 0.5279096961021423, 0, 
113, 718228129, 0.66096514, 0.0018951555, -0.020666933, -0.7501297, 0.08727548271417618, 0.13305455446243286, 9.904400825500488, 0.9919989705085754, -0.7164640426635742, 0.4796426296234131, 0, 
114, 718244796, 0.661069, 0.0018951972, -0.020723362, -0.7500365, 0.09064978361129761, 0.1371992975473404, 9.916178703308105, 0.9625765681266785, -0.7561317086219788, 0.4479020833969116, 0, 
115, 718261463, 0.66118467, 0.0019048321, -0.02078564, -0.7499328, 0.09075865894556046, 0.1308138370513916, 9.91649341583252, 1.0438584089279175, -0.7401238083839417, 0.5113832354545593, 0, 
116, 718278130, 0.661294, 0.0019126955, -0.020840768, -0.7498349, 0.08570290356874466, 0.11940918862819672, 9.893305778503418, 1.0073282718658447, -0.7226495742797852, 0.4623284637928009, 0, 
117, 718294797, 0.6614108, 0.0019297095, -0.020898998, -0.7497302, 0.09286446869373322, 0.12388308346271515, 9.915056228637695, 1.0740877389907837, -0.6948596835136414, 0.5347739458084106, 0, 
118, 718311464, 0.66153055, 0.0019283561, -0.02095217, -0.74962306, 0.09939819574356079, 0.15018591284751892, 9.9277925491333, 0.9738653302192688, -0.7728504538536072, 0.5727192163467407, 0, 
119, 718328131, 0.6616416, 0.0019314128, -0.021001277, -0.74952364, 0.07955017685890198, 0.12694750726222992, 9.904516220092773, 0.9777582287788391, -0.7386702299118042, 0.47039639949798584, 0, 
120, 718344798, 0.661758, 0.0019371731, -0.021049421, -0.7494195, 0.08043815940618515, 0.11773324012756348, 9.902180671691895, 0.9954055547714233, -0.7249929904937744, 0.5543676614761353, 0, 
121, 718361465, 0.6618675, 0.0019457842, -0.021091843, -0.7493216, 0.08203070610761642, 0.12833161652088165, 9.910112380981445, 0.985192596912384, -0.6941425800323486, 0.444072961807251, 0, 
122, 718378132, 0.66198415, 0.0019495029, -0.02113691, -0.74921733, 0.08847412467002869, 0.11384416371583939, 9.9169921875, 0.986613929271698, -0.7370821833610535, 0.5169923305511475, 0, 
123, 718394799, 0.66210055, 0.0019604245, -0.021189796, -0.74911284, 0.0886845588684082, 0.12825126945972443, 9.907392501831055, 1.0691572427749634, -0.7430116534233093, 0.5020536780357361, 0, 
124, 718411466, 0.66222304, 0.0019644473, -0.02124273, -0.7490032, 0.09932653605937958, 0.12339262664318085, 9.921143531799316, 1.0457090139389038, -0.7836718559265137, 0.5523442625999451, 0, 
125, 718428133, 0.662334, 0.001978871, -0.021298785, -0.74890333, 0.08534342795610428, 0.1267300695180893, 9.89677906036377, 1.1176806688308716, -0.7517070770263672, 0.45810234546661377, 0, 
126, 718444800, 0.6624537, 0.0019964175, -0.021331126, -0.74879646, 0.0736633688211441, 0.11314356327056885, 9.904169082641602, 1.0190074443817139, -0.6328896880149841, 0.5350812673568726, 0, 
127, 718461467, 0.66257524, 0.002002457, -0.021362673, -0.7486881, 0.09428529441356659, 0.1162094697356224, 9.918243408203125, 0.9711886644363403, -0.6951542496681213, 0.5566215515136719, 0, 
128, 718478134, 0.66268516, 0.0019998876, -0.02140621, -0.74858946, 0.08838232606649399, 0.1319507658481598, 9.918834686279297, 1.00358247756958, -0.8010627627372742, 0.48200544714927673, 0, 
129, 718494801, 0.6627999, 0.0020120698, -0.021433627, -0.74848706, 0.10129901021718979, 0.13429918885231018, 9.906580924987793, 0.9941057562828064, -0.6593477129936218, 0.4703260362148285, 0, 
130, 718511468, 0.66292036, 0.0020208966, -0.021473546, -0.74837923, 0.09538010507822037, 0.12937819957733154, 9.89513874053955, 1.0524834394454956, -0.7373512387275696, 0.5349916815757751, 0, 
131, 718528135, 0.6630362, 0.0020311347, -0.021508519, -0.7482756, 0.0788758397102356, 0.12822654843330383, 9.918701171875, 1.041822075843811, -0.713800311088562, 0.5182857513427734, 0, 
132, 718544802, 0.6631519, 0.0020431923, -0.021554563, -0.74817175, 0.0856676772236824, 0.13131959736347198, 9.92400074005127, 1.1145942211151123, -0.7628486156463623, 0.4796810448169708, 0, 
133, 718561469, 0.6632693, 0.002052146, -0.02158694, -0.7480667, 0.09516936540603638, 0.127175435423851, 9.92585563659668, 1.0373334884643555, -0.7224061489105225, 0.4955737292766571, 0, 
134, 718578136, 0.6633872, 0.0020586858, -0.021619404, -0.74796116, 0.0875895544886589, 0.11406813561916351, 9.88732624053955, 1.0364371538162231, -0.7410906553268433, 0.5041539072990417, 0, 
135, 718594803, 0.6635033, 0.00205958, -0.021639504, -0.7478575, 0.08573884516954422, 0.12231096625328064, 9.90092658996582, 0.9551551342010498, -0.7210999727249146, 0.4811793565750122, 0, 
136, 718611470, 0.66362727, 0.0020606031, -0.021663984, -0.74774677, 0.08977190405130386, 0.11536882817745209, 9.913125991821289, 0.9880291223526001, -0.7444075345993042, 0.558235228061676, 0, 
137, 718628137, 0.6637459, 0.0020658537, -0.021696083, -0.7476406, 0.10361643880605698, 0.12482762336730957, 9.901440620422363, 1.05405855178833, -0.7653330564498901, 0.4912707507610321, 0, 
138, 718644804, 0.66386855, 0.0020741315, -0.021717338, -0.7475312, 0.07676727324724197, 0.12434922158718109, 9.912508010864258, 1.0208133459091187, -0.7051687836647034, 0.5298819541931152, 0, 
139, 718661471, 0.6639808, 0.0020827956, -0.021743204, -0.7474306, 0.08398137986660004, 0.12885774672031403, 9.930559158325195, 1.0553264617919922, -0.7300003170967102, 0.4962652325630188, 0, 
140, 718678138, 0.66409916, 0.002080362, -0.021766277, -0.74732476, 0.1026797965168953, 0.12673310935497284, 9.904537200927734, 0.9976978898048401, -0.7814947366714478, 0.5154619812965393, 0, 
141, 718694805, 0.66422045, 0.0020954306, -0.021787126, -0.74721634, 0.1030830442905426, 0.12713438272476196, 9.909225463867188, 1.0754836797714233, -0.6848067045211792, 0.5498982071876526, 0, 
142, 718711472, 0.66433835, 0.0021058647, -0.021805936, -0.747111, 0.09146465361118317, 0.13060520589351654, 9.911404609680176, 1.0500118732452393, -0.7059884071350098, 0.5064975619316101, 0, 
143, 718728139, 0.66445965, 0.0021102135, -0.021823011, -0.74700254, 0.08965178579092026, 0.12533481419086456, 9.909996032714844, 1.0226318836212158, -0.7341112494468689, 0.5575436353683472, 0, 
144, 718744806, 0.6645783, 0.0021100051, -0.021839513, -0.7468965, 0.08200730383396149, 0.10977556556463242, 9.901890754699707, 1.0056827068328857, -0.760581910610199, 0.5387375354766846, 0, 
145, 718761473, 0.6647014, 0.0021082216, -0.021855095, -0.74678653, 0.10049881041049957, 0.1212981715798378, 9.918354034423828, 1.0030701160430908, -0.7712624669075012, 0.5365476608276367, 0, 
146, 718778140, 0.6648169, 0.0021180566, -0.021870362, -0.7466832, 0.08300628513097763, 0.11426767706871033, 9.911120414733887, 1.061582326889038, -0.7168866991996765, 0.4663560390472412, 0, 
147, 718794807, 0.66494423, 0.0021227112, -0.021882446, -0.7465694, 0.08838627487421036, 0.12200865149497986, 9.896081924438477, 1.0308151245117188, -0.7342648506164551, 0.5541371703147888, 0, 
148, 718811474, 0.66506606, 0.0021177419, -0.021895722, -0.74646044, 0.08936458081007004, 0.13734103739261627, 9.906512260437012, 1.0002976655960083, -0.7942883372306824, 0.5322127342224121, 0, 
149, 718828141, 0.66517955, 0.0021163526, -0.021887675, -0.7463595, 0.10622194409370422, 0.12472070008516312, 9.912174224853516, 0.9147767424583435, -0.683577299118042, 0.49174460768699646, 0, 
150, 718844808, 0.66530085, 0.002110486, -0.021890717, -0.7462515, 0.07515653222799301, 0.12519821524620056, 9.912400245666504, 0.9580686092376709, -0.7618048191070557, 0.5346394777297974, 0, 
151, 718861475, 0.665425, 0.0021091085, -0.021887004, -0.7461408, 0.08264364302158356, 0.12670308351516724, 9.90672779083252, 0.9520624279975891, -0.7149657011032104, 0.5361250042915344, 0, 
152, 718878142, 0.6655474, 0.0021035937, -0.021902587, -0.7460312, 0.0830400362610817, 0.12517720460891724, 9.915175437927246, 1.0393635034561157, -0.8299219012260437, 0.5365220308303833, 0, 
153, 718894809, 0.6656649, 0.0021017129, -0.02190719, -0.74592626, 0.08150480687618256, 0.11902999877929688, 9.912922859191895, 1.0073155164718628, -0.7663448452949524, 0.5396788120269775, 0, 
154, 718911476, 0.66578376, 0.0021072354, -0.021909213, -0.74582, 0.09273943305015564, 0.11540307849645615, 9.913787841796875, 1.035207748413086, -0.7230977416038513, 0.5094942450523376, 0, 
155, 718928143, 0.66589713, 0.002108122, -0.021903362, -0.7457191, 0.0871296375989914, 0.13341271877288818, 9.916960716247559, 0.9804285168647766, -0.7169250249862671, 0.4668298363685608, 0, 
156, 718944810, 0.6660087, 0.0021152103, -0.021896377, -0.74561954, 0.08553487062454224, 0.12624646723270416, 9.897323608398438, 1.009069800376892, -0.6850372552871704, 0.4417998194694519, 0, 
157, 718961477, 0.6661195, 0.0021098983, -0.021886509, -0.74552083, 0.09602649509906769, 0.12026478350162506, 9.908403396606445, 0.9446539282798767, -0.7414364218711853, 0.45245474576950073, 0, 
158, 718978144, 0.66623515, 0.0021144163, -0.02188774, -0.7454175, 0.07361678779125214, 0.11856377869844437, 9.920422554016113, 1.0552113056182861, -0.7450094223022461, 0.49410101771354675, 0, 
159, 718994811, 0.6663424, 0.0021161502, -0.02189017, -0.74532163, 0.08819093555212021, 0.11324258893728256, 9.886398315429688, 1.055083155632019, -0.7713392376899719, 0.4570137858390808, 0, 
160, 719011478, 0.66645396, 0.0021042866, -0.02189124, -0.7452218, 0.08379846066236496, 0.11722099035978317, 9.903956413269043, 0.9929788112640381, -0.8392640948295593, 0.4671371877193451, 0, 
161, 719028145, 0.66656536, 0.0021077143, -0.021893619, -0.7451222, 0.07281618565320969, 0.11745528876781464, 9.918266296386719, 1.0768731832504272, -0.7726199626922607, 0.48291465640068054, 0, 
162, 719044812, 0.6666842, 0.0021022304, -0.021885814, -0.7450161, 0.08117161691188812, 0.12078795582056046, 9.907894134521484, 0.992793083190918, -0.7756550312042236, 0.5525234937667847, 0, 
163, 719061479, 0.6668015, 0.0021034789, -0.021879932, -0.7449111, 0.08394420892000198, 0.13555748760700226, 9.88980484008789, 1.0401891469955444, -0.753551185131073, 0.5740894079208374, 0, 
164, 719078146, 0.66690916, 0.002106013, -0.021868816, -0.7448152, 0.0823812335729599, 0.1472400426864624, 9.93164348602295, 1.0238229036331177, -0.73055100440979, 0.4688596725463867, 0, 
165, 719094813, 0.66702896, 0.002108144, -0.02184881, -0.7447085, 0.08375662565231323, 0.11995073407888412, 9.932198524475098, 0.981542706489563, -0.6958778500556946, 0.5565127730369568, 0, 
166, 719111480, 0.6671386, 0.0021071231, -0.021828441, -0.7446108, 0.07763167470693588, 0.14074836671352386, 9.920548439025879, 0.9719250202178955, -0.7162654995918274, 0.49159732460975647, 0, 
167, 719128147, 0.6672509, 0.0021049143, -0.021805098, -0.7445108, 0.10376168042421341, 0.12343593686819077, 9.915101051330566, 0.955737829208374, -0.7133969068527222, 0.500011146068573, 0, 
168, 719144814, 0.66736305, 0.002109034, -0.02178985, -0.74441075, 0.09836643189191818, 0.13507024943828583, 9.906615257263184, 1.0327552556991577, -0.721682608127594, 0.5021113157272339, 0, 
169, 719161481, 0.6674694, 0.0021158578, -0.02177967, -0.7443156, 0.0855860635638237, 0.12041707336902618, 9.913508415222168, 1.0759767293930054, -0.7357696890830994, 0.4532807469367981, 0, 
170, 719178148, 0.6675793, 0.002116406, -0.021759355, -0.7442177, 0.09214099496603012, 0.1275375336408615, 9.904828071594238, 1.0014309883117676, -0.7255629897117615, 0.4954136908054352, 0, 
171, 719194815, 0.66769296, 0.0021176422, -0.021739163, -0.7441163, 0.09429103881120682, 0.1290866881608963, 9.932360649108887, 1.0116952657699585, -0.7259150743484497, 0.518202543258667, 0, 
172, 719211482, 0.667813, 0.0021140028, -0.021711566, -0.74400944, 0.0868920385837555, 0.11185824871063232, 9.911688804626465, 0.9570249915122986, -0.7189356684684753, 0.5706957578659058, 0, 
173, 719228149, 0.6679214, 0.002102846, -0.021696914, -0.7439126, 0.0888248160481453, 0.12929667532444, 9.89529037475586, 0.9929722547531128, -0.8239861726760864, 0.46042028069496155, 0, 
174, 719244816, 0.6680273, 0.0021055287, -0.021666517, -0.7438183, 0.07411722838878632, 0.11691506206989288, 9.892102241516113, 0.9834699630737305, -0.6822582483291626, 0.5126445293426514, 0, 
175, 719261483, 0.6681377, 0.0021013385, -0.021635365, -0.74372, 0.08706711232662201, 0.11528586596250534, 9.917545318603516, 0.9528053402900696, -0.7194223403930664, 0.51914381980896, 0, 
176, 719278150, 0.6682525, 0.002088493, -0.021607596, -0.7436176, 0.08673802018165588, 0.12724581360816956, 9.918936729431152, 0.9371366500854492, -0.7821733951568604, 0.5571978688240051, 0, 
177, 719294817, 0.6683524, 0.0020793823, -0.02158507, -0.74352866, 0.09921401739120483, 0.12598226964473724, 9.900338172912598, 0.9841102361679077, -0.7930459380149841, 0.4491378664970398, 0, 
178, 719311484, 0.6684501, 0.0020827502, -0.021558553, -0.7434416, 0.1005348414182663, 0.12273699045181274, 9.905230522155762, 1.0272997617721558, -0.7120522856712341, 0.464191734790802, 0, 
179, 719328151, 0.66856045, 0.0020869258, -0.021532046, -0.74334323, 0.09097297489643097, 0.12069045007228851, 9.89305591583252, 1.0358928442001343, -0.7113479375839233, 0.5246762037277222, 0, 
180, 719344818, 0.66866314, 0.00207516, -0.021503922, -0.7432516, 0.10038461536169052, 0.13250118494033813, 9.90782642364502, 0.9595541954040527, -0.7891848683357239, 0.4905727803707123, 0, 
181, 719361485, 0.6687692, 0.0020680535, -0.021475084, -0.74315697, 0.1032382920384407, 0.12473238259553909, 9.883541107177734, 0.9816514253616333, -0.7642701864242554, 0.5124140381813049, 0, 
182, 719378152, 0.6688694, 0.0020725585, -0.021452008, -0.7430675, 0.08283340185880661, 0.11400911211967468, 9.926433563232422, 1.0699512958526611, -0.7324975728988647, 0.5179976224899292, 0, 
183, 719394819, 0.6689651, 0.0020708959, -0.021426698, -0.7429821, 0.08021444082260132, 0.1301306039094925, 9.911172866821289, 1.0341575145721436, -0.7588273882865906, 0.46778392791748047, 0, 
184, 719411486, 0.6690638, 0.0020646795, -0.021401726, -0.74289393, 0.0891307070851326, 0.13241177797317505, 9.919132232666016, 1.020147442817688, -0.7858232259750366, 0.5229536890983582, 0, 
185, 719428153, 0.66916484, 0.0020607838, -0.021369345, -0.7428039, 0.09924200177192688, 0.12275997549295425, 9.893755912780762, 0.9953927993774414, -0.7446380257606506, 0.4878386855125427, 0, 
186, 719444820, 0.66925544, 0.0020647212, -0.021343246, -0.742723, 0.09323479235172272, 0.11859054863452911, 9.87883186340332, 1.0679212808609009, -0.7369029521942139, 0.4189212918281555, 0, 
187, 719461487, 0.6693505, 0.002069462, -0.021303091, -0.74263847, 0.0914459079504013, 0.11953788995742798, 9.91943645477295, 1.0042930841445923, -0.668990969657898, 0.4699738621711731, 0, 
188, 719478154, 0.6694466, 0.0020545665, -0.021282488, -0.7425525, 0.0781581923365593, 0.12038568407297134, 9.928383827209473, 1.0190141201019287, -0.8614512085914612, 0.5169539451599121, 0, 
189, 719494821, 0.669543, 0.002053459, -0.021257736, -0.7424662, 0.0895221158862114, 0.1206955835223198, 9.901493072509766, 1.0655138492584229, -0.7768139243125916, 0.4873584508895874, 0, 
190, 719511488, 0.6696315, 0.0020567207, -0.02122479, -0.7423873, 0.0903579518198967, 0.13536439836025238, 9.92562198638916, 1.0474249124526978, -0.7186923027038574, 0.445859432220459, 0, 
191, 719528155, 0.6697256, 0.0020547044, -0.021191042, -0.7423035, 0.0837632417678833, 0.12698286771774292, 9.899961471557617, 1.0216330289840698, -0.745111882686615, 0.48490607738494873, 0, 
192, 719544822, 0.6698225, 0.002040126, -0.021147795, -0.7422173, 0.0970359817147255, 0.13314691185951233, 9.898322105407715, 0.9207060933113098, -0.7668185830116272, 0.5360289216041565, 0, 
193, 719561489, 0.6699111, 0.0020381934, -0.021119451, -0.7421382, 0.09966464340686798, 0.1373567283153534, 9.909168243408203, 1.0569913387298584, -0.773964524269104, 0.4694103002548218, 0, 
194, 719578156, 0.6700046, 0.0020177993, -0.021089328, -0.7420547, 0.0832253098487854, 0.13349735736846924, 9.925002098083496, 0.9651504755020142, -0.8622834086418152, 0.49034228920936584, 0, 
195, 719594823, 0.6700974, 0.0020098703, -0.021042028, -0.7419722, 0.07245992124080658, 0.11469496041536331, 9.908431053161621, 0.9383083581924438, -0.7218747735023499, 0.4826841354370117, 0, 
196, 719611490, 0.67019767, 0.001998341, -0.021007707, -0.7418827, 0.09271527081727982, 0.12805180251598358, 9.897772789001465, 0.9928827285766602, -0.8024587035179138, 0.5577229261398315, 0, 
197, 719628157, 0.6702789, 0.001997748, -0.020973831, -0.7418102, 0.09482892602682114, 0.12634137272834778, 9.896161079406738, 1.0464707612991333, -0.7523282170295715, 0.42222538590431213, 0, 
198, 719644824, 0.67036957, 0.002001155, -0.020925637, -0.74172956, 0.09433605521917343, 0.11954356729984283, 9.883950233459473, 0.9961163997650146, -0.6672044992446899, 0.501150906085968, 0, 
199, 719661491, 0.6704583, 0.0020015473, -0.020888858, -0.74165046, 0.08652698993682861, 0.11903239786624908, 9.915740013122559, 1.0439096689224243, -0.7373768091201782, 0.4825304448604584, 0, 
200, 719678158, 0.6705404, 0.0020020339, -0.020851241, -0.7415772, 0.07317927479743958, 0.12660638988018036, 9.893153190612793, 1.0429234504699707, -0.7343672513961792, 0.4726311266422272, 0, 
201, 719694825, 0.6706158, 0.001997278, -0.02080882, -0.74151033, 0.07872267812490463, 0.11716689169406891, 9.915725708007812, 0.9971151947975159, -0.7422047853469849, 0.40825361013412476, 0, 
202, 719711492, 0.67070216, 0.0019972427, -0.020764634, -0.7414335, 0.09071239084005356, 0.1230011135339737, 9.909542083740234, 1.0140259265899658, -0.7111366391181946, 0.5217627286911011, 0, 
203, 719728159, 0.6707852, 0.0020037394, -0.020724282, -0.7413594, 0.08345980942249298, 0.11987922340631485, 9.911191940307617, 1.0652449131011963, -0.6980677247047424, 0.491520494222641, 0, 
204, 719744826, 0.67087525, 0.0020016802, -0.020682134, -0.7412791, 0.08514612913131714, 0.09388820081949234, 9.901910781860352, 1.0200001001358032, -0.7361666560173035, 0.5109477043151855, 0, 
205, 719761493, 0.67095727, 0.0020073063, -0.020627065, -0.7412064, 0.08648096024990082, 0.1273658275604248, 9.903707504272461, 0.9933245778083801, -0.6387999653816223, 0.4634106159210205, 0, 
206, 719778160, 0.671027, 0.0020043512, -0.020588405, -0.7411444, 0.08552490174770355, 0.1277950406074524, 9.924121856689453, 1.0403878688812256, -0.7597559690475464, 0.448081374168396, 0, 
207, 719794827, 0.6711121, 0.0019979752, -0.020555694, -0.7410681, 0.07900739461183548, 0.1285817176103592, 9.91541862487793, 1.0575226545333862, -0.8064414858818054, 0.5114728212356567, 0, 
208, 719811494, 0.67119324, 0.0019905523, -0.020516124, -0.7409958, 0.08153326064348221, 0.12671297788619995, 9.88076400756836, 1.018380045890808, -0.7825832366943359, 0.4689749479293823, 0, 
209, 719828161, 0.67127335, 0.0019862184, -0.020470282, -0.7409246, 0.09712863713502884, 0.13348565995693207, 9.889029502868652, 1.0026026964187622, -0.7405271530151367, 0.4680016338825226, 0, 
210, 719844828, 0.6713587, 0.0019874696, -0.020420836, -0.74084854, 0.08030065894126892, 0.13295985758304596, 9.899253845214844, 1.013648271560669, -0.6934830546379089, 0.5606235861778259, 0, 
211, 719861495, 0.6714287, 0.0019862975, -0.020371908, -0.74078643, 0.09102403372526169, 0.12792454659938812, 9.892864227294922, 1.005477786064148, -0.7122123837471008, 0.4317917227745056, 0, 
212, 719878162, 0.67150587, 0.0019845662, -0.020338006, -0.7407174, 0.08669572323560715, 0.12310375273227692, 9.900019645690918, 1.080593466758728, -0.7861434817314148, 0.46522271633148193, 0, 
213, 719894829, 0.67158246, 0.0019808596, -0.020291593, -0.74064934, 0.09696453809738159, 0.13650959730148315, 9.906277656555176, 1.0105938911437988, -0.7382605075836182, 0.4923849403858185, 0, 
214, 719911496, 0.67165756, 0.001988014, -0.020238297, -0.7405826, 0.09037470072507858, 0.128631591796875, 9.904572486877441, 1.0265185832977295, -0.651862382888794, 0.48350369930267334, 0, 
215, 719928163, 0.6717372, 0.001979604, -0.02018559, -0.7405119, 0.07126236706972122, 0.115416519343853, 9.915738105773926, 0.9595285654067993, -0.7350908517837524, 0.5156732797622681, 0, 
216, 719944830, 0.67180645, 0.001977052, -0.020134, -0.7404504, 0.08724596351385117, 0.130257710814476, 9.90965461730957, 0.9947717189788818, -0.7127053737640381, 0.46406370401382446, 0, 
217, 719961497, 0.6718841, 0.0019704872, -0.020085284, -0.7403814, 0.09220246225595474, 0.1349000185728073, 9.911174774169922, 0.9921078085899353, -0.7471672892570496, 0.5128302574157715, 0, 
218, 719978164, 0.67196774, 0.0019706923, -0.020038025, -0.7403067, 0.09242045879364014, 0.12157940864562988, 9.902154922485352, 1.0328001976013184, -0.7192429900169373, 0.5839759707450867, 0, 
219, 719994831, 0.67203957, 0.0019632636, -0.019991416, -0.7402428, 0.08867179602384567, 0.12451974302530289, 9.912495613098145, 1.0010660886764526, -0.7629767656326294, 0.4860842525959015, 0, 
220, 720011498, 0.67211145, 0.0019576987, -0.01994679, -0.7401788, 0.0996837317943573, 0.12627387046813965, 9.886356353759766, 1.0223244428634644, -0.7623236179351807, 0.5159229636192322, 0, 
221, 720028165, 0.6721771, 0.0019525907, -0.019899217, -0.7401204, 0.0846664234995842, 0.12686046957969666, 9.911190032958984, 1.0099278688430786, -0.7481085062026978, 0.46898773312568665, 0, 
222, 720044832, 0.67224425, 0.0019505371, -0.019856827, -0.7400606, 0.07558224350214005, 0.12189585715532303, 9.912210464477539, 1.0513564348220825, -0.7562917470932007, 0.49039995670318604, 0, 
223, 720061499, 0.67230666, 0.0019459713, -0.019812541, -0.7400051, 0.08152251690626144, 0.12612679600715637, 9.931188583374023, 1.0309624671936035, -0.7628934979438782, 0.4312410354614258, 0, 
224, 720078166, 0.6723734, 0.001930007, -0.019776296, -0.7399454, 0.08888024091720581, 0.12881053984165192, 9.9042387008667, 1.0219147205352783, -0.8590115308761597, 0.4954072833061218, 0, 
225, 720094833, 0.6724358, 0.0019120609, -0.019739568, -0.73988974, 0.08787208795547485, 0.13116280734539032, 9.90715217590332, 1.008756160736084, -0.867514967918396, 0.43204787373542786, 0, 
226, 720111500, 0.67250454, 0.0019112222, -0.019688716, -0.7398286, 0.09128555655479431, 0.13222751021385193, 9.852964401245117, 1.0188219547271729, -0.7150745987892151, 0.5053898096084595, 0, 
227, 720128167, 0.6725703, 0.0019349073, -0.019632868, -0.7397703, 0.12019120901823044, 0.1266070157289505, 9.753806114196777, 1.107256293296814, -0.5674622654914856, 0.4981478452682495, 0, 
228, 720144834, 0.67263484, 0.0020220003, -0.01953623, -0.73971397, 0.10452402383089066, 0.14477139711380005, 9.681929588317871, 1.19259774684906, -0.05679616704583168, 0.45390188694000244, 0, 
229, 720161501, 0.672708, 0.0020574622, -0.019451559, -0.7396496, 0.09366251528263092, 0.14235588908195496, 10.487743377685547, 1.0148519277572632, -0.3715057671070099, 0.5446540117263794, 0, 
230, 720178168, 0.6727749, 0.0019102001, -0.019472575, -0.7395886, -0.07652171701192856, 0.08218901604413986, 10.37594223022461, 0.7079733610153198, -1.7926135063171387, 0.5129070281982422, 0, 
231, 720194835, 0.6728268, 0.0018240323, -0.01947207, -0.7395416, 0.07956389337778091, 0.1014346331357956, 9.121833801269531, 0.8848932385444641, -1.3908400535583496, 0.42640024423599243, 0, 
232, 720211502, 0.672893, 0.001881202, -0.019409765, -0.73948276, 0.3228875696659088, 0.24179419875144958, 9.740200996398926, 1.2331362962722778, -0.37600085139274597, 0.4749234914779663, 0, 
233, 720228169, 0.6729617, 0.0019215755, -0.019323355, -0.7394224, 0.07541055232286453, 0.1190972551703453, 10.254375457763672, 1.0307062864303589, -0.3366469442844391, 0.5869918465614319, 0, 
234, 720244836, 0.6730162, 0.0019031469, -0.019283034, -0.7393739, -0.08339272439479828, 0.024208983406424522, 9.868853569030762, 0.9913395643234253, -0.8531141877174377, 0.4174613952636719, 0, 
235, 720261503, 0.673075, 0.0019008836, -0.019232187, -0.7393217, 0.14040690660476685, 0.17988644540309906, 9.986218452453613, 1.019641637802124, -0.7291808128356934, 0.4788166582584381, 0, 
236, 720278170, 0.67314285, 0.0018817354, -0.019186867, -0.73926127, 0.14923857152462006, 0.16803881525993347, 9.837010383605957, 0.9680255651473999, -0.8369206190109253, 0.5857048034667969, 0, 
237, 720294837, 0.67319864, 0.0018918366, -0.019120023, -0.73921204, 0.020300548523664474, 0.0943654328584671, 9.872275352478027, 0.9919925928115845, -0.5864732265472412, 0.4875505864620209, 0, 
238, 720311504, 0.67325467, 0.0018826938, -0.019080115, -0.7391621, 0.07445749640464783, 0.135530486702919, 10.00918960571289, 1.0406951904296875, -0.81393963098526, 0.46079814434051514, 0, 
239, 720328171, 0.6733164, 0.0018700153, -0.01903349, -0.739107, 0.11797887086868286, 0.13925676047801971, 9.861656188964844, 0.9917876720428467, -0.7997757792472839, 0.5575628876686096, 0, 
240, 720344838, 0.6733785, 0.0018675914, -0.01899089, -0.7390515, 0.07569734752178192, 0.12538380920886993, 9.863338470458984, 1.0579837560653687, -0.7663383483886719, 0.49310851097106934, 0, 
241, 720361505, 0.673435, 0.0018585094, -0.018933238, -0.73900163, 0.07564414292573929, 0.1330776810646057, 9.975217819213867, 0.9515630602836609, -0.7302373647689819, 0.5093597769737244, 0, 
242, 720378172, 0.673485, 0.0018471028, -0.018886521, -0.73895735, 0.09870043396949768, 0.13510842621326447, 9.900541305541992, 0.9953607320785522, -0.7942882180213928, 0.43914249539375305, 0, 
243, 720394839, 0.67354804, 0.001831875, -0.018841974, -0.7389011, 0.08679324388504028, 0.12517735362052917, 9.883790969848633, 0.9892328381538391, -0.8226030468940735, 0.5371688008308411, 0, 
244, 720411506, 0.6735968, 0.0018270154, -0.018790405, -0.738858, 0.09052076935768127, 0.13427643477916718, 9.9052734375, 1.0012773275375366, -0.7374984622001648, 0.46973687410354614, 0, 
245, 720428173, 0.6736452, 0.0018178634, -0.018747687, -0.73881483, 0.08670386672019958, 0.12745249271392822, 9.920949935913086, 1.025942325592041, -0.8009731769561768, 0.45173120498657227, 0, 
246, 720444840, 0.67370176, 0.0018171438, -0.018689737, -0.7387648, 0.09097468107938766, 0.11642058938741684, 9.881361961364746, 0.9886565804481506, -0.6864075660705566, 0.5141429901123047, 0, 
247, 720461507, 0.6737587, 0.0018161052, -0.018627362, -0.73871446, 0.07324089854955673, 0.10968557000160217, 9.879429817199707, 0.9647727608680725, -0.6665961742401123, 0.528012216091156, 0, 
248, 720478174, 0.67380697, 0.0018143493, -0.01857627, -0.73867184, 0.07190301269292831, 0.1290009319782257, 9.927072525024414, 1.0187835693359375, -0.7239109873771667, 0.4696216583251953, 0, 
249, 720494841, 0.67385596, 0.0017975057, -0.018535519, -0.7386282, 0.09196265786886215, 0.13223141431808472, 9.952654838562012, 1.001104474067688, -0.8497269749641418, 0.4764282703399658, 0, 
250, 720511508, 0.6739107, 0.0017803627, -0.018488718, -0.7385794, 0.08838798105716705, 0.12250102311372757, 9.917084693908691, 0.9697545170783997, -0.8212840557098389, 0.5410619378089905, 0, 
251, 720528175, 0.67396086, 0.0017704596, -0.018455565, -0.73853445, 0.08805875480175018, 0.12954026460647583, 9.849841117858887, 1.0724486112594604, -0.8483951091766357, 0.5031551122665405, 0, 
252, 720544842, 0.67401206, 0.0018343842, -0.018350324, -0.7384901, 0.11443575471639633, 0.10016227513551712, 9.421335220336914, 1.0468871593475342, -0.13925625383853912, 0.4721252918243408, 0, 
253, 720561509, 0.67406654, 0.001967925, -0.018230194, -0.738443, 0.17193344235420227, 0.1630309671163559, 9.955140113830566, 1.2955416440963745, 0.2864396572113037, 0.5443338751792908, 0, 
254, 720578176, 0.67411923, 0.0019132417, -0.018202357, -0.7383957, -0.053128015249967575, 0.12108760327100754, 11.084066390991211, 0.8897660374641418, -1.094136118888855, 0.5350942015647888, 0, 
255, 720594843, 0.6741515, 0.0017197601, -0.018235995, -0.738366, -0.09217982739210129, 0.053286366164684296, 9.671920776367188, 0.5583632588386536, -2.0926215648651123, 0.3806239366531372, 0, 
256, 720611510, 0.6741882, 0.0016962582, -0.01821449, -0.7383331, 0.2684898376464844, 0.20594686269760132, 9.068949699401855, 1.0688947439193726, -0.9794425368309021, 0.40325915813446045, 0, 
257, 720628177, 0.67423916, 0.0017651012, -0.018131563, -0.7382885, 0.27877020835876465, 0.19912581145763397, 10.129439353942871, 1.1818468570709229, -0.21603673696517944, 0.5266099572181702, 0, 
258, 720644844, 0.6742838, 0.001784477, -0.018054226, -0.73824954, -0.06613383442163467, 0.02164430171251297, 9.974691390991211, 0.9779888391494751, -0.48609060049057007, 0.4902718961238861, 0, 
259, 720661511, 0.6743266, 0.0017932503, -0.018006783, -0.7382116, -0.01134131196886301, 0.08633093535900116, 9.981546401977539, 1.0835515260696411, -0.6843329071998596, 0.4662728011608124, 0, 
260, 720678178, 0.6743691, 0.0017668699, -0.017969342, -0.7381737, 0.17723791301250458, 0.19281715154647827, 10.107996940612793, 0.9725526571273804, -0.9128557443618774, 0.4668426811695099, 0, 
261, 720694845, 0.6744192, 0.0017283759, -0.017928129, -0.7381289, 0.07992537319660187, 0.10074513405561447, 9.679586410522461, 0.895778477191925, -0.9519535899162292, 0.5633128881454468, 0, 
262, 720711512, 0.6744628, 0.0017441063, -0.017868184, -0.7380906, 0.07701923698186874, 0.10887173563241959, 9.892839431762695, 1.052214503288269, -0.5892969965934753, 0.5109413862228394, 0, 
263, 720728179, 0.67449766, 0.0017401438, -0.017814795, -0.73806, 0.1045755073428154, 0.13738252222537994, 10.005192756652832, 0.9921207427978516, -0.7214072942733765, 0.42021477222442627, 0, 
264, 720744846, 0.6745436, 0.0017307529, -0.017770085, -0.73801905, 0.06362288445234299, 0.1238216981291771, 9.805665016174316, 1.011964201927185, -0.7868477702140808, 0.49773797392845154, 0, 
265, 720761513, 0.6745822, 0.0017329959, -0.017733134, -0.73798466, 0.08373528718948364, 0.13922011852264404, 9.968236923217773, 1.103235125541687, -0.765794038772583, 0.4319005310535431, 0, 
266, 720778180, 0.67461705, 0.0017153139, -0.017688666, -0.73795384, 0.09251900762319565, 0.1253548264503479, 9.931402206420898, 0.9718610048294067, -0.8308632373809814, 0.44487980008125305, 0, 
267, 720794847, 0.67466116, 0.0017045545, -0.017651774, -0.7379146, 0.091143898665905, 0.12285716086626053, 9.853782653808594, 1.0429106950759888, -0.8294224739074707, 0.5158141851425171, 0, 
268, 720811514, 0.67469656, 0.0017030207, -0.017598312, -0.73788345, 0.08437191694974899, 0.1273050457239151, 9.933298110961914, 1.0010212659835815, -0.7052841186523438, 0.4595174789428711, 0, 
269, 720828181, 0.6747405, 0.0017021602, -0.017548108, -0.7378446, 0.07862316071987152, 0.13925908505916595, 9.951382637023926, 1.019852876663208, -0.71632319688797, 0.5209815502166748, 0, 
270, 720844848, 0.67478645, 0.0016977544, -0.017498976, -0.73780376, 0.11461466550827026, 0.12117078900337219, 9.901268005371094, 1.0076676607131958, -0.7390928864479065, 0.5403383374214172, 0, 
271, 720861515, 0.6748295, 0.0016934968, -0.017441629, -0.73776567, 0.09161816537380219, 0.12965668737888336, 9.890325546264648, 0.9663030505180359, -0.6977219581604004, 0.5291967391967773, 0, 
272, 720878182, 0.67486316, 0.0016954477, -0.01740525, -0.7377358, 0.06974434852600098, 0.12372766435146332, 9.8970308303833, 1.1003215312957764, -0.7646350264549255, 0.4425874352455139, 0, 
273, 720894849, 0.6749031, 0.0016936039, -0.017359484, -0.7377004, 0.09122277796268463, 0.1261531561613083, 9.896773338317871, 1.0342408418655396, -0.7398804426193237, 0.49444034695625305, 0, 
274, 720911516, 0.6749307, 0.0016837989, -0.01731628, -0.7376761, 0.08985239267349243, 0.12934738397598267, 9.897838592529297, 1.0086408853530884, -0.7919447422027588, 0.4136195182800293, 0, 
275, 720928183, 0.674965, 0.0016820916, -0.017274786, -0.7376456, 0.08336017280817032, 0.1279776394367218, 9.908787727355957, 1.0549551248550415, -0.7574443221092224, 0.456783264875412, 0, 
276, 720944850, 0.6750029, 0.0016762314, -0.01722328, -0.7376122, 0.08014671504497528, 0.115329310297966, 9.905752182006836, 0.984475314617157, -0.7302564382553101, 0.5242791175842285, 0, 
277, 720961517, 0.67502856, 0.0016600417, -0.017173944, -0.7375899, 0.10043024271726608, 0.1200668066740036, 9.914536476135254, 0.9461330771446228, -0.7941409349441528, 0.41071242094039917, 0, 
278, 720978184, 0.67506874, 0.001657215, -0.017118951, -0.7375544, 0.09437847882509232, 0.12140470743179321, 9.916031837463379, 0.9801852107048035, -0.6982597708702087, 0.5222557187080383, 0, 
279, 720994851, 0.67510355, 0.0016584732, -0.017077925, -0.73752344, 0.08915772289037704, 0.13414962589740753, 9.9110107421875, 1.068920373916626, -0.740456759929657, 0.49833348393440247, 0, 
280, 721011518, 0.675139, 0.0016565832, -0.017040633, -0.73749185, 0.09039462357759476, 0.1273130476474762, 9.90261459350586, 1.0726150274276733, -0.7738236784934998, 0.5070098042488098, 0, 
281, 721028185, 0.6751739, 0.0016522263, -0.01698961, -0.7374611, 0.09398443251848221, 0.13821110129356384, 9.918400764465332, 0.9891048073768616, -0.7223933935165405, 0.4795018136501312, 0, 
282, 721044852, 0.67520106, 0.0016452856, -0.016942516, -0.7374373, 0.09601732343435287, 0.12965962290763855, 9.924819946289062, 0.9958857893943787, -0.7527252435684204, 0.42558062076568604, 0, 
283, 721061519, 0.6752461, 0.0016351163, -0.016891334, -0.7373974, 0.08767405897378922, 0.13191655278205872, 9.903379440307617, 0.9604889750480652, -0.7479612231254578, 0.5791671872138977, 0, 
284, 721078186, 0.67528796, 0.0016248595, -0.016843181, -0.7373602, 0.08844327926635742, 0.12626385688781738, 9.901359558105469, 0.9747297763824463, -0.7609724998474121, 0.5702667832374573, 0, 
285, 721094853, 0.67531747, 0.0016206244, -0.016797325, -0.73733413, 0.08852013200521469, 0.1399327665567398, 9.91894245147705, 1.0130462646484375, -0.7411611676216125, 0.49517035484313965, 0, 
286, 721111520, 0.6753553, 0.0016119165, -0.016743977, -0.7373008, 0.09549190104007721, 0.12870705127716064, 9.917008399963379, 0.9522160887718201, -0.7293855547904968, 0.510525107383728, 0, 
287, 721128187, 0.67539173, 0.0016157136, -0.016690811, -0.73726857, 0.08589953184127808, 0.12082577496767044, 9.884533882141113, 1.0104018449783325, -0.665469229221344, 0.5174469947814941, 0, 
288, 721144854, 0.67542684, 0.0016128615, -0.016638791, -0.73723763, 0.0956496149301529, 0.13731755316257477, 9.89663314819336, 0.9845458269119263, -0.7030302286148071, 0.5289086699485779, 0, 
289, 721161521, 0.6754571, 0.0016065247, -0.016603062, -0.73721063, 0.09405109286308289, 0.1354500949382782, 9.915620803833008, 1.049973487854004, -0.795760989189148, 0.5045894384384155, 0, 
290, 721178188, 0.67548585, 0.0016025958, -0.01655949, -0.7371853, 0.08752007782459259, 0.13879908621311188, 9.935449600219727, 1.0188026428222656, -0.7464821338653564, 0.47143375873565674, 0, 
291, 721194855, 0.67551833, 0.0015934388, -0.01651145, -0.7371566, 0.08948253095149994, 0.12940381467342377, 9.91067886352539, 0.971656084060669, -0.750970721244812, 0.5150073170661926, 0, 
292, 721211522, 0.67555314, 0.0015830579, -0.016475152, -0.7371256, 0.09439118951559067, 0.129429891705513, 9.912513732910156, 1.024111032485962, -0.8107380270957947, 0.5258031487464905, 0, 
293, 721228189, 0.6755837, 0.0015859688, -0.016434724, -0.7370985, 0.10061633586883545, 0.12757712602615356, 9.890514373779297, 1.0637850761413574, -0.7231937646865845, 0.5009971857070923, 0, 
294, 721244856, 0.6756196, 0.0015818141, -0.016380556, -0.73706675, 0.08887683600187302, 0.11632388830184937, 9.899067878723145, 0.9607835412025452, -0.6943666338920593, 0.5465621948242188, 0, 
295, 721261523, 0.6756522, 0.0015774936, -0.016327787, -0.737038, 0.08676088601350784, 0.12107587605714798, 9.919373512268066, 0.9664504528045654, -0.7004690170288086, 0.5228256583213806, 0, 
296, 721278190, 0.6756735, 0.0015778657, -0.016283391, -0.7370196, 0.0860072523355484, 0.1270284801721573, 9.901738166809082, 1.0283564329147339, -0.7164128422737122, 0.41563647985458374, 0, 
297, 721294857, 0.6757025, 0.0015753454, -0.016229171, -0.7369941, 0.09163490682840347, 0.14173270761966705, 9.891193389892578, 0.9653553366661072, -0.6822262406349182, 0.5261872410774231, 0, 
298, 721311524, 0.67573315, 0.001575573, -0.016182322, -0.73696697, 0.08006202429533005, 0.12328299134969711, 9.925227165222168, 1.0138658285140991, -0.7026011347770691, 0.5164929032325745, 0, 
299, 721328191, 0.6757733, 0.0015641302, -0.016139332, -0.7369312, 0.08251835405826569, 0.13558757305145264, 9.939046859741211, 0.9798139333724976, -0.7780818343162537, 0.6301748752593994, 0, 
300, 721344858, 0.67580026, 0.0015616233, -0.01609456, -0.7369075, 0.10429630428552628, 0.11030817031860352, 9.890430450439453, 1.0090187788009644, -0.7253773212432861, 0.48316439986228943, 0, 
301, 721361525, 0.6758303, 0.0015637778, -0.016056726, -0.7368808, 0.1029992327094078, 0.12091323733329773, 9.93321418762207, 1.0653795003890991, -0.7322542667388916, 0.5038082003593445, 0, 
302, 721378192, 0.6758527, 0.0015615438, -0.01601955, -0.73686093, 0.07977576553821564, 0.11858892440795898, 9.913251876831055, 1.0475274324417114, -0.7569448947906494, 0.47595441341400146, 0, 
303, 721394859, 0.6758874, 0.0015598428, -0.015968416, -0.7368302, 0.09160520136356354, 0.12578806281089783, 9.902950286865234, 0.9789366722106934, -0.6873296499252319, 0.5653811097145081, 0, 
304, 721411526, 0.67590624, 0.0015490027, -0.015931228, -0.7368138, 0.08430467545986176, 0.13124492764472961, 9.897771835327148, 1.004888653755188, -0.799090564250946, 0.4316764175891876, 0, 
305, 721428193, 0.67593473, 0.0015459476, -0.01588466, -0.7367887, 0.0795651450753212, 0.1331826001405716, 9.90380859375, 0.9933949708938599, -0.7153114676475525, 0.4988521635532379, 0, 
306, 721444860, 0.6759496, 0.0015518952, -0.01584165, -0.736776, 0.07804975658655167, 0.1359131932258606, 9.919678688049316, 1.0503575801849365, -0.6862794756889343, 0.38971641659736633, 0, 
307, 721461527, 0.67597747, 0.001546872, -0.015797708, -0.73675144, 0.09800522029399872, 0.1354357898235321, 9.9011812210083, 0.9948611259460449, -0.7355775237083435, 0.505517840385437, 0, 
308, 721478194, 0.67599845, 0.0015438787, -0.015751924, -0.7367331, 0.09465155005455017, 0.13854917883872986, 9.901474952697754, 0.9937471747398376, -0.7146648168563843, 0.5316940546035767, 0, 
309, 721494861, 0.67601824, 0.0015407068, -0.01571283, -0.7367158, 0.09109480679035187, 0.13025657832622528, 9.907441139221191, 1.0246487855911255, -0.747986912727356, 0.44762033224105835, 0, 
310, 721511528, 0.6760436, 0.001540458, -0.015674852, -0.7366934, 0.07892093807458878, 0.13942094147205353, 9.908729553222656, 1.0431668758392334, -0.7361026406288147, 0.5006514191627502, 0, 
311, 721528195, 0.6760659, 0.0015478812, -0.01563122, -0.7366737, 0.07288115471601486, 0.13608676195144653, 9.915352821350098, 1.0488337278366089, -0.67039954662323, 0.503142237663269, 0, 
312, 721544862, 0.67608917, 0.0015461349, -0.015590421, -0.73665327, 0.08664380013942719, 0.14262813329696655, 9.90953540802002, 1.0186489820480347, -0.7301539778709412, 0.475762277841568, 0, 
313, 721561529, 0.67611593, 0.001547437, -0.015544937, -0.7366296, 0.08347896486520767, 0.12337468564510345, 9.915582656860352, 1.0071297883987427, -0.6911394596099854, 0.4965149462223053, 0, 
314, 721578196, 0.67613363, 0.0015382147, -0.015504848, -0.7366143, 0.07732468098402023, 0.12276259064674377, 9.904457092285156, 0.9849236607551575, -0.771025538444519, 0.42876943945884705, 0, 
315, 721594863, 0.6761516, 0.0015256458, -0.015460391, -0.7365988, 0.09106061607599258, 0.12755407392978668, 9.882200241088867, 0.9464083909988403, -0.7654995918273926, 0.4749939441680908, 0, 
316, 721611530, 0.6761714, 0.0015296047, -0.0154204285, -0.7365813, 0.09643255919218063, 0.12009158730506897, 9.911443710327148, 1.045337438583374, -0.7013525366783142, 0.490732878446579, 0, 
317, 721628197, 0.67618984, 0.0015283484, -0.015382251, -0.73656523, 0.08777632564306259, 0.1256062090396881, 9.91375732421875, 1.0282474756240845, -0.7355966567993164, 0.46996739506721497, 0, 
318, 721644864, 0.67621243, 0.0015265824, -0.015340442, -0.7365453, 0.0922188013792038, 0.13855449855327606, 9.913516998291016, 1.0076675415039062, -0.719249427318573, 0.5282106995582581, 0, 
319, 721661531, 0.6762386, 0.0015286459, -0.015299647, -0.7365222, 0.08662378042936325, 0.1473393440246582, 9.90423583984375, 1.0288364887237549, -0.7040610909461975, 0.5127918124198914, 0, 
320, 721678198, 0.6762599, 0.0015165625, -0.015264287, -0.7365034, 0.08363436907529831, 0.13721249997615814, 9.919600486755371, 0.989264965057373, -0.8005953431129456, 0.501560628414154, 0, 
321, 721694865, 0.67627764, 0.0015158606, -0.01522489, -0.7364879, 0.0831771045923233, 0.12405623495578766, 9.90466022491455, 1.0197311639785767, -0.7226302623748779, 0.4983975291252136, 0, 
322, 721711532, 0.67629296, 0.001512386, -0.015196083, -0.7364745, 0.08866627514362335, 0.13757236301898956, 9.892294883728027, 1.059328556060791, -0.7868669629096985, 0.42866697907447815, 0, 
323, 721728199, 0.6763081, 0.0015144665, -0.015159812, -0.7364613, 0.09265115112066269, 0.1344228982925415, 9.89545726776123, 1.0468167066574097, -0.7216891050338745, 0.49657905101776123, 0, 
324, 721744866, 0.67633146, 0.0015159812, -0.015124724, -0.73644054, 0.08218264579772949, 0.12288814783096313, 9.910612106323242, 1.0481356382369995, -0.7290719151496887, 0.5149816870689392, 0, 
325, 721761533, 0.6763569, 0.0015122833, -0.015079774, -0.73641825, 0.10129052400588989, 0.13899964094161987, 9.920049667358398, 0.9737436771392822, -0.7091196775436401, 0.5346907377243042, 0, 
326, 721778200, 0.6763594, 0.0015080231, -0.015036295, -0.7364167, 0.10185842961072922, 0.1363992840051651, 9.901265144348145, 0.9761254787445068, -0.7182888984680176, 0.39875131845474243, 0, 
327, 721794867, 0.67637247, 0.0015068648, -0.014998433, -0.7364055, 0.09318438172340393, 0.1255464404821396, 9.8894681930542, 1.0178359746932983, -0.7265490293502808, 0.4682898223400116, 0, 
328, 721811534, 0.67638636, 0.0015035631, -0.0149677405, -0.7363935, 0.07993696630001068, 0.1332346349954605, 9.902993202209473, 1.0438200235366821, -0.7711023688316345, 0.4432790279388428, 0, 
329, 721828201, 0.67640775, 0.0014894002, -0.014941051, -0.73637444, 0.08849525451660156, 0.12072406709194183, 9.899348258972168, 1.0127710103988647, -0.841658890247345, 0.5636777877807617, 0, 
330, 721844868, 0.67641944, 0.0014932137, -0.014906742, -0.7363642, 0.0893767923116684, 0.12344221770763397, 9.904051780700684, 1.055025577545166, -0.716662585735321, 0.42130327224731445, 0, 
331, 721861535, 0.676435, 0.0015017227, -0.014866164, -0.73635083, 0.10622048377990723, 0.12173020094633102, 9.908889770507812, 1.0455807447433472, -0.6625236868858337, 0.4649537205696106, 0, 
332, 721878202, 0.67644954, 0.0014985326, -0.014827296, -0.7363382, 0.09069284051656723, 0.12911537289619446, 9.91800594329834, 0.9991834759712219, -0.726120114326477, 0.5182666182518005, 0, 
333, 721894869, 0.67646664, 0.001490062, -0.014796615, -0.7363231, 0.0872030109167099, 0.12135506421327591, 9.91110610961914, 1.0146214962005615, -0.7917077541351318, 0.5119466185569763, 0, 
334, 721911536, 0.676478, 0.0014860225, -0.014766475, -0.7363133, 0.09724500775337219, 0.1306157112121582, 9.88586139678955, 1.036699652671814, -0.7707437872886658, 0.4493108093738556, 0, 
335, 721928203, 0.6764839, 0.0014886953, -0.014728804, -0.7363085, 0.0886152908205986, 0.11637651920318604, 9.901241302490234, 1.0289198160171509, -0.7013397812843323, 0.43707430362701416, 0, 
336, 721944870, 0.6764937, 0.0014830916, -0.014697098, -0.7363003, 0.08207422494888306, 0.1267751008272171, 9.916776657104492, 1.0195581912994385, -0.7694438695907593, 0.45072585344314575, 0, 
337, 721961537, 0.67651236, 0.0014810729, -0.014661008, -0.7362837, 0.08040590584278107, 0.12229911237955093, 9.932517051696777, 1.013552188873291, -0.7303077578544617, 0.5072787404060364, 0, 
338, 721978204, 0.6765229, 0.0014730543, -0.0146273365, -0.73627484, 0.10449767112731934, 0.1301523894071579, 9.90077018737793, 0.9970639944076538, -0.7706798315048218, 0.46476802229881287, 0, 
339, 721994871, 0.67653686, 0.0014802295, -0.01458509, -0.73626286, 0.08852885663509369, 0.12139382213354111, 9.91341495513916, 1.0235475301742554, -0.6524514555931091, 0.5251755714416504, 0, 
340, 722011538, 0.6765504, 0.0014789585, -0.014554812, -0.736251, 0.09604812413454056, 0.12971056997776031, 9.897618293762207, 1.044281005859375, -0.7494852542877197, 0.5498790144920349, 0, 
341, 722028205, 0.6765651, 0.0014859502, -0.01452096, -0.7362381, 0.0799562931060791, 0.12727858126163483, 9.916126251220703, 1.062171459197998, -0.6919975280761719, 0.4616689383983612, 0, 
342, 722044872, 0.6765744, 0.0014820832, -0.014492789, -0.7362302, 0.09175430983304977, 0.1318138986825943, 9.935464859008789, 1.0408488512039185, -0.7709102630615234, 0.5149816870689392, 0, 
343, 722061539, 0.67659366, 0.0014734201, -0.014464039, -0.7362131, 0.09206581860780716, 0.1339331567287445, 9.9088716506958, 1.0138914585113525, -0.7922967672348022, 0.533525288105011, 0, 
344, 722078206, 0.67659855, 0.0014737188, -0.014440921, -0.736209, 0.09820127487182617, 0.13536202907562256, 9.88744068145752, 1.0828791856765747, -0.7717938423156738, 0.5183882713317871, 0, 
345, 722094873, 0.6766118, 0.0014747587, -0.0144016165, -0.7361976, 0.09192278981208801, 0.11546112596988678, 9.900537490844727, 1.003147006034851, -0.6926122903823853, 0.48607784509658813, 0, 
346, 722111540, 0.6766184, 0.0014735257, -0.0143678915, -0.7361923, 0.09466908872127533, 0.1171656996011734, 9.898702621459961, 1.0198657512664795, -0.7289758920669556, 0.47419992089271545, 0, 
347, 722128207, 0.67662174, 0.0014683848, -0.014327258, -0.73618996, 0.0961112305521965, 0.12126468122005463, 9.900431632995605, 0.9661815166473389, -0.7153499126434326, 0.4574492573738098, 0, 
348, 722144874, 0.67662555, 0.0014627035, -0.01428327, -0.7361873, 0.09447886794805527, 0.12879729270935059, 9.908493995666504, 0.9447179436683655, -0.7026075720787048, 0.42392224073410034, 0, 
349, 722161541, 0.6766274, 0.0014479258, -0.014257165, -0.7361862, 0.0849761813879013, 0.14088252186775208, 9.932366371154785, 0.9935358762741089, -0.8294032216072083, 0.47386693954467773, 0, 
350, 722178208, 0.67662656, 0.0014327907, -0.014226165, -0.7361877, 0.09046473354101181, 0.13054221868515015, 9.89649486541748, 0.9661878943443298, -0.8064926266670227, 0.537815511226654, 0, 
351, 722194875, 0.6766438, 0.0014192464, -0.014198169, -0.7361724, 0.08456338196992874, 0.1341102123260498, 9.909008026123047, 0.9867997169494629, -0.8132289052009583, 0.5447757244110107, 0, 
352, 722211542, 0.676658, 0.0014163976, -0.014173475, -0.7361597, 0.09832347184419632, 0.13629043102264404, 9.890562057495117, 1.0526372194290161, -0.7728760838508606, 0.5631400346755981, 0, 
353, 722228209, 0.6766653, 0.0014134111, -0.014150127, -0.7361534, 0.07285068184137344, 0.13038702309131622, 9.93242359161377, 1.0576380491256714, -0.7780305743217468, 0.5459859371185303, 0, 
354, 722244876, 0.67666864, 0.0013988459, -0.014127884, -0.73615086, 0.0849136933684349, 0.12483704090118408, 9.908470153808594, 1.0075267553329468, -0.8433300852775574, 0.4831707775592804, 0, 
355, 722261543, 0.6766723, 0.0013839428, -0.014111132, -0.7361479, 0.08422376215457916, 0.1362706422805786, 9.909612655639648, 1.033280372619629, -0.8690324425697327, 0.5073747634887695, 0, 
356, 722278210, 0.67666924, 0.0013753338, -0.014087023, -0.7361512, 0.08685674518346786, 0.13224376738071442, 9.90381908416748, 1.0244439840316772, -0.8030093908309937, 0.44671112298965454, 0, 
357, 722294877, 0.6766595, 0.0013619632, -0.014063363, -0.7361606, 0.09367959946393967, 0.1199890747666359, 9.876363754272461, 1.0023529529571533, -0.8283339142799377, 0.42344191670417786, 0, 
358, 722311544, 0.6659043, 0.0014607277, -0.007659356, -0.7459965, 0.08057184517383575, 0.13817067444324493, 9.916584968566895, 1.0513628721237183, -0.7740734815597534, 0.46383312344551086, 0, 
359, 722328211, 0.66592014, 0.0014493769, -0.0076656556, -0.74598217, 0.08160348981618881, 0.14373178780078888, 9.897879600524902, 0.9967950582504272, -0.8296914100646973, 0.5338582992553711, 0, 
360, 722344878, 0.6659228, 0.0014379395, -0.0076831183, -0.7459797, 0.0883241593837738, 0.10233735293149948, 9.866135597229004, 1.0523170232772827, -0.8828442096710205, 0.4129343628883362, 0, 
361, 722361545, 0.66592836, 0.0014343219, -0.007686423, -0.7459748, 0.1088789850473404, 0.1252540946006775, 9.89482593536377, 1.0159341096878052, -0.7768971920013428, 0.44071128964424133, 0, 
362, 722378212, 0.66593766, 0.0014321043, -0.007683504, -0.7459665, 0.09399759769439697, 0.11871473491191864, 9.918424606323242, 0.9904367923736572, -0.7405015826225281, 0.4783620238304138, 0, 
363, 722394879, 0.6659466, 0.0014249458, -0.0076815425, -0.7459585, 0.06150120124220848, 0.12391522526741028, 9.908038139343262, 0.9724246263504028, -0.7712303996086121, 0.47912395000457764, 0, 
364, 722411546, 0.6659602, 0.0014145855, -0.0076943077, -0.7459463, 0.08736676722764969, 0.1277785450220108, 9.904060363769531, 1.034631371498108, -0.8540170788764954, 0.528012216091156, 0, 
365, 722428213, 0.66596574, 0.0014170769, -0.007695964, -0.7459413, 0.10130203515291214, 0.15260890126228333, 9.9053316116333, 1.034932255744934, -0.7379082441329956, 0.4575836658477783, 0, 
366, 722444880, 0.66598135, 0.0014147417, -0.007705854, -0.7459273, 0.09666555374860764, 0.128122478723526, 9.921711921691895, 1.0561524629592896, -0.7996477484703064, 0.5562438368797302, 0, 
367, 722461547, 0.66598946, 0.0014023966, -0.0077042994, -0.74592, 0.07274998724460602, 0.12692320346832275, 9.90490436553955, 0.9509610533714294, -0.7986487746238708, 0.4938640296459198, 0, 
368, 722478214, 0.6659941, 0.001389977, -0.007703247, -0.745916, 0.09190823882818222, 0.13607870042324066, 9.903671264648438, 0.9539577960968018, -0.8018248081207275, 0.46761107444763184, 0, 
369, 722494881, 0.6660023, 0.0013767936, -0.0077021383, -0.74590874, 0.10452248901128769, 0.11700236797332764, 9.886631965637207, 0.9497252106666565, -0.8052760362625122, 0.5074323415756226, 0, 
370, 722511548, 0.6660046, 0.0013605289, -0.007697825, -0.7459067, 0.0876399427652359, 0.11888647824525833, 9.911395072937012, 0.9189836978912354, -0.8063262701034546, 0.4585953950881958, 0, 
371, 722528215, 0.66601056, 0.0013446335, -0.007688085, -0.74590147, 0.08948273956775665, 0.11549294739961624, 9.87414836883545, 0.8926026225090027, -0.779554545879364, 0.4992939829826355, 0, 
372, 722544882, 0.66601485, 0.0013312368, -0.0076930434, -0.74589765, 0.09828747063875198, 0.12795387208461761, 9.915887832641602, 0.9803260564804077, -0.8342376351356506, 0.4897404611110687, 0, 
373, 722561549, 0.66601515, 0.0013237965, -0.007684016, -0.7458974, 0.1033594012260437, 0.11101804673671722, 9.928872108459473, 0.9347482323646545, -0.7394706010818481, 0.4575580656528473, 0, 
374, 722578216, 0.6660108, 0.001329076, -0.007684081, -0.7459014, 0.09791751205921173, 0.13817448914051056, 9.897196769714355, 1.0406055450439453, -0.7158173322677612, 0.4173973798751831, 0, 
375, 722594883, 0.66600907, 0.0013226402, -0.007683885, -0.7459029, 0.0911564975976944, 0.11053389310836792, 9.900333404541016, 0.9851861596107483, -0.7750915288925171, 0.4476523697376251, 0, 
376, 722611550, 0.6660128, 0.0013238159, -0.00767492, -0.7458997, 0.07610967755317688, 0.13320526480674744, 9.888477325439453, 0.9747297763824463, -0.6954233050346375, 0.5003185272216797, 0, 
377, 722628217, 0.6660127, 0.001313126, -0.00767839, -0.7458998, 0.0895223394036293, 0.15307201445102692, 9.914205551147461, 0.9850196838378906, -0.8133952617645264, 0.46873167157173157, 0, 
378, 722644884, 0.66600966, 0.0013018925, -0.0076891496, -0.7459024, 0.08793492615222931, 0.13115860521793365, 9.906135559082031, 1.0192253589630127, -0.8493940234184265, 0.44469407200813293, 0, 
379, 722661551, 0.66601104, 0.0012882039, -0.007697513, -0.74590105, 0.08655176311731339, 0.11720645427703857, 9.870376586914062, 0.9954887628555298, -0.8512444496154785, 0.48772984743118286, 0, 
380, 722678218, 0.66602385, 0.0012865126, -0.0076953643, -0.7458896, 0.09283407777547836, 0.13577976822853088, 9.895965576171875, 0.9972689151763916, -0.7400341629981995, 0.5947781205177307, 0, 
381, 722694885, 0.66602296, 0.0012863564, -0.0076958574, -0.7458904, 0.09124190360307693, 0.12213709205389023, 9.918428421020508, 1.0181944370269775, -0.74610435962677, 0.46931424736976624, 0, 
382, 722711552, 0.6660202, 0.0012779157, -0.0076997727, -0.7458929, 0.07814785838127136, 0.14192599058151245, 9.89838981628418, 0.9962252378463745, -0.803931474685669, 0.45381224155426025, 0, 
383, 722728219, 0.6660232, 0.001272261, -0.007693466, -0.7458903, 0.10278074443340302, 0.13436156511306763, 9.89755916595459, 0.957466721534729, -0.7422495484352112, 0.5078229904174805, 0, 
384, 722744886, 0.6660279, 0.0012713154, -0.00769263, -0.7458861, 0.10103128105401993, 0.12600955367088318, 9.903708457946777, 1.00747549533844, -0.7434919476509094, 0.5246889591217041, 0, 
385, 722761553, 0.6660356, 0.001279851, -0.0076928865, -0.74587923, 0.09437594562768936, 0.12060275673866272, 9.915532112121582, 1.0559604167938232, -0.6988489627838135, 0.5529910326004028, 0, 
386, 722778220, 0.6660327, 0.0012833605, -0.007696402, -0.74588174, 0.10166332870721817, 0.12766899168491364, 9.896987915039062, 1.0499286651611328, -0.7412124276161194, 0.45703303813934326, 0, 
387, 722794887, 0.6660375, 0.0012870706, -0.0076895524, -0.7458775, 0.09435988962650299, 0.12817128002643585, 9.918399810791016, 0.9976146817207336, -0.6912676095962524, 0.5279033780097961, 0, 
388, 722811554, 0.66604334, 0.0012863264, -0.00768267, -0.7458724, 0.0834193006157875, 0.13836315274238586, 9.889052391052246, 0.9768683910369873, -0.7147672176361084, 0.5383790135383606, 0, 
389, 722828221, 0.66605204, 0.001284728, -0.0076841065, -0.7458647, 0.08998586237430573, 0.13607564568519592, 9.903046607971191, 1.0162862539291382, -0.7562726140022278, 0.5645807981491089, 0, 
390, 722844888, 0.6660526, 0.0012867964, -0.0076799733, -0.7458643, 0.09540152549743652, 0.1361030638217926, 9.910436630249023, 1.0036592483520508, -0.7133969664573669, 0.49029114842414856, 0, 
391, 722861555, 0.66604847, 0.0012994625, -0.007673515, -0.7458679, 0.10180377960205078, 0.1322450339794159, 9.901517868041992, 1.0399011373519897, -0.6478668451309204, 0.4479532539844513, 0, 
392, 722878222, 0.66605604, 0.0012894098, -0.007666943, -0.7458612, 0.10011323541402817, 0.11575385183095932, 9.916040420532227, 0.9360672831535339, -0.7634953856468201, 0.5569738149642944, 0, 
393, 722894889, 0.6660523, 0.0012942441, -0.0076674754, -0.74586445, 0.10661110281944275, 0.11120203882455826, 9.918288230895996, 1.0405031442642212, -0.7200178503990173, 0.4521409869194031, 0, 
394, 722911556, 0.66605186, 0.00129452, -0.00765691, -0.74586505, 0.09892831742763519, 0.12148149311542511, 9.90532398223877, 0.9620707035064697, -0.6929131746292114, 0.4835101068019867, 0, 
395, 722928223, 0.66583914, 0.0012888287, -0.007656897, -0.74605495, 0.0942293033003807, 0.1326126605272293, 9.895647048950195, 0.9968334436416626, -0.758065402507782, 0.4554322063922882, 0, 
396, 722944890, 0.6657764, 0.0012872551, -0.0076551726, -0.746111, 0.10424220561981201, 0.11625608056783676, 9.915624618530273, 1.001796007156372, -0.7389008402824402, 0.4623156487941742, 0, 
397, 722961557, 0.66574794, 0.0012919528, -0.0076511283, -0.7461364, 0.0997132658958435, 0.11920573562383652, 9.913378715515137, 1.0172532796859741, -0.6970240473747253, 0.5249515175819397, 0, 
398, 722978224, 0.6657146, 0.001296785, -0.0076520587, -0.7461661, 0.08596789091825485, 0.13456837832927704, 9.902201652526855, 1.0429491996765137, -0.7205812931060791, 0.43152278661727905, 0, 
399, 722994891, 0.66568875, 0.0013025908, -0.007651288, -0.7461892, 0.09214089065790176, 0.13583730161190033, 9.897340774536133, 1.038825511932373, -0.7072755098342896, 0.4596967101097107, 0, 
400, 723011558, 0.665676, 0.0013033315, -0.007645271, -0.7462006, 0.0936957523226738, 0.12158290296792984, 9.915081024169922, 0.9884709715843201, -0.7097470760345459, 0.5319245457649231, 0, 
401, 723028225, 0.6656531, 0.0013051027, -0.007642858, -0.746221, 0.09128004312515259, 0.12742529809474945, 9.891948699951172, 1.011317491531372, -0.7218619585037231, 0.42312178015708923, 0, 
402, 723044892, 0.6656433, 0.0013023458, -0.007644459, -0.74622977, 0.09198746830224991, 0.14738501608371735, 9.895551681518555, 1.0119450092315674, -0.7624197006225586, 0.5011892914772034, 0, 
403, 723061559, 0.6656297, 0.001312273, -0.0076382756, -0.746242, 0.0867130309343338, 0.14419744908809662, 9.932076454162598, 1.0294960737228394, -0.6620754599571228, 0.49686717987060547, 0, 
404, 723078226, 0.66561896, 0.0013088173, -0.007646797, -0.74625146, 0.09113684296607971, 0.14140714704990387, 9.932459831237793, 1.043256402015686, -0.7983798384666443, 0.506952166557312, 0, 
405, 723094893, 0.6656079, 0.001310627, -0.00764888, -0.7462613, 0.09929443150758743, 0.13377222418785095, 9.900720596313477, 1.0350476503372192, -0.7417117357254028, 0.4882548451423645, 0, 
406, 723111560, 0.66559213, 0.0013103142, -0.007645691, -0.74627537, 0.10052022337913513, 0.12285332381725311, 9.899638175964355, 0.9972112774848938, -0.7294241189956665, 0.4423249363899231, 0, 
407, 723128227, 0.6655847, 0.0013268001, -0.0076477076, -0.74628204, 0.0896129161119461, 0.13219936192035675, 9.91666030883789, 1.1017494201660156, -0.6654050946235657, 0.5316619873046875, 0, 
408, 723144894, 0.6655734, 0.0013293093, -0.0076476783, -0.7462921, 0.0807829275727272, 0.13525891304016113, 9.918549537658691, 1.027248501777649, -0.7283867597579956, 0.4878322184085846, 0, 
409, 723161561, 0.6655677, 0.0013394684, -0.0076506906, -0.74629724, 0.07703550904989243, 0.12423551082611084, 9.91515064239502, 1.0768859386444092, -0.7033055424690247, 0.5326160788536072, 0, 
410, 723178228, 0.6655657, 0.001330321, -0.007650467, -0.7462989, 0.0960625410079956, 0.12933826446533203, 9.916969299316406, 0.9733210802078247, -0.7875200510025024, 0.5711888074874878, 0, 
411, 723194895, 0.66556025, 0.0013266954, -0.007648004, -0.7463038, 0.10391910374164581, 0.12521947920322418, 9.922779083251953, 0.9862233996391296, -0.7487233281135559, 0.5394483208656311, 0, 
412, 723211562, 0.66555476, 0.0013277899, -0.0076470925, -0.7463087, 0.11081032454967499, 0.13030391931533813, 9.869218826293945, 1.0164399147033691, -0.7306662797927856, 0.5402870774269104, 0, 
413, 723228229, 0.66554505, 0.0013263283, -0.007646452, -0.7463173, 0.08205556869506836, 0.12801414728164673, 9.909749984741211, 1.005548119544983, -0.746225893497467, 0.5096734762191772, 0, 
414, 723244896, 0.6655303, 0.0013322599, -0.0076506324, -0.7463305, 0.08685120940208435, 0.13020925223827362, 9.919715881347656, 1.0635161399841309, -0.7308967709541321, 0.4534856081008911, 0, 
415, 723261563, 0.6655262, 0.001330574, -0.0076551144, -0.7463342, 0.09451146423816681, 0.13129572570323944, 9.899910926818848, 1.0306934118270874, -0.7698216438293457, 0.5527860522270203, 0, 
416, 723278230, 0.6655175, 0.0013283786, -0.0076491046, -0.74634194, 0.09671299159526825, 0.12416642159223557, 9.885343551635742, 0.974742591381073, -0.7258959412574768, 0.5049159526824951, 0, 
417, 723294897, 0.66550803, 0.0013429032, -0.0076413983, -0.74635047, 0.09909328073263168, 0.13672548532485962, 9.903520584106445, 1.0426098108291626, -0.6316732168197632, 0.5058316588401794, 0, 
418, 723311564, 0.6654985, 0.001350195, -0.0076402216, -0.74635893, 0.0854266956448555, 0.12212660908699036, 9.896907806396484, 1.0422574281692505, -0.6985927224159241, 0.4878450334072113, 0, 
419, 723328231, 0.6654911, 0.0013510502, -0.007636041, -0.74636555, 0.09567047655582428, 0.10858409106731415, 9.886984825134277, 0.9973456263542175, -0.7182248830795288, 0.5075668692588806, 0, 
420, 723344898, 0.66547644, 0.0013644088, -0.0076341406, -0.74637866, 0.11166689544916153, 0.11769560724496841, 9.9052095413208, 1.0668714046478271, -0.6647199988365173, 0.4632056653499603, 0, 
421, 723361565, 0.665464, 0.0013597043, -0.0076273517, -0.7463898, 0.09014549106359482, 0.1366892158985138, 9.897101402282715, 0.9593044519424438, -0.7345722317695618, 0.47746551036834717, 0, 
422, 723378232, 0.6654566, 0.0013512631, -0.0076306444, -0.7463963, 0.08438899368047714, 0.12723515927791595, 9.921544075012207, 0.9935870170593262, -0.7999230623245239, 0.5145527124404907, 0, 
423, 723394899, 0.66545016, 0.001349888, -0.0076359524, -0.74640214, 0.1018591970205307, 0.14891821146011353, 9.901924133300781, 1.0360785722732544, -0.7725815176963806, 0.5256814360618591, 0, 
424, 723411566, 0.6654485, 0.0013506573, -0.007643879, -0.74640334, 0.11109832674264908, 0.14223961532115936, 9.894962310791016, 1.0597702264785767, -0.7734395265579224, 0.5756390690803528, 0, 
425, 723428233, 0.6654383, 0.0013416688, -0.0076402784, -0.7464126, 0.09366849064826965, 0.13800446689128876, 9.936657905578613, 0.9556225538253784, -0.7706668972969055, 0.49148210883140564, 0, 
426, 723444900, 0.6654302, 0.0013456595, -0.0076360703, -0.7464199, 0.07205774635076523, 0.1310102939605713, 9.915106773376465, 1.012201189994812, -0.7019992470741272, 0.5124717354774475, 0, 
427, 723461567, 0.66541904, 0.0013462002, -0.007636999, -0.7464298, 0.08400968462228775, 0.1251096874475479, 9.908698081970215, 1.0227152109146118, -0.742889940738678, 0.48250484466552734, 0, 
428, 723478234, 0.66540474, 0.0013577973, -0.0076380405, -0.74644256, 0.09708584100008011, 0.116185262799263, 9.885894775390625, 1.0731209516525269, -0.6873103976249695, 0.45029687881469727, 0, 
429, 723494901, 0.66539747, 0.0013591807, -0.0076343315, -0.74644905, 0.09855092316865921, 0.12092031538486481, 9.898652076721191, 1.002993106842041, -0.7169826030731201, 0.5179911255836487, 0, 
430, 723511568, 0.6653875, 0.0013470359, -0.0076358686, -0.74645793, 0.09337803721427917, 0.12621834874153137, 9.9073486328125, 0.967513382434845, -0.8114486932754517, 0.49032312631607056, 0, 
431, 723528235, 0.66537803, 0.0013539658, -0.0076263067, -0.7464665, 0.09060876071453094, 0.11498285084962845, 9.90308666229248, 0.9971983432769775, -0.662216305732727, 0.497469037771225, 0, 
432, 723544902, 0.6653633, 0.0013594393, -0.0076247286, -0.7464797, 0.0905609130859375, 0.13111069798469543, 9.9117431640625, 1.0321661233901978, -0.7060076594352722, 0.4476587772369385, 0, 
433, 723561569, 0.6653522, 0.0013606921, -0.007625915, -0.74648947, 0.10117296129465103, 0.1268274188041687, 9.909893989562988, 1.0271462202072144, -0.7412188053131104, 0.4863723814487457, 0, 
434, 723578236, 0.6653445, 0.0013655132, -0.0076165986, -0.74649644, 0.10362950712442398, 0.13526339828968048, 9.909114837646484, 0.9892392754554749, -0.6735691428184509, 0.5093084573745728, 0, 
435, 723594903, 0.66533595, 0.0013628681, -0.007612055, -0.74650407, 0.09430290013551712, 0.14156441390514374, 9.923645973205566, 0.9794042110443115, -0.7348860502243042, 0.4981158375740051, 0, 
436, 723611570, 0.66533077, 0.0013586625, -0.0076141153, -0.74650866, 0.08898305147886276, 0.1320938616991043, 9.911978721618652, 1.0072323083877563, -0.7718963623046875, 0.5370470881462097, 0, 
437, 723628237, 0.66532695, 0.00135475, -0.0076196687, -0.746512, 0.09195950627326965, 0.1292637586593628, 9.904224395751953, 1.0255324840545654, -0.786431610584259, 0.5503016710281372, 0, 
438, 723644904, 0.6653224, 0.0013484254, -0.0076129544, -0.7465161, 0.09656402468681335, 0.12682439386844635, 9.912978172302246, 0.9517679810523987, -0.7433381676673889, 0.5444363355636597, 0, 
439, 723661571, 0.6653122, 0.0013430325, -0.0076048523, -0.7465253, 0.09643033146858215, 0.12113725394010544, 9.904040336608887, 0.9488736987113953, -0.7318509221076965, 0.4928011894226074, 0, 
440, 723678238, 0.66530687, 0.0013342986, -0.007602099, -0.74653006, 0.0965038537979126, 0.13376781344413757, 9.874146461486816, 0.9608732461929321, -0.7733690738677979, 0.5303366184234619, 0, 
441, 723694905, 0.66530246, 0.0013454336, -0.007599991, -0.746534, 0.09207697212696075, 0.1233360767364502, 9.903366088867188, 1.0556658506393433, -0.6748113632202148, 0.5365860462188721, 0, 
442, 723711572, 0.665302, 0.0013408462, -0.007594033, -0.7465346, 0.09186343103647232, 0.12583400309085846, 9.89896011352539, 0.9633705615997314, -0.7376393675804138, 0.5748002529144287, 0, 
443, 723728239, 0.66529316, 0.0013498379, -0.007585265, -0.7465426, 0.09380001574754715, 0.11471346765756607, 9.89795207977295, 1.0111125707626343, -0.6550768613815308, 0.5028926134109497, 0, 
444, 723744906, 0.6652793, 0.0013494364, -0.0075872806, -0.74655485, 0.0974048376083374, 0.14686287939548492, 9.903204917907715, 1.0236371755599976, -0.753403902053833, 0.45284539461135864, 0, 
445, 723761573, 0.665267, 0.0013426989, -0.0075897044, -0.7465658, 0.08514875173568726, 0.12032799422740936, 9.91865348815918, 0.9962315559387207, -0.7868157625198364, 0.46955758333206177, 0, 
446, 723778240, 0.6652577, 0.0013340884, -0.007587143, -0.7465741, 0.10372453927993774, 0.12234704941511154, 9.905902862548828, 0.9628582000732422, -0.7745087146759033, 0.5024570822715759, 0, 
447, 723794907, 0.6652476, 0.0013268163, -0.007587662, -0.7465831, 0.09514373540878296, 0.12600651383399963, 9.907771110534668, 0.9842960238456726, -0.7809696197509766, 0.4903295338153839, 0, 
448, 723811574, 0.66523546, 0.0013255939, -0.0075904336, -0.74659395, 0.07658639550209045, 0.1305677741765976, 9.891059875488281, 1.0237524509429932, -0.7602297067642212, 0.4755125939846039, 0, 
449, 723828241, 0.66522586, 0.0013258961, -0.007581619, -0.7466026, 0.08391111344099045, 0.1280825287103653, 9.90047550201416, 0.9712144136428833, -0.7000719308853149, 0.48805639147758484, 0, 
450, 723844908, 0.66521406, 0.0013275803, -0.007573272, -0.7466132, 0.10394401848316193, 0.1347561776638031, 9.90269660949707, 0.9790839552879333, -0.6945331692695618, 0.47662678360939026, 0, 
451, 723861575, 0.66520715, 0.0013389586, -0.0075748106, -0.7466192, 0.09392949938774109, 0.12484109401702881, 9.912971496582031, 1.0751186609268188, -0.6899357438087463, 0.5185035467147827, 0, 
452, 723878242, 0.66519725, 0.0013475802, -0.0075745443, -0.7466281, 0.09598858654499054, 0.12377318739891052, 9.916250228881836, 1.0528483390808105, -0.6962108016014099, 0.48793473839759827, 0, 
453, 723894909, 0.6651893, 0.0013496949, -0.0075730993, -0.7466352, 0.08502420783042908, 0.1256401687860489, 9.915836334228516, 1.0176821947097778, -0.7239878177642822, 0.5104867219924927, 0, 
454, 723911576, 0.66517293, 0.0013405328, -0.007572766, -0.74664974, 0.1006297916173935, 0.12853877246379852, 9.901389122009277, 0.9704266786575317, -0.7880450487136841, 0.4291151463985443, 0, 
455, 723928243, 0.6651657, 0.0013511282, -0.0075742328, -0.7466562, 0.09841903299093246, 0.11784408241510391, 9.87572193145752, 1.0714176893234253, -0.69367516040802, 0.5107044577598572, 0, 
456, 723944910, 0.6651522, 0.001347001, -0.0075710756, -0.74666834, 0.09767800569534302, 0.12408267706632614, 9.930328369140625, 0.9792888164520264, -0.7481021285057068, 0.46466562151908875, 0, 
457, 723961577, 0.6651386, 0.0013439665, -0.007575516, -0.74668026, 0.08531923592090607, 0.1388944834470749, 9.904175758361816, 1.0238292217254639, -0.7775182723999023, 0.45294779539108276, 0, 
458, 723978244, 0.6651221, 0.0013450372, -0.007553503, -0.74669516, 0.08639086782932281, 0.12537920475006104, 9.903692245483398, 0.9060876965522766, -0.6365459561347961, 0.4236980080604553, 0, 
459, 723994911, 0.66511416, 0.0013545895, -0.0075150514, -0.7467026, 0.10487072914838791, 0.12774042785167694, 9.895425796508789, 0.8614703416824341, -0.5159998536109924, 0.5040963292121887, 0, 
460, 724011578, 0.66510534, 0.0013680134, -0.0074322214, -0.7467114, 0.09232792258262634, 0.12311205267906189, 9.908994674682617, 0.6509082913398743, -0.2939889132976532, 0.5068496465682983, 0, 
461, 724028245, 0.66504276, 0.0013929448, -0.007347029, -0.7467679, 0.06604181230068207, 0.11657006293535233, 9.869950294494629, 0.6896987557411194, -0.2268964797258377, 0.004046806134283543, 0, 
462, 724044912, 0.66480136, 0.0013727015, -0.0073497524, -0.7469828, 0.39771896600723267, 0.1720248907804489, 9.91347885131836, 0.9277687072753906, -0.871734619140625, -1.6475049257278442, 0, 
463, 724061579, 0.6644548, 0.0013524981, -0.0075029107, -0.7472897, -0.15721707046031952, 0.0788237601518631, 9.894558906555176, 1.6975198984146118, -1.565031886100769, -2.595597267150879, 0, 
464, 724078246, 0.6642016, 0.0013198005, -0.0075434824, -0.74751425, -0.02613164857029915, 0.10732197016477585, 9.905577659606934, 1.064489483833313, -1.1089338064193726, -1.737546443939209, 0, 
465, 724094913, 0.6637405, 0.001291462, -0.007575685, -0.74792355, 0.08133234083652496, 0.1261400431394577, 9.896916389465332, 1.0340489149093628, -1.0616145133972168, -3.657756805419922, 0, 
466, 724111580, 0.6628683, 0.0012505035, -0.0076502576, -0.74869597, -0.11603567749261856, -0.020805226638913155, 9.913700103759766, 1.179247260093689, -1.3450191020965576, -7.441982269287109, 0, 
467, 724128247, 0.66054153, 0.0012460474, -0.007804127, -0.750748, -0.2804378271102905, -0.13475222885608673, 9.917243003845215, 1.6992131471633911, -1.6057074069976807, -20.751907348632812, 0, 
468, 724144914, 0.6582364, 0.0012622923, -0.0076097273, -0.752772, 0.41994568705558777, 0.29258766770362854, 9.89965534210205, -0.0027085470501333475, 0.08370242267847061, -20.51793670654297, 0, 
469, 724161581, 0.65678114, 0.0012450116, -0.0076226178, -0.75404173, 0.30676063895225525, 0.23526114225387573, 9.889250755310059, 0.9508718252182007, -0.9767471551895142, -12.704936027526855, 0, 
470, 724178248, 0.6559752, 0.001304424, -0.007598711, -0.75474316, 0.21098101139068604, 0.24840861558914185, 9.927760124206543, 1.1292706727981567, -0.37359970808029175, -6.77441930770874, 0, 
471, 724194915, 0.65567064, 0.0013443235, -0.007574041, -0.755008, 0.12234713137149811, 0.15923021733760834, 9.918423652648926, 1.0562998056411743, -0.44092264771461487, -2.2053945064544678, 0, 
472, 724211582, 0.65564895, 0.0013470675, -0.0075613987, -0.7550268, 0.08774074912071228, 0.14807897806167603, 9.913917541503906, 0.9606875777244568, -0.671424150466919, 0.3774735927581787, 0, 
473, 724228249, 0.6556577, 0.0013443993, -0.0075676152, -0.7550191, 0.10510792583227158, 0.13225525617599487, 9.912946701049805, 1.035591959953308, -0.7819429039955139, 0.6522594094276428, 0, 
474, 724244916, 0.65575266, 0.0013474729, -0.007566239, -0.7549367, 0.11193989217281342, 0.12777777016162872, 9.902429580688477, 1.0244439840316772, -0.7134225368499756, 1.4388062953948975, 0, 
475, 724261583, 0.65598124, 0.0013485715, -0.0075595784, -0.7547381, 0.10349708050489426, 0.12176214158535004, 9.92327880859375, 0.994067370891571, -0.6909729838371277, 2.6567413806915283, 0, 
476, 724278250, 0.65630126, 0.00134352, -0.007563801, -0.75445986, 0.11318911612033844, 0.12841325998306274, 9.894002914428711, 1.0250202417373657, -0.7673757672309875, 3.487720012664795, 0, 
477, 724294917, 0.6566737, 0.0013309355, -0.0075622136, -0.75413567, 0.09071715921163559, 0.14755861461162567, 9.885885238647461, 0.9639339447021484, -0.7770316004753113, 3.9672915935516357, 0, 
478, 724311584, 0.6571201, 0.0012924009, -0.007567705, -0.75374675, 0.10995452851057053, 0.13906019926071167, 9.928398132324219, 0.8849444389343262, -0.9381740093231201, 4.646309852600098, 0, 
479, 724328251, 0.65769696, 0.0012801103, -0.007566238, -0.75324357, 0.08250820636749268, 0.13599558174610138, 9.907251358032227, 0.9729753136634827, -0.7638540267944336, 5.8351240158081055, 0, 
480, 724344918, 0.65884715, 0.0013707873, -0.0075131287, -0.75223804, 0.13666842877864838, 0.09708256274461746, 9.915816307067871, 1.1916440725326538, 0.03780435398221016, 11.073653221130371, 0, 
481, 724361585, 0.6597696, 0.0014028046, -0.0074266302, -0.75143003, 0.07523482292890549, 0.14526644349098206, 9.904821395874023, 0.746008574962616, -0.1279674917459488, 9.004377365112305, 0, 
482, 724378252, 0.66077036, 0.0014980597, -0.0072348323, -0.7505519, 0.12750142812728882, 0.10574541240930557, 9.914209365844727, 0.49082913994789124, 0.6809266209602356, 9.7219820022583, 0, 
483, 724394919, 0.66175836, 0.0017132494, -0.0069377716, -0.7496834, 0.06298968940973282, 0.10083585232496262, 9.89571475982666, 0.4923531115055084, 1.7770226001739502, 9.601422309875488, 0, 
484, 724411586, 0.6623848, 0.0019529865, -0.0066748685, -0.7491316, 0.0422280952334404, 0.089960016310215, 9.911330223083496, 0.7699306607246399, 1.7268598079681396, 6.298112392425537, 0, 
485, 724428253, 0.66280395, 0.0021821882, -0.0064840447, -0.74876195, 0.05533471331000328, 0.1073656976222992, 9.89897346496582, 1.08722722530365, 1.3330068588256836, 4.40366268157959, 0, 
486, 724444920, 0.66322726, 0.0022722583, -0.0063907276, -0.7483874, 0.04552121087908745, 0.12387658655643463, 9.912737846374512, 0.9552449584007263, 0.1726488322019577, 4.45477294921875, 0, 
487, 724461587, 0.6635347, 0.00226225, -0.006350219, -0.7481151, 0.03435179218649864, 0.11742944270372391, 9.910615921020508, 0.7676510214805603, -0.5903534889221191, 3.393413782119751, 0, 
488, 724478254, 0.66390723, 0.0023365815, -0.006228153, -0.74778545, 0.03759920969605446, 0.10670816153287888, 9.900036811828613, 0.7341369390487671, 0.21988506615161896, 3.983710527420044, 0, 
489, 724494921, 0.66437125, 0.0025288302, -0.0060979575, -0.74737364, 0.10693048685789108, 0.12591296434402466, 9.902993202209473, 1.233097791671753, 0.8680400252342224, 4.826623439788818, 0, 
490, 724511588, 0.66474533, 0.002709135, -0.0059720767, -0.7470414, 0.0755976215004921, 0.10330595821142197, 9.8903169631958, 1.1989558935165405, 0.7814561724662781, 3.9941465854644775, 0, 
491, 724528255, 0.665082, 0.002862756, -0.005868725, -0.746742, 0.04180014505982399, 0.1346408724784851, 9.908380508422852, 1.1923609972000122, 0.5400054454803467, 3.6613874435424805, 0, 
492, 724544922, 0.66528267, 0.0029306267, -0.0058181267, -0.7465633, 0.0356760174036026, 0.12180307507514954, 9.910323143005371, 1.068036675453186, -0.15005838871002197, 2.4138686656951904, 0, 
493, 724561589, 0.6654636, 0.0029740492, -0.0057651955, -0.7464022, 0.04412965476512909, 0.13092100620269775, 9.918761253356934, 0.9442762136459351, -0.26580220460891724, 2.233581066131592, 0, 
494, 724578256, 0.6655877, 0.0030223848, -0.005696041, -0.7462918, 0.025841960683465004, 0.14187926054000854, 9.896378517150879, 0.8830682039260864, -0.1692230999469757, 1.7109218835830688, 0, 
495, 724594923, 0.66573846, 0.0030758502, -0.005643172, -0.74615747, 0.0701504647731781, 0.10493341833353043, 9.895342826843262, 0.9895467162132263, -0.2162032127380371, 1.955939531326294, 0, 
496, 724611590, 0.6660516, 0.0029925085, -0.0054003266, -0.7458801, 0.02768661640584469, 0.13475295901298523, 9.90328598022461, -0.6083847880363464, -0.03896331787109375, 3.4467008113861084, 0, 
497, 724628257, 0.6663489, 0.00309471, -0.005187613, -0.7456157, 0.08441726118326187, 0.10891768336296082, 9.938794136047363, 0.3953447937965393, 0.7739133238792419, 3.293370485305786, 0, 
498, 724644924, 0.66642284, 0.0032644435, -0.005090246, -0.74554956, -0.10233743488788605, 0.044688597321510315, 9.920235633850098, 1.294164776802063, 0.5782259106636047, 1.240570306777954, 0, 
499, 724661591, 0.66651917, 0.0033680494, -0.004688133, -0.7454657, 0.10332139581441879, 0.20788954198360443, 9.876811981201172, -0.5714705586433411, 1.637426495552063, 1.4309110641479492, 0, 
500, 724678258, 0.6661829, 0.004101628, -0.0038929759, -0.7457671, 0.06740530580282211, 0.197483628988266, 9.988913536071777, 0.298490434885025, 6.644716262817383, -2.5788087844848633, 0, 
501, 724694925, 0.66587144, 0.0053169345, -0.002843344, -0.7460422, -0.03928692638874054, 0.07588876783847809, 9.92432975769043, 1.1993408203125, 10.281774520874023, -2.3471169471740723, 0, 
502, 724711592, 0.6656166, 0.0068036895, -0.0017093683, -0.746261, -0.06358758360147476, 0.13943763077259064, 9.979852676391602, 2.009291887283325, 12.063126564025879, -1.8185733556747437, 0, 
503, 724728259, 0.66507083, 0.008773113, -4.0006562E-4, -0.7467287, -0.10008940100669861, 0.14350779354572296, 9.95730209350586, 3.3285272121429443, 15.327472686767578, -4.457555294036865, 0, 
504, 724744926, 0.6646458, 0.0107560335, 8.194495E-4, -0.7470808, -0.14487324655056, 0.0965309739112854, 9.891648292541504, 3.8436052799224854, 14.99274730682373, -3.303375244140625, 0, 
505, 724761593, 0.6639906, 0.013020833, 0.0021749334, -0.7476244, -0.2433473765850067, 0.19406457245349884, 9.948634147644043, 4.450973987579346, 17.049814224243164, -5.368736267089844, 0, 
506, 724778260, 0.66360635, 0.015276525, 0.0038064115, -0.74791634, -0.18526415526866913, 0.07510892301797867, 9.933082580566406, 2.9623496532440186, 18.28077507019043, -2.8485584259033203, 0, 
507, 724794927, 0.6627922, 0.01788577, 0.006113903, -0.74856496, -0.5019474029541016, 0.08442921191453934, 10.083639144897461, 1.1532461643218994, 23.157392501831055, -6.749293327331543, 0, 
508, 724811594, 0.66198105, 0.021566087, 0.009085722, -0.7491552, -0.293548047542572, 0.18517029285430908, 9.955979347229004, 2.610417127609253, 31.704805374145508, -6.491222858428955, 0, 
509, 724828261, 0.6617691, 0.024787597, 0.01155225, -0.7492089, -0.2086765319108963, 0.14320306479930878, 9.7295503616333, 3.003429651260376, 27.08310317993164, -0.9354614615440369, 0, 
510, 724844928, 0.66197205, 0.027469583, 0.013463813, -0.748904, -0.584402322769165, 0.14134584367275238, 9.887319564819336, 3.306156873703003, 21.80756187438965, 2.905381441116333, 0, 
511, 724861595, 0.66249824, 0.030695485, 0.015306637, -0.7482778, -0.7205748558044434, 0.09339192509651184, 9.934669494628906, 6.044713497161865, 24.32674217224121, 6.079150199890137, 0, 
512, 724878262, 0.6631392, 0.03343357, 0.016703172, -0.7475624, -0.7097058892250061, 0.19935022294521332, 9.850168228149414, 6.08536958694458, 19.7898006439209, 7.115885257720947, 0, 
513, 724894929, 0.66442424, 0.03502883, 0.016838152, -0.74634445, -0.441367506980896, 0.29213201999664307, 9.6815767288208, 7.153557777404785, 8.206713676452637, 12.877388000488281, 0, 
514, 724911596, 0.6659074, 0.03616679, 0.01658183, -0.7449728, -0.7588213086128235, 0.20798645913600922, 9.845741271972656, 7.00532341003418, 4.0868940353393555, 14.637850761413574, 0, 
515, 724928263, 0.6672326, 0.036952443, 0.016271189, -0.7437543, -0.6830607652664185, 0.24318039417266846, 9.871054649353027, 5.728540420532227, 2.013697624206543, 13.098753929138184, 0, 
516, 724944930, 0.66890734, 0.03738084, 0.015596199, -0.7422415, -0.6504147052764893, 0.35829997062683105, 9.982010841369629, 5.829918384552002, -1.4491491317749023, 16.29124641418457, 0, 
517, 724961597, 0.67050254, 0.03799881, 0.014809578, -0.7407856, -1.056165099143982, 0.34528931975364685, 10.25207233428955, 7.298141956329346, -0.9999528527259827, 15.668585777282715, 0, 
518, 724978264, 0.67135453, 0.039529916, 0.015106668, -0.7399274, -1.0665597915649414, 0.15301018953323364, 10.130023002624512, 6.243854999542236, 8.565237998962402, 8.937378883361816, 0, 
519, 724994931, 0.6716553, 0.041720316, 0.016400935, -0.7395064, -1.0544939041137695, 0.240027517080307, 10.188803672790527, 4.409217357635498, 16.45970916748047, 3.909359931945801, 0, 
520, 725011598, 0.6715186, 0.044656243, 0.01833856, -0.7394136, -1.0526652336120605, 0.4171549081802368, 10.286886215209961, 4.7420854568481445, 23.17641258239746, 0.07459713518619537, 0, 
521, 725028265, 0.67142785, 0.04804977, 0.02055021, -0.739225, -0.8350569009780884, 0.4151650369167328, 10.0831937789917, 5.4357590675354, 26.791889190673828, 0.7182204127311707, 0, 
522, 725044932, 0.67159784, 0.05146598, 0.02272482, -0.73877686, -0.7364836931228638, 0.42158326506614685, 9.870933532714844, 5.605251789093018, 26.784488677978516, 3.254370927810669, 0, 
523, 725061599, 0.6720163, 0.054961953, 0.02488674, -0.7380746, -0.8247613310813904, 0.4995802044868469, 9.823042869567871, 5.910416603088379, 27.182785034179688, 5.704246520996094, 0, 
524, 725078266, 0.67262, 0.058027253, 0.02641465, -0.7372364, -1.1242347955703735, 0.372219055891037, 9.701830863952637, 7.044928073883057, 22.087860107421875, 7.430438041687012, 0, 
525, 725094933, 0.67306274, 0.060788337, 0.027927259, -0.73655385, -1.1875593662261963, 0.28573116660118103, 9.483216285705566, 5.814579486846924, 20.439891815185547, 5.791284561157227, 0, 
526, 725111600, 0.6732872, 0.0630671, 0.029277565, -0.73610455, -1.45929753780365, 0.28428763151168823, 9.580472946166992, 4.5408935546875, 17.19066047668457, 3.5809409618377686, 0, 
527, 725128267, 0.67328614, 0.064608514, 0.030031845, -0.73594135, -1.2625751495361328, 0.30155354738235474, 9.485355377197266, 4.2988762855529785, 10.621898651123047, 1.2263237237930298, 0, 
528, 725144934, 0.67356795, 0.06557783, 0.03051858, -0.73557776, -0.9901695251464844, 0.43909183144569397, 9.40511703491211, 2.838540554046631, 6.518151760101318, 3.5845746994018555, 0, 
529, 725161601, 0.674133, 0.06629897, 0.031072477, -0.73497206, -1.1239955425262451, 0.45792967081069946, 9.520363807678223, 1.170513391494751, 5.625036716461182, 6.056393146514893, 0, 
530, 725178268, 0.67430544, 0.06737078, 0.031880584, -0.7346816, -1.5338796377182007, 0.508897066116333, 9.925040245056152, 1.7571213245391846, 8.514778137207031, 2.570875406265259, 0, 
531, 725194935, 0.6744184, 0.06851749, 0.032424167, -0.7344481, -1.6529945135116577, 0.4035499393939972, 9.997193336486816, 3.4809205532073975, 7.653679370880127, 2.1437196731567383, 0, 
532, 725211602, 0.67455643, 0.06960899, 0.03286419, -0.73419905, -1.4010721445083618, 0.4149957001209259, 9.90195083618164, 3.732001781463623, 6.896502494812012, 2.3797531127929688, 0, 
533, 725228269, 0.6747698, 0.07070807, 0.03351251, -0.7338686, -1.4116497039794922, 0.3831433057785034, 9.797658920288086, 2.662517547607422, 7.921881675720215, 3.0383453369140625, 0, 
534, 725244936, 0.6748954, 0.071897015, 0.03431555, -0.73360044, -1.530247688293457, 0.5477110147476196, 9.89036750793457, 2.3551523685455322, 9.083251953125, 2.251574754714966, 0, 
535, 725261603, 0.67485684, 0.07331703, 0.03528784, -0.73344916, -1.5777753591537476, 0.4777899384498596, 9.825716018676758, 2.6821377277374268, 11.015849113464355, 0.8542864322662354, 0, 
536, 725278270, 0.67481536, 0.07457165, 0.036035504, -0.73332447, -1.5115832090377808, 0.46550866961479187, 9.692020416259766, 3.0555832386016846, 9.126358032226562, 0.7898190021514893, 0, 
537, 725294937, 0.67488617, 0.075605504, 0.03634523, -0.7331381, -1.5821263790130615, 0.5243889689445496, 9.817927360534668, 4.166419506072998, 5.984703540802002, 1.8101141452789307, 0, 
538, 725311604, 0.6749469, 0.07650367, 0.036379065, -0.73298746, -1.5454092025756836, 0.4905639886856079, 9.740239143371582, 4.941227912902832, 4.005147933959961, 1.7028604745864868, 0, 
539, 725328271, 0.6750814, 0.07728333, 0.036326505, -0.73278445, -1.4967783689498901, 0.5043169856071472, 9.663128852844238, 4.774668216705322, 3.0153448581695557, 2.3349051475524902, 0, 
540, 725344938, 0.67528754, 0.07797691, 0.03624011, -0.73252517, -1.575493574142456, 0.4541536867618561, 9.688383102416992, 4.494337558746338, 2.4377787113189697, 2.952965259552002, 0, 
541, 725361605, 0.6756493, 0.07861791, 0.035989337, -0.73213536, -1.520287036895752, 0.6168716549873352, 9.790438652038574, 4.961795330047607, 1.4402533769607544, 4.417973041534424, 0, 
542, 725378272, 0.67598444, 0.07941851, 0.035673674, -0.73175496, -1.6296849250793457, 0.5833345651626587, 9.859565734863281, 6.045917510986328, 1.9444011449813843, 4.314268112182617, 0, 
543, 725394939, 0.67629725, 0.08032511, 0.035571527, -0.7313719, -1.591160774230957, 0.4945354163646698, 9.752549171447754, 5.4762139320373535, 3.4763996601104736, 4.125143527984619, 0, 
544, 725411606, 0.67686486, 0.080946, 0.0354814, -0.73078233, -1.5001118183135986, 0.463507741689682, 9.60910415649414, 3.896716833114624, 2.1480863094329834, 6.287970066070557, 0, 
545, 725428273, 0.6774018, 0.08125322, 0.035341922, -0.73025733, -1.7208104133605957, 0.5093497633934021, 9.653368949890137, 2.717290163040161, 0.31330737471580505, 5.78507661819458, 0, 
546, 725444940, 0.6777254, 0.08169697, 0.035330817, -0.72990817, -1.79849112033844, 0.5721895694732666, 9.721735000610352, 2.870760917663574, 1.5507465600967407, 3.8567991256713867, 0, 
547, 725461607, 0.67791396, 0.082328364, 0.035451945, -0.7296561, -1.7033541202545166, 0.5763205885887146, 9.7052001953125, 3.1812002658843994, 3.086151599884033, 2.6973636150360107, 0, 
548, 725478274, 0.67793924, 0.08322063, 0.035831813, -0.72951275, -1.5691006183624268, 0.6358439326286316, 9.74025821685791, 3.2170968055725098, 5.57899808883667, 1.2893052101135254, 0, 
549, 725494941, 0.6779193, 0.08401211, 0.036242478, -0.7294203, -1.6526094675064087, 0.5310117602348328, 9.722622871398926, 2.631948232650757, 5.1997880935668945, 0.7829161882400513, 0, 
550, 725511608, 0.6778185, 0.08487679, 0.036916435, -0.7293801, -1.6345160007476807, 0.6110767126083374, 9.789244651794434, 1.7123758792877197, 6.783422946929932, 1.2806353879568633E-5, 0, 
551, 725528275, 0.6776248, 0.08598844, 0.037719518, -0.7293886, -1.777661681175232, 0.7082070112228394, 9.924857139587402, 2.282527446746826, 8.619251251220703, -0.7057260870933533, 0, 
552, 725544942, 0.67739266, 0.08726739, 0.03841412, -0.72941613, -1.867479920387268, 0.6489081978797913, 9.964784622192383, 3.6333162784576416, 8.951103210449219, -0.880212664604187, 0, 
553, 725561609, 0.67716014, 0.088575885, 0.039026067, -0.7294419, -1.687122106552124, 0.6587705016136169, 9.808113098144531, 4.185500144958496, 8.71603012084961, -0.815194845199585, 0, 
554, 725578276, 0.67691, 0.090096146, 0.040011965, -0.72943455, -1.8540308475494385, 0.5685436129570007, 9.745847702026367, 3.297559976577759, 11.543265342712402, -0.9208729863166809, 0, 
555, 725594943, 0.67665994, 0.09168731, 0.0412922, -0.72939694, -1.7955242395401, 0.6493924856185913, 9.770352363586426, 2.1426827907562256, 13.288159370422363, -0.9428359866142273, 0, 
556, 725611610, 0.6765177, 0.09319205, 0.04260362, -0.7292627, -1.8962759971618652, 0.6013413071632385, 9.682764053344727, 1.4893922805786133, 13.029674530029297, 0.004059615079313517, 0, 
557, 725628277, 0.6762925, 0.09478239, 0.04407438, -0.7291793, -1.9192287921905518, 0.6257659792900085, 9.574100494384766, 1.1563756465911865, 14.191967010498047, -0.7261013388633728, 0, 
558, 725644944, 0.67619544, 0.096319705, 0.045480553, -0.72898144, -1.9056981801986694, 0.6814059615135193, 9.636725425720215, 1.1159331798553467, 13.662014961242676, 0.47532081604003906, 0, 
559, 725661611, 0.67611504, 0.09764715, 0.046615735, -0.7288078, -2.014458179473877, 0.6324885487556458, 9.587932586669922, 1.49457848072052, 11.32907772064209, 0.5597529411315918, 0, 
560, 725678278, 0.6756947, 0.09922702, 0.04806575, -0.7288899, -1.9954174757003784, 0.6674299836158752, 9.627767562866211, 1.4001448154449463, 13.994226455688477, -2.461951971054077, 0, 
561, 725694945, 0.67506164, 0.10092114, 0.049691174, -0.7291349, -2.0018234252929688, 0.6291152834892273, 9.63895034790039, 1.2510660886764526, 15.340611457824707, -4.367909908294678, 0, 
562, 725711612, 0.6746264, 0.10232127, 0.05100762, -0.72925156, -1.9893574714660645, 0.6227541565895081, 9.58340835571289, 1.2546900510787964, 12.454463005065918, -2.6654703617095947, 0, 
563, 725728279, 0.6743435, 0.10344204, 0.052119542, -0.72927654, -2.1150848865509033, 0.5453687310218811, 9.539470672607422, 0.844361424446106, 10.116519927978516, -1.4310524463653564, 0, 
564, 725744946, 0.6742597, 0.10439251, 0.05310914, -0.72914696, -2.100724220275879, 0.6433066129684448, 9.61283016204834, 0.4715426564216614, 8.734251022338867, 0.30819764733314514, 0, 
565, 725761613, 0.6743595, 0.10536943, 0.05367567, -0.72887295, -2.241669178009033, 0.7183075547218323, 9.75954818725586, 2.531277656555176, 6.942451477050781, 2.212655544281006, 0, 
566, 725778280, 0.67461455, 0.106218375, 0.05389769, -0.7284972, -2.2493138313293457, 0.5380319952964783, 9.595609664916992, 3.5131537914276123, 4.719563961029053, 3.6640512943267822, 0, 
567, 725794947, 0.6746441, 0.107266575, 0.054538324, -0.7282685, -2.2880747318267822, 0.538054883480072, 9.527937889099121, 2.5607712268829346, 7.635903358459473, 1.6210025548934937, 0, 
568, 725811614, 0.6747828, 0.10824644, 0.05514077, -0.7279495, -2.3051743507385254, 0.6407196521759033, 9.59093952178955, 2.320216655731201, 7.14182186126709, 2.588496685028076, 0, 
569, 725828281, 0.6750416, 0.10915264, 0.05551996, -0.7275453, -2.427464485168457, 0.6416165232658386, 9.616338729858398, 2.9740707874298096, 5.755354881286621, 3.7226150035858154, 0, 
570, 725844948, 0.6751384, 0.11007856, 0.056180734, -0.72726524, -2.435774803161621, 0.5089903473854065, 9.423683166503906, 1.8265700340270996, 7.130128383636475, 2.1334612369537354, 0, 
571, 725861615, 0.67525107, 0.111015886, 0.05697459, -0.72695637, -2.306673049926758, 0.6416144967079163, 9.443568229675293, 1.1912341117858887, 7.819162368774414, 2.2490901947021484, 0, 
572, 725878282, 0.6754029, 0.112070866, 0.05778062, -0.7265896, -2.209459066390991, 0.7274924516677856, 9.494889259338379, 1.6234999895095825, 8.49316120147705, 2.7506253719329834, 0, 
573, 725894949, 0.675685, 0.11316742, 0.05837023, -0.7261102, -2.2684881687164307, 0.7878731489181519, 9.613935470581055, 2.7530839443206787, 7.7312331199646, 4.107279300689697, 0, 
574, 725911616, 0.6758386, 0.11418315, 0.058790874, -0.7257743, -2.33964467048645, 0.6910844445228577, 9.53477954864502, 3.3778932094573975, 6.482767581939697, 2.898564338684082, 0, 
575, 725928283, 0.6761211, 0.11502883, 0.059001826, -0.7253603, -2.280200481414795, 0.7379768490791321, 9.483089447021484, 3.5018584728240967, 4.668927192687988, 4.001075744628906, 0, 
576, 725944950, 0.67654616, 0.11566506, 0.05914762, -0.7248507, -2.304079294204712, 0.7075061202049255, 9.415753364562988, 2.701256275177002, 3.339691400527954, 5.123257637023926, 0, 
577, 725961617, 0.67672193, 0.116467826, 0.05964403, -0.7245174, -2.482238531112671, 0.7157965898513794, 9.549190521240234, 1.9982389211654663, 5.760834217071533, 2.847709894180298, 0, 
578, 725978284, 0.67656225, 0.117611, 0.060363762, -0.72442216, -2.5443124771118164, 0.8342337012290955, 9.70140266418457, 2.836427927017212, 8.443164825439453, 0.030760863795876503, 0, 
579, 725994951, 0.6764219, 0.11870307, 0.061014343, -0.7243207, -2.501230239868164, 0.6888599395751953, 9.555231094360352, 2.924086809158325, 7.864482402801514, 0.19148056209087372, 0, 
580, 726011618, 0.6762408, 0.119803846, 0.061946575, -0.72422945, -2.4727673530578613, 0.7407038807868958, 9.55993938446045, 1.6000514030456543, 9.22533893585205, -0.2847684919834137, 0, 
581, 726028285, 0.67609096, 0.120747544, 0.06289199, -0.72413105, -2.5344855785369873, 0.6786426305770874, 9.523573875427246, 0.7753734588623047, 8.497834205627441, -0.17476189136505127, 0, 
582, 726044952, 0.67596954, 0.121601656, 0.0639704, -0.7240071, -2.464259147644043, 0.6673581600189209, 9.367568969726562, -0.33836308121681213, 8.67943000793457, -0.06356433779001236, 0, 
583, 726061619, 0.675726, 0.12281662, 0.06529578, -0.723911, -2.6432108879089355, 0.7989351749420166, 9.600394248962402, 0.22461064159870148, 11.652731895446777, -0.8482736349105835, 0, 
584, 726078286, 0.67556536, 0.12411037, 0.06624956, -0.72375345, -2.760016918182373, 0.7564495205879211, 9.61950397491455, 2.3413093090057373, 10.334012031555176, 0.19926689565181732, 0, 
585, 726094953, 0.6755612, 0.12519722, 0.06680506, -0.723519, -2.6215765476226807, 0.6949227452278137, 9.486860275268555, 3.194403886795044, 7.4486494064331055, 1.5813157558441162, 0, 
586, 726111620, 0.6757243, 0.12618725, 0.06730515, -0.7231484, -2.617765426635742, 0.7133132815361023, 9.392987251281738, 2.813594341278076, 6.749614238739014, 3.0488085746765137, 0, 
587, 726128287, 0.67602754, 0.12707143, 0.067756906, -0.7226678, -2.5829076766967773, 0.7404888868331909, 9.391045570373535, 2.390075206756592, 6.029640197753906, 4.24817419052124, 0, 
588, 726144954, 0.6763203, 0.12791912, 0.06820658, -0.7222019, -2.676596164703369, 0.7007232904434204, 9.39743423461914, 2.2460296154022217, 5.831321716308594, 4.114399433135986, 0, 
589, 726161621, 0.6767933, 0.12857258, 0.068295464, -0.72163415, -2.7116215229034424, 0.7542189955711365, 9.459704399108887, 2.9283385276794434, 3.193545341491699, 5.707213878631592, 0, 
590, 726178288, 0.6772437, 0.12915395, 0.06834165, -0.72110313, -2.7409157752990723, 0.6839830875396729, 9.391144752502441, 2.8417420387268066, 2.6155436038970947, 5.429457664489746, 0, 
591, 726194955, 0.6774304, 0.12991446, 0.068763815, -0.72075105, -2.811394691467285, 0.7064803838729858, 9.42593002319336, 2.130387783050537, 5.219472408294678, 3.0390241146087646, 0, 
592, 726211622, 0.67762846, 0.13066031, 0.06918455, -0.7203896, -2.8293662071228027, 0.6942731738090515, 9.469176292419434, 2.054804801940918, 5.143466472625732, 3.13289475440979, 0, 
593, 726228289, 0.67764926, 0.13138252, 0.06973521, -0.7201855, -2.7580955028533936, 0.7295520305633545, 9.376460075378418, 1.5354559421539307, 5.573938369750977, 1.3945475816726685, 0, 
594, 726244956, 0.6777995, 0.13191397, 0.069884725, -0.7199325, -2.7128169536590576, 0.8610755801200867, 9.481026649475098, 2.4917826652526855, 2.742518186569214, 2.5334672927856445, 0, 
595, 726261623, 0.6779884, 0.13243751, 0.06980811, -0.71966594, -2.8619484901428223, 0.7660696506500244, 9.459820747375488, 3.5335662364959717, 1.6438997983932495, 2.9898087978363037, 0, 
596, 726278290, 0.6780903, 0.13312875, 0.06994539, -0.71942896, -2.7733585834503174, 0.8158035278320312, 9.44241714477539, 3.3493733406066895, 3.4850947856903076, 2.3075125217437744, 0, 
597, 726294957, 0.6780477, 0.13392955, 0.07043357, -0.71927273, -2.8219995498657227, 0.7691071629524231, 9.398229598999023, 2.296037435531616, 5.659138202667236, 0.9477211236953735, 0, 
598, 726311624, 0.6781184, 0.13459505, 0.070825495, -0.7190434, -2.6971726417541504, 0.839398980140686, 9.393264770507812, 2.0014281272888184, 4.552735328674316, 1.8716485500335693, 0, 
599, 726328291, 0.67818356, 0.13499784, 0.071049586, -0.7188844, -2.8631176948547363, 0.7554667592048645, 9.322442054748535, 1.6465123891830444, 2.41005277633667, 1.5437670946121216, 0, 
600, 726344958, 0.67808646, 0.13552204, 0.071284756, -0.71885395, -2.863889455795288, 0.8905584812164307, 9.488592147827148, 2.3704683780670166, 3.0211591720581055, 0.19251790642738342, 0, 
601, 726361625, 0.67799664, 0.13621812, 0.07147109, -0.7187886, -2.880582332611084, 0.8594210743904114, 9.511602401733398, 3.3887135982513428, 3.6724514961242676, 0.5202707648277283, 0, 
602, 726378292, 0.6778445, 0.13706301, 0.07170578, -0.71874833, -2.8759517669677734, 0.820368230342865, 9.513346672058105, 3.915541648864746, 4.6402788162231445, 0.12254397571086884, 0, 
603, 726394959, 0.6776123, 0.13793576, 0.072216146, -0.71874917, -2.8363029956817627, 0.7398389577865601, 9.371014595031738, 2.777479887008667, 6.063563823699951, -0.710220992565155, 0, 
604, 726411626, 0.6775046, 0.13862252, 0.07282412, -0.71865714, -2.7857346534729004, 0.8216902017593384, 9.320452690124512, 1.264614224433899, 5.625202178955078, 0.15222908556461334, 0, 
605, 726428293, 0.67728823, 0.1396448, 0.07357297, -0.718587, -3.004199266433716, 0.9351966977119446, 9.560914993286133, 2.2465672492980957, 7.973324775695801, -0.4522627890110016, 0, 
606, 726444960, 0.67697376, 0.14099617, 0.074349165, -0.7185394, -3.0528388023376465, 0.8534565567970276, 9.558183670043945, 3.749213933944702, 9.7547025680542, -0.9027135372161865, 0, 
607, 726461627, 0.67687815, 0.14216657, 0.074954845, -0.718336, -2.976768732070923, 0.7474115490913391, 9.3460054397583, 3.457087516784668, 8.105524063110352, 0.9764202833175659, 0, 
608, 726478294, 0.6770089, 0.1433029, 0.0754043, -0.71793985, -2.981227397918701, 0.913261890411377, 9.495863914489746, 3.74998140335083, 7.28178071975708, 3.1263375282287598, 0, 
609, 726494961, 0.6770971, 0.14462344, 0.07605304, -0.71752334, -3.153654098510742, 0.8193726539611816, 9.449885368347168, 3.6552534103393555, 9.16172981262207, 2.910743236541748, 0, 
610, 726511628, 0.67699414, 0.14618473, 0.077159666, -0.7171858, -3.145596742630005, 0.7794857621192932, 9.372425079345703, 2.748154401779175, 12.502026557922363, 1.2712485790252686, 0, 
611, 726528295, 0.6769386, 0.14774367, 0.07822853, -0.7168028, -3.050891876220703, 0.9110292792320251, 9.36882209777832, 2.851860284805298, 12.334583282470703, 1.7525755167007446, 0, 
612, 726544962, 0.67715025, 0.14888377, 0.07879666, -0.71630466, -3.0177977085113525, 0.8407502770423889, 9.223795890808105, 3.0363481044769287, 7.913788318634033, 3.8894431591033936, 0, 
613, 726561629, 0.6775322, 0.14969084, 0.07911235, -0.71574026, -3.024998903274536, 0.8198574185371399, 9.122698783874512, 2.5198800563812256, 5.073453903198242, 5.11431884765625, 0, 
614, 726578296, 0.67793846, 0.15016629, 0.07933193, -0.7152316, -3.0886433124542236, 0.8048028945922852, 9.068737030029297, 1.4526115655899048, 2.9242663383483887, 4.892423152923584, 0, 
615, 726594963, 0.6781701, 0.15058404, 0.07953665, -0.7149012, -3.1739437580108643, 0.8666523098945618, 9.195550918579102, 1.5350077152252197, 2.481499433517456, 3.1872317790985107, 0, 
616, 726611630, 0.6782722, 0.15115154, 0.07970371, -0.71466607, -3.2336769104003906, 0.8659006357192993, 9.288596153259277, 2.6037745475769043, 3.0146279335021973, 2.226384401321411, 0, 
617, 726628297, 0.6782339, 0.15187033, 0.08015727, -0.7144993, -3.2064685821533203, 0.7987967729568481, 9.223422050476074, 2.085232734680176, 5.100205898284912, 1.0040563344955444, 0, 
618, 726644964, 0.67813706, 0.15248452, 0.08090573, -0.7143759, -3.1501944065093994, 0.7723210453987122, 9.109582901000977, 0.23383121192455292, 5.94806432723999, 0.14847685396671295, 0, 
619, 726661631, 0.67799884, 0.15284108, 0.081609994, -0.71435094, -3.1872572898864746, 0.8519374132156372, 9.156351089477539, -0.6515294313430786, 4.396151065826416, -0.6104594469070435, 0, 
620, 726678298, 0.6778384, 0.15321498, 0.08211757, -0.7143648, -3.251854658126831, 0.9968123435974121, 9.380416870117188, 0.44017988443374634, 3.536921977996826, -0.6850693821907043, 0, 
621, 726694965, 0.67769104, 0.15366265, 0.08261243, -0.71435136, -3.377492904663086, 0.8390042185783386, 9.345624923706055, 0.817301332950592, 3.860999584197998, -0.4381501376628876, 0, 
622, 726711632, 0.6774585, 0.15440595, 0.083384134, -0.71432203, -3.2978568077087402, 0.9473727345466614, 9.460962295532227, 0.915372371673584, 6.667844295501709, -0.9058379530906677, 0, 
623, 726728299, 0.6771153, 0.15541759, 0.08418381, -0.7143344, -3.309600353240967, 1.0335564613342285, 9.560652732849121, 2.1692681312561035, 8.134761810302734, -1.5205814838409424, 0, 
624, 726744966, 0.67699957, 0.15617411, 0.0844468, -0.71424806, -3.115374803543091, 0.996166467666626, 9.345020294189453, 3.317664623260498, 4.3579630851745605, 0.48172369599342346, 0, 
