sep=,
DeviceTag:,Xsens_2,,,,,,,,,,,,,,,,,
FirmwareVersion:,2.2.1,,,,,,,,,,,,,,,,,
AppVersion:,2023.0.0,,,,,,,,,,,,,,,,,
StartTime:,2023-07-03 13:37:04.000 +0200,,,,,,,,,,,,,,,,,
© Movella Technologies B. V. 2005-2023,,,,,,,,,,,,,,,,,,,

PacketCounter,SampleTimeFine,Quat_W,Quat_X,Quat_Y,Quat_Z,Acc_X,Acc_Y,Acc_Z,Gyr_X,Gyr_Y,Gyr_Z,Mag_X,Mag_Y,Mag_Z,Status,
0, 2072431934, 0.12955654, -0.66111016, -0.16748175, -0.7197906, 0.0, 0.0, 0.0, 0.0, 0.0, 0.0, -1.09912109375, -0.549560546875, 0.15771484375, 0, 
1, 2072448601, 0.12899774, -0.6610275, -0.16768253, -0.7199201, 9.923032760620117, 0.7888380885124207, 0.7483423352241516, 1.0304181575775146, -0.8128446936607361, -0.03301477059721947, -1.097412109375, -0.550048828125, 0.159912109375, 0, 
2, 2072465268, 0.12829934, -0.6607404, -0.16805746, -0.72022104, 9.908568382263184, 0.8726028203964233, 0.7464830279350281, -0.8792070746421814, -1.2355949878692627, -0.21987223625183105, -1.097900390625, -0.549072265625, 0.16552734375, 0, 
3, 2072481935, 0.12786108, -0.6603231, -0.16907944, -0.7204424, 9.914246559143066, 0.8226719498634338, 0.6957916021347046, -0.937373697757721, -1.4086217880249023, -0.30329278111457825, -1.09423828125, -0.548583984375, 0.159423828125, 0, 
4, 2072498602, 0.1273328, -0.6601993, -0.16967149, -0.7205102, 9.924578666687012, 0.7609209418296814, 0.6762563586235046, -0.8381370902061462, -1.3568456172943115, -0.15914450585842133, -1.09619140625, -0.551025390625, 0.158935546875, 0, 
5, 2072515269, 0.12708871, -0.6602441, -0.17002451, -0.72042906, 9.930331230163574, 0.7114849090576172, 0.6803627610206604, -0.056873004883527756, -1.267892837524414, 0.11147287487983704, -1.09619140625, -0.55224609375, 0.161376953125, 0, 
6, 2072531936, 0.12720236, -0.6603392, -0.17028095, -0.7202613, 9.933379173278809, 0.7099689245223999, 0.6870648264884949, 0.6089099049568176, -1.1355262994766235, 0.4287374019622803, -1.092529296875, -0.552001953125, 0.162353515625, 0, 
7, 2072548603, 0.1274041, -0.6604484, -0.170442, -0.7200873, 9.945413589477539, 0.7682703137397766, 0.6175643801689148, 0.641604483127594, -1.020806908607483, 0.377819299697876, -1.09375, -0.54736328125, 0.159912109375, 0, 
8, 2072565270, 0.12748337, -0.6606108, -0.17051333, -0.71990734, 9.959518432617188, 0.8311691880226135, 0.6364626884460449, -0.11834347248077393, -0.8538633584976196, 0.263906866312027, -1.092529296875, -0.551513671875, 0.16259765625, 0, 
9, 2072581937, 0.12738712, -0.66077363, -0.17053825, -0.719769, 9.967679977416992, 0.8629720211029053, 0.5821322202682495, -1.026057481765747, -0.7361986637115479, -0.016020743176341057, -1.091064453125, -0.551513671875, 0.15966796875, 0, 
10, 2072598604, 0.1271177, -0.6609284, -0.17053325, -0.7196757, 9.975817680358887, 0.7946963310241699, 0.5239638686180115, -0.9610652327537537, -0.31266704201698303, -0.3475003242492676, -1.0947265625, -0.550537109375, 0.16162109375, 0, 
11, 2072615271, 0.12697245, -0.6610418, -0.17068703, -0.71956074, 9.966789245605469, 0.7089938521385193, 0.5558606386184692, -0.4567640423774719, 0.08151882141828537, -0.6542123556137085, -1.092041015625, -0.553955078125, 0.159912109375, 0, 
12, 2072631938, 0.12700342, -0.66112304, -0.17088075, -0.71943474, 9.9705228805542, 0.691269040107727, 0.6436282396316528, 1.727902889251709, 0.4921671748161316, -0.30616137385368347, -1.08984375, -0.555908203125, 0.1591796875, 0, 
13, 2072648605, 0.12714358, -0.6611496, -0.17106405, -0.7193421, 9.981059074401855, 0.8378527760505676, 0.5872496366500854, 2.9149107933044434, 0.8255037069320679, -0.07947620004415512, -1.091552734375, -0.5537109375, 0.158935546875, 0, 
14, 2072665272, 0.12703668, -0.66120493, -0.17110988, -0.71929914, 9.975238800048828, 0.8619569540023804, 0.5560234785079956, 0.7194414138793945, 0.6504281163215637, -0.5287229418754578, -1.091064453125, -0.552978515625, 0.157958984375, 0, 
15, 2072681939, 0.12659152, -0.6613256, -0.1709227, -0.71931136, 9.982308387756348, 0.8117297887802124, 0.5357615351676941, -2.040550947189331, 0.39463409781455994, -0.9347097873687744, -1.090576171875, -0.552490234375, 0.15966796875, 0, 
16, 2072698606, 0.12628652, -0.66136885, -0.17090806, -0.71932864, 9.987666130065918, 0.6869266629219055, 0.5368814468383789, -1.1599736213684082, 0.7858937382698059, -1.1582576036453247, -1.091064453125, -0.5546875, 0.157470703125, 0, 
17, 2072715273, 0.12623776, -0.6613503, -0.1710842, -0.7193122, 9.988349914550781, 0.6205807328224182, 0.5507184267044067, 1.5979443788528442, 1.1134802103042603, -0.988573431968689, -1.091064453125, -0.55322265625, 0.1591796875, 0, 
18, 2072731940, 0.12640122, -0.6612937, -0.17139229, -0.7192624, 9.97506332397461, 0.7091375589370728, 0.6032159924507141, 2.647066354751587, 1.1932252645492554, -0.8691413998603821, -1.08984375, -0.55322265625, 0.156982421875, 0, 
19, 2072748607, 0.12648354, -0.6612197, -0.17163354, -0.7192583, 9.950613975524902, 0.8147250413894653, 0.5986952185630798, 2.878668785095215, 1.4112533330917358, -1.034368872642517, -1.091064453125, -0.55126953125, 0.158203125, 0, 
20, 2072765274, 0.1264739, -0.661144, -0.17182405, -0.719284, 9.934556007385254, 0.8140217065811157, 0.6252140998840332, 1.7918068170547485, 1.36782705783844, -1.2303956747055054, -1.088623046875, -0.554931640625, 0.1572265625, 0, 
21, 2072781941, 0.12624018, -0.6610823, -0.17181359, -0.7193843, 9.910215377807617, 0.8095019459724426, 0.6198614835739136, 0.3466358482837677, 1.4934444427490234, -1.3678333759307861, -1.088134765625, -0.554931640625, 0.15869140625, 0, 
22, 2072798608, 0.12612638, -0.66099936, -0.17191808, -0.7194554, 9.927193641662598, 0.761403501033783, 0.60955810546875, 0.6189884543418884, 1.3513578176498413, -1.3142900466918945, -1.084228515625, -0.556884765625, 0.156005859375, 0, 
23, 2072815275, 0.12613828, -0.6609149, -0.17211947, -0.71948284, 9.953506469726562, 0.7027645707130432, 0.6358492374420166, 1.889634609222412, 1.1811105012893677, -1.1015766859054565, -1.087646484375, -0.5576171875, 0.154296875, 0, 
24, 2072831942, 0.12609625, -0.66088486, -0.17220943, -0.7194963, 9.943992614746094, 0.6958709955215454, 0.6486306190490723, 2.48016095161438, 0.9265329837799072, -0.7582127451896667, -1.089111328125, -0.55615234375, 0.154541015625, 0, 
25, 2072848609, 0.12630264, -0.6608133, -0.17245102, -0.7194681, 9.954534530639648, 0.7303216457366943, 0.6589205861091614, 2.8939855098724365, 0.9087194204330444, -0.3941154479980469, -1.087890625, -0.5556640625, 0.159423828125, 0, 
26, 2072865276, 0.1264282, -0.6607967, -0.17257851, -0.71943057, 9.92751693725586, 0.7902500033378601, 0.6774342656135559, 1.5497794151306152, 0.5006961822509766, -0.25085076689720154, -1.088134765625, -0.554443359375, 0.154541015625, 0, 
27, 2072881943, 0.12641802, -0.6608224, -0.17255071, -0.7194154, 9.956808090209961, 0.7824276685714722, 0.648749053478241, 0.43870076537132263, 0.32581275701522827, -0.13775789737701416, -1.08837890625, -0.555908203125, 0.15771484375, 0, 
28, 2072898610, 0.1263692, -0.6608655, -0.17249279, -0.7193983, 9.956640243530273, 0.7958205342292786, 0.6632362604141235, 0.28488367795944214, 0.18613389134407043, -0.140652135014534, -1.0869140625, -0.55859375, 0.15283203125, 0, 
29, 2072915277, 0.12633745, -0.66091114, -0.17244942, -0.7193724, 9.950342178344727, 0.7622042298316956, 0.6383064985275269, 0.6652963161468506, 0.11753027886152267, -0.07458418607711792, -1.088134765625, -0.557373046875, 0.155517578125, 0, 
30, 2072931944, 0.126358, -0.6609434, -0.17242391, -0.71934533, 9.93673324584961, 0.7355991005897522, 0.5995118618011475, 1.6270917654037476, 0.2523043155670166, 0.13043910264968872, -1.086669921875, -0.558837890625, 0.155029296875, 0, 
31, 2072948611, 0.12644857, -0.6609385, -0.17243128, -0.7193321, 9.986034393310547, 0.7451398968696594, 0.6477720737457275, 1.183172345161438, 0.4745585024356842, 0.19810782372951508, -1.08642578125, -0.5556640625, 0.156494140625, 0, 
32, 2072965278, 0.12657711, -0.66089505, -0.17254312, -0.71932256, 9.9495267868042, 0.7145156264305115, 0.6016223430633545, 2.07565975189209, 0.6267363429069519, -0.13130350410938263, -1.08203125, -0.558349609375, 0.15576171875, 0, 
33, 2072981945, 0.1268022, -0.6608533, -0.1727132, -0.71928036, 9.947728157043457, 0.6865466833114624, 0.5920669436454773, 2.129945755004883, 0.4735340178012848, 0.0480942502617836, -1.08642578125, -0.556396484375, 0.153564453125, 0, 
34, 2072998612, 0.12685268, -0.6608402, -0.17265798, -0.7192969, 9.962992668151855, 0.7297587394714355, 0.614939272403717, 1.0507545471191406, 0.6647199392318726, 0.22897112369537354, -1.0869140625, -0.5556640625, 0.15283203125, 0, 
35, 2073015279, 0.12678687, -0.660859, -0.17252688, -0.7193227, 9.985596656799316, 0.788038432598114, 0.603976845741272, 1.2445273399353027, 0.5620514750480652, 0.10180407017469406, -1.088134765625, -0.556396484375, 0.15576171875, 0, 
36, 2073031946, 0.12698305, -0.6608043, -0.17265312, -0.71930796, 9.971207618713379, 0.7190249562263489, 0.5768524408340454, 2.1057162284851074, 0.6875025033950806, 0.08163408935070038, -1.0849609375, -0.556396484375, 0.155029296875, 0, 
37, 2073048613, 0.12710333, -0.66075975, -0.17270325, -0.7193156, 9.98853588104248, 0.7018902897834778, 0.5845030546188354, 1.7629923820495605, 0.7547230124473572, 0.06528037041425705, -1.088134765625, -0.55615234375, 0.154296875, 0, 
38, 2073065280, 0.12733102, -0.6606554, -0.17287505, -0.71933, 9.944442749023438, 0.6787003874778748, 0.6234117150306702, 2.64684796333313, 1.086138367652893, -0.05999774485826492, -1.086181640625, -0.557373046875, 0.15283203125, 0, 
39, 2073081947, 0.12750745, -0.66053665, -0.17301159, -0.71937495, 9.927739143371582, 0.7046059370040894, 0.5857257843017578, 3.4037680625915527, 1.351191520690918, -0.13258415460586548, -1.08544921875, -0.5546875, 0.154541015625, 0, 
40, 2073098614, 0.12777336, -0.66041714, -0.17322204, -0.7193868, 9.909974098205566, 0.7185061573982239, 0.6122086644172668, 3.5088820457458496, 1.191291332244873, -0.04941970109939575, -1.0869140625, -0.5556640625, 0.15283203125, 0, 
41, 2073115281, 0.12803745, -0.66028917, -0.17342569, -0.7194084, 9.90871524810791, 0.7746603488922119, 0.5831356048583984, 3.4406886100769043, 1.2739694118499756, -0.046845629811286926, -1.0859375, -0.555908203125, 0.154052734375, 0, 
42, 2073131948, 0.12822974, -0.6601513, -0.1735812, -0.71946305, 9.9385347366333, 0.7482381463050842, 0.6498925685882568, 2.8808844089508057, 1.4347145557403564, -0.204914391040802, -1.086669921875, -0.55322265625, 0.154296875, 0, 
43, 2073148615, 0.12842451, -0.660014, -0.17380112, -0.71950114, 9.936384201049805, 0.7749871015548706, 0.6253646016120911, 2.5860822200775146, 1.2358319759368896, -0.5056203007698059, -1.08447265625, -0.5556640625, 0.154052734375, 0, 
44, 2073165282, 0.1285982, -0.6599002, -0.17398994, -0.719529, 9.949044227600098, 0.7095263004302979, 0.6576792597770691, 3.4415595531463623, 1.161222219467163, -0.3406745195388794, -1.08642578125, -0.552978515625, 0.15380859375, 0, 
45, 2073181949, 0.12872744, -0.6598128, -0.17409825, -0.7195598, 9.954391479492188, 0.7105245590209961, 0.638317883014679, 2.7570085525512695, 1.04310941696167, -0.1750243902206421, -1.086181640625, -0.552734375, 0.1552734375, 0, 
46, 2073198616, 0.128963, -0.6596946, -0.17432298, -0.71957165, 9.927699089050293, 0.7364697456359863, 0.6016972064971924, 2.9859092235565186, 1.0559539794921875, -0.2605835795402527, -1.087646484375, -0.55419921875, 0.152099609375, 0, 
47, 2073215283, 0.12910876, -0.65962017, -0.17446895, -0.71957827, 9.925649642944336, 0.7394902110099792, 0.600170910358429, 3.366488218307495, 0.8778688311576843, -0.20365937054157257, -1.086669921875, -0.555419921875, 0.154296875, 0, 
48, 2073231950, 0.12940799, -0.659507, -0.17478284, -0.71955216, 9.935264587402344, 0.7732692956924438, 0.6186561584472656, 3.2334561347961426, 0.8171923756599426, -0.33952194452285767, -1.087890625, -0.5537109375, 0.154296875, 0, 
49, 2073248617, 0.12949847, -0.6594824, -0.17493345, -0.7195219, 9.933115005493164, 0.7491633892059326, 0.6605103611946106, 2.9437379837036133, 0.37893345952033997, -0.4046421945095062, -1.0869140625, -0.552001953125, 0.155029296875, 0, 
50, 2073265284, 0.12954253, -0.659504, -0.17500743, -0.7194759, 9.956790924072266, 0.7715886831283569, 0.6456127762794495, 1.4901533126831055, 0.012940816581249237, -0.2716483175754547, -1.0859375, -0.552490234375, 0.154541015625, 0, 
51, 2073281951, 0.12954052, -0.6595377, -0.17504875, -0.71943533, 9.948890686035156, 0.7091154456138611, 0.6329436898231506, 2.530886650085449, 0.061028655618429184, -0.23362621665000916, -1.084716796875, -0.5546875, 0.156005859375, 0, 
52, 2073298618, 0.12956235, -0.6595721, -0.17512406, -0.7193816, 9.951273918151855, 0.7185748219490051, 0.675359845161438, 2.120802164077759, -0.06465926021337509, -0.31052839756011963, -1.0849609375, -0.553466796875, 0.155029296875, 0, 
53, 2073315285, 0.12943333, -0.65962106, -0.17509252, -0.7193676, 9.931654930114746, 0.8169418573379517, 0.6338348984718323, 0.6496212482452393, -0.06868045032024384, -0.6069697141647339, -1.08544921875, -0.552734375, 0.15771484375, 0, 
54, 2073331952, 0.12936938, -0.6596517, -0.1751759, -0.71933067, 9.90536880493164, 0.7885413765907288, 0.5991225838661194, 1.229979395866394, -0.13765546679496765, -0.8141252994537354, -1.08837890625, -0.552734375, 0.155029296875, 0, 
55, 2073348619, 0.12930578, -0.6596556, -0.17526834, -0.7193161, 9.949040412902832, 0.7611806392669678, 0.6401676535606384, 1.2878128290176392, 0.0926603451371193, -0.8954582810401917, -1.084228515625, -0.55322265625, 0.15234375, 0, 
56, 2073365286, 0.12918727, -0.65966666, -0.17530471, -0.7193184, 9.945722579956055, 0.6738408803939819, 0.6415334939956665, 1.5947940349578857, 0.1841745376586914, -0.8570778369903564, -1.08447265625, -0.552978515625, 0.151123046875, 0, 
57, 2073381953, 0.1291208, -0.65968436, -0.1753709, -0.71929795, 9.962776184082031, 0.6970582604408264, 0.6429939866065979, 1.833292841911316, 0.06604233384132385, -0.729423999786377, -1.085693359375, -0.554443359375, 0.156494140625, 0, 
58, 2073398620, 0.12914649, -0.6596833, -0.1754902, -0.7192651, 9.97746753692627, 0.7029880285263062, 0.6108265519142151, 2.3586864471435547, 0.14788773655891418, -0.5468311309814453, -1.086669921875, -0.552490234375, 0.154296875, 0, 
59, 2073415287, 0.12912807, -0.6596859, -0.17556901, -0.7192468, 9.958601951599121, 0.7448604702949524, 0.6343972086906433, 1.645769715309143, 0.15536662936210632, -0.6156269311904907, -1.087158203125, -0.5546875, 0.153564453125, 0, 
60, 2073431954, 0.12891479, -0.6596981, -0.17548221, -0.7192951, 9.948806762695312, 0.8006894588470459, 0.6417556405067444, 0.6276199817657471, 0.38200700283050537, -0.8219755291938782, -1.088623046875, -0.554443359375, 0.15380859375, 0, 
61, 2073448621, 0.12883568, -0.65966475, -0.17554589, -0.7193243, 9.953618049621582, 0.7613214254379272, 0.6082643866539001, 1.1481980085372925, 0.47327789664268494, -0.9321485757827759, -1.085205078125, -0.553955078125, 0.152587890625, 0, 
62, 2073465288, 0.12881435, -0.65960777, -0.17567287, -0.7193494, 9.985380172729492, 0.7472931146621704, 0.6319418549537659, 1.428388237953186, 0.5589011311531067, -0.9782770276069641, -1.085693359375, -0.555419921875, 0.152099609375, 0, 
63, 2073481955, 0.12875406, -0.65953666, -0.17576458, -0.719403, 9.969293594360352, 0.6782311201095581, 0.6061792373657227, 1.732539176940918, 0.7981365919113159, -1.0084360837936401, -1.083984375, -0.555908203125, 0.15283203125, 0, 
64, 2073498622, 0.12871559, -0.65949106, -0.17586796, -0.7194266, 9.940052032470703, 0.6299567818641663, 0.6127393245697021, 2.2534372806549072, 0.5822727084159851, -0.8813842535018921, -1.0849609375, -0.555908203125, 0.155029296875, 0, 
65, 2073515289, 0.12887335, -0.6594083, -0.17603597, -0.71943307, 9.97337532043457, 0.6416834592819214, 0.6472461223602295, 2.870882511138916, 0.8161678910255432, -0.2947893738746643, -1.0810546875, -0.553955078125, 0.153076171875, 0, 
66, 2073531956, 0.12911095, -0.6593489, -0.17623736, -0.7193956, 9.965132713317871, 0.7653409838676453, 0.6156391501426697, 3.2750065326690674, 0.5523890852928162, -0.008170451037585735, -1.08251953125, -0.552734375, 0.15478515625, 0, 
67, 2073548623, 0.12903288, -0.6593821, -0.17619503, -0.71938944, 9.956518173217773, 0.7990981340408325, 0.6186859607696533, 1.2737258672714233, 0.13452431559562683, -0.3267027735710144, -1.0859375, -0.555419921875, 0.155517578125, 0, 
68, 2073565290, 0.12882113, -0.6594026, -0.17603397, -0.7194479, 9.949541091918945, 0.7420248985290527, 0.609607994556427, -0.6469383239746094, 0.3779729902744293, -0.5617120862007141, -1.082763671875, -0.559326171875, 0.154052734375, 0, 
69, 2073581957, 0.12851845, -0.6593885, -0.1757997, -0.7195723, 9.936680793762207, 0.7135199904441833, 0.6205949783325195, -0.9777008295059204, 0.8483822345733643, -0.7465205788612366, -1.087890625, -0.5546875, 0.15673828125, 0, 
70, 2073598624, 0.12847333, -0.6592786, -0.17582886, -0.71967405, 9.926284790039062, 0.7260160446166992, 0.6170687675476074, 1.0938669443130493, 1.2547146081924438, -0.8025482296943665, -1.086669921875, -0.55712890625, 0.155517578125, 0, 
71, 2073615291, 0.12854053, -0.6591035, -0.17599988, -0.71978074, 9.902727127075195, 0.7996505498886108, 0.5683985948562622, 2.9534194469451904, 1.660016655921936, -0.9337236881256104, -1.085205078125, -0.5556640625, 0.158447265625, 0, 
72, 2073631958, 0.12871799, -0.6588879, -0.17629485, -0.719874, 9.906937599182129, 0.8349408507347107, 0.6255908012390137, 3.3804993629455566, 1.769370436668396, -1.0335623025894165, -1.086181640625, -0.556884765625, 0.15283203125, 0, 
73, 2073648625, 0.12863456, -0.6587103, -0.17635112, -0.7200378, 9.915851593017578, 0.8073275089263916, 0.6239807605743408, 1.9158234596252441, 1.8831416368484497, -1.1792854070663452, -1.084228515625, -0.556640625, 0.153076171875, 0, 
74, 2073665292, 0.12862702, -0.6585357, -0.1764496, -0.7201746, 9.944665908813477, 0.7439340353012085, 0.5945638418197632, 1.42738938331604, 1.7118440866470337, -1.0370582342147827, -1.084228515625, -0.554931640625, 0.153564453125, 0, 
75, 2073681959, 0.1285994, -0.6584137, -0.17644732, -0.7202917, 9.99981689453125, 0.6882404088973999, 0.5906442999839783, 1.3006961345672607, 1.473210334777832, -0.5680767893791199, -1.086181640625, -0.556396484375, 0.154541015625, 0, 
76, 2073698626, 0.12864591, -0.6582971, -0.17649375, -0.72037834, 9.993306159973145, 0.6908982396125793, 0.5730963349342346, 1.6268291473388672, 1.3364579677581787, -0.41641765832901, -1.083251953125, -0.557373046875, 0.1513671875, 0, 
77, 2073715293, 0.12866813, -0.65822303, -0.17650986, -0.72043836, 9.983948707580566, 0.7434742450714111, 0.6036341786384583, 1.8964413404464722, 1.058739423751831, -0.2961404323577881, -1.085693359375, -0.55810546875, 0.150146484375, 0, 
78, 2073731960, 0.12869093, -0.65818703, -0.1765236, -0.7204637, 9.963077545166016, 0.7858045101165771, 0.6124159097671509, 2.041851043701172, 0.7325040102005005, -0.19692324101924896, -1.0849609375, -0.555419921875, 0.151611328125, 0, 
79, 2073748627, 0.12876767, -0.65815336, -0.17657463, -0.7204684, 9.934849739074707, 0.7535027861595154, 0.6167096495628357, 1.9386956691741943, 0.616183876991272, -0.11757509410381317, -1.08642578125, -0.558837890625, 0.151611328125, 0, 
80, 2073765294, 0.12875165, -0.6581334, -0.17655258, -0.72049487, 9.93596076965332, 0.7666434645652771, 0.655219316482544, 1.9871678352355957, 0.6766555905342102, -0.18725447356700897, -1.084716796875, -0.560546875, 0.152099609375, 0, 
81, 2073781961, 0.12878907, -0.6581062, -0.17658153, -0.7205059, 9.94056510925293, 0.7652270793914795, 0.6429963707923889, 2.1087193489074707, 0.6282796263694763, -0.1782323718070984, -1.0869140625, -0.5556640625, 0.15283203125, 0, 
82, 2073798628, 0.1288024, -0.6580814, -0.17659675, -0.72052234, 9.938538551330566, 0.7876147627830505, 0.6271661520004272, 1.4979459047317505, 0.5881187915802002, -0.26899096369743347, -1.08740234375, -0.557373046875, 0.15087890625, 0, 
83, 2073815295, 0.1287992, -0.6580232, -0.17664604, -0.72056407, 9.933981895446777, 0.7927020788192749, 0.6074504852294922, 2.2726917266845703, 0.8785156607627869, -0.5180360674858093, -1.0849609375, -0.5546875, 0.150390625, 0, 
84, 2073831962, 0.12880634, -0.6579433, -0.17671981, -0.72061765, 9.951143264770508, 0.7771497964859009, 0.6181349158287048, 1.9229055643081665, 0.9896813035011292, -0.6503193378448486, -1.0849609375, -0.5576171875, 0.15185546875, 0, 
85, 2073848629, 0.12876573, -0.6578645, -0.17681456, -0.72067356, 9.950862884521484, 0.7609351873397827, 0.6320899128913879, 2.2922792434692383, 0.9645423293113708, -0.9482590556144714, -1.090087890625, -0.5537109375, 0.151123046875, 0, 
86, 2073865296, 0.12892996, -0.6577464, -0.17707387, -0.72068846, 9.962191581726074, 0.7149981260299683, 0.6235918402671814, 3.401482105255127, 1.0183097124099731, -0.7426915168762207, -1.08642578125, -0.557373046875, 0.1533203125, 0, 
87, 2073881963, 0.12910357, -0.65758735, -0.17729764, -0.7207474, 9.968358993530273, 0.6969720125198364, 0.6347969770431519, 3.205583333969116, 1.4621011018753052, -0.6350733637809753, -1.08837890625, -0.555908203125, 0.148681640625, 0, 
88, 2073898630, 0.12904151, -0.65751994, -0.17728467, -0.7208232, 9.985186576843262, 0.7053282856941223, 0.7123159170150757, 2.264072895050049, 1.1315048933029175, -0.5413563847541809, -1.083740234375, -0.55517578125, 0.15087890625, 0, 
89, 2073915297, 0.12905388, -0.6574612, -0.1773442, -0.72085994, 9.949342727661133, 0.8265687823295593, 0.665886402130127, 1.9280345439910889, 0.8417742252349854, -0.5417278409004211, -1.089111328125, -0.555419921875, 0.15185546875, 0, 
90, 2073931964, 0.12918235, -0.6573836, -0.17754018, -0.72085947, 9.922577857971191, 0.8158513307571411, 0.6092358827590942, 2.7382218837738037, 0.748537540435791, -0.602641224861145, -1.087158203125, -0.555908203125, 0.1533203125, 0, 
91, 2073948631, 0.1291693, -0.65733325, -0.17763172, -0.7208851, 9.94410514831543, 0.7817308306694031, 0.6537986397743225, 1.5065836906433105, 0.6543211936950684, -0.8221163749694824, -1.085693359375, -0.555908203125, 0.150634765625, 0, 
92, 2073965298, 0.12908377, -0.6572862, -0.17765911, -0.72093666, 9.957321166992188, 0.7024626731872559, 0.6743487119674683, 1.5265487432479858, 0.7872510552406311, -0.8593444228172302, -1.0859375, -0.555419921875, 0.151123046875, 0, 
93, 2073981965, 0.12918863, -0.6571951, -0.17783776, -0.72095674, 9.944560050964355, 0.6622006297111511, 0.6898142695426941, 3.0365583896636963, 0.9466133117675781, -0.6463620662689209, -1.08837890625, -0.556640625, 0.1533203125, 0, 
94, 2073998632, 0.12950914, -0.65703857, -0.17823865, -0.720943, 9.929025650024414, 0.715706467628479, 0.683156430721283, 4.840051174163818, 1.1485950946807861, -0.6713345050811768, -1.08837890625, -0.5576171875, 0.153076171875, 0, 
95, 2074015299, 0.12971707, -0.6569121, -0.17848445, -0.72096014, 9.924994468688965, 0.8160964250564575, 0.6616862416267395, 3.8318207263946533, 1.1690471172332764, -0.5011381506919861, -1.0888671875, -0.5556640625, 0.154052734375, 0, 
96, 2074031966, 0.1298244, -0.65679115, -0.17870338, -0.7209967, 9.92784595489502, 0.8508310914039612, 0.6635264158248901, 3.0541162490844727, 1.1174757480621338, -0.9006065726280212, -1.08740234375, -0.555908203125, 0.154052734375, 0, 
97, 2074048633, 0.12982222, -0.65672225, -0.17875929, -0.72104603, 9.951384544372559, 0.8023884892463684, 0.7026196718215942, 1.8511515855789185, 0.9436678886413574, -0.6390625238418579, -1.090576171875, -0.553955078125, 0.153564453125, 0, 
98, 2074065300, 0.12986203, -0.65665156, -0.17887275, -0.7210751, 9.948092460632324, 0.7719981074333191, 0.6882001757621765, 1.6422029733657837, 0.7973937392234802, -0.7282202839851379, -1.087158203125, -0.55615234375, 0.15185546875, 0, 
99, 2074081967, 0.12998608, -0.65654963, -0.17907025, -0.7210965, 9.946722984313965, 0.7422865033149719, 0.6707456707954407, 3.0416746139526367, 0.9967566132545471, -0.681880533695221, -1.08935546875, -0.555419921875, 0.152587890625, 0, 
100, 2074098634, 0.13014793, -0.65645057, -0.17924024, -0.72111535, 9.959725379943848, 0.7563064098358154, 0.6873325109481812, 2.618642568588257, 1.0025193691253662, -0.40529540181159973, -1.091796875, -0.55517578125, 0.15283203125, 0, 
101, 2074115301, 0.13019195, -0.65634453, -0.17929411, -0.72119045, 9.95335578918457, 0.8025415539741516, 0.6856677532196045, 2.0875375270843506, 1.3067599534988403, -0.48099371790885925, -1.091796875, -0.55517578125, 0.15283203125, 0, 
102, 2074131968, 0.13027082, -0.6562377, -0.17943813, -0.7212376, 9.922881126403809, 0.8346359133720398, 0.7076740264892578, 2.434518814086914, 1.1219193935394287, -0.7140948176383972, -1.0927734375, -0.5537109375, 0.15283203125, 0, 
103, 2074148635, 0.13037075, -0.65612674, -0.17959504, -0.7212814, 9.913649559020996, 0.7993958592414856, 0.6720300912857056, 2.4915459156036377, 1.130717396736145, -0.6769309043884277, -1.091064453125, -0.555419921875, 0.154541015625, 0, 
104, 2074165302, 0.13042001, -0.656013, -0.17962095, -0.7213695, 9.918537139892578, 0.773876428604126, 0.7113633751869202, 1.5938656330108643, 1.4027564525604248, -0.37941375374794006, -1.08837890625, -0.552490234375, 0.152099609375, 0, 
105, 2074181969, 0.13040017, -0.65589976, -0.17957687, -0.72148716, 9.923177719116211, 0.8100467920303345, 0.7109408974647522, 1.284784197807312, 1.546507477760315, -0.40678727626800537, -1.088134765625, -0.5537109375, 0.15283203125, 0, 
106, 2074198636, 0.13046311, -0.6557532, -0.17964199, -0.7215928, 9.93657112121582, 0.8527969121932983, 0.7257988452911377, 1.8210951089859009, 1.6236337423324585, -0.5512365698814392, -1.0908203125, -0.555908203125, 0.149658203125, 0, 
107, 2074215303, 0.13047363, -0.6555921, -0.17967708, -0.72172856, 9.960921287536621, 0.7797763347625732, 0.6885583996772766, 2.060842752456665, 1.8518047332763672, -0.6682737469673157, -1.0927734375, -0.556884765625, 0.150634765625, 0, 
108, 2074231970, 0.13049573, -0.6554064, -0.17973891, -0.7218775, 9.93836784362793, 0.7708140015602112, 0.65971440076828, 2.0347561836242676, 2.0055830478668213, -0.7933661937713623, -1.089111328125, -0.5556640625, 0.14892578125, 0, 
109, 2074248637, 0.13062471, -0.6552184, -0.17988236, -0.7219892, 9.92194652557373, 0.7721942067146301, 0.6802688241004944, 2.909372091293335, 1.9084277153015137, -0.6091788411140442, -1.0888671875, -0.556396484375, 0.151123046875, 0, 
110, 2074265304, 0.13085516, -0.6550462, -0.18009539, -0.72205067, 9.933040618896484, 0.752723217010498, 0.6742458939552307, 3.5181868076324463, 1.6475884914398193, -0.37699979543685913, -1.094482421875, -0.554931640625, 0.151611328125, 0, 
111, 2074281971, 0.13109457, -0.65486896, -0.18026593, -0.72212535, 9.939409255981445, 0.7654004693031311, 0.6954811215400696, 2.7457451820373535, 1.7316615581512451, -0.21172736585140228, -1.0947265625, -0.552978515625, 0.150634765625, 0, 
112, 2074298638, 0.13123961, -0.6547327, -0.18035084, -0.7222014, 9.938630104064941, 0.8627262115478516, 0.7295065522193909, 2.5092246532440186, 1.5546907186508179, -0.19936926662921906, -1.09228515625, -0.553955078125, 0.150146484375, 0, 
113, 2074315305, 0.13127983, -0.6546343, -0.18036579, -0.7222796, 9.947821617126465, 0.9023380875587463, 0.7267197370529175, 1.797684907913208, 1.324118971824646, -0.34591230750083923, -1.093505859375, -0.55517578125, 0.150634765625, 0, 
114, 2074331972, 0.1312915, -0.6545171, -0.18041922, -0.7223703, 9.941184043884277, 0.8878417015075684, 0.7337173819541931, 1.6980772018432617, 1.3896747827529907, -0.7033247351646423, -1.094482421875, -0.554931640625, 0.151611328125, 0, 
115, 2074348639, 0.13142279, -0.6543751, -0.18056223, -0.72243935, 9.9310302734375, 0.8326671719551086, 0.7623959183692932, 2.2151272296905518, 1.4367058277130127, -0.5607964396476746, -1.093505859375, -0.5546875, 0.15087890625, 0, 
116, 2074365306, 0.13160281, -0.6542616, -0.18074575, -0.7224634, 9.952444076538086, 0.7882786989212036, 0.7670685648918152, 2.9708807468414307, 1.1435043811798096, -0.40072986483573914, -1.094482421875, -0.553955078125, 0.1484375, 0, 
117, 2074381973, 0.13178836, -0.65417224, -0.1809082, -0.72246975, 9.941222190856934, 0.7942818403244019, 0.724950909614563, 2.913700580596924, 0.9702603220939636, -0.23447786271572113, -1.094970703125, -0.5537109375, 0.151123046875, 0, 
118, 2074398640, 0.13189602, -0.65414673, -0.18101251, -0.7224473, 9.94178581237793, 0.823153555393219, 0.712792694568634, 2.2095563411712646, 0.47648584842681885, -0.262177973985672, -1.09619140625, -0.55419921875, 0.149169921875, 0, 
119, 2074415307, 0.13188238, -0.65418017, -0.18099909, -0.72242284, 9.918916702270508, 0.830683708190918, 0.7022061944007874, 0.9388718605041504, 0.12634743750095367, -0.26698675751686096, -1.0947265625, -0.554931640625, 0.1474609375, 0, 
120, 2074431974, 0.13172026, -0.6542463, -0.18086033, -0.72242737, 9.930076599121094, 0.7774351835250854, 0.6949398517608643, 0.4710175395011902, 0.10816242545843124, -0.3551264703273773, -1.09423828125, -0.555419921875, 0.148193359375, 0, 
121, 2074448641, 0.13154481, -0.6543382, -0.18068612, -0.7224197, 9.939102172851562, 0.7541899085044861, 0.7134533524513245, 0.2893722653388977, -0.05134706199169159, -0.2178039848804474, -1.093505859375, -0.556640625, 0.14892578125, 0, 
122, 2074465308, 0.1315911, -0.6543774, -0.18075807, -0.72235763, 9.95551586151123, 0.772472620010376, 0.701288104057312, 2.3170273303985596, -0.005743647925555706, -0.27162906527519226, -1.091552734375, -0.554931640625, 0.15087890625, 0, 
123, 2074481975, 0.131757, -0.6543769, -0.18097302, -0.72227407, 9.976249694824219, 0.77518630027771, 0.6728004217147827, 3.1872315406799316, 0.07560869306325912, -0.39126601815223694, -1.0966796875, -0.555908203125, 0.1484375, 0, 
124, 2074498642, 0.13178623, -0.65441376, -0.18109111, -0.7222057, 9.912348747253418, 0.7683069109916687, 0.6655954122543335, 2.9235036373138428, -0.03635722026228905, -0.5360864996910095, -1.095458984375, -0.553955078125, 0.14794921875, 0, 
125, 2074515309, 0.13184401, -0.65449506, -0.18122368, -0.72208816, 9.932395935058594, 0.7580616474151611, 0.7499063014984131, 2.9744412899017334, -0.4661063551902771, -0.37761443853378296, -1.093994140625, -0.5546875, 0.150634765625, 0, 
126, 2074531976, 0.1319346, -0.6545375, -0.18136927, -0.72199667, 9.963020324707031, 0.8198919296264648, 0.7616484761238098, 2.8422796726226807, -0.15975281596183777, -0.3797915279865265, -1.09423828125, -0.55517578125, 0.149658203125, 0, 
127, 2074548643, 0.13185643, -0.65465826, -0.1814185, -0.7218891, 9.93106460571289, 0.8652238249778748, 0.7599077224731445, 1.5240449905395508, -0.7471927404403687, -0.6747344136238098, -1.093017578125, -0.554443359375, 0.153076171875, 0, 
128, 2074565310, 0.13168572, -0.6548031, -0.18139249, -0.72179544, 9.940430641174316, 0.8211272358894348, 0.7459712624549866, 0.30981123447418213, -0.8895867466926575, -0.8087401986122131, -1.09326171875, -0.55517578125, 0.150146484375, 0, 
129, 2074581977, 0.1314107, -0.65492415, -0.18128814, -0.72176194, 9.95934009552002, 0.8075694441795349, 0.7674012184143066, -0.1641005575656891, -0.5189772844314575, -1.0233169794082642, -1.09130859375, -0.55615234375, 0.152099609375, 0, 
130, 2074598644, 0.13129252, -0.6550031, -0.18130411, -0.7217079, 9.93263053894043, 0.795531690120697, 0.7396897077560425, 1.191566824913025, -0.3202868103981018, -0.8258046507835388, -1.0908203125, -0.552978515625, 0.154541015625, 0, 
131, 2074615311, 0.1313692, -0.65507376, -0.18144915, -0.72159326, 9.925150871276855, 0.8027335405349731, 0.7386962175369263, 2.3299615383148193, -0.4702812135219574, -0.43771466612815857, -1.09423828125, -0.5546875, 0.151123046875, 0, 
132, 2074631978, 0.1313424, -0.65516305, -0.18150562, -0.7215028, 9.906054496765137, 0.8325325846672058, 0.7462778091430664, 1.8518109321594238, -0.4577309489250183, -0.5152954459190369, -1.092529296875, -0.5556640625, 0.151611328125, 0, 
133, 2074648645, 0.13112108, -0.65530026, -0.18133621, -0.721461, 9.893341064453125, 0.8423936367034912, 0.7720602750778198, 0.19313253462314606, -0.4769788980484009, -0.41316482424736023, -1.094482421875, -0.556884765625, 0.154052734375, 0, 
134, 2074665312, 0.13084741, -0.6554711, -0.18106984, -0.7214225, 9.931421279907227, 0.8256863951683044, 0.7639913558959961, -1.2038545608520508, -0.6688692569732666, -0.24839837849140167, -1.092529296875, -0.55908203125, 0.151123046875, 0, 
135, 2074681979, 0.13040082, -0.655675, -0.18059938, -0.72143596, 9.930288314819336, 0.8614603877067566, 0.746106743812561, -2.2414634227752686, -0.5545853972434998, -0.12527811527252197, -1.093994140625, -0.55810546875, 0.15478515625, 0, 
136, 2074698646, 0.13004266, -0.6558377, -0.1801929, -0.72145444, 9.930614471435547, 0.8588276505470276, 0.7363903522491455, -2.6016035079956055, -0.37893345952033997, -0.11840110272169113, -1.09130859375, -0.556640625, 0.150634765625, 0, 
137, 2074715313, 0.12966596, -0.6559665, -0.17974058, -0.7215179, 9.939315795898438, 0.8565254807472229, 0.7185503840446472, -2.027405023574829, 0.0935375764966011, -0.013068879023194313, -1.09326171875, -0.559814453125, 0.152587890625, 0, 
138, 2074731980, 0.12941197, -0.6560383, -0.17937292, -0.72158986, 9.926348686218262, 0.8370489478111267, 0.7005510330200195, -1.0690804719924927, 0.4840031564235687, 0.13171330094337463, -1.091552734375, -0.559326171875, 0.149169921875, 0, 
139, 2074748647, 0.12917127, -0.65604913, -0.17906314, -0.72169995, 9.939322471618652, 0.8544918298721313, 0.7147155404090881, -0.7726904153823853, 0.9217755794525146, -0.1748899221420288, -1.093505859375, -0.561767578125, 0.1484375, 0, 
140, 2074765314, 0.1288933, -0.65603554, -0.17876515, -0.7218359, 9.946640014648438, 0.8391032218933105, 0.6784633994102478, -0.8211110830307007, 1.1101951599121094, -0.4590372145175934, -1.09228515625, -0.56201171875, 0.14892578125, 0, 
141, 2074781981, 0.1286686, -0.6559799, -0.17852533, -0.7219859, 9.970913887023926, 0.8765057921409607, 0.6962454319000244, -0.9342424869537354, 1.3398514986038208, -0.5731289982795715, -1.091064453125, -0.562255859375, 0.1474609375, 0, 
142, 2074798648, 0.12823859, -0.6559506, -0.17811619, -0.72219, 9.960187911987305, 0.892461895942688, 0.6960907578468323, -1.5672540664672852, 1.4632728099822998, -0.7474554777145386, -1.090087890625, -0.56201171875, 0.145751953125, 0, 
143, 2074815315, 0.1278254, -0.65589887, -0.17771369, -0.72240937, 9.951423645019531, 0.8546333909034729, 0.660036563873291, -1.9752066135406494, 1.6144198179244995, -0.7699113488197327, -1.090087890625, -0.56298828125, 0.1484375, 0, 
144, 2074831982, 0.12745667, -0.6558259, -0.17734905, -0.7226304, 9.986506462097168, 0.8351269364356995, 0.6519363522529602, -1.9907728433609009, 1.7131565809249878, -0.7807519435882568, -1.0888671875, -0.563232421875, 0.142578125, 0, 
145, 2074848649, 0.12698352, -0.65575206, -0.17694604, -0.72287935, 9.968360900878906, 0.8175311088562012, 0.6804593205451965, -1.6610859632492065, 1.8513116836547852, -1.0705084800720215, -1.0888671875, -0.564208984375, 0.145751953125, 0, 
146, 2074865316, 0.12660573, -0.6556485, -0.1766544, -0.7231109, 9.96240234375, 0.827006995677948, 0.6739081144332886, -1.4112212657928467, 1.8714878559112549, -1.183485984802246, -1.0869140625, -0.566162109375, 0.141357421875, 0, 
147, 2074881983, 0.12606499, -0.6555573, -0.17623694, -0.7233898, 9.957798957824707, 0.8505034446716309, 0.6397259831428528, -1.1999741792678833, 2.0906238555908203, -1.321378469467163, -1.086181640625, -0.564453125, 0.138427734375, 0, 
148, 2074898650, 0.12559432, -0.6554334, -0.17592198, -0.7236607, 9.953388214111328, 0.8590611815452576, 0.6753139495849609, -1.2646589279174805, 2.1379432678222656, -1.5395218133926392, -1.084716796875, -0.56591796875, 0.14111328125, 0, 
149, 2074915317, 0.12513039, -0.6553087, -0.1756279, -0.72392523, 9.967373847961426, 0.8635492920875549, 0.7096009254455566, -1.372834324836731, 2.084322929382324, -1.6164494752883911, -1.085693359375, -0.566162109375, 0.138427734375, 0, 
150, 2074931984, 0.12465138, -0.65515065, -0.17534474, -0.7242196, 9.948003768920898, 0.8601300120353699, 0.6961701512336731, -1.1644237041473389, 2.3822243213653564, -1.786095142364502, -1.084228515625, -0.566650390625, 0.1396484375, 0, 
151, 2074948651, 0.124318235, -0.6549659, -0.17525403, -0.724466, 9.961244583129883, 0.8535186648368835, 0.6651431918144226, -0.5187661051750183, 2.2176756858825684, -2.0033936500549316, -1.085205078125, -0.5693359375, 0.13720703125, 0, 
152, 2074965318, 0.12390707, -0.6547869, -0.17508902, -0.724738, 9.970290184020996, 0.823683500289917, 0.7036012411117554, -0.36058205366134644, 2.366511344909668, -1.996683120727539, -1.081298828125, -0.5703125, 0.135986328125, 0, 
153, 2074981985, 0.123363905, -0.6546797, -0.17476837, -0.7250048, 9.932856559753418, 0.8027055263519287, 0.727167010307312, -0.9234529137611389, 2.0449113845825195, -1.7919667959213257, -1.083740234375, -0.57177734375, 0.13525390625, 0, 
154, 2074998652, 0.12289386, -0.6545683, -0.17450407, -0.72524893, 9.925950050354004, 0.8118736743927002, 0.690166711807251, -0.9053512811660767, 1.9497284889221191, -1.7222810983657837, -1.082763671875, -0.571533203125, 0.134521484375, 0, 
155, 2075015319, 0.12246428, -0.654473, -0.17429157, -0.72545856, 9.90953540802002, 0.850473165512085, 0.6994279026985168, -0.5310600996017456, 1.717421293258667, -1.7163647413253784, -1.083984375, -0.572509765625, 0.1328125, 0, 
156, 2075031986, 0.12205309, -0.6544116, -0.17404406, -0.7256426, 9.910568237304688, 0.7966340780258179, 0.6968153119087219, -0.7380939722061157, 1.4790245294570923, -1.4146534204483032, -1.080322265625, -0.573486328125, 0.12939453125, 0, 
157, 2075048653, 0.12153041, -0.65440327, -0.17365277, -0.7258316, 9.904417037963867, 0.8065216541290283, 0.697187602519989, -0.9174404144287109, 1.3341399431228638, -1.1736828088760376, -1.080322265625, -0.573486328125, 0.12939453125, 0, 
158, 2075065320, 0.121301405, -0.65434265, -0.1735092, -0.7259588, 9.895878791809082, 0.7702423930168152, 0.7266448140144348, 0.8066462278366089, 1.3778862953186035, -0.9179590940475464, -1.085205078125, -0.573974609375, 0.129150390625, 0, 
159, 2075081987, 0.121152624, -0.6542981, -0.17340185, -0.7260496, 9.910475730895996, 0.7516649961471558, 0.7074710726737976, 1.9607163667678833, 1.2568920850753784, -0.5894314646720886, -1.07763671875, -0.572021484375, 0.130859375, 0, 
160, 2075098654, 0.121094756, -0.65426433, -0.1733349, -0.72610563, 9.923263549804688, 0.8185431957244873, 0.7033204436302185, 1.9442214965820312, 1.0634777545928955, -0.34172460436820984, -1.078369140625, -0.571044921875, 0.13134765625, 0, 
161, 2075115321, 0.12103792, -0.6542629, -0.1732268, -0.72614217, 9.920680046081543, 0.8794010281562805, 0.7539469003677368, 1.464489221572876, 0.8287052512168884, -0.12449052184820175, -1.0810546875, -0.57373046875, 0.126220703125, 0, 
162, 2075131988, 0.12079681, -0.65433717, -0.1729698, -0.7261767, 9.91730785369873, 0.8617903590202332, 0.7558099031448364, 1.3699145317077637, 0.49631646275520325, -0.1443275511264801, -1.08154296875, -0.573486328125, 0.12890625, 0, 
163, 2075148655, 0.12067124, -0.65440446, -0.17275292, -0.7261885, 9.935669898986816, 0.8203896880149841, 0.7326143980026245, 0.921929121017456, 0.42130327224731445, 0.15449580550193787, -1.079833984375, -0.5732421875, 0.128173828125, 0, 
164, 2075165322, 0.120569415, -0.65448993, -0.17256843, -0.72617227, 9.938210487365723, 0.8354427814483643, 0.7266980409622192, 1.7497189044952393, 0.26013538241386414, 0.21609435975551605, -1.076416015625, -0.57275390625, 0.12841796875, 0, 
165, 2075181989, 0.1205841, -0.6545507, -0.17246892, -0.7261387, 9.947355270385742, 0.8073510527610779, 0.7494020462036133, 2.333406686782837, 0.3396884500980377, 0.36244532465934753, -1.0810546875, -0.573486328125, 0.13037109375, 0, 
166, 2075198656, 0.12065805, -0.6546186, -0.17243044, -0.7260743, 9.938084602355957, 0.8477756381034851, 0.748351514339447, 2.5104541778564453, 0.1447373479604721, 0.3752259910106659, -1.079345703125, -0.57177734375, 0.12744140625, 0, 
167, 2075215323, 0.12075611, -0.654685, -0.1724019, -0.7260049, 9.960847854614258, 0.8472722172737122, 0.7278497219085693, 2.596935987472534, 0.14663270115852356, 0.44804295897483826, -1.07958984375, -0.5732421875, 0.129150390625, 0, 
168, 2075231990, 0.12069299, -0.6547644, -0.17220527, -0.7259905, 9.944068908691406, 0.8546040654182434, 0.7048421502113342, 1.6244982481002808, 0.3433510363101959, 0.4233779013156891, -1.07861328125, -0.57275390625, 0.13037109375, 0, 
169, 2075248657, 0.12059583, -0.6548591, -0.17199618, -0.7259707, 9.898387908935547, 0.8627851605415344, 0.7223753929138184, 0.8255100846290588, 0.1618594527244568, 0.28072795271873474, -1.079345703125, -0.572021484375, 0.128662109375, 0, 
170, 2075265324, 0.12034808, -0.65497243, -0.171708, -0.72597784, 9.897503852844238, 0.8565767407417297, 0.699828028678894, 0.7699881792068481, 0.18122905492782593, -0.023576488718390465, -1.080810546875, -0.57421875, 0.13037109375, 0, 
171, 2075281991, 0.12032595, -0.65501446, -0.17160699, -0.7259675, 9.8766450881958, 0.8261806964874268, 0.6891642808914185, 1.4767643213272095, 0.45116767287254333, 0.07667161524295807, -1.080810546875, -0.572509765625, 0.130126953125, 0, 
172, 2075298658, 0.120235026, -0.65507257, -0.1714504, -0.7259671, 9.897442817687988, 0.8654798865318298, 0.7184451222419739, 1.9209202527999878, 0.4815635681152344, 0.08028941601514816, -1.080322265625, -0.57275390625, 0.12939453125, 0, 
173, 2075315325, 0.12031644, -0.6550419, -0.17151599, -0.72596586, 9.830513000488281, 0.8200008273124695, 0.6992902159690857, 3.2917439937591553, 0.8900284767150879, -0.21264302730560303, -1.079345703125, -0.57421875, 0.128173828125, 0, 
174, 2075331992, 0.120394096, -0.6550309, -0.1715458, -0.7259559, 9.930832862854004, 0.8691801428794861, 0.7243088483810425, 3.4440884590148926, 0.8162767887115479, -0.008817171677947044, -1.0810546875, -0.57080078125, 0.131103515625, 0, 
175, 2075348659, 0.120500006, -0.6549544, -0.17165536, -0.72598165, 9.884119033813477, 0.8601048588752747, 0.7004912495613098, 3.4188601970672607, 1.2185114622116089, -0.386924684047699, -1.080810546875, -0.572265625, 0.133544921875, 0, 
176, 2075365326, 0.12053992, -0.654992, -0.17166165, -0.72593933, 9.926862716674805, 0.8904571533203125, 0.6575261354446411, 2.7721776962280273, 0.36845147609710693, -0.04759479686617851, -1.08251953125, -0.572998046875, 0.1279296875, 0, 
177, 2075381993, 0.120419264, -0.6550167, -0.17163141, -0.7259443, 9.956915855407715, 0.8543906211853027, 0.6868255138397217, 1.890377163887024, 0.5057675838470459, -0.723469078540802, -1.07763671875, -0.572021484375, 0.129638671875, 0, 
178, 2075398660, 0.12030024, -0.6551057, -0.17147717, -0.72592014, 9.951619148254395, 0.8541936874389648, 0.7038775086402893, 1.7245736122131348, 0.2044726014137268, -0.01988826133310795, -1.080322265625, -0.573974609375, 0.129150390625, 0, 
179, 2075415327, 0.12011436, -0.65515953, -0.1713666, -0.72592837, 9.946730613708496, 0.8399217128753662, 0.7208755016326904, 1.6328929662704468, 0.41586703062057495, -0.6192126274108887, -1.078125, -0.571533203125, 0.12939453125, 0, 
180, 2075431994, 0.11982901, -0.65527254, -0.17119013, -0.7259153, 9.941794395446777, 0.9254927039146423, 0.7368755340576172, 0.6863946914672852, -0.049054715782403946, -0.7459378242492676, -1.08056640625, -0.57177734375, 0.129638671875, 0, 
181, 2075448661, 0.11950784, -0.6553027, -0.17111562, -0.7259586, 9.947246551513672, 0.8969332575798035, 0.7032315731048584, 1.1528531312942505, 0.504442036151886, -1.515023112297058, -1.079345703125, -0.57177734375, 0.12744140625, 0, 
182, 2075465328, 0.119130574, -0.6553612, -0.17102018, -0.72599024, 9.921100616455078, 0.8811196088790894, 0.69451504945755, 1.0242260694503784, 0.28991010785102844, -1.6341475248336792, -1.0751953125, -0.57421875, 0.127197265625, 0, 
183, 2075481995, 0.118699856, -0.655438, -0.17093655, -0.7260112, 9.951363563537598, 0.836493730545044, 0.720795750617981, 0.8101552724838257, 0.08094893395900726, -1.9232126474380493, -1.07666015625, -0.576416015625, 0.129638671875, 0, 
184, 2075498662, 0.118365385, -0.65549546, -0.17097895, -0.72600394, 9.9414644241333, 0.8669996857643127, 0.7074429392814636, 1.185983419418335, -0.0066336896270513535, -2.0786116123199463, -1.079345703125, -0.573974609375, 0.126953125, 0, 
185, 2075515329, 0.11802904, -0.6555301, -0.1710576, -0.7260089, 9.960859298706055, 0.8320493698120117, 0.6965034008026123, 1.3012981414794922, 0.12890230119228363, -2.292426347732544, -1.076171875, -0.575439453125, 0.12744140625, 0, 
186, 2075531996, 0.11773955, -0.6555723, -0.17118748, -0.7259872, 9.940797805786133, 0.8299704790115356, 0.6861048340797424, 1.5676252841949463, -0.03168290853500366, -2.2805163860321045, -1.07568359375, -0.57861328125, 0.13037109375, 0, 
187, 2075548663, 0.11743802, -0.6556506, -0.17129356, -0.7259403, 9.9545259475708, 0.7801746726036072, 0.6698917746543884, 1.9530836343765259, -0.2654692232608795, -2.1290366649627686, -1.0751953125, -0.575927734375, 0.12841796875, 0, 
188, 2075565330, 0.117125675, -0.65573704, -0.17135127, -0.725899, 9.95262622833252, 0.8291047811508179, 0.7481322288513184, 1.4294960498809814, -0.26869645714759827, -1.9853236675262451, -1.078857421875, -0.578369140625, 0.131103515625, 0, 
189, 2075581997, 0.11686442, -0.65582687, -0.17150779, -0.72582304, 9.972648620605469, 0.91527259349823, 0.6668767333030701, 2.0472934246063232, -0.4759991466999054, -2.1626720428466797, -1.07861328125, -0.578125, 0.129150390625, 0, 
190, 2075598664, 0.11650447, -0.65593934, -0.17158815, -0.7257603, 9.947830200195312, 0.9165453314781189, 0.657893180847168, 1.0639322996139526, -0.5905263423919678, -2.303759813308716, -1.076171875, -0.578125, 0.130126953125, 0, 
191, 2075615331, 0.11601758, -0.65612805, -0.1715291, -0.72568154, 9.909590721130371, 0.8634150624275208, 0.7441114187240601, -0.10045941919088364, -1.062818169593811, -2.193747043609619, -1.074462890625, -0.58056640625, 0.13037109375, 0, 
192, 2075631998, 0.11571025, -0.6562892, -0.17156865, -0.72557557, 9.982498168945312, 0.8251349925994873, 0.7875844836235046, 1.6330273151397705, -0.8765305876731873, -1.7251944541931152, -1.07470703125, -0.578125, 0.133056640625, 0, 
193, 2075648665, 0.11555878, -0.6564187, -0.17167516, -0.7254574, 9.980568885803223, 0.886491596698761, 0.7262909412384033, 2.259373188018799, -0.6935983300209045, -1.3237860202789307, -1.07470703125, -0.578125, 0.131591796875, 0, 
194, 2075665332, 0.11534338, -0.65663254, -0.17168017, -0.725297, 9.946710586547852, 0.8966145515441895, 0.7120407819747925, 1.2756788730621338, -1.3145654201507568, -1.0660839080810547, -1.07421875, -0.578857421875, 0.12890625, 0, 
195, 2075681999, 0.1149182, -0.6569256, -0.17140175, -0.72516483, 9.96567440032959, 0.8698210716247559, 0.641936719417572, -0.4405064284801483, -1.5262032747268677, -0.6997069716453552, -1.074462890625, -0.581298828125, 0.1318359375, 0, 
196, 2075698666, 0.114673264, -0.6571526, -0.17120321, -0.72504485, 9.967546463012695, 0.801537036895752, 0.659986138343811, 0.16224363446235657, -1.0539177656173706, -0.30730754137039185, -1.076416015625, -0.581298828125, 0.133056640625, 0, 
197, 2075715333, 0.114558116, -0.6573728, -0.17111205, -0.72488505, 9.958623886108398, 0.7856479287147522, 0.6717395782470703, 1.808992862701416, -1.084262490272522, -0.0924106165766716, -1.07568359375, -0.58056640625, 0.13330078125, 0, 
198, 2075732000, 0.11453822, -0.657565, -0.17109853, -0.72471696, 9.93493938446045, 0.8542741537094116, 0.6785626411437988, 1.8736779689788818, -1.006592035293579, -0.06567095965147018, -1.07666015625, -0.58154296875, 0.135009765625, 0, 
199, 2075748667, 0.114512876, -0.65775055, -0.1710353, -0.7245675, 9.943084716796875, 0.8858717083930969, 0.6501872539520264, 1.9237251281738281, -0.8238070011138916, 0.1321295201778412, -1.073486328125, -0.578125, 0.133544921875, 0, 
200, 2075765334, 0.11444902, -0.6579224, -0.17089461, -0.7244547, 9.935912132263184, 0.8386518955230713, 0.6716232895851135, 1.7430593967437744, -0.5289854407310486, 0.27625858783721924, -1.072509765625, -0.5771484375, 0.13134765625, 0, 
201, 2075782001, 0.11444345, -0.658098, -0.17076133, -0.7243275, 9.952302932739258, 0.7973262667655945, 0.6954706311225891, 2.3597939014434814, -0.5170179605484009, 0.5702347755432129, -1.0771484375, -0.578857421875, 0.13525390625, 0, 
202, 2075798668, 0.11469533, -0.6582032, -0.1708313, -0.7241756, 9.976639747619629, 0.8039862513542175, 0.6487392783164978, 3.822920083999634, -0.21912948787212372, 0.7979061603546143, -1.075439453125, -0.579833984375, 0.1357421875, 0, 
203, 2075815335, 0.114921525, -0.6583012, -0.17087983, -0.7240392, 9.986787796020508, 0.8677000999450684, 0.6652727127075195, 4.171835422515869, -0.06757911294698715, 0.7859897613525391, -1.07177734375, -0.578857421875, 0.135498046875, 0, 
204, 2075832002, 0.115105264, -0.65841323, -0.17088026, -0.7239081, 9.966075897216797, 0.9164445996284485, 0.6893945336341858, 3.364535331726074, -0.15717872977256775, 0.7752067446708679, -1.07861328125, -0.579833984375, 0.137939453125, 0, 
205, 2075848669, 0.11521853, -0.65856403, -0.17076026, -0.7237811, 9.92538070678711, 0.8937402963638306, 0.6458638906478882, 2.353435754776001, -0.32846367359161377, 1.0057979822158813, -1.078857421875, -0.579833984375, 0.138427734375, 0, 
206, 2075865336, 0.115419336, -0.6587085, -0.17071714, -0.72362787, 9.94374942779541, 0.8283315300941467, 0.6640589833259583, 3.187858819961548, -0.37158262729644775, 1.108709692955017, -1.076416015625, -0.576171875, 0.13818359375, 0, 
207, 2075882003, 0.11562159, -0.6588268, -0.170646, -0.7235047, 9.93316650390625, 0.869804322719574, 0.6979606747627258, 2.991614580154419, -0.0861419141292572, 1.1799386739730835, -1.07666015625, -0.574951171875, 0.140625, 0, 
208, 2075898670, 0.11588776, -0.65891033, -0.1706782, -0.72337836, 9.937132835388184, 0.89676433801651, 0.66515052318573, 3.6494767665863037, 0.04451487585902214, 0.9751139879226685, -1.076904296875, -0.5771484375, 0.135009765625, 0, 
209, 2075915337, 0.116099454, -0.65899163, -0.17068228, -0.7232694, 9.936551094055176, 0.9188181161880493, 0.6355998516082764, 3.75075626373291, 0.14856009185314178, 0.8597224354743958, -1.078125, -0.573974609375, 0.140869140625, 0, 
210, 2075932004, 0.116335236, -0.6590317, -0.17071234, -0.7231879, 9.96136474609375, 0.9030398726463318, 0.653264045715332, 3.4871561527252197, 0.430741548538208, 0.7506313323974609, -1.078125, -0.575439453125, 0.13916015625, 0, 
211, 2075948671, 0.11644907, -0.65910107, -0.17064513, -0.72312224, 9.945796966552734, 0.9079815149307251, 0.6781739592552185, 2.7702057361602783, 0.3295457661151886, 0.6364628076553345, -1.082275390625, -0.576171875, 0.140625, 0, 
212, 2075965338, 0.11660146, -0.65919197, -0.17063792, -0.72301644, 9.924431800842285, 0.8747655153274536, 0.6671943664550781, 3.445420265197754, 0.049381282180547714, 0.6270756125450134, -1.076904296875, -0.572021484375, 0.14453125, 0, 
213, 2075982005, 0.11673631, -0.65926474, -0.17056169, -0.7229464, 9.95563793182373, 0.8459762334823608, 0.6696617007255554, 2.160879611968994, 0.2524771988391876, 0.7379146814346313, -1.078857421875, -0.57177734375, 0.14111328125, 0, 
214, 2075998672, 0.11680902, -0.65930796, -0.1704766, -0.72291535, 9.932723999023438, 0.8685699105262756, 0.6764465570449829, 2.2458112239837646, 0.5540410876274109, 0.43631234765052795, -1.08203125, -0.5751953125, 0.1416015625, 0, 
215, 2076015339, 0.11687793, -0.6593538, -0.17040287, -0.7228797, 9.948028564453125, 0.9251282215118408, 0.6559900641441345, 2.509660243988037, 0.5281081795692444, 0.39029908180236816, -1.0791015625, -0.572021484375, 0.142822265625, 0, 
216, 2076032006, 0.1170046, -0.65939856, -0.17039333, -0.7228207, 9.948970794677734, 0.8851631879806519, 0.6677454113960266, 2.6639068126678467, 0.3975283205509186, 0.37201806902885437, -1.08056640625, -0.573974609375, 0.143310546875, 0, 
217, 2076048673, 0.11711392, -0.65944237, -0.17035227, -0.72277266, 9.972209930419922, 0.8021999597549438, 0.6853191256523132, 2.6926629543304443, 0.4825560748577118, 0.44065365195274353, -1.07958984375, -0.571533203125, 0.142822265625, 0, 
218, 2076065340, 0.117349096, -0.65945476, -0.17040251, -0.7227113, 9.968162536621094, 0.7619820237159729, 0.7092443108558655, 3.3889312744140625, 0.6158061027526855, 0.5955336689949036, -1.08154296875, -0.5712890625, 0.142578125, 0, 
219, 2076082007, 0.117555715, -0.65947163, -0.17041974, -0.7226583, 9.963534355163574, 0.8456100225448608, 0.7395938038825989, 3.2472808361053467, 0.6364756226539612, 0.6092877388000488, -1.082275390625, -0.56982421875, 0.14404296875, 0, 
220, 2076098674, 0.11763882, -0.6594817, -0.1703374, -0.72265494, 9.964567184448242, 0.9180969595909119, 0.6925400495529175, 2.042574405670166, 0.8157133460044861, 0.3916053771972656, -1.08251953125, -0.570068359375, 0.14599609375, 0, 
221, 2076115341, 0.11760737, -0.6594843, -0.17020473, -0.72268885, 9.932591438293457, 0.9315928220748901, 0.6474852561950684, 1.0408873558044434, 0.9065231084823608, -5.570762441493571E-4, -1.082763671875, -0.570068359375, 0.145263671875, 0, 
222, 2076132008, 0.11764145, -0.6594675, -0.17011905, -0.7227189, 9.953998565673828, 0.7974580526351929, 0.6819987297058105, 1.662648320198059, 1.0319997072219849, 0.1026172786951065, -1.0830078125, -0.569580078125, 0.1416015625, 0, 
223, 2076148675, 0.11773274, -0.6594367, -0.17004895, -0.7227487, 9.964485168457031, 0.7481424808502197, 0.7146676182746887, 2.155987501144409, 1.1697704792022705, 0.3096575438976288, -1.081298828125, -0.569580078125, 0.142333984375, 0, 
224, 2076165342, 0.11785944, -0.659361, -0.17001805, -0.7228044, 9.943341255187988, 0.7703476548194885, 0.6921549439430237, 2.677935838699341, 1.531345009803772, 0.2408490628004074, -1.0810546875, -0.570068359375, 0.14306640625, 0, 
225, 2076182009, 0.11804014, -0.6592748, -0.17003463, -0.72284967, 9.940991401672363, 0.8078736662864685, 0.6688717603683472, 3.076007843017578, 1.549235224723816, 0.27912718057632446, -1.079833984375, -0.567138671875, 0.142333984375, 0, 
226, 2076198676, 0.118088186, -0.6591909, -0.16994734, -0.7229389, 9.924731254577637, 0.8798121213912964, 0.696537435054779, 1.9413402080535889, 1.6677325963974, 0.059370238333940506, -1.08251953125, -0.56787109375, 0.142333984375, 0, 
227, 2076215343, 0.117977224, -0.6591269, -0.16970979, -0.7230711, 9.92050552368164, 0.9217315316200256, 0.6955264806747437, 0.21394290030002594, 1.6815378665924072, -0.07352126389741898, -1.080322265625, -0.56787109375, 0.143310546875, 0, 
228, 2076232010, 0.117865846, -0.65908074, -0.16951346, -0.7231774, 9.895873069763184, 0.8691313862800598, 0.6828365921974182, 0.4427923262119293, 1.4380122423171997, -0.21512745320796967, -1.080810546875, -0.5673828125, 0.14306640625, 0, 
229, 2076248677, 0.11778758, -0.6590023, -0.16936187, -0.7232972, 9.930877685546875, 0.839310884475708, 0.6752381324768066, 0.7114439010620117, 1.651519536972046, -0.3088955283164978, -1.0810546875, -0.5693359375, 0.141845703125, 0, 
230, 2076265344, 0.117832854, -0.6588626, -0.16936806, -0.72341555, 9.925470352172852, 0.7730259299278259, 0.6496921181678772, 2.25783634185791, 1.9812705516815186, -0.4677647650241852, -1.08349609375, -0.569091796875, 0.140869140625, 0, 
231, 2076282011, 0.11789012, -0.6587449, -0.16934091, -0.7235198, 9.93897533416748, 0.768200159072876, 0.6796659827232361, 2.2637975215911865, 1.859974980354309, -0.21343062818050385, -1.080810546875, -0.56884765625, 0.142822265625, 0, 
232, 2076298678, 0.117860235, -0.6586454, -0.16926485, -0.723633, 9.927285194396973, 0.8575032353401184, 0.6398888230323792, 1.512878179550171, 1.7391152381896973, -0.42148900032043457, -1.082275390625, -0.569580078125, 0.141357421875, 0, 
233, 2076315345, 0.117830046, -0.65856093, -0.16921508, -0.72372645, 9.940225601196289, 0.8427631258964539, 0.6679120659828186, 1.5399445295333862, 1.5449644327163696, -0.5150073766708374, -1.079345703125, -0.568603515625, 0.141357421875, 0, 
234, 2076332012, 0.117724285, -0.6585054, -0.16910093, -0.7238208, 9.929086685180664, 0.8183955550193787, 0.6636624336242676, 0.8573147654533386, 1.3708621263504028, -0.5656436681747437, -1.080078125, -0.568115234375, 0.136962890625, 0, 
235, 2076348679, 0.117581464, -0.65849185, -0.16896997, -0.7238869, 9.945272445678711, 0.8003394603729248, 0.6820003390312195, 1.029118299484253, 1.0465221405029297, -0.570426881313324, -1.08056640625, -0.568359375, 0.13818359375, 0, 
236, 2076365346, 0.11749755, -0.65846723, -0.16886812, -0.7239467, 9.957286834716797, 0.7575060129165649, 0.688829779624939, 1.297129511833191, 1.1033055782318115, -0.4299924373626709, -1.0810546875, -0.5693359375, 0.140380859375, 0, 
237, 2076382013, 0.117522135, -0.6584165, -0.16888133, -0.7239857, 9.935785293579102, 0.7864867448806763, 0.6936958432197571, 2.1998491287231445, 1.1512141227722168, -0.4433494508266449, -1.081298828125, -0.56982421875, 0.140869140625, 0, 
238, 2076398680, 0.117579855, -0.65838647, -0.16897371, -0.7239821, 9.904857635498047, 0.8174110054969788, 0.6581479907035828, 2.8243253231048584, 0.8336294293403625, -0.5774832367897034, -1.081298828125, -0.5673828125, 0.139404296875, 0, 
239, 2076415347, 0.11765036, -0.6583917, -0.16903886, -0.72395074, 9.902192115783691, 0.7876650094985962, 0.632402241230011, 2.694507360458374, 0.5665528774261475, -0.3309992849826813, -1.08251953125, -0.569580078125, 0.141845703125, 0, 
240, 2076432014, 0.11769583, -0.6584192, -0.16905835, -0.72391385, 9.930089950561523, 0.7887232899665833, 0.6650339961051941, 2.251112937927246, 0.43213751912117004, -0.22798505425453186, -1.08203125, -0.568359375, 0.142333984375, 0, 
241, 2076448681, 0.117772326, -0.65847015, -0.16909109, -0.7238474, 9.911890029907227, 0.7905868887901306, 0.7041165232658386, 2.3677659034729004, 0.1967567652463913, -0.09194318950176239, -1.082275390625, -0.568603515625, 0.138671875, 0, 
242, 2076465348, 0.11789648, -0.65854996, -0.1691455, -0.7237419, 9.943096160888672, 0.7718043923377991, 0.6961541175842285, 3.169661283493042, -0.04266435280442238, 0.14515997469425201, -1.0810546875, -0.57080078125, 0.14013671875, 0, 
243, 2076482015, 0.11790748, -0.6586376, -0.16908638, -0.7236742, 9.954391479492188, 0.8609365820884705, 0.7950026988983154, 2.0415050983428955, 0.050373777747154236, 0.07251594960689545, -1.083251953125, -0.56640625, 0.142333984375, 0, 
244, 2076498682, 0.1178261, -0.6587286, -0.1690147, -0.72362125, 9.919078826904297, 0.9621265530586243, 0.7209895849227905, 1.0778080224990845, -0.04800460487604141, -0.37190285325050354, -1.08056640625, -0.567138671875, 0.142578125, 0, 
245, 2076515349, 0.11780806, -0.6588062, -0.16904134, -0.7235473, 9.9076566696167, 0.8967445492744446, 0.6941919326782227, 1.9766085147857666, -0.07466741651296616, -0.487684965133667, -1.081298828125, -0.568603515625, 0.140625, 0, 
246, 2076532016, 0.117649406, -0.6589074, -0.16892281, -0.72350854, 9.93130111694336, 0.7727551460266113, 0.6663805842399597, 0.9261167645454407, -0.04453407973051071, -0.5001711845397949, -1.08251953125, -0.5693359375, 0.143310546875, 0, 
247, 2076548683, 0.11771302, -0.6589505, -0.16901776, -0.7234369, 9.930642127990723, 0.6887152791023254, 0.6850050687789917, 2.7445929050445557, 0.1496421992778778, -0.42985156178474426, -1.080810546875, -0.5673828125, 0.14306640625, 0, 
248, 2076565350, 0.11796881, -0.6590116, -0.16926964, -0.7232807, 9.973428726196289, 0.7072048783302307, 0.6758370399475098, 4.428269386291504, -0.2308792620897293, -0.10482638329267502, -1.079833984375, -0.564453125, 0.144287109375, 0, 
249, 2076582017, 0.118124366, -0.6591046, -0.16937922, -0.72314495, 9.96280574798584, 0.7903595566749573, 0.6633731126785278, 3.0502102375030518, -0.31524112820625305, 0.04325345158576965, -1.08203125, -0.56689453125, 0.142822265625, 0, 
250, 2076598684, 0.118011475, -0.65930575, -0.16922054, -0.7230172, 9.911690711975098, 0.8306174874305725, 0.6699047684669495, 0.7084728479385376, -0.8815378546714783, 0.06596551090478897, -1.08349609375, -0.56689453125, 0.142822265625, 0, 
251, 2076615351, 0.11798174, -0.6595135, -0.16914517, -0.7228502, 9.9030122756958, 0.729186475276947, 0.7017189264297485, 1.5360575914382935, -1.0625107288360596, 0.1414589285850525, -1.08447265625, -0.56689453125, 0.14501953125, 0, 
252, 2076632018, 0.11813626, -0.6596601, -0.169159, -0.7226879, 9.935219764709473, 0.7490876317024231, 0.6845321655273438, 2.699444055557251, -0.6143206357955933, 0.5617313385009766, -1.0830078125, -0.56494140625, 0.144775390625, 0, 
253, 2076648685, 0.11828832, -0.6598106, -0.1692034, -0.72251517, 9.925284385681152, 0.7674127221107483, 0.6905536651611328, 2.883701801300049, -0.7056299448013306, 0.4238710105419159, -1.08349609375, -0.56640625, 0.147216796875, 0, 
254, 2076665352, 0.11837065, -0.6599809, -0.16918065, -0.7223515, 9.908646583557129, 0.8266517519950867, 0.6918483972549438, 2.13278865814209, -0.7984631657600403, 0.39084339141845703, -1.084716796875, -0.565185546875, 0.1455078125, 0, 
255, 2076682019, 0.11839229, -0.6601302, -0.1690742, -0.7222363, 9.9156494140625, 0.8350278735160828, 0.6721888184547424, 1.4946930408477783, -0.4690197706222534, 0.41242846846580505, -1.08251953125, -0.565185546875, 0.14697265625, 0, 
256, 2076698686, 0.11856068, -0.66023403, -0.16911268, -0.7221049, 9.928032875061035, 0.7308858036994934, 0.659537672996521, 2.8962326049804688, -0.26908060908317566, 0.4422800838947296, -1.083251953125, -0.563720703125, 0.144287109375, 0, 
257, 2076715353, 0.118801005, -0.6603394, -0.16919534, -0.7219497, 9.95046615600586, 0.732307493686676, 0.6493678092956543, 3.5965869426727295, -0.3265555500984192, 0.6258847713470459, -1.081298828125, -0.567626953125, 0.14990234375, 0, 
258, 2076732020, 0.11912351, -0.66040176, -0.16934395, -0.7218046, 9.921874046325684, 0.7614049911499023, 0.6302433013916016, 4.258137226104736, -0.03168931230902672, 0.6690933704376221, -1.08544921875, -0.565185546875, 0.148681640625, 0, 
259, 2076748687, 0.119396515, -0.660459, -0.16941015, -0.7216916, 9.944186210632324, 0.8097658157348633, 0.6530186533927917, 3.5365633964538574, 0.14491666853427887, 0.7602617740631104, -1.086669921875, -0.564208984375, 0.149658203125, 0, 
260, 2076765354, 0.11959749, -0.6605272, -0.16938241, -0.7216024, 9.936781883239746, 0.791410505771637, 0.6018767356872559, 2.6460607051849365, 0.18469318747520447, 0.8185690641403198, -1.082763671875, -0.564453125, 0.150634765625, 0, 
261, 2076782021, 0.119802676, -0.6606179, -0.16933905, -0.72149545, 9.970320701599121, 0.7705273628234863, 0.5849795937538147, 2.707371234893799, 0.022737672552466393, 0.9596245288848877, -1.08203125, -0.5654296875, 0.145751953125, 0, 
262, 2076798688, 0.12004876, -0.6606849, -0.16933253, -0.7213948, 9.993670463562012, 0.7548177242279053, 0.5900985598564148, 3.580886125564575, 0.23147478699684143, 0.994720458984375, -1.087890625, -0.5625, 0.148193359375, 0, 
263, 2076815355, 0.12040815, -0.66071665, -0.1695004, -0.72126627, 9.97677993774414, 0.7677814364433289, 0.6149922013282776, 4.691363334655762, 0.23958121240139008, 0.7226240038871765, -1.086669921875, -0.561767578125, 0.151611328125, 0, 
264, 2076832022, 0.12084886, -0.6607061, -0.16975005, -0.7211435, 9.954561233520508, 0.782814085483551, 0.6091238856315613, 5.156400680541992, 0.4730793833732605, 0.6777377128601074, -1.084228515625, -0.56201171875, 0.151123046875, 0, 
265, 2076848689, 0.121167496, -0.66070235, -0.16992567, -0.72105217, 9.940868377685547, 0.8233006596565247, 0.6451400518417358, 4.339252471923828, 0.5160062909126282, 0.39948126673698425, -1.0869140625, -0.561279296875, 0.15234375, 0, 
266, 2076865356, 0.12136582, -0.66073036, -0.17000847, -0.7209736, 9.926084518432617, 0.8574690222740173, 0.6431211829185486, 3.2088100910186768, 0.34379926323890686, 0.2486736923456192, -1.086181640625, -0.559814453125, 0.15380859375, 0, 
267, 2076882023, 0.121493325, -0.66075504, -0.17004666, -0.7209205, 9.93616771697998, 0.8088310956954956, 0.6364496350288391, 2.469602346420288, 0.41530993580818176, 0.06693879514932632, -1.088623046875, -0.55859375, 0.155029296875, 0, 
268, 2076898690, 0.12167533, -0.66075176, -0.17020507, -0.7208555, 9.928458213806152, 0.7346939444541931, 0.5893393158912659, 3.2706644535064697, 0.4550992548465729, -0.2355792075395584, -1.084716796875, -0.55859375, 0.151123046875, 0, 
269, 2076915357, 0.12198221, -0.66070503, -0.17049345, -0.7207783, 9.947388648986816, 0.718782365322113, 0.6089547872543335, 4.811294078826904, 0.6783267259597778, -0.230981707572937, -1.087890625, -0.557861328125, 0.15478515625, 0, 
270, 2076932024, 0.12234772, -0.66061807, -0.17087537, -0.7207057, 9.975723266601562, 0.7272558808326721, 0.5781391263008118, 5.2977824211120605, 0.8658887147903442, -0.43649810552597046, -1.088134765625, -0.557861328125, 0.1552734375, 0, 
271, 2076948691, 0.122760564, -0.66054577, -0.17133938, -0.7205915, 9.936334609985352, 0.7153316736221313, 0.6310697197914124, 5.9606523513793945, 0.5932030081748962, -0.5234276056289673, -1.088134765625, -0.55615234375, 0.154296875, 0, 
272, 2076965358, 0.123066746, -0.6605152, -0.17165245, -0.7204927, 9.921205520629883, 0.8048816919326782, 0.6575950384140015, 4.614730358123779, 0.45159032940864563, -0.3372872471809387, -1.08935546875, -0.556640625, 0.156494140625, 0, 
273, 2076982025, 0.12323576, -0.6605415, -0.17182913, -0.72039765, 9.898073196411133, 0.8435090184211731, 0.7207643985748291, 3.383988380432129, 0.14865611493587494, -0.3223806917667389, -1.0927734375, -0.556640625, 0.155029296875, 0, 
274, 2076998692, 0.12328905, -0.6605775, -0.17190978, -0.72033626, 9.930089950561523, 0.8917966485023499, 0.7025172710418701, 2.513258934020996, 0.20928135514259338, -0.46326330304145813, -1.0888671875, -0.5576171875, 0.1572265625, 0, 
275, 2077015359, 0.1234234, -0.6605662, -0.1721015, -0.72027785, 9.924118995666504, 0.8648322820663452, 0.6880362629890442, 3.2588446140289307, 0.43822047114372253, -0.6329986453056335, -1.089111328125, -0.556640625, 0.157958984375, 0, 
276, 2077032026, 0.123609215, -0.660541, -0.17236315, -0.7202065, 9.929914474487305, 0.8039301633834839, 0.6828985810279846, 3.661015510559082, 0.4299476146697998, -0.7110918760299683, -1.091796875, -0.555908203125, 0.15771484375, 0, 
277, 2077048693, 0.123850614, -0.6604815, -0.17266515, -0.7201473, 9.97475814819336, 0.7716756463050842, 0.6628627181053162, 4.16093635559082, 0.6859080791473389, -0.6669995188713074, -1.088623046875, -0.5556640625, 0.158447265625, 0, 
278, 2077065360, 0.124143876, -0.66043574, -0.17297922, -0.7200633, 9.974984169006348, 0.7291965484619141, 0.6220604777336121, 4.483605861663818, 0.5562054514884949, -0.42730313539505005, -1.08935546875, -0.5537109375, 0.156982421875, 0, 
279, 2077082027, 0.12437553, -0.66043293, -0.1731707, -0.71997994, 9.976552963256836, 0.7809270620346069, 0.6051175594329834, 3.624286651611328, 0.38307636976242065, -0.12238389253616333, -1.091796875, -0.553955078125, 0.159423828125, 0, 
280, 2077098694, 0.12455069, -0.6604194, -0.17333606, -0.7199223, 9.961201667785645, 0.8099169135093689, 0.5953648686408997, 2.9704203605651855, 0.48801156878471375, -0.33393198251724243, -1.09033203125, -0.555419921875, 0.1591796875, 0, 
281, 2077115361, 0.1246188, -0.6604411, -0.17338347, -0.7198791, 9.933350563049316, 0.7920481562614441, 0.6402169466018677, 2.1735451221466064, 0.38002845644950867, -0.27732789516448975, -1.09228515625, -0.5537109375, 0.15869140625, 0, 
282, 2077132028, 0.12473425, -0.66041714, -0.17347471, -0.7198591, 9.954903602600098, 0.8278053402900696, 0.6639167666435242, 2.6152868270874023, 0.7288093566894531, -0.31494012475013733, -1.09375, -0.55419921875, 0.16064453125, 0, 
283, 2077148695, 0.12497167, -0.6603335, -0.17370312, -0.71983975, 9.945165634155273, 0.8076359033584595, 0.6019115447998047, 3.7003955841064453, 1.0370583534240723, -0.41718611121177673, -1.09521484375, -0.5546875, 0.162109375, 0, 
284, 2077165362, 0.12528631, -0.6602257, -0.1740049, -0.719811, 9.985730171203613, 0.7542446255683899, 0.6170040965080261, 4.165982246398926, 1.1202993392944336, -0.4050968289375305, -1.091064453125, -0.55419921875, 0.1591796875, 0, 
285, 2077182029, 0.12552133, -0.66012007, -0.17422839, -0.71981287, 9.997751235961914, 0.7672079801559448, 0.622288703918457, 3.9817891120910645, 1.270018458366394, -0.4311321973800659, -1.09228515625, -0.55078125, 0.162109375, 0, 
286, 2077198696, 0.12581785, -0.66000444, -0.1745031, -0.71980053, 9.966419219970703, 0.7088640332221985, 0.6067959070205688, 4.203075885772705, 1.25620698928833, -0.37918323278427124, -1.0947265625, -0.55419921875, 0.159423828125, 0, 
287, 2077215363, 0.12605157, -0.6599155, -0.17469688, -0.7197942, 9.928704261779785, 0.7161108255386353, 0.622622549533844, 3.6953625679016113, 1.164609670639038, -0.2873169183731079, -1.092041015625, -0.553466796875, 0.16162109375, 0, 
288, 2077232030, 0.12628175, -0.6598232, -0.17487118, -0.71979624, 9.904919624328613, 0.733289897441864, 0.6477044820785522, 3.525524377822876, 1.2269635200500488, -0.2326337695121765, -1.094482421875, -0.551513671875, 0.160888671875, 0, 
289, 2077248697, 0.12655522, -0.65970224, -0.17508374, -0.71980727, 9.905094146728516, 0.762018620967865, 0.659469485282898, 3.8385493755340576, 1.4197630882263184, -0.2413676530122757, -1.094970703125, -0.55029296875, 0.158935546875, 0, 
290, 2077265364, 0.12698546, -0.6595453, -0.1754321, -0.71979064, 9.93656063079834, 0.7933103442192078, 0.623369574546814, 5.469758987426758, 1.5562149286270142, -0.08990698307752609, -1.09423828125, -0.55078125, 0.160400390625, 0, 
291, 2077282031, 0.12746817, -0.6593734, -0.17582686, -0.71976644, 9.978273391723633, 0.7326375246047974, 0.6608553528785706, 5.906788349151611, 1.6147655248641968, -0.05494564771652222, -1.099365234375, -0.55126953125, 0.163818359375, 0, 
292, 2077298698, 0.1278756, -0.6592019, -0.17612159, -0.71977913, 9.99007511138916, 0.7688227295875549, 0.672549843788147, 5.007731914520264, 1.7741533517837524, -0.00802317913621664, -1.099609375, -0.55078125, 0.1630859375, 0, 
293, 2077315365, 0.12821412, -0.65903527, -0.1763469, -0.71981627, 9.980154037475586, 0.8346320390701294, 0.6945598125457764, 4.371166229248047, 1.8404649496078491, -0.04728745296597481, -1.09765625, -0.5498046875, 0.161865234375, 0, 
294, 2077332032, 0.1284427, -0.6589011, -0.17651239, -0.7198578, 9.963844299316406, 0.8295076489448547, 0.6905891299247742, 3.486618757247925, 1.612396478652954, -0.28757306933403015, -1.098388671875, -0.547607421875, 0.162109375, 0, 
295, 2077348699, 0.12865049, -0.6587993, -0.17661591, -0.7198884, 9.951396942138672, 0.708983838558197, 0.634419858455658, 3.133610963821411, 1.4348872900009155, -0.05366500839591026, -1.095703125, -0.548828125, 0.160888671875, 0, 
296, 2077365366, 0.12890962, -0.65872914, -0.17667142, -0.7198927, 9.948190689086914, 0.6621956825256348, 0.6805699467658997, 3.17626953125, 1.2679184675216675, 0.47853484749794006, -1.096923828125, -0.54736328125, 0.162109375, 0, 
297, 2077382033, 0.12921816, -0.6586509, -0.17673025, -0.71989465, 9.954423904418945, 0.718134343624115, 0.6793113946914673, 3.438722848892212, 1.354591727256775, 0.6982406973838806, -1.095947265625, -0.548583984375, 0.1630859375, 0, 
298, 2077398700, 0.12954514, -0.658561, -0.17683552, -0.7198923, 9.9226655960083, 0.8293358683586121, 0.6435274481773376, 3.7627623081207275, 1.371918797492981, 0.5656694173812866, -1.10009765625, -0.547607421875, 0.159912109375, 0, 
299, 2077415367, 0.12984374, -0.6584717, -0.17695053, -0.71989197, 9.918871879577637, 0.7650383710861206, 0.6170790195465088, 3.7989914417266846, 1.343962550163269, 0.3911187946796417, -1.099365234375, -0.546875, 0.16455078125, 0, 
300, 2077432034, 0.13011739, -0.6584046, -0.1770427, -0.71988124, 9.945409774780273, 0.6971147060394287, 0.6503686308860779, 3.34126615524292, 1.1598966121673584, 0.39273229241371155, -1.10400390625, -0.546875, 0.1640625, 0, 
301, 2077448701, 0.13044496, -0.65831643, -0.17713636, -0.7198794, 9.947711944580078, 0.6899780631065369, 0.6647769808769226, 3.6138885021209717, 1.3693575859069824, 0.6179577112197876, -1.0986328125, -0.546142578125, 0.15869140625, 0, 
302, 2077465368, 0.13087347, -0.6582152, -0.17734891, -0.7198419, 9.940972328186035, 0.6926280856132507, 0.6305232048034668, 4.820553302764893, 1.296566128730774, 0.5994396805763245, -1.100341796875, -0.544189453125, 0.1640625, 0, 
303, 2077482035, 0.1313291, -0.6581385, -0.17759293, -0.7197689, 9.968033790588379, 0.7027860283851624, 0.6705617308616638, 5.048007488250732, 1.014634370803833, 0.6466694474220276, -1.10205078125, -0.545166015625, 0.16162109375, 0, 
304, 2077498702, 0.131649, -0.65808165, -0.17771424, -0.71973234, 9.983810424804688, 0.7824568152427673, 0.6835840940475464, 3.853546619415283, 1.0323072671890259, 0.5257007479667664, -1.1025390625, -0.543701171875, 0.16748046875, 0, 
305, 2077515369, 0.13194978, -0.6579924, -0.17788526, -0.7197167, 9.93946647644043, 0.7897700667381287, 0.6460111141204834, 3.8486673831939697, 1.2049881219863892, 0.1376042664051056, -1.100341796875, -0.543701171875, 0.164306640625, 0, 
306, 2077532036, 0.13217592, -0.6579556, -0.17800213, -0.7196801, 9.952872276306152, 0.6972508430480957, 0.7201258540153503, 3.3404593467712402, 0.8173012733459473, 0.10583166778087616, -1.100830078125, -0.541259765625, 0.162353515625, 0, 
307, 2077548703, 0.13249572, -0.6578678, -0.17819092, -0.71965486, 9.96484088897705, 0.6963701844215393, 0.7185081839561462, 4.13697624206543, 1.1678751707077026, 0.16791686415672302, -1.10498046875, -0.5419921875, 0.163818359375, 0, 
308, 2077565370, 0.13281447, -0.65779966, -0.17839304, -0.71960825, 9.970868110656738, 0.7481059432029724, 0.6690390706062317, 4.192978382110596, 0.9568136930465698, 0.14450685679912567, -1.10400390625, -0.54052734375, 0.166259765625, 0, 
309, 2077582037, 0.1329277, -0.65778595, -0.17847562, -0.7195793, 9.93774127960205, 0.733289897441864, 0.6250141263008118, 2.5425727367401123, 0.618457019329071, -0.2851141691207886, -1.105224609375, -0.537109375, 0.164794921875, 0, 
310, 2077598704, 0.13289751, -0.65778726, -0.17844419, -0.7195915, 9.916635513305664, 0.677354633808136, 0.5900920629501343, 1.3765417337417603, 0.6689653396606445, -0.4907841086387634, -1.1025390625, -0.54052734375, 0.16748046875, 0, 
311, 2077615371, 0.13290444, -0.657718, -0.17849033, -0.7196421, 9.914740562438965, 0.6428161263465881, 0.5961093306541443, 1.8952503204345703, 1.165147304534912, -0.7852917909622192, -1.103515625, -0.54150390625, 0.165283203125, 0, 
312, 2077632038, 0.1330416, -0.6576003, -0.17865671, -0.71968305, 9.898585319519043, 0.6804054379463196, 0.614483118057251, 3.1408724784851074, 1.412297010421753, -0.7383052706718445, -1.104248046875, -0.541259765625, 0.163818359375, 0, 
313, 2077648705, 0.13328432, -0.65744, -0.17893201, -0.71971613, 9.90867805480957, 0.6909459829330444, 0.5678524374961853, 4.2373270988464355, 1.6220908164978027, -0.7518929243087769, -1.103515625, -0.5400390625, 0.16845703125, 0, 
314, 2077665372, 0.13352418, -0.6572404, -0.17922476, -0.7197811, 9.935215950012207, 0.7451122999191284, 0.617343008518219, 4.149539947509766, 1.93083918094635, -0.9357409477233887, -1.103515625, -0.5400390625, 0.1669921875, 0, 
315, 2077682039, 0.13376407, -0.6570193, -0.17957604, -0.7198509, 9.934104919433594, 0.7330707907676697, 0.6614218354225159, 4.517184257507324, 2.0113911628723145, -1.2263298034667969, -1.105712890625, -0.538818359375, 0.161376953125, 0, 
316, 2077698706, 0.13391137, -0.6568391, -0.17981856, -0.7199275, 9.99843978881836, 0.721927285194397, 0.6981518864631653, 3.6269500255584717, 1.8343300819396973, -1.1415002346038818, -1.10888671875, -0.540283203125, 0.164794921875, 0, 
317, 2077715373, 0.13409992, -0.6566473, -0.18011284, -0.71999365, 10.013331413269043, 0.7065064311027527, 0.666182816028595, 4.023550987243652, 1.840516209602356, -1.1812899112701416, -1.107421875, -0.538818359375, 0.167724609375, 0, 
318, 2077732040, 0.13429815, -0.656485, -0.18038572, -0.72003645, 10.007049560546875, 0.7643129229545593, 0.7045973539352417, 3.8845245838165283, 1.61530339717865, -0.9861977696418762, -1.108154296875, -0.5400390625, 0.167724609375, 0, 
319, 2077748707, 0.13446495, -0.6563617, -0.1806345, -0.72005546, 9.978299140930176, 0.8001869916915894, 0.7150946855545044, 3.6233394145965576, 1.29860258102417, -0.9620835781097412, -1.107177734375, -0.5380859375, 0.167236328125, 0, 
320, 2077765374, 0.13460824, -0.65624714, -0.18084764, -0.72007954, 9.981334686279297, 0.7739074230194092, 0.7081491947174072, 3.3413944244384766, 1.2808654308319092, -0.9083607196807861, -1.109375, -0.5400390625, 0.167236328125, 0, 
321, 2077782041, 0.13474905, -0.6561439, -0.18104048, -0.7200988, 9.974600791931152, 0.7629939317703247, 0.735720694065094, 3.2343714237213135, 1.2184728384017944, -0.8099439144134521, -1.1103515625, -0.539794921875, 0.168212890625, 0, 
322, 2077798708, 0.13491467, -0.6560798, -0.18123801, -0.72007656, 9.952383995056152, 0.7777677774429321, 0.7595608830451965, 3.3621277809143066, 0.8605482578277588, -0.6227919459342957, -1.107421875, -0.53857421875, 0.166259765625, 0, 
323, 2077815375, 0.13508533, -0.6560599, -0.18137918, -0.72002715, 9.92638111114502, 0.7550635933876038, 0.7294929623603821, 3.1382601261138916, 0.5787317156791687, -0.2594246566295624, -1.11328125, -0.539794921875, 0.169921875, 0, 
324, 2077832042, 0.13513245, -0.65607345, -0.18134691, -0.72001404, 9.899466514587402, 0.7484461069107056, 0.705258309841156, 1.5621696710586548, 0.5747873783111572, -0.08675660938024521, -1.11083984375, -0.5380859375, 0.167724609375, 0, 
325, 2077848709, 0.13521269, -0.65607655, -0.18132946, -0.7200005, 9.880105972290039, 0.787507951259613, 0.7110643982887268, 1.8383642435073853, 0.6556594967842102, 8.196063572540879E-4, -1.11181640625, -0.53759765625, 0.166748046875, 0, 
326, 2077865376, 0.1353475, -0.65604806, -0.18139023, -0.71998584, 9.890870094299316, 0.7637445330619812, 0.7152551412582397, 2.5150647163391113, 0.802484393119812, -0.11804252117872238, -1.11376953125, -0.536865234375, 0.168212890625, 0, 
327, 2077882043, 0.13552792, -0.656024, -0.18146886, -0.7199541, 9.835160255432129, 0.7301807403564453, 0.7172988653182983, 2.821955919265747, 0.7417437434196472, 0.0485488697886467, -1.113525390625, -0.5361328125, 0.167724609375, 0, 
328, 2077898710, 0.13583328, -0.65597606, -0.18158862, -0.7199101, 9.842299461364746, 0.7334725260734558, 0.7346959114074707, 3.606114625930786, 0.9195600152015686, 0.4613231420516968, -1.113037109375, -0.535888671875, 0.169921875, 0, 
329, 2077915377, 0.13619345, -0.6558964, -0.18171841, -0.71988183, 9.870732307434082, 0.7507798671722412, 0.7716180682182312, 3.895537853240967, 1.2026697397232056, 0.6314554214477539, -1.115478515625, -0.535888671875, 0.171875, 0, 
330, 2077932044, 0.13661994, -0.6558181, -0.18186854, -0.7198344, 9.901057243347168, 0.7808348536491394, 0.7492560744285583, 4.2843780517578125, 1.1679905652999878, 0.886276364326477, -1.11181640625, -0.53564453125, 0.169921875, 0, 
331, 2077948711, 0.1369668, -0.65576595, -0.18193807, -0.71979856, 9.944491386413574, 0.7895879745483398, 0.8196060061454773, 3.5282516479492188, 1.0696502923965454, 0.8799754977226257, -1.1171875, -0.53369140625, 0.17138671875, 0, 
332, 2077965378, 0.13716035, -0.65572286, -0.18188572, -0.719814, 9.959064483642578, 0.8827140927314758, 0.7888786792755127, 2.1287741661071777, 1.172075629234314, 0.6337606906890869, -1.116455078125, -0.532958984375, 0.169921875, 0, 
333, 2077982045, 0.13736896, -0.6556519, -0.18192069, -0.71983004, 9.952066421508789, 0.8345735669136047, 0.767333447933197, 2.67807674407959, 1.2475690841674805, 0.28504374623298645, -1.114990234375, -0.533447265625, 0.172607421875, 0, 
334, 2077998712, 0.13756387, -0.6555816, -0.181936, -0.719853, 9.97807502746582, 0.7291139364242554, 0.7693775296211243, 2.469627618789673, 1.2727590799331665, 0.29920756816864014, -1.116943359375, -0.53515625, 0.169189453125, 0, 
335, 2078015379, 0.13775879, -0.6555156, -0.18192495, -0.71987855, 9.973066329956055, 0.712029755115509, 0.787600040435791, 2.3971312046051025, 1.291072130203247, 0.4261568784713745, -1.114501953125, -0.53173828125, 0.171875, 0, 
336, 2078032046, 0.13797477, -0.65542185, -0.18191506, -0.7199251, 9.975543022155762, 0.7893839478492737, 0.7707439064979553, 2.440518856048584, 1.5413979291915894, 0.4646015763282776, -1.1201171875, -0.533447265625, 0.171630859375, 0, 
337, 2078048713, 0.13804801, -0.6552925, -0.18188897, -0.72003543, 9.951351165771484, 0.9362349510192871, 0.7234307527542114, 1.679463267326355, 1.8394016027450562, -0.27048930525779724, -1.118408203125, -0.532470703125, 0.169921875, 0, 
338, 2078065380, 0.1380858, -0.65512556, -0.18195266, -0.720164, 9.946354866027832, 0.8348428010940552, 0.6860195994377136, 1.9907342195510864, 1.9802331924438477, -0.9091804623603821, -1.1201171875, -0.530517578125, 0.1708984375, 0, 
339, 2078082047, 0.13806944, -0.6549492, -0.18198192, -0.72032017, 9.969194412231445, 0.7234131693840027, 0.7125035524368286, 1.5168224573135376, 2.1135857105255127, -1.059104561805725, -1.119140625, -0.533203125, 0.169921875, 0, 
340, 2078098714, 0.13808359, -0.6547432, -0.18205175, -0.72048706, 9.942557334899902, 0.6708314418792725, 0.7449528574943542, 1.893738865852356, 2.3106627464294434, -1.1366723775863647, -1.116943359375, -0.53173828125, 0.16845703125, 0, 
341, 2078115381, 0.13818595, -0.6545308, -0.18219815, -0.7206234, 9.911471366882324, 0.7001455426216125, 0.7654724717140198, 2.71439528465271, 2.2412521839141846, -1.0263457298278809, -1.12109375, -0.533935546875, 0.169677734375, 0, 
342, 2078132048, 0.1382457, -0.6543262, -0.18231098, -0.72076917, 9.869202613830566, 0.8036551475524902, 0.753903865814209, 2.333444833755493, 2.2219913005828857, -1.0862665176391602, -1.121337890625, -0.53515625, 0.169921875, 0, 
343, 2078148715, 0.13819872, -0.65416557, -0.1823471, -0.7209148, 9.886652946472168, 0.8603550791740417, 0.7420737743377686, 1.4379866123199463, 1.942710518836975, -1.2128958702087402, -1.12060546875, -0.53173828125, 0.1669921875, 0, 
344, 2078165382, 0.1380779, -0.6540286, -0.18232685, -0.72106737, 9.87256908416748, 0.8424323797225952, 0.7696928977966309, 0.799910306930542, 1.8179510831832886, -1.298621654510498, -1.12109375, -0.5341796875, 0.166259765625, 0, 
345, 2078182049, 0.1379263, -0.65390015, -0.1823062, -0.7212182, 9.917223930358887, 0.833383321762085, 0.7769652605056763, 0.6584897637367249, 1.728037714958191, -1.4333571195602417, -1.121337890625, -0.53369140625, 0.166748046875, 0, 
346, 2078198716, 0.13782716, -0.6537205, -0.1823568, -0.721387, 9.947798728942871, 0.8231494426727295, 0.8185204267501831, 1.2537287473678589, 2.059478521347046, -1.574905514717102, -1.118408203125, -0.533935546875, 0.16796875, 0, 
347, 2078215383, 0.13779679, -0.65353113, -0.18253624, -0.7215191, 9.988675117492676, 0.8129521608352661, 0.7417647838592529, 2.2355148792266846, 1.9021143913269043, -1.789668321609497, -1.121337890625, -0.534423828125, 0.163818359375, 0, 
348, 2078232050, 0.13782334, -0.6533387, -0.18277322, -0.7216282, 10.032782554626465, 0.8175587058067322, 0.7483088970184326, 2.857186794281006, 1.8350861072540283, -1.7431044578552246, -1.122314453125, -0.534912109375, 0.16748046875, 0, 
349, 2078248717, 0.13778067, -0.65317476, -0.18298857, -0.72173035, 10.000237464904785, 0.8741168975830078, 0.7967615723609924, 2.365121364593506, 1.5914641618728638, -1.9497795104980469, -1.12255859375, -0.534912109375, 0.163330078125, 0, 
350, 2078265384, 0.13766909, -0.65308243, -0.18315282, -0.72179335, 9.967585563659668, 0.8512284159660339, 0.7730794548988342, 1.835726261138916, 1.026224136352539, -1.9291421175003052, -1.118896484375, -0.535888671875, 0.16455078125, 0, 
351, 2078282051, 0.13741018, -0.6530677, -0.18315251, -0.72185606, 9.971904754638672, 0.8236691355705261, 0.8062235713005066, 0.27271121740341187, 0.6079814434051514, -1.8209668397903442, -1.122802734375, -0.535400390625, 0.162353515625, 0, 
352, 2078298718, 0.13709322, -0.65307724, -0.183095, -0.7219223, 9.941534042358398, 0.8435299396514893, 0.7621135711669922, -0.28730401396751404, 0.4846690595149994, -1.824321985244751, -1.118408203125, -0.537841796875, 0.1630859375, 0, 
353, 2078315385, 0.13689594, -0.65309656, -0.1831429, -0.7219302, 9.946090698242188, 0.8450050950050354, 0.7451055645942688, 0.8247032761573792, 0.22463616728782654, -1.634519100189209, -1.121826171875, -0.535888671875, 0.161865234375, 0, 
354, 2078332052, 0.13671713, -0.6530941, -0.18324691, -0.72193986, 9.921552658081055, 0.877228319644928, 0.7568219900131226, 1.200121521949768, 0.3109894096851349, -1.8234257698059082, -1.121826171875, -0.540771484375, 0.164306640625, 0, 
355, 2078348719, 0.1365836, -0.6530714, -0.18338455, -0.7219508, 9.914902687072754, 0.8973994255065918, 0.7558932900428772, 1.5991289615631104, 0.44395771622657776, -1.7731096744537354, -1.1201171875, -0.53759765625, 0.163818359375, 0, 
356, 2078365386, 0.13643143, -0.65304697, -0.18349786, -0.7219729, 9.883883476257324, 0.8758083581924438, 0.7782859802246094, 1.3890663385391235, 0.5015990734100342, -1.7652978897094727, -1.12109375, -0.53955078125, 0.164306640625, 0, 
357, 2078382053, 0.1363129, -0.65303385, -0.1835885, -0.72198397, 9.865601539611816, 0.8707495331764221, 0.749955952167511, 1.4060089588165283, 0.45739156007766724, -1.472083330154419, -1.1201171875, -0.541015625, 0.16357421875, 0, 
358, 2078398720, 0.13626176, -0.653039, -0.18369679, -0.72196156, 9.895432472229004, 0.8185860514640808, 0.7377811670303345, 1.8414124250411987, 0.2870543599128723, -1.1594421863555908, -1.1201171875, -0.54052734375, 0.1650390625, 0, 
359, 2078415387, 0.13618706, -0.65306664, -0.18375452, -0.72193587, 9.927331924438477, 0.8245269656181335, 0.7353447675704956, 1.441111445426941, 0.17658677697181702, -1.0192253589630127, -1.1181640625, -0.540283203125, 0.1640625, 0, 
360, 2078432054, 0.13621086, -0.6530784, -0.18388236, -0.7218882, 9.944742202758789, 0.891819953918457, 0.7257745265960693, 2.3027098178863525, 0.2179640680551529, -0.8417934775352478, -1.120361328125, -0.539794921875, 0.163818359375, 0, 
361, 2078448721, 0.1363558, -0.6530761, -0.18412253, -0.7218017, 9.953447341918945, 0.8788322806358337, 0.7410187125205994, 3.457432508468628, 0.161065474152565, -0.7249354124069214, -1.12109375, -0.54248046875, 0.16650390625, 0, 
362, 2078465388, 0.13649459, -0.6531213, -0.18432724, -0.72168237, 9.979259490966797, 0.8701925873756409, 0.799970269203186, 3.2337441444396973, -0.19695526361465454, -0.5052680969238281, -1.120361328125, -0.538818359375, 0.16552734375, 0, 
363, 2078482055, 0.13669732, -0.6531951, -0.18455295, -0.72151953, 9.995463371276855, 0.8629714846611023, 0.8098061680793762, 3.6466333866119385, -0.4746609032154083, -0.20449818670749664, -1.11962890625, -0.540283203125, 0.1640625, 0, 
364, 2078498722, 0.13698341, -0.65329456, -0.18480481, -0.7213107, 10.00247859954834, 0.8615289926528931, 0.77434241771698, 4.23293399810791, -0.7261136770248413, 0.1723862886428833, -1.12109375, -0.5400390625, 0.1640625, 0, 
365, 2078515389, 0.13705349, -0.6534655, -0.18485521, -0.7211296, 9.95181655883789, 0.855552613735199, 0.7675541043281555, 2.168755531311035, -1.0397411584854126, 0.07206133008003235, -1.119140625, -0.538818359375, 0.166015625, 0, 
366, 2078532056, 0.13708311, -0.65369105, -0.18487342, -0.72091484, 9.9398775100708, 0.7940307855606079, 0.787335216999054, 1.8070529699325562, -1.4839550256729126, 0.11806174367666245, -1.12060546875, -0.537841796875, 0.166259765625, 0, 
367, 2078548723, 0.13719153, -0.65391123, -0.1849271, -0.7206808, 9.934062957763672, 0.7937732338905334, 0.7791802883148193, 2.363053321838379, -1.479242205619812, 0.3583216667175293, -1.121826171875, -0.540283203125, 0.170166015625, 0, 
368, 2078565390, 0.13724515, -0.6542033, -0.18491289, -0.7204091, 9.898755073547363, 0.794287383556366, 0.743706226348877, 1.7541239261627197, -2.0116918087005615, 0.5197457075119019, -1.120361328125, -0.538330078125, 0.16552734375, 0, 
369, 2078582057, 0.13730967, -0.65453833, -0.18487392, -0.7201023, 9.900790214538574, 0.7539089918136597, 0.7309212684631348, 1.7416763305664062, -2.3415961265563965, 0.7763209342956543, -1.118408203125, -0.53662109375, 0.16748046875, 0, 
370, 2078598724, 0.13744268, -0.65483713, -0.18486024, -0.7198087, 9.924933433532715, 0.7402308583259583, 0.7686689496040344, 2.1655921936035156, -2.0427088737487793, 0.9399861097335815, -1.118896484375, -0.53759765625, 0.169921875, 0, 
371, 2078615391, 0.13763009, -0.6551138, -0.18488958, -0.7195136, 9.912668228149414, 0.8003934025764465, 0.7578973174095154, 2.62446928024292, -1.913851261138916, 0.9857943654060364, -1.119140625, -0.537109375, 0.169189453125, 0, 
372, 2078632058, 0.13785194, -0.65537643, -0.18496175, -0.7192134, 9.888245582580566, 0.8555301427841187, 0.7104696035385132, 3.043198823928833, -1.863202452659607, 0.9529591202735901, -1.11962890625, -0.53662109375, 0.1689453125, 0, 
373, 2078648725, 0.13805515, -0.65561277, -0.1850232, -0.718943, 9.87899112701416, 0.7990034818649292, 0.6693015694618225, 2.9497249126434326, -1.608048439025879, 0.8534151315689087, -1.12060546875, -0.536376953125, 0.17578125, 0, 
374, 2078665392, 0.13827135, -0.65580535, -0.18504527, -0.7187201, 9.900839805603027, 0.7438780069351196, 0.688054084777832, 2.6121628284454346, -1.1384012699127197, 0.9814274311065674, -1.120849609375, -0.5390625, 0.17431640625, 0, 
375, 2078682059, 0.1385393, -0.6559555, -0.18511935, -0.7185126, 9.920559883117676, 0.7550166249275208, 0.6582701802253723, 3.3062026500701904, -0.8281673789024353, 0.9460819363594055, -1.122314453125, -0.538818359375, 0.17578125, 0, 
376, 2078698726, 0.13890693, -0.6560703, -0.18525814, -0.7183009, 9.952232360839844, 0.7878748178482056, 0.6561346650123596, 4.052184581756592, -0.610933244228363, 1.1002575159072876, -1.118408203125, -0.536865234375, 0.173828125, 0, 
377, 2078715393, 0.13923547, -0.65617174, -0.18536294, -0.7181176, 9.951333999633789, 0.8407156467437744, 0.6606491208076477, 3.7031095027923584, -0.4334629774093628, 1.0181047916412354, -1.1171875, -0.537109375, 0.17578125, 0, 
378, 2078732060, 0.13948973, -0.65624934, -0.18541452, -0.71798396, 9.947375297546387, 0.8717297911643982, 0.6878432035446167, 3.058194398880005, -0.13484443724155426, 0.8148424029350281, -1.12158203125, -0.5322265625, 0.17822265625, 0, 
379, 2078748727, 0.13975574, -0.65627986, -0.18547393, -0.717889, 9.942588806152344, 0.8314453363418579, 0.6478471159934998, 3.0246422290802, 0.2696761190891266, 0.7340087294578552, -1.118896484375, -0.53662109375, 0.175048828125, 0, 
380, 2078765394, 0.14004359, -0.6562688, -0.18557338, -0.7178174, 9.965847969055176, 0.8205272555351257, 0.6522102952003479, 3.3981268405914307, 0.574646532535553, 0.5919479131698608, -1.118408203125, -0.535400390625, 0.175537109375, 0, 
381, 2078782061, 0.14033781, -0.65624785, -0.1856903, -0.7177488, 9.971912384033203, 0.8342402577400208, 0.6783865094184875, 3.5963051319122314, 0.6356943845748901, 0.5351645946502686, -1.120361328125, -0.5361328125, 0.175048828125, 0, 
382, 2078798728, 0.14051047, -0.6562163, -0.18572892, -0.71773374, 10.002335548400879, 0.8922456502914429, 0.6916412115097046, 2.627824544906616, 0.8502007126808167, 0.22719746828079224, -1.119873046875, -0.533447265625, 0.176025390625, 0, 
383, 2078815395, 0.14068195, -0.6561668, -0.18582094, -0.7177216, 9.970907211303711, 0.8586512207984924, 0.705873429775238, 2.8507959842681885, 0.8954070806503296, -0.04578910395503044, -1.12109375, -0.533203125, 0.177001953125, 0, 
384, 2078832062, 0.14081372, -0.65614116, -0.18586539, -0.71770775, 9.966893196105957, 0.7987817525863647, 0.742639422416687, 2.4042510986328125, 0.763578474521637, 0.005314634647220373, -1.120361328125, -0.5322265625, 0.17529296875, 0, 
385, 2078848729, 0.14087835, -0.65612364, -0.18584463, -0.71771634, 9.988724708557129, 0.7920594215393066, 0.7505776286125183, 1.7872157096862793, 0.803752064704895, -0.0389120876789093, -1.119873046875, -0.532958984375, 0.172607421875, 0, 
386, 2078865396, 0.14101243, -0.6561226, -0.18595673, -0.7176621, 9.95059585571289, 0.8182258605957031, 0.7523345351219177, 2.8016324043273926, 0.395472913980484, -0.21452558040618896, -1.120361328125, -0.532958984375, 0.17529296875, 0, 
387, 2078882063, 0.14107348, -0.65616477, -0.18597822, -0.71760595, 9.978740692138672, 0.8430114984512329, 0.7224812507629395, 1.9817954301834106, 0.1660471260547638, -0.10809198766946793, -1.117431640625, -0.532958984375, 0.175048828125, 0, 
388, 2078898730, 0.14089072, -0.6562493, -0.18580566, -0.7176092, 9.964508056640625, 0.8805230259895325, 0.7455497980117798, -0.16433747112751007, 0.10265569388866425, -0.4348716139793396, -1.118896484375, -0.5322265625, 0.17529296875, 0, 
389, 2078915397, 0.14055169, -0.65635896, -0.18555087, -0.7176413, 9.96396255493164, 0.8539285063743591, 0.7586661577224731, -1.3580302000045776, -0.014887383207678795, -0.8299731016159058, -1.11865234375, -0.533203125, 0.174560546875, 0, 
390, 2078932064, 0.14013295, -0.65644693, -0.185296, -0.7177085, 9.960811614990234, 0.8430091738700867, 0.712151825428009, -1.7319116592407227, 0.1484256088733673, -1.282319188117981, -1.1220703125, -0.5341796875, 0.17431640625, 0, 
391, 2078948731, 0.13983862, -0.6564566, -0.18524475, -0.7177703, 9.911958694458008, 0.7700139880180359, 0.6507728099822998, -0.11854197829961777, 0.4679567515850067, -1.6825045347213745, -1.11865234375, -0.53515625, 0.172607421875, 0, 
392, 2078965398, 0.13964848, -0.65640134, -0.18530741, -0.71784174, 9.903867721557617, 0.7021710872650146, 0.6698014140129089, 1.0737484693527222, 0.8653122782707214, -1.7664247751235962, -1.116455078125, -0.53515625, 0.17431640625, 0, 
393, 2078982065, 0.13952728, -0.656307, -0.1854147, -0.717924, 9.906482696533203, 0.7474307417869568, 0.6781169176101685, 1.5306533575057983, 1.1434789896011353, -1.6964765787124634, -1.11767578125, -0.5361328125, 0.172119140625, 0, 
394, 2078998732, 0.13952392, -0.6562106, -0.18560822, -0.7179627, 9.921806335449219, 0.8005208969116211, 0.6523013114929199, 2.5892648696899414, 1.0278633832931519, -1.462670922279358, -1.114013671875, -0.53564453125, 0.171875, 0, 
395, 2079015399, 0.1393987, -0.6561474, -0.18567842, -0.71802664, 9.935075759887695, 0.8243836760520935, 0.6531770825386047, 1.3909361362457275, 0.9422271847724915, -1.486708402633667, -1.113525390625, -0.537353515625, 0.17236328125, 0, 
396, 2079032066, 0.13912086, -0.6561239, -0.18558934, -0.718125, 9.934327125549316, 0.8867748975753784, 0.670586884021759, -0.17453135550022125, 0.8597671389579773, -1.5048422813415527, -1.117919921875, -0.538330078125, 0.17236328125, 0, 
397, 2079048733, 0.138863, -0.65609175, -0.18552585, -0.71822053, 9.920489311218262, 0.8194435834884644, 0.6364831328392029, 0.02566392719745636, 0.8877874612808228, -1.5285851955413818, -1.114501953125, -0.5390625, 0.17578125, 0, 
398, 2079065400, 0.13869278, -0.6560387, -0.18553692, -0.71829915, 9.938498497009277, 0.7894371747970581, 0.6208834052085876, 0.7921111583709717, 0.9544443488121033, -1.4448187351226807, -1.116943359375, -0.5380859375, 0.170654296875, 0, 
399, 2079082067, 0.13869736, -0.6559415, -0.1856703, -0.7183526, 9.92896842956543, 0.7752968072891235, 0.6365050673484802, 2.341308116912842, 1.173484206199646, -1.1603386402130127, -1.111328125, -0.539306640625, 0.1728515625, 0, 
400, 2079098734, 0.138771, -0.6558504, -0.18584171, -0.71837723, 9.917001724243164, 0.820929229259491, 0.6553165316581726, 2.890252113342285, 1.066769003868103, -0.9549118876457214, -1.114501953125, -0.53955078125, 0.1708984375, 0, 
401, 2079115401, 0.13884959, -0.65578157, -0.18600301, -0.7183832, 9.920042037963867, 0.8805402517318726, 0.6714592576026917, 2.9026107788085938, 0.8914885520935059, -0.8351086378097534, -1.11181640625, -0.538818359375, 0.1728515625, 0, 
402, 2079132068, 0.13880256, -0.6557819, -0.1860256, -0.718386, 9.957560539245605, 0.9176003336906433, 0.6843793392181396, 1.5218170881271362, 0.5012021064758301, -0.7415581345558167, -1.116455078125, -0.53955078125, 0.170654296875, 0, 
403, 2079148735, 0.13863681, -0.65584886, -0.18592176, -0.7183838, 9.971192359924316, 0.9326105117797852, 0.6732317805290222, 0.30992645025253296, 0.11991865932941437, -0.6654755473136902, -1.112060546875, -0.539794921875, 0.17041015625, 0, 
404, 2079165402, 0.13850322, -0.65592897, -0.18585886, -0.7183527, 9.973609924316406, 0.834970235824585, 0.6725937128067017, 0.774310290813446, -0.06525476276874542, -0.6382235884666443, -1.114501953125, -0.541015625, 0.1689453125, 0, 
405, 2079182069, 0.13833028, -0.6560374, -0.1857107, -0.7183254, 9.963313102722168, 0.7650258541107178, 0.648291289806366, 0.12246712297201157, -0.1591508984565735, -0.41603344678878784, -1.107177734375, -0.538818359375, 0.168701171875, 0, 
406, 2079198736, 0.13830978, -0.65612304, -0.18571842, -0.71824914, 9.95263671875, 0.7594179511070251, 0.603949248790741, 1.8009185791015625, -0.20949265360832214, -0.34078335762023926, -1.112548828125, -0.539794921875, 0.17431640625, 0, 
407, 2079215403, 0.13836612, -0.65621126, -0.18576252, -0.71814626, 9.964839935302734, 0.7969940900802612, 0.6107641458511353, 2.0193819999694824, -0.30413156747817993, -0.1208086907863617, -1.1123046875, -0.538818359375, 0.172607421875, 0, 
408, 2079232070, 0.13843997, -0.6563067, -0.18581223, -0.7180319, 9.97058391571045, 0.8006157279014587, 0.574893593788147, 2.235105037689209, -0.36598628759384155, -0.03216314688324928, -1.11083984375, -0.537353515625, 0.170654296875, 0, 
409, 2079248737, 0.13852409, -0.6564341, -0.18585666, -0.71788764, 9.965177536010742, 0.7789798974990845, 0.577021062374115, 2.293386697769165, -0.6360594034194946, 0.11357952654361725, -1.10888671875, -0.539794921875, 0.169677734375, 0, 
410, 2079265404, 0.1386389, -0.6565659, -0.18591209, -0.71773076, 9.980132102966309, 0.7252407073974609, 0.6333978176116943, 2.5374372005462646, -0.6808687448501587, 0.23421533405780792, -1.1103515625, -0.5400390625, 0.173828125, 0, 
411, 2079282071, 0.13878489, -0.656714, -0.18593551, -0.7175608, 9.964221954345703, 0.7711184620857239, 0.656906008720398, 2.595053195953369, -0.7432997822761536, 0.5694983601570129, -1.111083984375, -0.53955078125, 0.17431640625, 0, 
412, 2079298738, 0.1390034, -0.6568401, -0.18602969, -0.71737874, 9.957595825195312, 0.7860296964645386, 0.6476941108703613, 3.2516350746154785, -0.6695864796638489, 0.5873889327049255, -1.109130859375, -0.5390625, 0.173095703125, 0, 
413, 2079315405, 0.13913013, -0.6570269, -0.18597047, -0.7171984, 9.948592185974121, 0.8191643357276917, 0.6902914643287659, 2.0293710231781006, -0.9307975769042969, 0.9028989672660828, -1.109375, -0.5361328125, 0.17236328125, 0, 
414, 2079332072, 0.1391655, -0.6572272, -0.18581784, -0.7170476, 9.927095413208008, 0.8543736934661865, 0.681849479675293, 1.1181225776672363, -0.8911874890327454, 0.8648384809494019, -1.109130859375, -0.537353515625, 0.1728515625, 0, 
415, 2079348739, 0.13929358, -0.65742385, -0.18573311, -0.71686447, 9.941843032836914, 0.8334804177284241, 0.7006568312644958, 1.9436326026916504, -0.9648112058639526, 1.0445371866226196, -1.110595703125, -0.537353515625, 0.175048828125, 0, 
416, 2079365406, 0.13943608, -0.657634, -0.18562232, -0.7166726, 9.962651252746582, 0.7819386124610901, 0.7224464416503906, 1.7934908866882324, -1.0362961292266846, 1.2549198865890503, -1.110107421875, -0.5390625, 0.17626953125, 0, 
417, 2079382073, 0.13959049, -0.6578176, -0.18551442, -0.716502, 9.976640701293945, 0.7357237339019775, 0.7159648537635803, 1.835713505744934, -0.7994043827056885, 1.2441753149032593, -1.110595703125, -0.53955078125, 0.176025390625, 0, 
418, 2079398740, 0.13969421, -0.65799654, -0.18531923, -0.7163679, 10.001330375671387, 0.7967930436134338, 0.6819673180580139, 1.2856422662734985, -0.5827081203460693, 1.3571656942367554, -1.1083984375, -0.538330078125, 0.17578125, 0, 
419, 2079415407, 0.13977529, -0.6581643, -0.18513766, -0.716245, 9.986540794372559, 0.8312944769859314, 0.640372097492218, 1.3328207731246948, -0.5132207870483398, 1.1640459299087524, -1.109375, -0.536865234375, 0.173583984375, 0, 
420, 2079432074, 0.13978368, -0.6583736, -0.1848604, -0.7161227, 9.95644474029541, 0.8054846525192261, 0.6459685564041138, 0.384433776140213, -0.7240005731582642, 1.2858086824417114, -1.1123046875, -0.53759765625, 0.175537109375, 0, 
421, 2079448741, 0.13975154, -0.65858597, -0.18448326, -0.7160308, 9.943140983581543, 0.7667812705039978, 0.6426826119422913, -0.3361090421676636, -0.5583504438400269, 1.5136592388153076, -1.107666015625, -0.537841796875, 0.177734375, 0, 
422, 2079465408, 0.1397962, -0.65877575, -0.18411292, -0.71594274, 9.956722259521484, 0.7180303931236267, 0.6433560252189636, -0.08300434052944183, -0.3499014377593994, 1.8200253248214722, -1.110107421875, -0.53857421875, 0.176513671875, 0, 
423, 2079482075, 0.13992171, -0.6589344, -0.18380274, -0.7158519, 9.946252822875977, 0.7228611707687378, 0.6627020835876465, 0.9043844938278198, -0.1425410807132721, 1.9261903762817383, -1.108642578125, -0.53564453125, 0.172119140625, 0, 
424, 2079498742, 0.14005326, -0.6590661, -0.18350224, -0.7157819, 9.973377227783203, 0.7446914315223694, 0.6536865234375, 1.0958651304244995, 0.08932430297136307, 1.8637722730636597, -1.108154296875, -0.536376953125, 0.17431640625, 0, 
425, 2079515409, 0.1402367, -0.65914166, -0.18325531, -0.71573985, 9.954917907714844, 0.7956646680831909, 0.6916157007217407, 1.5087289810180664, 0.49741145968437195, 1.7725013494491577, -1.107666015625, -0.535888671875, 0.171875, 0, 
426, 2079532076, 0.14036137, -0.65923285, -0.18294704, -0.7157102, 9.973493576049805, 0.7573767900466919, 0.6608794927597046, 0.733278751373291, 0.4463652968406677, 1.757210373878479, -1.106689453125, -0.53515625, 0.17578125, 0, 
427, 2079548743, 0.140314, -0.6594021, -0.18247591, -0.715684, 9.956975936889648, 0.6860994100570679, 0.7046028971672058, -0.808855414390564, 0.027444005012512207, 1.7535734176635742, -1.10498046875, -0.53271484375, 0.175048828125, 0, 
428, 2079565410, 0.14034374, -0.65955126, -0.18206187, -0.7156461, 9.976444244384766, 0.6762977242469788, 0.726340115070343, -0.32403260469436646, 0.10052982717752457, 1.84898042678833, -1.107177734375, -0.534912109375, 0.17236328125, 0, 
429, 2079582077, 0.14044471, -0.6596826, -0.1816907, -0.7155996, 9.988739967346191, 0.7202937006950378, 0.6876727342605591, 0.4953111708164215, 0.21166333556175232, 2.0044755935668945, -1.108642578125, -0.537353515625, 0.173828125, 0, 
430, 2079598744, 0.1403053, -0.6598709, -0.18114677, -0.7155912, 9.962693214416504, 0.7520996928215027, 0.6709449291229248, -1.153218150138855, -0.00234996504150331, 1.6648510694503784, -1.10791015625, -0.534423828125, 0.172607421875, 0, 
431, 2079615411, 0.1399606, -0.6600606, -0.18047617, -0.7156531, 9.937884330749512, 0.7632391452789307, 0.6649088859558105, -2.9760868549346924, 0.16246134042739868, 1.1527507305145264, -1.106201171875, -0.53662109375, 0.17431640625, 0, 
432, 2079632078, 0.1395601, -0.66019493, -0.17978108, -0.71578234, 9.906018257141113, 0.7080634832382202, 0.613256573677063, -3.5287835597991943, 0.6833853125572205, 0.849176287651062, -1.10498046875, -0.535400390625, 0.173828125, 0, 
433, 2079648745, 0.13935389, -0.6602569, -0.17929158, -0.71588814, 9.936471939086914, 0.6323782801628113, 0.6083294749259949, -1.6247478723526, 0.9706443548202515, 0.7999614477157593, -1.10498046875, -0.538330078125, 0.17041015625, 0, 
434, 2079665412, 0.13932635, -0.6602646, -0.1789591, -0.7159696, 9.931397438049316, 0.5712146162986755, 0.542937695980072, 0.2673453092575073, 1.2099950313568115, 0.9343640208244324, -1.103759765625, -0.53369140625, 0.171142578125, 0, 
435, 2079682079, 0.13941939, -0.6602148, -0.17871422, -0.7160587, 9.915933609008789, 0.5955962538719177, 0.5385489463806152, 0.9524723291397095, 1.572184443473816, 1.0313081741333008, -1.10107421875, -0.535888671875, 0.172607421875, 0, 
436, 2079698746, 0.13952115, -0.6600977, -0.17849447, -0.7162015, 9.932450294494629, 0.6135575175285339, 0.6005442142486572, 1.2371703386306763, 2.1428866386413574, 0.8325152397155762, -1.10400390625, -0.53515625, 0.168701171875, 0, 
437, 2079715413, 0.13955061, -0.6599922, -0.17822182, -0.7163609, 9.903307914733887, 0.7399565577507019, 0.6099650263786316, 0.4083945155143738, 2.109436511993408, 0.7000976204872131, -1.105712890625, -0.536376953125, 0.1689453125, 0, 
438, 2079732080, 0.13946448, -0.65991735, -0.17791241, -0.7165235, 9.938421249389648, 0.7801798582077026, 0.5936912298202515, -0.14629331231117249, 1.8796772956848145, 0.3451566994190216, -1.102294921875, -0.53564453125, 0.1650390625, 0, 
439, 2079748747, 0.13932014, -0.65983206, -0.1775734, -0.71671414, 10.000389099121094, 0.7550578117370605, 0.6334591507911682, -0.47562140226364136, 2.0228397846221924, 0.1628839373588562, -1.105712890625, -0.536865234375, 0.16748046875, 0, 
440, 2079765414, 0.13924012, -0.659743, -0.17730047, -0.7168793, 10.044214248657227, 0.6165730357170105, 0.6759430766105652, 0.18415528535842896, 1.9430944919586182, 0.20254522562026978, -1.103759765625, -0.53857421875, 0.16455078125, 0, 
441, 2079782081, 0.13933185, -0.65966034, -0.17718065, -0.71696717, 10.0606689453125, 0.5633281469345093, 0.6429717540740967, 1.865411400794983, 1.6278407573699951, 0.4393346607685089, -1.10400390625, -0.5361328125, 0.16845703125, 0, 
442, 2079798748, 0.13944957, -0.65962434, -0.17706232, -0.7170066, 10.09368896484375, 0.6555736064910889, 0.679660439491272, 1.7469398975372314, 1.192091941833496, 0.6467719674110413, -1.10498046875, -0.536865234375, 0.164306640625, 0, 
443, 2079815415, 0.13932414, -0.65965945, -0.17668916, -0.71709085, 10.091097831726074, 0.7612082362174988, 0.6628154516220093, -0.5499110221862793, 1.0038000345230103, 0.6595397591590881, -1.10302734375, -0.53466796875, 0.162109375, 0, 
444, 2079832082, 0.13894486, -0.6597491, -0.17611668, -0.717223, 10.039041519165039, 0.7621402740478516, 0.6310461163520813, -2.8406083583831787, 0.8325024247169495, 0.3303013741970062, -1.10205078125, -0.535400390625, 0.1630859375, 0, 
445, 2079848749, 0.13843985, -0.6598517, -0.17547604, -0.7173831, 9.979461669921875, 0.7033509016036987, 0.5996906757354736, -3.829425096511841, 0.8062750101089478, 0.00869551207870245, -1.099609375, -0.537353515625, 0.1630859375, 0, 
446, 2079865416, 0.13809992, -0.6598515, -0.17500733, -0.7175633, 9.986493110656738, 0.5950111150741577, 0.5385987162590027, -2.150346040725708, 1.441777229309082, -0.09833354502916336, -1.09814453125, -0.537353515625, 0.16015625, 0, 
447, 2079882083, 0.13801208, -0.6597234, -0.17476955, -0.71775585, 9.975617408752441, 0.46078014373779297, 0.5290987491607666, 0.13328848779201508, 2.208109140396118, -0.07596087455749512, -1.101318359375, -0.537841796875, 0.160888671875, 0, 
448, 2079898750, 0.13821858, -0.6594857, -0.17480049, -0.717927, 9.939919471740723, 0.43967533111572266, 0.5154454112052917, 3.050882339477539, 2.761484384536743, 0.05217307060956955, -1.09716796875, -0.538330078125, 0.15966796875, 0, 
449, 2079915417, 0.13863204, -0.65916127, -0.17495738, -0.7181069, 9.896756172180176, 0.5088484883308411, 0.4735797941684723, 4.672652721405029, 3.360706329345703, 0.38541990518569946, -1.099609375, -0.53564453125, 0.1591796875, 0, 
450, 2079932084, 0.13901152, -0.6588151, -0.17508371, -0.7183204, 9.862627029418945, 0.5757213234901428, 0.44986411929130554, 4.325934410095215, 3.6080610752105713, 0.29503270983695984, -1.1025390625, -0.5361328125, 0.1591796875, 0, 
451, 2079948751, 0.13917615, -0.6584847, -0.17499025, -0.7186143, 9.869365692138672, 0.636226236820221, 0.5152496099472046, 2.1301825046539307, 3.8492555618286133, 0.16877487301826477, -1.100830078125, -0.537841796875, 0.156982421875, 0, 
452, 2079965418, 0.13924758, -0.6581283, -0.17489912, -0.71894896, 9.834821701049805, 0.6766595840454102, 0.5519585013389587, 1.782900094985962, 4.056987762451172, -0.36535876989364624, -1.100830078125, -0.53466796875, 0.158935546875, 0, 
453, 2079982085, 0.13959908, -0.65765667, -0.17514561, -0.7192523, 9.828911781311035, 0.6041891574859619, 0.565281093120575, 4.739823341369629, 4.4912261962890625, -0.6263779401779175, -1.1025390625, -0.5361328125, 0.156494140625, 0, 
454, 2079998752, 0.1401508, -0.65710115, -0.1755435, -0.71955574, 9.841987609863281, 0.551164984703064, 0.596122682094574, 6.542906761169434, 5.0093584060668945, -0.4164818227291107, -1.101318359375, -0.533203125, 0.155517578125, 0, 
455, 2080015419, 0.14085677, -0.65653014, -0.17605731, -0.7198135, 9.83440113067627, 0.6274574995040894, 0.6291694641113281, 7.858888149261475, 4.953766822814941, -0.15442542731761932, -1.102294921875, -0.53564453125, 0.156005859375, 0, 
456, 2080032086, 0.14158197, -0.6559916, -0.17660835, -0.72002727, 9.838419914245605, 0.7152490019798279, 0.6467531323432922, 8.134711265563965, 4.581946849822998, -0.1472538411617279, -1.103515625, -0.532470703125, 0.1533203125, 0, 
457, 2080048753, 0.14212336, -0.6555231, -0.17702684, -0.72024447, 9.85371208190918, 0.7680875062942505, 0.668544590473175, 6.552971363067627, 4.155815124511719, -0.37806272506713867, -1.105224609375, -0.531494140625, 0.152099609375, 0, 
458, 2080065420, 0.14235358, -0.65514964, -0.17728016, -0.7204765, 9.88685131072998, 0.8317928910255432, 0.7241400480270386, 4.24287223815918, 3.537587881088257, -1.0693495273590088, -1.105712890625, -0.532470703125, 0.154541015625, 0, 
459, 2080082087, 0.14254217, -0.65484846, -0.17752247, -0.72065336, 9.948641777038574, 0.7311456203460693, 0.6978970170021057, 3.991201400756836, 2.889650583267212, -1.0805805921554565, -1.10693359375, -0.533203125, 0.154296875, 0, 
460, 2080098754, 0.1428334, -0.654561, -0.17787431, -0.7207701, 10.036786079406738, 0.6345523595809937, 0.6974248886108398, 5.042974472045898, 2.5695431232452393, -0.9891048669815063, -1.106201171875, -0.53125, 0.153076171875, 0, 
461, 2080115421, 0.14328927, -0.6542962, -0.17835733, -0.7208005, 10.074309349060059, 0.629406213760376, 0.7026288509368896, 6.543829441070557, 2.14424467086792, -0.6497111916542053, -1.10693359375, -0.5302734375, 0.154296875, 0, 
462, 2080132088, 0.1438634, -0.6540612, -0.1789776, -0.7207458, 10.056061744689941, 0.6802884936332703, 0.7054115533828735, 7.783277988433838, 1.6216554641723633, -0.5653427839279175, -1.104248046875, -0.530029296875, 0.150634765625, 0, 
463, 2080148755, 0.14432332, -0.65387285, -0.17957318, -0.7206766, 10.020672798156738, 0.7544277310371399, 0.6566519141197205, 7.21382999420166, 1.214784860610962, -0.9404280781745911, -1.107666015625, -0.52734375, 0.15673828125, 0, 
464, 2080165422, 0.1446766, -0.6537475, -0.18010902, -0.7205857, 10.024965286254883, 0.7442396879196167, 0.6872965097427368, 6.31167459487915, 0.7304871678352356, -1.1066288948059082, -1.1083984375, -0.52587890625, 0.15380859375, 0, 
465, 2080182089, 0.14488423, -0.65368414, -0.18044311, -0.7205178, 10.043161392211914, 0.8060140609741211, 0.7967280149459839, 4.344528675079346, 0.5332435965538025, -0.8841312527656555, -1.10986328125, -0.52587890625, 0.15673828125, 0, 
466, 2080198756, 0.14509486, -0.6536777, -0.1807379, -0.7204075, 10.029061317443848, 0.8070590496063232, 0.8207405805587769, 4.275656223297119, 0.11023706942796707, -0.5686211585998535, -1.108154296875, -0.526611328125, 0.156005859375, 0, 
467, 2080215423, 0.14540645, -0.65367514, -0.18108611, -0.7202595, 10.017621994018555, 0.7918336987495422, 0.7892698645591736, 5.298909664154053, 0.009873696602880955, -0.24212327599525452, -1.104736328125, -0.5244140625, 0.157958984375, 0, 
468, 2080232090, 0.1456514, -0.6537256, -0.18132421, -0.7201042, 10.00521183013916, 0.7631304264068604, 0.799972414970398, 4.144070625305176, -0.2759576141834259, -0.02442811243236065, -1.10986328125, -0.523681640625, 0.1572265625, 0, 
469, 2080248757, 0.1458201, -0.65383714, -0.18134436, -0.7199637, 10.009441375732422, 0.8328676819801331, 0.8187425136566162, 2.692932367324829, -0.3854775130748749, 0.6444027423858643, -1.1083984375, -0.524658203125, 0.161376953125, 0, 
470, 2080265424, 0.14606531, -0.65395904, -0.18130642, -0.71981305, 9.994611740112305, 0.8262467980384827, 0.8026715517044067, 2.6751441955566406, -0.33517420291900635, 1.3035584688186646, -1.10693359375, -0.524169921875, 0.159912109375, 0, 
471, 2080282091, 0.14622791, -0.6540991, -0.18111137, -0.7197017, 10.037675857543945, 0.7814648151397705, 0.7654945850372314, 1.621744990348816, -0.18244566023349762, 1.6004480123519897, -1.108642578125, -0.523193359375, 0.162109375, 0, 
472, 2080298758, 0.14621733, -0.6541927, -0.18074147, -0.7197119, 10.041563987731934, 0.7618234753608704, 0.6646378040313721, -0.16199393570423126, 0.5507242679595947, 1.3476762771606445, -1.113037109375, -0.521728515625, 0.1611328125, 0, 
473, 2080315425, 0.14623259, -0.6541547, -0.18044263, -0.7198181, 10.030071258544922, 0.6444110870361328, 0.6168149709701538, 0.20614378154277802, 1.588845133781433, 0.8890166878700256, -1.10791015625, -0.524169921875, 0.15869140625, 0, 
474, 2080332092, 0.14646633, -0.6539507, -0.1803328, -0.71998364, 10.045980453491211, 0.5349082350730896, 0.6117628812789917, 2.3105475902557373, 2.7654035091400146, 0.8622772097587585, -1.113037109375, -0.52099609375, 0.159912109375, 0, 
475, 2080348759, 0.14698175, -0.65359765, -0.1804198, -0.7201774, 10.041189193725586, 0.4766305685043335, 0.6383616328239441, 4.444777011871338, 3.769805908203125, 1.1384975910186768, -1.109619140625, -0.521240234375, 0.16015625, 0, 
476, 2080365426, 0.14767179, -0.6531074, -0.1806043, -0.72043455, 10.030296325683594, 0.4914363622665405, 0.6422907114028931, 5.893828868865967, 4.861598491668701, 1.3381741046905518, -1.108154296875, -0.5185546875, 0.161865234375, 0, 
477, 2080382093, 0.14838198, -0.6525162, -0.18075192, -0.7207873, 9.974984169006348, 0.4779167175292969, 0.6441108584403992, 5.87333869934082, 5.86318302154541, 1.3848533630371094, -1.11328125, -0.517578125, 0.1591796875, 0, 
478, 2080398760, 0.14900735, -0.65185237, -0.18076909, -0.72125447, 10.005072593688965, 0.5333274006843567, 0.7886533737182617, 4.54451322555542, 6.749792575836182, 1.3208600282669067, -1.11376953125, -0.5166015625, 0.1591796875, 0, 
479, 2080415427, 0.149383, -0.6511647, -0.18052268, -0.72185934, 9.909905433654785, 0.7109821438789368, 0.8369361758232117, 1.8881300687789917, 7.439619541168213, 1.08366060256958, -1.114990234375, -0.51416015625, 0.15283203125, 0, 
480, 2080432094, 0.14992449, -0.6504217, -0.18051413, -0.72241896, 9.870003700256348, 0.6107269525527954, 0.803114652633667, 4.240541934967041, 7.492408752441406, 0.8490100502967834, -1.1142578125, -0.513671875, 0.1533203125, 0, 
481, 2080448761, 0.15063886, -0.64961594, -0.18056448, -0.7229825, 9.930862426757812, 0.4670792818069458, 0.8937205672264099, 5.140636920928955, 7.9626970291137695, 1.3420931100845337, -1.116943359375, -0.5126953125, 0.153076171875, 0, 
482, 2080465428, 0.15169728, -0.64870256, -0.18081133, -0.7235195, 9.888285636901855, 0.4786081314086914, 0.9865963459014893, 7.694685459136963, 8.595420837402344, 2.055394411087036, -1.11767578125, -0.510986328125, 0.150390625, 0, 
483, 2080482095, 0.15301459, -0.64772844, -0.18125518, -0.72400355, 9.8514404296875, 0.5383533239364624, 0.922703742980957, 9.981646537780762, 8.777913093566895, 2.4436581134796143, -1.11669921875, -0.50830078125, 0.1533203125, 0, 
484, 2080498762, 0.15447173, -0.64674085, -0.18188037, -0.72442013, 9.841435432434082, 0.5369748473167419, 0.9421496391296387, 11.219407081604004, 8.504266738891602, 2.3457534313201904, -1.1201171875, -0.505126953125, 0.150390625, 0, 
485, 2080515429, 0.15590848, -0.6457873, -0.18246414, -0.72481596, 9.841205596923828, 0.4941844344139099, 1.008521318435669, 11.503809928894043, 8.297508239746094, 2.5491442680358887, -1.121337890625, -0.502197265625, 0.149169921875, 0, 
486, 2080532096, 0.15740913, -0.64481485, -0.18304086, -0.7252119, 9.801325798034668, 0.5771618485450745, 0.9863215684890747, 11.448348045349121, 8.459330558776855, 2.8405656814575195, -1.123291015625, -0.5009765625, 0.147216796875, 0, 
487, 2080548763, 0.15886156, -0.6438574, -0.18364723, -0.72559255, 9.77449893951416, 0.6054875254631042, 0.9695532321929932, 11.064656257629395, 8.203370094299316, 2.470705270767212, -1.126220703125, -0.4951171875, 0.14697265625, 0, 
488, 2080565430, 0.16023739, -0.64293134, -0.18426083, -0.7259555, 9.77951717376709, 0.5506405234336853, 0.8906699419021606, 11.428803443908691, 7.904839992523193, 2.1843037605285645, -1.125732421875, -0.4931640625, 0.144775390625, 0, 
489, 2080582097, 0.16170968, -0.6419733, -0.18498588, -0.72629243, 9.844383239746094, 0.4473353624343872, 0.9069456458091736, 12.408349990844727, 7.944207668304443, 2.154503345489502, -1.127197265625, -0.48876953125, 0.143798828125, 0, 
490, 2080598764, 0.16338678, -0.64099526, -0.18594638, -0.7265357, 9.858512878417969, 0.4720325767993927, 0.9312284588813782, 14.073833465576172, 7.5968499183654785, 2.155989646911621, -1.132080078125, -0.486083984375, 0.144287109375, 0, 
491, 2080615431, 0.165368, -0.6399757, -0.18725498, -0.72665, 9.896097183227539, 0.46246105432510376, 0.9561311602592468, 17.728788375854492, 7.254833221435547, 2.2707738876342773, -1.13427734375, -0.48486328125, 0.146240234375, 0, 
492, 2080632098, 0.16745053, -0.63895005, -0.18867719, -0.7267077, 9.950095176696777, 0.47308680415153503, 0.9980741739273071, 18.837833404541016, 7.0386481285095215, 2.334498167037964, -1.13623046875, -0.480224609375, 0.1435546875, 0, 
493, 2080648765, 0.16946243, -0.63796884, -0.19011836, -0.72672784, 9.92947006225586, 0.5794933438301086, 0.9889034032821655, 18.64217758178711, 6.540903568267822, 1.999381184577942, -1.1396484375, -0.47509765625, 0.148193359375, 0, 
494, 2080665432, 0.17145717, -0.6370127, -0.19160521, -0.7267081, 9.910581588745117, 0.6246219277381897, 0.9944679737091064, 18.73921012878418, 6.160515785217285, 1.783312201499939, -1.136962890625, -0.474365234375, 0.14453125, 0, 
495, 2080682099, 0.1732978, -0.63614666, -0.19296935, -0.7266694, 9.906994819641113, 0.6009012460708618, 0.9820815324783325, 17.414018630981445, 5.573021411895752, 1.6971505880355835, -1.139892578125, -0.470947265625, 0.146728515625, 0, 
496, 2080698766, 0.17495017, -0.63539636, -0.19416687, -0.7266107, 9.902820587158203, 0.5998371839523315, 1.0767831802368164, 15.633454322814941, 4.8571457862854, 1.6615996360778809, -1.146728515625, -0.4677734375, 0.145263671875, 0, 
497, 2080715433, 0.17641653, -0.6347869, -0.19524446, -0.72650015, 9.87732982635498, 0.687950849533081, 1.2052119970321655, 14.117090225219727, 3.822518825531006, 1.506783366203308, -1.1455078125, -0.46240234375, 0.149169921875, 0, 
498, 2080732100, 0.1779224, -0.6342577, -0.19641817, -0.72627884, 9.856127738952637, 0.6787618398666382, 1.2008987665176392, 14.80653190612793, 2.8726329803466797, 1.5258393287658691, -1.1474609375, -0.46142578125, 0.149169921875, 0, 
499, 2080748767, 0.17954196, -0.6337626, -0.19774127, -0.7259533, 9.891600608825684, 0.5661017894744873, 1.2289899587631226, 16.131391525268555, 2.2164480686187744, 1.6150230169296265, -1.146240234375, -0.455078125, 0.14892578125, 0, 
500, 2080765434, 0.18119814, -0.6333132, -0.19912398, -0.7255559, 9.925505638122559, 0.5408338308334351, 1.3114670515060425, 16.646333694458008, 1.650944709777832, 1.6910032033920288, -1.1513671875, -0.45458984375, 0.15234375, 0, 
501, 2080782101, 0.18283175, -0.63295895, -0.20047186, -0.725084, 9.912252426147461, 0.6256110668182373, 1.3352599143981934, 16.340402603149414, 0.860446572303772, 1.9511643648147583, -1.152587890625, -0.449462890625, 0.154296875, 0, 
502, 2080798768, 0.18435302, -0.6327657, -0.20165785, -0.72453827, 9.863632202148438, 0.6944037675857544, 1.3524110317230225, 14.9447021484375, -0.21848292648792267, 2.4112582206726074, -1.155029296875, -0.446533203125, 0.15673828125, 0, 
503, 2080815435, 0.18555237, -0.6328333, -0.20238076, -0.7239715, 9.949331283569336, 0.6529826521873474, 1.3762327432632446, 10.962113380432129, -1.469356656074524, 3.2151894569396973, -1.1572265625, -0.441650390625, 0.160888671875, 0, 
504, 2080832102, 0.18634363, -0.6331288, -0.20265932, -0.7234316, 10.003079414367676, 0.5603983998298645, 1.4075428247451782, 6.664117813110352, -2.4905216693878174, 3.4044148921966553, -1.15771484375, -0.443115234375, 0.161865234375, 0, 
505, 2080848769, 0.18693642, -0.63357514, -0.20276292, -0.72285867, 9.995635986328125, 0.5074496269226074, 1.3981280326843262, 4.74819803237915, -3.4428021907806396, 3.427633047103882, -1.15625, -0.4384765625, 0.16357421875, 0, 
