"sep=,",,,,,,,,,
"DeviceTag:,Xsens_1,,,,,,,,,,,,,,,,,",,,,,,,,,
"FirmwareVersion:,2.4.0,,,,,,,,,,,,,,,,,",,,,,,,,,
"AppVersion:,2022.0.1,,,,,,,,,,,,,,,,,",,,,,,,,,
"SyncStatus:,Synced,,,,,,,,,,,,,,,,,",,,,,,,,,
"OutputRate:,60Hz,,,,,,,,,,,,,,,,,",,,,,,,,,
"FilterProfile:,General,,,,,,,,,,,,,,,,,",,,,,,,,,
"Measurement Mode:,Sensor fusion Mode - Extended (Quaternion),,,,,,,,,,,,,,,,,",,,,,,,,,
"StartTime:,2020-11-25 11:08:09.692 +0100,,,,,,,,,,,,,,,,,",,,,,,,,,
"© Xsens Technologies B. V. 2005-2020,,,,,,,,,,,,,,,,,,,",,,,,,,,,
PacketCounter,SampleTimeFine,Quat_W,Quat_X,Quat_Y,Quat_Z,FreeAcc_X,FreeAcc_Y,FreeAcc_Z,Status
1,2054157243,1.69957013175694e-17,1.45703411869885e-16,-0.707106781186548,-0.707106781186548,-0.0151383085,0.1063509,0.00924695500000002,0
2,2054173910,0.000308386578011213,0.000370936784715576,0.70719648673945,0.707016899689816,-0.0180075100614473,0.0974843050935201,0.0206962695012356,0
3,2054190577,0.000636872657007126,0.00071334183177545,0.707258053476637,0.706954829765727,-0.0392099436738413,0.114360244179074,0.0259486684174517,0
4,2054207244,0.000952505730652196,0.00098294279871921,0.707287142917068,0.706925048375355,-0.0118443271162006,0.135066181669741,0.0328009959313978,0
5,2054223911,0.00125915897995279,0.00119191440530792,0.707290737868734,0.706920650415458,-0.00941531050127596,0.114273857270853,0.0562638874214192,0
6,2054240578,0.00156077259557222,0.0013534802504861,0.707292800583834,0.706917694164174,-0.00604824658098281,0.10694073563488,0.0330848391505418,0
7,2054257245,0.00181827434151527,0.00148191372072099,0.707321540090778,0.706888065208173,-0.019036427659877,0.0969627747687445,0.0585175413414179,0
8,2054273912,0.00204590368633367,0.00158768880230785,0.707353285456396,0.706855447086895,-0.0483998907779216,0.120177388801459,0.0470125347239998,0
9,2054290579,0.00223196858083988,0.00165233345218612,0.707373468694012,0.706834537850421,-0.0165877971163609,0.129081454594875,0.0791727815080545,0
10,2054307246,0.00238167531432829,0.00168612551284849,0.707389381868193,0.706818043787499,-0.0316381673311218,0.108957356804653,0.067850282771761,0
11,2054323913,0.00245066647275336,0.00168287919777639,0.707432051093544,0.706775109378525,-0.0235393157593572,0.0958890652705728,0.09157804297943,0
12,2054340580,0.00246657861208307,0.00169231917902559,0.707488651130601,0.706718374295694,-0.033217637304218,0.0723759889022954,0.0583765074990114,0
13,2054357247,0.00238669371398087,0.00171157409635017,0.707546708786474,0.706660476532158,-0.0638789473348114,0.0939937426540659,0.0553615337955652,0
14,2054373914,0.00212911306276175,0.00175827301690675,0.707649714638709,0.706558034930831,-0.0413802128552143,0.10412203625741,0.109765974731603,0
15,2054390581,0.00164766748826453,0.00180362435064341,0.707891061145558,0.706317405761224,-0.0474290460172306,0.0825353604118873,0.182775349298199,0
16,2054407248,0.0011161351804484,0.00185286779147022,0.708168378037055,0.706040274680965,-0.0264922370775879,0.0849341469654552,0.128283329568306,0
17,2054423915,0.000600490966396381,0.00194357850529008,0.708369999404532,0.705838370915621,0.00756013475676878,0.100995874056557,0.011172233898533,0
18,2054440582,9.17183189421772e-05,0.00210417107857162,0.708449798397107,0.705758065630795,0.0321200192793647,0.102344549878342,-0.0665248793227497,0
20,2054473916,0.00114368425293633,-0.00237704863465292,-0.708147675162291,-0.706059425111201,0.0611703197287737,0.137647772085541,-0.0910250287683692,0
24,2054540584,0.00319972185460967,-0.00268300065057862,-0.707159965041699,-0.707041262678343,0.0859472507533211,0.0261668950224088,0.0523686605983203,0
27,2054590585,0.00389390071967936,-0.00266842519990571,-0.706583878067192,-0.707613552936675,0.0710851264390559,0.0431569302967203,0.0309185028971451,0
30,2054640586,0.00399549917893814,-0.00238845599133785,-0.706317707866571,-0.707879669730952,0.0255677855156131,0.164462961911562,0.041090111952913,0
33,2054690587,0.00406716977032601,-0.00190972243316406,-0.706044271162986,-0.708153442587281,0.021384690636858,0.0970839001288728,-0.0228529150466281,0
35,2054723921,0.00422260311769161,-0.00178794363178181,-0.705780181388622,-0.708416056028888,0.0249133736907061,0.0862348083820423,-0.0130104945471977,0
38,2054773922,0.00418718497351481,-0.00188449191913178,-0.705459448515717,-0.708735410906005,0.0670263280876944,0.152982496472796,0.0211954453183532,0
41,2054823923,0.00392069150702767,-0.0018743991960497,-0.705340302869989,-0.70885553673018,0.0246643179923757,0.0952078286360851,0.0243672411424825,0
43,2054857257,0.0034966849104023,-0.00185549772729599,-0.705259535266716,-0.708938162492469,0.040794288480953,0.118471920101964,0.0696612506653602,0
46,2054907258,0.00306567569091104,-0.00171127723932329,-0.705280632527863,-0.708919531783309,0.0252644524062069,0.12268418353231,0.0630279978507761,0
49,2054957259,0.00282971945120726,-0.00160359771139079,-0.705573233627014,-0.708629545779265,0.0101353205485842,0.0844686865158623,0.0465876905594916,0
53,2055023927,0.00193347873488357,-0.00168151787920507,-0.706404593583806,-0.7078036340125,-0.0333961005794687,0.13898113442369,0.031658091649775,0
56,2055073928,0.00098530850075113,-0.00149866074127869,-0.707390398296507,-0.706820774723727,-0.0488823271828566,0.113679396770961,0.0558858123482661,0
58,2055107262,0.000671529782957697,-0.00113349407588957,-0.708137855531359,-0.706072972009535,-0.0410126693829156,0.0669109958653435,0.0590989766524845,0
61,2055157263,0.000615364413613727,-0.000437095213901733,-0.708935211804502,-0.705273206451315,0.0598456924733549,0.0798110332527582,0.0763774342979699,0
64,2055207264,0.00110278306801356,0.000281133985877221,-0.709340880274181,-0.704864682336289,0.100678080182858,0.151119412087899,0.0326542793859332,0
66,2055240598,0.00161369438958155,0.000764339903812078,-0.709317536825588,-0.704886830439191,0.0875927563201005,0.164580476259335,-0.0433087297487991,0
69,2055290599,0.00216476682613359,0.00128549001853695,-0.709002317284011,-0.705201655830375,0.00448434523549778,0.121708622911713,-0.0434205373450207,0
72,2055340600,0.0022517627144736,0.00119126247685141,-0.708230543981073,-0.705976633487726,-0.0564470272479973,0.0324472567535976,0.0243169162385482,0
74,2055373934,0.00204313668783734,0.000954179360839091,-0.707949208528001,-0.706259749156639,-0.0588065647469291,0.0864309993424997,0.0235397359534389,0
77,2055423935,0.00183018939183833,0.000583239435854403,-0.707553429911206,-0.706657239444583,-0.0666497404719854,0.0741351250302417,-0.028353394653072,0
81,2055490603,0.00164823687960565,0.000112603715062974,-0.707296080125355,-0.706915501085454,-0.0240583984511244,0.105443099437046,-0.0256733211419519,0
84,2055540604,0.00142091563301957,-0.000185134677085324,-0.707313435740462,-0.70689861390792,0.028876242682021,0.121356021069884,0.0111857442072638,0
87,2055590605,0.00130326755398265,-0.000269076267954565,-0.707437104814392,-0.706775050368557,-0.020600049987614,0.120105757952203,-0.0505668480183621,0
89,2055623939,0.00120938794801696,-0.000320167807998578,-0.70742762877026,-0.706784680737956,0.0150577411258752,0.0894438463845179,-0.0854130479907055,0
92,2055673940,0.00142313914346819,-0.000256271073737548,-0.70713120991504,-0.707080873001248,-0.0129649406887648,0.148778628618133,-0.0698929084533081,0
95,2055723941,0.00220891801972771,0.00014266090059478,-0.707082341846908,-0.707127755202228,-0.0595505402963277,0.0812444660997972,-0.0163272113743515,0
99,2055790609,0.00324636702739232,0.000917253406555001,-0.707719057620345,-0.706485920049567,0.0160510421201228,0.0698218759220631,0.087994608819852,0
101,2055823943,0.00365840722015272,0.00143176979011606,-0.707712133980962,-0.706489986841988,0.0252118820257441,0.0606411869009052,0.0698577501558551,0
104,2055873944,0.0040943593074768,0.00205629593832132,-0.707455968865365,-0.70674256981283,-0.0675431232584669,0.059349085701106,0.0227703608212127,0
107,2055923945,0.00450793885623312,0.002813478891327,-0.707332196968594,-0.706861320172054,-0.0645053784044864,0.0932773326054431,0.00362930133594027,0
110,2055973946,0.00455052471989345,0.0036925295271247,-0.707027776397132,-0.7071614959494,-0.0238978587013247,0.0561256550457012,-0.0589554845460348,0
112,2056007280,0.00466979445279413,0.0042591497865709,-0.70695914479854,-0.707226145054452,-0.0518056958002945,0.116357830463115,-0.0155661575675894,0
115,2056057281,0.00468000931777722,0.004594172457549,-0.707294776595098,-0.706888315148515,-0.0399676329461997,0.0436186448027975,-0.04622098720225,0
118,2056107282,0.00423702161380902,0.00420450990107496,-0.70763863347712,-0.70654931473675,0.0571570701220956,0.0770271463742,-0.0449012032575363,0
120,2056140616,0.00349488727092055,0.00394716374227115,-0.707949224027402,-0.70624365615583,0.081329358046768,0.148666806056231,0.0181223242579045,0
123,2056190617,0.00239116463375317,0.00404446504138771,-0.708130844520335,-0.70606560012023,0.00907317456780328,0.0636224850426322,0.0469816605293341,0
126,2056240618,0.00149644888732447,0.00425018237764768,-0.707930913543495,-0.70626731358598,0.00798067782917046,0.0957076375289027,0.0665069110393804,0
128,2056273952,0.00111985081149739,0.00437241983244694,-0.707575763155409,-0.706623072984465,0.0200239330392624,0.137198839464781,0.0558318316146444,0
131,2056323953,0.000710787829033902,0.00462450614218212,-0.7069713958627,-0.707226663917268,-0.0248695275737791,0.131753513192747,0.00442884789841823,0
134,2056373954,7.34445956040056e-05,0.00445715660768331,-0.706453404754605,-0.707745515896421,-0.0719802204774332,0.0539483476391703,-0.0272825041823024,0
137,2056423955,0.000464052136262905,-0.00384280192517039,0.706217260091918,0.707984603700704,-0.0630090021485337,0.124501970262531,0.0137870868156457,0
139,2056457289,0.000659271166668158,-0.00351074033062342,0.706090476967926,0.708112617031406,-0.0314899105304558,0.126250588206695,0.0150199441350785,0
142,2056507290,0.00111289490419536,-0.00319406801571031,0.706021747248127,0.708182075321837,0.0402358039021271,0.109637855084638,0.025978097633816,0
145,2056557291,0.00169976843068162,-0.0028816906494858,0.70604345269131,0.708160610001726,0.0507353499213938,0.0988292764966556,0.0242648285879929,0
147,2056590625,0.00216381126227117,-0.00264000977440589,0.70603834869343,0.708165375066776,0.00167164286981941,0.0776670021906326,0.0183479789579544,0
150,2056640626,0.00272616131732312,-0.00228016320710042,0.706178143106157,0.708025281398455,0.00333431529940232,0.0679790050261089,0.0382748744193364,0
153,2056690627,0.00325719150075306,-0.00164154009073113,0.706641503889148,0.707562351337987,0.0427792165571952,0.0602628015188896,0.0457122637054702,0
155,2056723961,0.00344712577410664,-0.00115873425299562,0.707211668157303,0.706992525477457,0.0296794368987682,0.0888733611822359,0.0787701910028382,0
158,2056773962,0.00331821555889547,-0.000475386388296841,0.708287777284638,0.705915850510862,0.0510076685316661,0.101660308353463,0.0543670822709394,0
162,2056840630,0.00235034308580267,0.000295469275879694,0.709707388429952,0.704492591439557,0.0112454728075674,0.122634219760038,0.079477945753376,0
165,2056890631,0.00139512080731684,0.000739679715272947,0.710113365797987,0.704085587288155,0.0639328548460904,0.0915406247582832,0.0444252013110745,0
168,2056940632,0.000918025011226355,0.00134588437200291,0.710730935940578,0.70346206900043,-0.000894817222660447,0.0845862847346784,0.0397965015339169,0
170,2056973966,0.000690701380261645,0.00138757387851292,0.711143974531648,0.70304469634417,0.0424103068296778,0.117380755417485,0.0396684385188513,0
173,2057023967,0.000148231869235926,0.00108578271906918,0.711719600709371,0.702462816858866,-0.0446878071706111,0.074233218457819,-0.00014461683857733,0
176,2057073968,0.000377056806743796,-0.000708321983852079,-0.712262579292759,-0.701912654286386,-0.0110137662059628,0.113782561752492,0.046428669344197,0
178,2057107302,0.000815541652378204,-0.000449475016068077,-0.712736516016857,-0.701431245098317,-0.0011059579039424,0.0648067136020698,0.0262881152884697,0
181,2057157303,0.00118966083131106,-0.000201370837613123,-0.71354159226153,-0.70061183280742,-0.0172439562323498,0.0990769881656442,-0.0187319676453858,0
184,2057207304,0.00150605860222762,-0.000220196198525238,-0.714294889486089,-0.699843192547571,0.0239573537235862,0.116565474622583,0.0393763767619913,0
186,2057240638,0.00178535736710376,-0.000157630924872977,-0.714602933142889,-0.699528009156991,0.00381800282860242,0.118158754889335,0.00548632552548466,0
191,2057323973,0.00223562737017454,-5.5325630177654e-05,-0.714982670770322,-0.699138598138791,0.0239677363545079,0.0649672396365933,-0.0115687789502778,0
193,2057357307,0.00211180426237701,-9.17262903184839e-05,-0.715043294715596,-0.699076976127315,0.01431034055614,0.111412422556012,0.00493196578726686,0
196,2057407308,0.00170520417807111,-0.000185670259951443,-0.715149053097143,-0.698969877505122,-0.00194914505222432,0.0821477078754707,0.00812176116225764,0
199,2057457309,0.00107167658609704,-0.000508227558492473,-0.715337299186042,-0.698778320790838,-0.0089602023432561,0.0740837251748548,-0.00583138565429343,0
201,2057490643,0.000595055333856548,-0.000848757026529853,-0.715454317562197,-0.698658747173662,-0.00643204812228983,0.0934953986092498,-0.0228423490194907,0
204,2057540644,7.44762076262065e-05,0.00136465271519275,0.715578781437118,0.698530700637581,0.0358433181108884,0.108587459607063,-0.00179840295618539,0
207,2057590645,0.000742322209209088,0.00186226343270586,0.715561092470592,0.698547281059012,0.00831860507736263,0.0984912060390728,-0.0312360974256666,0
209,2057623979,0.00118527389860751,0.00220717296033034,0.715464911201774,0.698644175780737,0.0225158006388457,0.0625359367492573,0.0133183470897275,0
212,2057673980,0.00204207063805672,0.00277490335643857,0.715140198498791,0.698972550498216,0.0440989685860943,0.0687583025936104,-0.036942722817374,0
215,2057723981,0.00312469047034679,0.00337916459069199,0.714495376644882,0.699625024073055,0.0178217853195044,0.128195624581324,-0.0209847541225339,0
219,2057790649,0.00440291104059415,0.00441427931730762,0.713479199878817,0.700648670770708,-0.0211647600724695,0.114213946402452,-0.0540190575574791,0
222,2057840650,0.00518666115425836,0.00510654798160449,0.713303280510001,0.700817702207538,0.0356239749782079,0.182360439779777,-0.0140726531848688,0
224,2057873984,0.00533420354300817,0.00516636680810366,0.713450786567421,0.700665990378365,0.0136615938003853,0.0909065236849669,0.0228985038841176,0
227,2057923985,0.00547592063705996,0.00526595622589652,0.713807224654325,0.700301028151104,-0.00516729778860328,0.065680782082178,0.0181007880395052,0
230,2057973986,0.00557844796737183,0.00557705652068838,0.714201731234234,0.699895466809768,0.00175919388455081,0.133183316332665,0.0304983604994781,0
232,2058007320,0.00547323673934423,0.00578341332130376,0.714555045977137,0.699533903451835,-0.00799856489787578,0.133689376979313,0.0218891445821721,0
235,2058057321,0.0052439261162413,0.00628668129627554,0.715172263034315,0.698900288355602,-0.0244429041481447,0.0847191392079382,0.0271188480715028,0
238,2058107322,0.00484442296982029,0.00669371023397462,0.715643542922189,0.698416813431041,0.0134257000953995,0.0863120476202062,-0.0130616644872261,0
240,2058140656,0.00453096051493917,0.00690249999252463,0.715727910507769,0.698330426095589,0.00970407621556937,0.115482704544137,-0.0406974651317313,0
243,2058190657,0.00420735155444749,0.00712430178429301,0.715561047091333,0.69850120286406,0.00394338201859048,0.109187418362674,-0.0206736759777715,0
247,2058257325,0.00385963870955735,0.00752467925818158,0.715049374011065,0.699022800141367,-0.0400037097536893,0.0698706323943587,0.0228310579561118,0
250,2058307326,0.00353964040243508,0.0077683531270012,0.714691708212637,0.69938750764338,-0.0319944511296528,0.0800916758213321,0.0301861269253556,0
253,2058357327,0.00306130012781691,0.00774118546438461,0.714417630775828,0.699670030318426,-0.0171835915804171,0.119282785982184,0.0573102735923912,0
255,2058390661,0.00266438293638706,0.00743275134164391,0.714170066082725,0.699927690538429,-0.019964545557577,0.0816864786678165,0.0645705149182,0
258,2058440662,0.00209323297084799,0.00678737284258023,0.713704184084772,0.70041122746963,0.0106501058926718,0.0604509367584124,0.0510639360021727,0
261,2058490663,0.00158710059977973,0.00650685569602226,0.713179220186223,0.700949742731395,-0.0361493716209139,0.123107301001056,-0.0136433989044972,0
263,2058523997,0.00153849480575044,0.00669475296638288,0.71313421374597,0.700993870516262,-0.0785101933680116,0.146831702750485,-0.0100439395895534,0
266,2058573998,0.00137050204571215,0.00706333969729937,0.713046590789179,0.701079731785475,0.0426150190423397,0.0894757212076742,0.0400604862184634,0
269,2058623999,0.0013337762160352,0.0071561217961971,0.713274980333036,0.700846497738807,0.101720432179443,0.0553737281917113,-0.00436983196040424,0
272,2058674000,0.00155359041944745,0.00730706504828723,0.713149030002947,0.700972648655455,0.0191058999172655,0.0650402282194653,-0.0248619217164504,0
274,2058707334,0.00182773398182919,0.00752761336865583,0.712938854818708,0.701183416600288,-0.0119322036812184,0.112969021643866,0.0046422905780004,0
277,2058757335,0.00208143059522545,0.00783719062760893,0.712699549887028,0.701422552874208,-0.0740375942850361,0.121559107918256,-0.0245896292726625,0
280,2058807336,0.00207924438330857,0.00783533486347283,0.712917048388719,0.701201516246998,-0.0469534071783488,0.128228868068617,-0.0153694629740115,0
282,2058840670,0.00205611136053975,0.00784809466286586,0.713208885977285,0.700904604621253,-0.0218534370845669,0.0833370627907023,0.00896668140534874,0
285,2058890671,0.00207236885620777,0.00786534025368591,0.71367327007071,0.700431513637556,-0.030557180006223,0.137032805098948,0.0264587406823555,0
288,2058940672,0.00182353430968873,0.00768778830797848,0.71401770781102,0.700083056191085,-0.0472574225562622,0.092549165940176,-0.000300412185460867,0
290,2058974006,0.00164135324986346,0.00761312608905534,0.714210606573489,0.699887530770902,-0.0202325252855418,0.0760916155113252,-0.00822614442347683,0
293,2059024007,0.00141635215703948,0.00759173757390357,0.714479136269323,0.699614124573695,0.00746233825285731,0.0886640048470293,0.0320279933196845,0
296,2059074008,0.00138394714334223,0.0075820957219689,0.71483476183476,0.699250927627135,0.0376563720316052,0.102596313591949,0.0213277993166687,0
300,2059140676,0.00122263503417787,0.00759682974209825,0.715249269423585,0.698827071549515,0.00674808680968832,0.112671687037205,0.0154975262137335,0
303,2059190677,0.000991125498183199,0.00763895456960454,0.71540065364928,0.698672003733879,0.0231037763202478,0.0954015660390407,0.0266359583561319,0
305,2059224011,0.000819597985701975,0.00765126538153259,0.715390373594308,0.698682617334795,-0.00162632271086425,0.0923897673312814,0.0351314479580724,0
308,2059274012,0.000514970520412035,0.00750414756376728,0.715221192354288,0.698857688361526,0.00206773034051896,0.0652625004338834,0.0464313056735738,0
311,2059324013,0.000120948192915157,0.00743854821811053,0.714712753411438,0.699378533759067,0.00890075100147534,0.058717055799703,-0.00574584246000096,0
313,2059357347,3.88968571481842e-05,-0.00755899577735133,-0.714517383324508,-0.699576849957866,0.000762582712661708,0.0847284372915226,-0.0220692191271363,0
316,2059407348,0.000129717534154318,-0.00765553130002521,-0.714458249277361,-0.699636181206635,-0.0303561394628071,0.103966785245383,-0.00694780053026656,0
319,2059457349,6.12408750786256e-05,-0.00764595285783205,-0.714495172293577,-0.699598588065773,-0.00999945635201619,0.101905858492237,0.0149854145422081,0
321,2059490683,8.07123176397534e-05,-0.00758311932750678,-0.71451810993214,-0.699575843183417,-0.00267438655756263,0.116130578169505,0.0438983676166976,0
324,2059540684,0.000324440995931103,-0.00733168829354375,-0.714373860099416,-0.699725752771374,-0.0105249626603099,0.103293055764935,0.0603839562680374,0
328,2059607352,0.000740466249119884,-0.00685036288306995,-0.713810701900754,-0.700304795135702,0.00881552678304312,0.0822753603270151,0.0975291698949818,0
331,2059657353,0.00122932314631608,-0.00669087476080204,-0.713450425732806,-0.700672684626148,-0.00570516119635753,0.0936805933529976,0.0724319860101781,0
334,2059707354,0.00172756643348522,-0.00662991732123708,-0.713333639362883,-0.700791109150106,-0.0689082539714597,0.0943339709068867,-0.0340610410557378,0
336,2059740688,0.00197039240146335,-0.00661549461585358,-0.713505709152976,-0.700615412184803,-0.0745703342344236,0.0930443003581218,0.0238950577064741,0
339,2059790689,0.00240809037347446,-0.00653180023590038,-0.713915112503901,-0.700197649828229,-0.004820776579208,0.0954806400658745,0.0276414681909558,0
342,2059840690,0.00290460317506589,-0.00632760358470986,-0.714178242021281,-0.699929255951387,0.00558088360685519,0.0748035864401438,0.0414411623661261,0
344,2059874024,0.00301691232902539,-0.00613723930119443,-0.714272561879427,-0.699834223141423,0.0160702784963846,0.089957793251875,-0.0015797792147819,0
347,2059924025,0.00300268159802569,-0.00566946313693311,-0.714441004784376,-0.69966627171363,-0.00781214965636441,0.104795087109912,-0.0180099162315046,0
350,2059974026,0.00299126380548846,-0.00509109751033929,-0.714548715632616,-0.699560766520511,-0.0135032712028579,0.0760511090989705,0.0114097607172568,0
353,2060024027,0.00299195158367024,-0.00449993908689209,-0.714511287175167,-0.699603044070865,-0.00694438638045482,0.129167442583742,-0.00615990175684904,0
357,2060090695,0.0028729128028488,-0.00397403015727277,-0.714335230490218,-0.699786490250294,-0.0482972098022855,0.0967832922317818,0.0256809741300742,0
359,2060124029,0.00279254515805011,-0.00397371816157123,-0.714290333105811,-0.699832645199623,-0.0394941099606288,0.0763321614773715,0.0305929212821068,0
362,2060174030,0.00251375172423436,-0.00409665852958047,-0.714752564606656,-0.699360900987014,0.0179382100119935,0.135103609082552,0.0662031837051692,0
365,2060224031,0.00237349714394149,-0.00387324876892326,-0.715264882124691,-0.69883868872182,0.0064719293539833,0.0819583857206692,0.0207214498120049,0
367,2060257365,0.00229701395404083,-0.00365359154426675,-0.715521740356821,-0.698577135377667,0.035339108446471,0.0801309560678441,0.0437845571279289,0
370,2060307366,0.00236936324618032,-0.00324256290081246,-0.715614948052406,-0.698483441484187,0.0347934009044943,0.148173080575832,0.025447558508667,0
373,2060357367,0.00268037088574732,-0.00258466532947433,-0.715584191224656,-0.698516571304078,0.0311148309481427,0.0743383189205754,0.0540685873821411,0
375,2060390701,0.00278467160935167,-0.00225579707617376,-0.715594676276346,-0.698506561363979,-0.0100318854703967,0.0845389584072149,0.0150534288659176,0
378,2060440702,0.00307877604187584,-0.00177461374841903,-0.715725376604254,-0.698372792403045,0.00166238616532024,0.136162259965031,0.0251086038751263,0
381,2060490703,0.00374418704931999,-0.00115270520758292,-0.715804173581752,-0.698290081138913,-0.0222603445208497,0.0734263545735678,-0.0156600532989987,0
384,2060540704,0.00438259528164769,-0.000687921394358012,-0.715879685948637,-0.698209563719112,-0.00979157002404661,0.114258334848626,-0.00362601508756816,0
386,2060574038,0.0047666044187892,-0.00041453252165754,-0.71590870863567,-0.698177505040596,-0.0328806314732292,0.111093728643179,-0.0306559060683327,0
389,2060624039,0.00531283302579648,-4.98582295021098e-05,-0.715841391451597,-0.698242703938995,-0.0175107057412146,0.0901370246980546,-0.00525554752305816,0
392,2060674040,0.00580582820712869,0.000286801944027363,-0.715727821668861,-0.698355135581189,-0.0189451616171743,0.0965371458918501,-0.00018343873291657,0
394,2060707374,0.00615026490255945,0.000550314819242985,-0.715680079037975,-0.698400956373505,-0.0317342014474207,0.10695638130826,-0.00661065262162177,0
397,2060757375,0.00668950703252344,0.0009506808825363,-0.715636311214257,-0.698440417482531,-0.00679362523776599,0.0802962252594342,-0.0245349531182417,0
400,2060807376,0.00712621706568152,0.00129971754844582,-0.715590531126951,-0.698482440384922,-0.0336643051234318,0.0909334522185758,0.00533543139404235,0
402,2060840710,0.007288658910734,0.00151526595134647,-0.715549595891359,-0.698522265386073,-0.0260238020089089,0.0925322836943342,-0.0201284772849412,0
405,2060890711,0.00750507988743523,0.00189456665450242,-0.71526222689646,-0.698813302083032,-0.022090861791241,0.0360806318457215,0.045562029190644,0
408,2060940712,0.00762139438405024,0.0020590059227371,-0.714804899577258,-0.699279365048476,0.00553078597220189,0.0610260041242821,0.0342309618543379,0
411,2060990713,0.0074861383706604,0.00197552718849233,-0.714782892997568,-0.699303561339887,-0.0299221705503216,0.0873325596765735,0.00730023815083615,0
413,2061024047,0.00734664135812107,0.00208704912944027,-0.714827236624831,-0.699259388829349,0.0318980522986221,0.128674243560155,0.0127688441152018,0
416,2061074048,0.00707077978746324,0.00242697484920596,-0.714750618376222,-0.699339450765569,0.00677606581462669,0.0754029897588028,-0.0134653168112293,0
419,2061124049,0.0067068279122337,0.00270336009440197,-0.714455077818114,-0.699643946649628,0.0278062350513928,0.121317329136038,0.00704980172946764,0
421,2061157383,0.00652233739311925,0.00285298678452393,-0.71413679552029,-0.699969968545329,0.0157655427595366,0.0719398214594053,0.0510513117062917,0
424,2061207384,0.00622538431585629,0.00317188065002805,-0.713678879042659,-0.700438178122577,-0.00551088150962557,0.0993953669059961,-0.0219786919156933,0
427,2061257385,0.00590276597190599,0.00331264672389753,-0.713283957705353,-0.700842478311463,-0.00719099478882166,0.0985011244994714,0.0193591502107567,0
429,2061290719,0.00572929347242646,0.00333165669285493,-0.713036229467416,-0.701095864149033,-0.0101384963807847,0.108548323414545,0.015784607438465,0
432,2061340720,0.00564742979259608,0.00332868167729446,-0.712744843891391,-0.701392767229079,-0.0045469600127607,0.0879947973083553,-0.00234622255131867,0
436,2061407388,0.00551877173423421,0.00316669365798989,-0.712556401126548,-0.701585982202755,-0.00449259248319163,0.110721613022319,-0.0181413032101485,0
439,2061457389,0.00538173318955237,0.00320137951390398,-0.712530616218737,-0.701613076465961,-0.00261055392689302,0.108977162738546,-0.0110028307482165,0
442,2061507390,0.00522012535067543,0.00334224019530338,-0.712537155728695,-0.701606999272287,-0.0103595763201044,0.108584643946671,-0.0236519486074231,0
444,2061540724,0.0050715485873098,0.00346322249156143,-0.712535304278382,-0.701609382521225,-0.000829380607914287,0.102996152424376,-0.00914035204312234,0
448,2061607392,0.00476949437347847,0.00361398437592793,-0.712594576964923,-0.701550539819146,-0.00927620228788645,0.0895810939749348,-0.025175659085545,0
451,2061657393,0.00449154017164488,0.00364300047960038,-0.712673421431692,-0.701472129880608,0.00279252001887536,0.0906565431541007,0.025077420369449,0
454,2061707394,0.00415404618002817,0.00351462947805437,-0.712814862877958,-0.701331136154844,0.0289115134875258,0.0824123786210622,-0.000518210303058414,0
456,2061740728,0.00405501455711809,0.00346689566329021,-0.712783640642991,-0.701363685346714,0.0399133744006671,0.0490024768116373,0.0436960746444959,0
459,2061790729,0.00367446428975548,0.00312535018044418,-0.712532501129808,-0.701622523392838,0.00122989029767067,0.0467162126362006,-0.0310378783724271,0
462,2061840730,0.00315852015332014,0.00267861545199897,-0.712454654967175,-0.701705930846608,-0.00242152049130491,0.0899844239906521,-0.0188027485316285,0
466,2061907398,0.00290421649295618,0.00268456926318729,-0.712656275256259,-0.701502239449247,-0.00907194147096556,0.0704940290972092,0.0252770609997846,0
469,2061957399,0.00312475970777464,0.00300727811131473,-0.712707885656417,-0.701447547488969,0.00279759378052587,0.0959895482203628,0.0176293248588894,0
471,2061990733,0.00344468045980005,0.0034325371367061,-0.712653135679565,-0.701499722075083,-0.00847723736578771,0.136485078276686,-0.0163340448751124,0
474,2062040734,0.00401942115524288,0.00429400513299774,-0.712530549641311,-0.701616434814169,-0.0200560549756389,0.0657149310651579,-0.0589816157012535,0
477,2062090735,0.00413822738600792,0.00471765128450063,-0.712433369365742,-0.70171170223578,-0.0173380720830738,0.0370404232359806,0.0114912963885646,0
479,2062124069,0.00412144640823381,0.0048537663632968,-0.712421021108668,-0.701723409410059,0.00514460445567784,0.163824869646936,0.0500265329349434,0
482,2062174070,0.00437538570443308,0.00506975068387278,-0.712372630730756,-0.701769469707597,-0.0204118391986571,0.153097559072772,-0.0545609530113549,0
485,2062224071,0.00473976788572041,0.00552856876574705,-0.712339737504936,-0.701797027565087,0.0499788294840588,0.0599001948734641,-0.0778854676916302,0
488,2062274072,0.00487151772416499,0.00609348805796858,-0.712086231836372,-0.702048670782465,0.0146855938634722,-0.00439305753224097,-0.0926313454444367,0
490,2062307406,0.00472709756269386,0.00647354883153205,-0.711756998916164,-0.702380041151522,0.0247871331544466,0.0929907624275522,-0.0749862880888651,0
494,2062374074,0.00413896257860704,0.00737024600863018,-0.711022268165565,-0.703118683178907,0.0308815001629455,0.13222967158918,0.0145112399878527,0
497,2062424075,0.00370947672986547,0.00782342440849331,-0.710700144477154,-0.703441780428962,0.016277837145108,0.0939859471166141,0.053293585897187,0
500,2062474076,0.00325040284730063,0.00798988275908894,-0.710584966672287,-0.703558527625222,0.0050508629893406,0.0735445704319213,0.0697391061289714,0
502,2062507410,0.00292687059608522,0.00798143171221662,-0.710658142934025,-0.703486129257642,0.00457874980014031,0.0908110819051185,0.0783899587532898,0
505,2062557411,0.00268707057878493,0.00787182702943012,-0.710841570791829,-0.703302975413249,0.0078735700779617,0.101909531664783,0.0549973684940146,0
508,2062607412,0.00264554652631916,0.0076988372188901,-0.710892297042458,-0.703253774248493,0.0789941982411704,0.0714042704338912,0.113071586819904,0
510,2062640746,0.00249047843180201,0.00750344462001844,-0.71116226662572,-0.702983446721033,0.0738688404875454,0.0737252996512582,0.0927859469322377,0
513,2062690747,0.00234775682012514,0.00759214239122681,-0.711582775343262,-0.70255732950885,0.0675124100755117,0.120001230927768,0.0427894595278764,0
516,2062740748,0.00253882779094742,0.00811793091851249,-0.711621404494997,-0.702511658419714,-0.00117453738365761,0.0853723267925457,0.0479179774074753,0
519,2062790749,0.0029861032353145,0.008783463382319,-0.71137172802862,-0.702754721449849,-0.0131088760333192,0.097817837189208,0.000287968568609295,0
521,2062824083,0.00315173992427837,0.00916658748096268,-0.711236804694891,-0.702885657740151,0.00808568679269443,0.0932073534407652,0.0045008225082661,0
524,2062874084,0.00320524286594388,0.00957209245357904,-0.711362174857433,-0.702753127098225,-0.0820834118149186,0.0921169478116142,0.0183767280054162,0
527,2062924085,0.00320185038295548,0.00957148767156665,-0.711912473409054,-0.702195674283516,-0.07384294122509,0.117113863892902,0.00206803665608752,0
529,2062957419,0.00331991067760204,0.00950902208886449,-0.712442929343318,-0.70165777208032,-0.0587158817525474,0.10733490086407,0.00335963271314915,0
532,2063007420,0.00348054415880915,0.00943303279447002,-0.71335517936868,-0.700730541486908,-0.0433717189491583,0.124254531064071,-0.0273462477972284,0
535,2063057421,0.00343760480645727,0.00927717711762854,-0.713975511724878,-0.700100768114934,-0.0309100373720961,0.0942347764290315,0.0327565468311321,0
537,2063090755,0.00329471813652663,0.00921442371289363,-0.714222851621884,-0.699849953525143,-0.0102278764259427,0.115107694675475,0.0820103978903637,0
540,2063140756,0.00301196245963811,0.00933211507894488,-0.714503776170941,-0.699562858896726,0.025340033189062,0.102584716652296,0.0519516362942477,0
543,2063190757,0.00294792578164732,0.00940845419350457,-0.714455461782602,-0.69961145205913,0.019402709903449,0.0892828449284202,0.0710331938352635,0
546,2063240758,0.00315624666751207,0.0095482283578016,-0.714154430712003,-0.699915936764277,0.0299753765169959,0.082085777399544,0.0710005180886481,0
548,2063274092,0.00333628329514217,0.00958027708684293,-0.713856523083977,-0.70021850300829,0.0123363255728651,0.100115287638507,0.070828414288567,0
551,2063324093,0.00363251176703279,0.00975094493296713,-0.713250091243206,-0.700832384577607,-0.0203859759185413,0.12548236727706,-0.00606159788629388,0
554,2063374094,0.00391068903253146,0.00981681791446057,-0.712582828625414,-0.701508409746832,-0.053225679464277,0.129371581900944,-0.0175399059354001,0
556,2063407428,0.00411550646441082,0.0097674623907954,-0.71210548010133,-0.70199248179353,-0.0280329127162899,0.0394518292371144,0.0418782312901281,0
559,2063457429,0.00410788260141969,0.00920771027425964,-0.711899614977193,-0.702208858935404,-0.0331413468122349,0.123195992502592,0.0641216482296676,0
562,2063507430,0.00414626085002174,0.00895007953373279,-0.711859884771982,-0.702252240330868,-0.00909245919337289,0.0967621079716518,0.0372259216862424,0
564,2063540764,0.00419463312847438,0.00891153481341259,-0.711803986184709,-0.70230910207098,-0.0195382935685571,0.0667374518601691,0.0229601470934831,0
567,2063590765,0.00427440300401317,0.0086779931381136,-0.71165935687232,-0.702458099597499,-0.0165732350051106,0.137718213918727,0.0486856047196929,0
570,2063640766,0.00456994673528083,0.00871579398487418,-0.711579446517735,-0.702536719193783,-0.0277540121822925,0.136175417035236,0.0882983418441396,0
574,2063707434,0.00498598583583126,0.00962725369629796,-0.713301363089538,-0.700773587791463,-0.378432466570935,0.195128293046107,0.419418565102631,0
577,2063757435,0.0064496449448366,0.0131633576184953,-0.716005537082374,-0.69794068441643,-0.0566957285006272,0.0740535073914277,0.318478999032733,0
579,2063790769,0.00742535384570008,0.0158088466753945,-0.717475782974053,-0.696364448642254,0.114096636873543,-0.022523141570654,0.178055799711858,0
582,2063840770,0.00752911944502762,0.0191634772178891,-0.718009322039195,-0.69572888898343,0.267859652600125,-0.136555689292533,-0.219226011978374,0
585,2063890771,0.00556626433125033,0.0204397800950429,-0.717062388000907,-0.696686991270469,0.122766587159026,0.238536975187231,-0.13605567504679,0
587,2063924105,0.0049338717280166,0.0212324625084036,-0.716001898155269,-0.697757924558118,0.146328098359422,0.229548102111364,-0.278972858114689,0
590,2063974106,0.00436832520688088,0.0215976196755893,-0.714298398548883,-0.699494287603363,0.0741060903337957,0.147866523340606,-0.241750921272213,0
593,2064024107,0.00464830313810675,0.0212788704963533,-0.712410879540481,-0.701424508882242,0.153324172700653,-0.043391544239545,-0.254323161574846,0
596,2064074108,0.00488287964482843,0.0196758625441322,-0.710500170028287,-0.703404951865776,0.0119270757350894,0.201910293344712,-0.0293595749847081,0
598,2064107442,0.00485223575830628,0.0187079922103193,-0.709470093081753,-0.704470477634211,0.11975019861941,0.0301961754565226,-0.163210489639588,0
602,2064174110,0.00372941136556158,0.0151780315597847,-0.707612853120773,-0.706427468992476,0.00625867512352476,0.185863892323911,-0.0689827564333904,0
605,2064224111,0.00277010075155238,0.0123182005287083,-0.706570151817852,-0.707530359092569,-0.0212956825775817,0.106555292198991,-0.0796973196042498,0
608,2064274112,0.00206612284307646,0.00950536381820768,-0.70623200208097,-0.707913651819051,0.00540684891086739,0.181649248998905,0.00908871303307963,0
610,2064307446,0.00201204147630234,0.00799744432321913,-0.706093024898911,-0.708071064768573,0.00162178332375485,0.15176434469559,0.00355450878680629,0
613,2064357447,0.0022790930922799,0.00626248330520972,-0.705809071770621,-0.708370765379136,0.0333795510280828,0.0579252788669225,0.0610999052873757,0
616,2064407448,0.0024598866869948,0.00522043555288842,-0.705383786179763,-0.708802095231686,0.0596276741544266,0.117812642525826,0.11867351664203,0
618,2064440782,0.00271709504362971,0.00485145571605579,-0.705204612714354,-0.708982041365194,0.0582163749664565,0.106312066742972,0.0661763460221937,0
621,2064490783,0.00337690487223042,0.0041036651648839,-0.704915099100928,-0.709271781128523,0.00973673424719202,0.107342406998227,0.0845590270915357,0
624,2064540784,0.00432202032359152,0.00369236331107868,-0.704533424640107,-0.709648039635412,0.0374772691867845,0.0989678277993233,0.0249496789934897,0
627,2064590785,0.00519688755582962,0.00358471455364794,-0.704465037366099,-0.709710612369634,-0.043560076832458,0.0381603586990955,-0.0179255212560784,0
631,2064657453,0.00624190603491531,0.00319645328952174,-0.70513659310596,-0.709036815940004,-0.0291893937894472,0.13579526122784,0.0361275768496712,0
633,2064690787,0.00682735632192808,0.00303858302513942,-0.705821625337297,-0.708350187001506,-0.0213503960039354,0.0688594507259772,0.00184408799194483,0
636,2064740788,0.00743007923797112,0.00283728567819553,-0.707079426402578,-0.707089406292232,-0.0149348790969446,0.0383633750486935,-0.0320130225514827,0
639,2064790789,0.00799763329875168,0.0026859053156982,-0.70844822214423,-0.70571236372543,-0.0364611865696328,0.128919721714646,0.0565019115299153,0
641,2064824123,0.00849609699641924,0.00273901597450587,-0.709583125706118,-0.704565186367064,-0.0900893083454677,0.112034839710785,0.0241243629425857,0
644,2064874124,0.00959877492617235,0.00305802400954679,-0.711200223377011,-0.702917316814406,-0.0363908946122535,0.150357685548448,-0.0455566133489274,0
647,2064924125,0.0108356798559688,0.0033403501534795,-0.712664232429664,-0.701413659631995,-0.096928043602102,0.106850180241864,-0.068023624868934,0
650,2064974126,0.0115672333002299,0.00347475739378425,-0.714031833912077,-0.700009046609391,-0.0260994527605012,0.0647077218236198,-0.0646294146309257,0
652,2065007460,0.0116073887313723,0.0034845718231242,-0.715100562644086,-0.698916526913021,-0.0380544510366204,0.0994268526763947,-0.0565475307626223,0
655,2065057461,0.0111497729448929,0.00344105972321473,-0.716476806904712,-0.697513316603265,-0.0362965020850901,0.045163422828303,-0.188652842597325,0
658,2065107462,0.0103523502054167,0.00310482678650058,-0.717432722685327,-0.696543952178303,0.0052101821981256,0.13849991663519,-0.151083662367631,0
660,2065140796,0.00996395514365883,0.00310325269621625,-0.717789572753859,-0.69618188619529,0.0449743709203271,0.190664080317455,-0.11877617320452,0
663,2065190797,0.0098596155191248,0.00350695888033386,-0.718002872681275,-0.695961467354812,-0.00970276438544474,0.129742086910751,-0.0371349515828206,0
666,2065240798,0.009529647833836,0.00378203982070667,-0.717874529448696,-0.696097006139065,-0.0707578543146117,0.0218794212333549,-0.0548584125829667,0
668,2065274132,0.00915980056781275,0.00386604971513903,-0.717705938089782,-0.696275332137959,-0.0860380144922968,0.128414474347945,0.0431370357245412,0
671,2065324133,0.00873878238973658,0.00401663535197993,-0.717361791004617,-0.696634453016388,-0.103532063117442,0.119860933888615,0.0151782925849905,0
674,2065374134,0.00841757544783016,0.00401220132755098,-0.71726001594659,-0.696743221128406,-0.0470435913681333,0.0736725999030675,0.0643327939815569,0
677,2065424135,0.0082248883517248,0.00361504383775771,-0.717254356380867,-0.6967535223609,-0.00826049713001856,0.111550281602271,0.0950656625870338,0
679,2065457469,0.00830449979415875,0.00338448598685567,-0.717341936007338,-0.696663568290331,-0.0297519460674574,0.114396061802693,0.0820964034276029,0
682,2065507470,0.00859846913198378,0.00322201744318004,-0.717683155457758,-0.69630925119833,0.00441092341429932,0.0900405507814935,0.0960093316806248,0
685,2065557471,0.00891856973876371,0.00297646710473704,-0.718214953047567,-0.695757774643066,0.0173823763116723,0.0693124786553212,0.140221739136436,0
687,2065590805,0.0090982193531671,0.00280820246877935,-0.718673427704399,-0.695282561779818,0.0290671668398125,0.140835029921614,0.106523457913831,0
690,2065640806,0.00925381247652637,0.00274633904296041,-0.718920523214276,-0.69502525556833,0.0701280879418619,0.130466317947819,0.0413880087984323,0
693,2065690807,0.00938706031778955,0.00286858902467476,-0.718527439062003,-0.695429344801179,0.0630442113145426,0.0565448793406651,0.046470656706608,0
695,2065724141,0.0094055285683057,0.00280736029378989,-0.717961514820249,-0.696013590382792,0.0868502368199873,0.0854106066769682,0.0917272176175589,0
698,2065774142,0.0089997026554336,0.0026986268555805,-0.717177922370629,-0.696826772181836,0.0887460145658797,0.103983502756732,0.00233543949968033,0
701,2065824143,0.00844216678303342,0.00261911368812531,-0.716422153671184,-0.697611043341947,-0.0301024055927541,0.0958634404765161,0.00145181112890958,0
704,2065874144,0.00794195620792927,0.00277520424852225,-0.715964177806248,-0.698086326804352,-0.0259268273108235,0.0996272754810014,-0.043935883017436,0
706,2065907478,0.00757968939349893,0.00289362243996555,-0.715792670019159,-0.698265729364342,-0.00626157130380498,0.102057205221151,0.0170376354735061,0
710,2065974146,0.00663702869191274,0.00298082259158688,-0.715735241613596,-0.698333823081159,-0.0467245396219367,0.0771421830132618,0.0180443184818163,0
713,2066024147,0.00561484728745694,0.00226834856280993,-0.715747192556781,-0.698333218765814,0.0124003220429013,0.0905779259309587,0.011337522128371,0
716,2066074148,0.00467572297728245,0.00139688546749078,-0.715584268313662,-0.698509370923277,0.0126226362417026,0.15093481722486,0.037918473311862,0
718,2066107482,0.00420848805634082,0.00106939492243631,-0.715361270671691,-0.698741295076915,0.0224264477514083,0.084967848257257,0.0161377280094462,0
721,2066157483,0.00329154245406021,0.000546228552252814,-0.714970187376363,-0.699146979215136,0.0085143608060199,0.0827610569621555,-0.0024981062966365,0
724,2066207484,0.0024655766976687,-5.42786399387441e-05,-0.714518210693608,-0.699612496009456,-0.0231129718368586,0.0961027689661233,-0.0261748601247697,0
726,2066240818,0.00189807440969203,-0.000617073993158173,-0.714267794485325,-0.699869655217521,-0.0525758235264595,0.115032945080724,-0.0151571513223488,0
729,2066290819,0.00112369056042272,-0.00138857484920102,-0.714057806386974,-0.700084465130626,-0.0371233334671301,0.116922823838878,-0.0349257687367934,0
732,2066340820,0.000284783328145614,-0.00224922999710325,-0.714083997274858,-0.70005635823042,-0.00229609478989276,0.0829710729286119,-0.00867939523918679,0
735,2066390821,0.000564819044585236,0.00325267980078664,0.714160311157213,0.699974393118343,0.0188049101243085,0.088150670833587,-0.0207912684185752,0
739,2066457489,0.00186513554699027,0.00509455312349391,0.714219551069352,0.69990070700647,0.00796406471177964,0.202592173838659,-0.0349904907125073,0
741,2066490823,0.00234963731509657,0.00606584845496842,0.714216123686806,0.699895001662964,-0.01477454243201,0.101724346569338,0.0281986932907462,0
744,2066540824,0.00293922610812229,0.00764779494323191,0.713975656902725,0.700122584646942,0.0233940808422746,0.0467027498879468,0.0362320384862812,0
747,2066590825,0.0038357940876755,0.0094095661348249,0.714080764554674,0.699989577380895,-0.057129025115299,0.0685787002353456,0.0096700889798561,0
749,2066624159,0.00446449492964,0.0104455259318455,0.714198496449387,0.699851031964993,-0.0210013320956437,0.171435364466973,0.024132526923878,0
752,2066674160,0.00493822615668978,0.0112165374653089,0.714377990658862,0.699652692177999,-0.0131610390678634,0.0602927664156591,0.0420409016794179,0
755,2066724161,0.00529555629295109,0.0115019853339688,0.71441851097389,0.699604068452132,0.0123260386128289,0.14681747409338,0.0153049396047705,0
757,2066757495,0.00536904699915057,0.0114680860940035,0.714380146652774,0.699643239375628,-0.0106676268132367,0.139808861314667,0.0341791694370543,0
760,2066807496,0.00528637804645807,0.0113022501344706,0.714388518532622,0.699638019219806,-0.038220331347472,0.0824762366101153,0.0489851987811479,0
763,2066857497,0.00503839123974063,0.0111565059809051,0.714364433937241,0.699666779626943,-0.0126110076006111,0.0882848398143043,-0.0181101051163193,0
767,2066924165,0.00456990672934674,0.0107929180853327,0.714061205984676,0.699985159113676,-0.0146895936365861,0.116835800757456,0.0393281735487257,0
770,2066974166,0.00433894859907136,0.0105691521016808,0.713740491976507,0.700317054384683,-0.0216031767784043,0.0775606021590999,0.0482883328977379,0
772,2067007500,0.00432812338421816,0.0105141483602376,0.713603361614519,0.700457680609392,-0.0264776643423603,0.103413511677363,0.0456324914577477,0
775,2067057501,0.00419045932312648,0.0103074674275156,0.713597724779996,0.700467332111002,-0.0443275498037617,0.12356883772644,0.0324900397179133,0
778,2067107502,0.00392764860791647,0.0100232003519309,0.713636554638536,0.700433420758003,-0.0119820033302246,0.146435527748082,0.0207606573464474,0
780,2067140836,0.00362607132468959,0.00964270512901657,0.713608254436208,0.700469220626467,0.014062215370772,0.122194606861497,0.0136031399250766,0
783,2067190837,0.00328610278001853,0.00906137777010464,0.713474691885987,0.700614699388774,-0.0136138083960247,0.0658470239467465,-0.0115195673222008,0
786,2067240838,0.00315409881054294,0.00893410054269282,0.713184183882456,0.700912657446063,-0.0164214351156831,0.1176568567606,0.0456190104279372,0
789,2067290839,0.00288178929268539,0.00876742438425516,0.712850665688322,0.701255129027842,-0.0287068464872755,0.159619157356445,-0.0173298079381231,0
791,2067324173,0.00275205501604356,0.00864887502240696,0.712674709560726,0.701435942553966,-0.0597056629512517,0.0641948158190796,0.0303965020631171,0
794,2067374174,0.00270103682569369,0.00874050123616057,0.712079225574448,0.702039517793337,0.0128073935038784,0.0353082617324839,0.0492189918221318,0
797,2067424175,0.00336148402564756,0.00924007044196151,0.711967772041135,0.702143299546578,0.0145229863295019,0.0949654888717252,0.0453794164196897,0
799,2067457509,0.00392411496616121,0.00943925668430399,0.711983610583697,0.702121670378562,0.00175639409154819,0.0837008429298779,0.0424601132982291,0
802,2067507510,0.00489285933013489,0.00972002931340842,0.712048333263439,0.702046118182047,0.0120999415067164,0.0412425889731615,0.0474330178837829,0
805,2067557511,0.00576293187096893,0.0101233507227529,0.712216897630161,0.701862805052714,0.0386009832475531,0.100456255808476,0.0581241313727989,0
807,2067590845,0.00622728752568282,0.010401857561521,0.712373598304843,0.701695716594844,0.0533217692584131,0.133167215725045,0.0575699111344322,0
810,2067640846,0.00691872556614916,0.0107992401135308,0.71271136816732,0.701340155227531,0.0272941989273381,0.0687721705039357,0.0091345091776554,0
813,2067690847,0.00765127941959033,0.0112882986712848,0.713043967562663,0.700986685008244,0.0447510523619971,0.101958863931595,0.0255919756395301,0
816,2067740848,0.00803570214075949,0.0115994216520511,0.713187822688904,0.700830942864756,0.0264650712288152,0.109339649480352,0.00975713623137891,0
818,2067774182,0.00814337121517736,0.0117254030310324,0.713239119538524,0.700775398247486,0.0139466077636466,0.0844619387455351,-0.00359768486817581,0
821,2067824183,0.00841698122128046,0.0119874912321609,0.713341618281088,0.700663392870783,0.0139492217710998,0.101666466634711,0.0262711499637672,0
824,2067874184,0.00869279145569556,0.0121841184381901,0.713403564622391,0.700593560217805,0.0256474034865337,0.112696874423447,0.0569505732916514,0
826,2067907518,0.00878922090941526,0.0122689723961447,0.713383977217328,0.700610821327886,0.0231821498262422,0.102587174555099,0.0223464389532793,0
829,2067957519,0.00873849570175008,0.0122489863794037,0.713308529034429,0.70068862088112,0.00538674304435899,0.0950887906934648,0.0161479537039893,0
832,2068007520,0.00853860033676373,0.0120642417584938,0.713196287937467,0.700808533942973,0.00985205689310189,0.0871995200088594,0.0119276612058225,0
834,2068040854,0.00841976361688957,0.0119198933752473,0.713075231008832,0.700935616618431,0.0322563632201053,0.107253709902563,0.000603204308846935,0
837,2068090855,0.00821885737236253,0.0116116657678359,0.712674712106657,0.701350393402101,0.0352198659082355,0.0530203415702224,0.0671370547721888,0
840,2068140856,0.0080376226126648,0.0114987050192033,0.71200576885568,0.702033447580563,0.0288356783647459,0.0618971877584807,0.042802443968691,0
843,2068190857,0.00819323969869003,0.0117178474093997,0.711698072770465,0.702339957634574,0.00950531792022361,0.0932342329330396,0.0271811366437624,0
847,2068257525,0.00853822087450867,0.01177392710419,0.71154171402509,0.702493318564013,-0.0107482424596823,0.0713685353444529,0.0444897655029772,0
849,2068290859,0.00868078450818861,0.0117659084221667,0.711464249970509,0.702570159054044,0.00468233704864382,0.0777664413175697,0.0557054856806319,0
852,2068340860,0.00865065603140362,0.0116859506391342,0.711310737599797,0.702727286565079,0.0174434051788497,0.11511008512453,0.00948789089231115,0
855,2068390861,0.00848252123128508,0.0114757529473596,0.711168160533046,0.702877088381671,-0.00197490915492389,0.105985438106287,0.0190584020333328,0
857,2068424195,0.00845494188525047,0.011419475320136,0.711079814919886,0.702967713593328,-0.00112991841817332,0.0836627642660948,0.0313548160151092,0
860,2068474196,0.00819705672002384,0.0112455057486912,0.711041302565198,0.703012526849964,0.0232213898006261,0.123810599882652,0.0440565202115596,0
863,2068524197,0.0076604866979425,0.0108617831360985,0.710939501731955,0.703127558475541,-0.00425217296109416,0.0953872313747486,0.0269352043202615,0
865,2068557531,0.00724810765221722,0.0105916219581775,0.710871102632167,0.703205203281577,0.0297459903813893,0.0813261248731739,0.0505297658886668,0
868,2068607532,0.00674097016443781,0.0102139585418989,0.710843971548118,0.703243259822549,0.0293704951679348,0.101513906380311,0.0317571430902582,0
871,2068657533,0.00643598560020696,0.00992979354594624,0.710883256107244,0.703210475942908,0.0153062671683902,0.111356702260829,0.0320732466275261,0
875,2068724201,0.00613640389039513,0.00969210562531793,0.710990306595496,0.703108236022793,0.0327514719431999,0.0958314142732394,0.0157347465167641,0
878,2068774202,0.00598866017620771,0.00961891257451763,0.711133585782272,0.702965600611172,0.0200617033243125,0.102330104600597,0.0136598936868141,0
880,2068807536,0.00580531013399983,0.0096086535730618,0.71122049445064,0.702879349834769,0.0187102434174803,0.0852647656762733,0.0120789387823376,0
883,2068857537,0.00559385333454674,0.00963476425469791,0.711291645452525,0.702808704579039,0.0194181386953387,0.0885019230108802,0.0508246026388414,0
886,2068907538,0.00530812132295552,0.00950136178737825,0.711151330981615,0.702954715764311,-0.00870314823424143,0.0781666237225085,0.0449593734271535,0
888,2068940872,0.0051263530158446,0.00949352553431364,0.710889419366407,0.7032210370222,-0.0200738664066957,0.0665025013397158,0.00353720603168604,0
891,2068990873,0.00507137705793353,0.00961959271732647,0.710710652016322,0.703400393574828,-0.00439305169031238,0.0634635995900563,0.00448630249346162,0
894,2069040874,0.00519266753943147,0.00952153793994859,0.710780095083547,0.703330671129951,0.0334896139225261,0.116136888430387,0.0113186119786174,0
897,2069090875,0.00532746363374657,0.00912818730763475,0.710871018394607,0.703242980437289,-0.00320698823615102,0.0685085328237751,0.0210726348999656,0
899,2069124209,0.00534973617313556,0.00889335167088328,0.710807005380324,0.703310521548762,0.00460104570282574,0.110534833906307,0.00359838007044149,0
903,2069190877,0.00534432707550356,0.00840442041271932,0.710494281579364,0.703632489108242,0.0552310741759367,0.126816565112932,0.00999957715754974,0
906,2069240878,0.00546799302654863,0.00799901932080086,0.710243977403222,0.703888918299343,-0.00908593011156941,0.0661247633564389,-0.0315904857985988,0
909,2069290879,0.00558792261601773,0.00774978774987077,0.710171578033464,0.7039638099108,-0.00111930155814169,0.101455624230976,-0.0255772290546818,0
911,2069324213,0.00548709875515756,0.00755869207102482,0.71014541783912,0.703993070593404,-0.0144026484359471,0.103692506838795,0.00321631611360362,0
914,2069374214,0.00515856810455014,0.00739878743674978,0.710236870611874,0.703904989855185,0.00749070544014979,0.0901533070344174,-0.00920873108277276,0
917,2069424215,0.00487226008748703,0.00734752397045241,0.710423817351017,0.703718888984482,0.0275718727780882,0.097293678599647,-0.00670574621900158,0
919,2069457549,0.00471772015715876,0.00734199205926034,0.710550724483219,0.703591860531014,0.0198868588491086,0.0935926891747007,-0.0217088020662129,0
922,2069507550,0.00439721348591827,0.00733216740280289,0.710658842468438,0.703484835270922,0.0308216761781753,0.0984148231248858,0.000590836235933033,0
925,2069557551,0.00405307364271227,0.00736309115849811,0.71065896048998,0.703486459967737,0.0415685970057486,0.0956085821168018,0.00808333838687439,0
928,2069607552,0.00372904899661391,0.00730369483303648,0.710659559252009,0.703488266482894,-0.000685432530395931,0.10507513705304,0.00346507505851441,0
930,2069640886,0.00347846295758021,0.00727003883000966,0.710710058067711,0.703438881632409,-0.0111457439571421,0.0947004248062342,0.00522405600095459,0
933,2069690887,0.00305023264475271,0.00734816065800328,0.710792375965045,0.703356878750555,0.019803516991165,0.109326137313459,-0.00119915047254467,0
936,2069740888,0.00267692173583272,0.00737542611392852,0.71087133810176,0.703278307531997,0.0197581363158217,0.0605467640613898,-0.00596134330627839,0
938,2069774222,0.00249659735986339,0.0073449869425653,0.710746419449093,0.703405534104424,0.000969127935741116,0.110404001776845,-0.0706289050465288,0
941,2069824223,0.00256081355442304,0.00741038666184444,0.710466164829954,0.703687684299845,-0.0151512999213323,0.102830626876327,0.00173762372201967,0
944,2069874224,0.00254944311449644,0.00744074311516554,0.710141659051763,0.704014886036446,-0.0255728785624722,0.0917398668587837,0.00853520491360404,0
947,2069924225,0.00289124967876753,0.00751363893861989,0.710418714348141,0.703733213802738,-0.0105727241984131,0.10451723020891,0.0109106207518797,0
949,2069957559,0.00304794308880385,0.00753868701165678,0.710738950009325,0.703408859185545,-0.0631082885537702,0.0770698979748861,0.0236031728699892,0
952,2070007560,0.00314660398781305,0.00765004752163446,0.711254606434876,0.702885808991355,-0.0321628522687329,0.111310862771092,0.00043944188136635,0
955,2070057561,0.00347562432007168,0.00788188387975284,0.711502191152401,0.702631075264554,0.00280594360964147,0.150629936436037,-0.112270183067277,0
957,2070090895,0.00498966972728272,0.00844507015770742,0.711722336524359,0.702392411461251,-0.0350381369807396,0.387836966054006,-0.154005200212787,0
960,2070140896,0.00869358966019548,0.00910405233220755,0.712422819228333,0.701637559123445,-0.0464290946357153,0.272581178809714,-0.151238384040071,0
963,2070190897,0.0118202760367889,0.0109263229015518,0.712537315098004,0.701449549957224,0.0578633400372889,0.0103406617622353,-0.0124792280361026,0
965,2070224231,0.0124947693091302,0.011973566107655,0.712444665745947,0.701514869909914,-0.121160781866379,0.0977642731304114,0.165917713377217,0
968,2070274232,0.0115447966772097,0.0118944754688449,0.712072501300476,0.701910244984847,-0.0425817969818189,0.303543669670346,0.00485552046174839,0
971,2070324233,0.00856170072947289,0.0101606173963111,0.710322763034661,0.703750688418527,0.143384861975296,0.393546550434849,0.0425409673232283,0
973,2070357567,0.00535744693092542,0.00828191535575365,0.708667182751879,0.705473976650406,0.0709434596089385,0.0374604903715703,-0.133437030232559,0
976,2070407568,0.000211114579803672,0.00498410175027828,0.705136213986032,0.709054323649339,0.0978410552952747,-0.0384563968150884,-0.0219449865737533,0
979,2070457569,0.00440121734557554,-0.000799978723003213,-0.701460205252804,-0.712694583792113,0.00839242541857765,0.0625766165097939,-0.0496388911546385,0
983,2070524237,0.00962101877853091,0.00554645350508215,-0.697796705610191,-0.716209767100913,-0.203275743888582,0.11621749530543,-0.0356993518151462,0
986,2070574238,0.0126872472649542,0.0106642351853902,-0.696655456661821,-0.717214390923703,-0.0337536650649686,0.199163308098575,-0.00471000751368427,0
988,2070607572,0.0146841915161447,0.0141150073116817,-0.696591631078288,-0.717178667139366,-0.120705072294992,0.185291316002355,0.0491759071329698,0
991,2070657573,0.0175413897406894,0.0189569436523925,-0.696600914945027,-0.716993793021304,0.0607549582494767,0.0756456465777284,-0.00728680106204979,0
994,2070707574,0.0198597899481814,0.022845665287451,-0.696917253875948,-0.716512390381908,-0.0146065772293502,0.0884057237710213,0.0624443274746545,0
996,2070740908,0.0207995642390879,0.0250606689732921,-0.697516799306537,-0.715827951174888,-0.0586497230943988,0.0604347045057638,-0.0696479005517982,0
999,2070790909,0.0221874085059355,0.0284074452450053,-0.699864146171218,-0.713365903910801,-0.0578124952913469,0.152551625228251,0.211152422517036,0
1002,2070840910,0.0241734253482868,0.0327217628701293,-0.702946219993892,-0.710078547442394,0.0363335495812032,-0.0307733971292337,0.134461279115829,0
1005,2070890911,0.0256516949058358,0.035948854621421,-0.705842376875675,-0.706990954260635,0.103497603646477,-0.179591791382151,0.119811830612988,0
1007,2070924245,0.0261600286495842,0.0371631712804373,-0.707547266093068,-0.705203103967686,0.0582063993451859,-0.0279623602683229,-0.0781390883078148,0
1011,2070990913,0.0274752038230884,0.040013340625589,-0.70982629777332,-0.702702406952106,0.0325854681237638,0.198276632159744,0.0760923439749755,0
1014,2071040914,0.0286928774276632,0.0426825029122243,-0.71063221297592,-0.701681395371871,0.108596789297285,0.0564478233032748,0.0466362301425807,0
1017,2071090915,0.0302701594918563,0.0458170945597025,-0.710708378804633,-0.701340225273964,-0.0522868016295872,-0.000117487630435467,0.136922003306484,0
1019,2071124249,0.0315367201314002,0.0480088312055752,-0.710378992723484,-0.701471506268641,-0.0317909434865905,-0.0170905232840858,0.0207385114030321,0
1022,2071174250,0.0333138138368829,0.0505011494836414,-0.710050658011624,-0.701546781594593,0.00116788577383093,-0.00494866571469102,0.0471046537343528,0
1025,2071224251,0.0350701686761836,0.0520116126692142,-0.709600774227646,-0.701805967937076,0.0454022563524362,-0.00331194226183311,-0.0129443050057021,0
1027,2071257585,0.0362298544811438,0.0523302907274405,-0.709183264492599,-0.702145309519531,0.0649713449046381,-0.0216899998005224,-0.0200211198805232,0
1030,2071307586,0.0376300690545607,0.0523119423074404,-0.70878739478052,-0.702472681031238,0.0255608804882797,0.045244422832031,0.0164908559289824,0
1033,2071357587,0.0382598863152217,0.0523175486459401,-0.70833190090375,-0.702897555384073,0.0108004327990456,0.107651767755267,0.0239798863100699,0
1036,2071407588,0.0385001165127085,0.0524077077448414,-0.707787327285729,-0.703426095998125,-0.131510396050653,0.14698827794838,-0.027072088009305,0
1040,2071474256,0.0385104865102603,0.0530661836600962,-0.707178840026785,-0.703987933702607,-0.0559891567918663,0.0539325602394601,-0.0752094551020293,0
1042,2071507590,0.0382423878825622,0.0530766718196767,-0.706701327776,-0.704481099815477,-0.024505452371283,0.0722089008678647,-0.0286339679871203,0
1045,2071557591,0.0380942575396584,0.0530800085111135,-0.70624440432992,-0.704946935301969,-0.0675719194160883,0.161806135716482,0.0204022996070891,0
1048,2071607592,0.0387590688656138,0.0530615256702326,-0.706302954812819,-0.704853421001061,-0.0193230055676891,0.0704475296879066,0.069729632485088,0
1050,2071640926,0.0394802819861357,0.0533720995817923,-0.706667616881635,-0.704424307907781,0.0200504389596164,0.0474657951257715,0.0287047136527599,0
1053,2071690927,0.0403909283847275,0.0535723952618176,-0.706976737276048,-0.704047203190699,0.00423505401754824,0.0710408438309348,-0.000216295187162484,0
1056,2071740928,0.040963491984891,0.0531076884644159,-0.707326831379681,-0.703697605055432,-0.0234043693357879,0.045068850563905,-0.0339953632301981,0
1059,2071790929,0.0410178264017321,0.0519622912043934,-0.70802216085202,-0.703080420686356,-0.0119748966619014,0.0239076355883895,-0.00508008002611561,0
1061,2071824263,0.0409679298909271,0.0511061379764715,-0.708394375114137,-0.702771086975149,0.0122695791681673,0.126438670925377,-0.0570475316704371,0
1064,2071874264,0.0410178061468164,0.0502480848136491,-0.708863224328005,-0.702357173200905,-0.0454282651400805,0.0751434908530742,-0.00586409616489287,0
1067,2071924265,0.0408116152556236,0.0492344339412792,-0.709482528655061,-0.701815448752683,-0.0253957350117829,0.102019110220698,0.00160665058505329,0
1069,2071957599,0.040806820493904,0.0486560644941221,-0.709862047843773,-0.701472211723434,-0.0844972439554521,0.115296544012899,0.041534100520968,0
1072,2072007600,0.0408739844588766,0.0482404795433119,-0.71049436389635,-0.700856570490288,0.00979438446429844,0.113274967186053,0.0415451794658007,0
1075,2072057601,0.0408719223773821,0.0477196373653599,-0.711162599558617,-0.70021430945099,-0.0130838018580103,0.104015074201712,0.0428181215092011,0
1077,2072090935,0.0408435675384183,0.0472773107012999,-0.71150909728945,-0.699893894356808,-0.065258197641426,0.0985391768943711,0.0175487372020891,0
1080,2072140936,0.0406448388344116,0.046674243249823,-0.712048895590763,-0.699396798949749,-0.0616002377133914,0.0995458841117975,0.0917504883750575,0
1083,2072190937,0.0402207988119229,0.0459589596093514,-0.711954115855433,-0.699565149425746,-0.0475091532637647,0.0720801334725621,0.0647549453318596,0
1086,2072240938,0.0397622200720778,0.0457767527269195,-0.71195767870407,-0.699599684461786,-0.042424020158054,0.151901060858425,0.0792835111045446,0
1088,2072274272,0.0397398800093223,0.0457709604503028,-0.711748631579573,-0.699814008548634,-0.0397885811892325,0.100337422522669,0.0571823339630022,0
1091,2072324273,0.0397764785009509,0.0458520823335422,-0.711368140763311,-0.700193392292937,-0.0479898493490119,0.0875793912034694,0.0321741657864678,0
1094,2072374274,0.0398139498389797,0.0461260908697777,-0.710957424905048,-0.700590303324044,-0.023311076075416,0.0823964722304237,0.123868163270277,0
1096,2072407608,0.0399333343838204,0.0464070479714732,-0.710721665937637,-0.70080412974696,-0.0315090805885355,0.0831554138185042,0.073152180258498,0
1099,2072457609,0.0401538461836651,0.046602703716113,-0.71052245800007,-0.700980522782584,0.02659514950827,0.0709413694422463,0.0612874182107794,0
1102,2072507610,0.0407119871286813,0.0469669196927628,-0.710231410363521,-0.701218928931365,-0.0185348112217108,0.107437330706861,0.0654098772072627,0
1104,2072540944,0.0411299346906366,0.0473281708806607,-0.709938689041679,-0.701466628226331,0.0157444735586444,0.118986524458186,0.0276711273052665,0
1107,2072590945,0.0415947991855862,0.0480635452878159,-0.709482588689766,-0.701850571447474,0.0106448053825494,0.106922737149663,0.0442736545880232,0
1110,2072640946,0.041455405405017,0.0486736907091908,-0.709068026996616,-0.702235611662195,0.0225680414070932,0.114596533576866,-0.0208899083075471,0
1113,2072690947,0.0409442234350939,0.0492016515950106,-0.708726451534311,-0.702573544152641,0.0211220593709885,0.127806632338294,-0.00149390037423538,0
1115,2072724281,0.0405574626005661,0.0495333594389668,-0.708341296677441,-0.70296098465805,0.0324812328205171,0.0995158040805334,-0.0304065481218894,0
1119,2072790949,0.0402481570000305,0.050134349016133,-0.70751706392149,-0.703765754471431,-0.0384848694540574,0.1135289654451,0.00470303623914857,0
1122,2072840950,0.0399726929437668,0.0503102665371137,-0.706752848163973,-0.704536352867544,-0.0484007983639121,0.0977776868535212,-0.0311034556769395,0
1125,2072890951,0.039247302206903,0.050233876075469,-0.706307286451224,-0.705029236322738,-0.0146748687042398,0.0935475766153681,0.0195898730299235,0
1127,2072924285,0.0388053677914015,0.0503090301351545,-0.706118473450419,-0.705237439710544,0.00550759110318631,0.0972561821495169,0.0194477700358,0
1130,2072974286,0.038162938085991,0.0503335919717797,-0.70565999546593,-0.705729474001821,0.040583766908165,0.0829691919483414,0.0193316059499993,0
1133,2073024287,0.0377601717169813,0.0498956266599331,-0.704680541070989,-0.706760165054607,0.0356645049973874,0.113319079985612,-0.0104147225333659,0
1136,2073074288,0.0373910870624957,0.0489955865570957,-0.703324384005489,-0.708192170226069,0.0139909350980893,0.141767808921761,-0.102013187795207,0
1138,2073107622,0.03702911643752,0.0483748770326929,-0.70265298532503,-0.708919951772942,-0.0371141134490578,0.118439924352189,-0.0156054656988275,0
1141,2073157623,0.0366601994593682,0.0476391008968447,-0.701998470998296,-0.709637014647203,-0.0433436974843114,0.0993124154950301,-0.00616899526371015,0
1144,2073207624,0.0364058315834293,0.0469739246300776,-0.701633669497655,-0.710055110296956,-0.0697026093922188,0.0872420354425971,0.0362235573809452,0
1148,2073274292,0.0360313889974552,0.0461977458354222,-0.701531717576042,-0.710225848953308,-0.0544205630656792,0.101656716506203,0.0486543219671313,0
1150,2073307626,0.0359297238526837,0.0459099706222886,-0.70170145009331,-0.710081970252925,-0.0658637548982851,0.105953592315808,0.0929200364050374,0
1153,2073357627,0.0360241972790202,0.045967172091135,-0.702311425166922,-0.709470181459625,-0.0688624741930276,0.098692299302224,0.0649897984485665,0
1156,2073407628,0.036140745616144,0.0464217494702438,-0.703083750384932,-0.708669251221676,0.0028980522362751,0.115215948955517,0.014365017119863,0
1158,2073440962,0.0362072564060795,0.0467672537220469,-0.703627848688021,-0.708102894439438,0.0249922613597277,0.0975047403395141,-0.00616829191239152,0
1161,2073490963,0.0364243198024696,0.0472985636633802,-0.703948735812321,-0.707737445773886,-0.00994043009413761,0.0922575664252239,-0.0390992041137922,0
1164,2073540964,0.0364315329947577,0.047425080601999,-0.704281746774116,-0.707397219597551,-0.0154014197186739,0.070467911050916,-0.0202918456059725,0
1167,2073590965,0.0364114583278873,0.0476918928465073,-0.704593735435809,-0.707069556015365,0.0328551547797205,0.0982026727860253,0.0218078415398675,0
1169,2073624299,0.0364461171501569,0.0479751057042418,-0.704628783034557,-0.707013682962772,-0.0173077348386963,0.105511448261277,0.0111821259446676,0
1172,2073674300,0.0366489345299617,0.0484008020420409,-0.704529601323681,-0.707073022267291,-0.0328435707125248,0.107742837508912,-0.0133475226903269,0
1176,2073740968,0.0374184167204428,0.048788477726837,-0.704415526429483,-0.707119730071441,-0.0500321669467045,0.110261868952809,-0.0418003498973011,0
1179,2073790969,0.0379459402301972,0.048956589297179,-0.704494360168152,-0.707001452951619,0.0172948424115888,0.150163085533097,0.0043163599840529,0
1181,2073824303,0.0383178134612189,0.0491843012038047,-0.704542810601201,-0.706917306137574,0.0196575263310115,0.126585084338281,0.0354518091785763,0
1184,2073874304,0.0389528091213246,0.0494968080338596,-0.704492010062404,-0.706911417657297,0.00950833550445337,0.0755628532810903,0.01761682433213,0
1187,2073924305,0.0394557752540012,0.0495754242752463,-0.704411983423222,-0.706957761621441,0.00279776548986503,0.0836837478418079,0.023400667870092,0
1190,2073974306,0.0396284105799411,0.049626076303219,-0.704515904119504,-0.706840988107179,-0.00455308711616947,0.10406613997442,-0.0366805255869861,0
1192,2074007640,0.0396385690439104,0.0495593160156793,-0.704724620131556,-0.706637012772925,-0.0268306330353111,0.0922241981111932,-0.0313592760788854,0
1195,2074057641,0.0393492440131987,0.0492929464821099,-0.705029144270903,-0.70636799768346,0.0752368942657256,0.126518827255855,-0.012143388833424,0
1198,2074107642,0.03895337731466,0.0490225640650006,-0.705089995706297,-0.706348016605956,0.0749318837974096,0.0788942820166105,0.0549030870511545,0
1200,2074140976,0.0388293795310048,0.0488963102180435,-0.704883724692378,-0.706569433811071,0.032534928550096,0.0931257570080724,0.023647237319181,0
1203,2074190977,0.0384879976320448,0.048264797237017,-0.704583057773568,-0.706931324871373,-0.00797970597796834,0.0802779274496111,0.0501449987447695,0
1206,2074240978,0.0381422701417944,0.0476519350477675,-0.704634814281395,-0.706940053199179,-0.0109787453272413,0.104503078281497,0.0208544669609176,0
1208,2074274312,0.0380303139659236,0.0472269156081918,-0.70452814828836,-0.707080901970323,0.00383647659455131,0.0583819826381712,0.0448781431793116,0
1211,2074324313,0.0378126344050054,0.0465336881468135,-0.704298925163755,-0.707366838747752,-0.0421701181456984,0.111084092846043,0.023189898775251,0
1214,2074374314,0.037642929620873,0.0460033673375184,-0.70418195778893,-0.707527010344988,-0.0171603450765956,0.0971919650772497,0.0573050651887491,0
1216,2074407648,0.0375319418044392,0.0456200264579063,-0.704148436802084,-0.707591086348287,-0.0452343358214729,0.104470565079849,-0.00953644815908402,0
1219,2074457649,0.0373535528994779,0.0450222273578416,-0.704253016195984,-0.707534734347638,0.030432281895247,0.124621788023044,-0.0489463230402404,0
1222,2074507650,0.0372267442289575,0.0445260660028615,-0.704201584649778,-0.707624001244419,0.00887313943475145,0.120288384128596,-0.0175436619060385,0
1225,2074557651,0.0371428584330375,0.0439941744689581,-0.704014798734483,-0.707847500414505,-0.0144412613818616,0.0937124713438874,-0.0165720577932274,0
1227,2074590985,0.0370005087827359,0.0435646127517942,-0.703960223669749,-0.70793579536314,-0.0494487073479677,0.0846475225661143,-0.00191169926372494,0
1230,2074640986,0.0366822120619319,0.0428555525028672,-0.703917758440803,-0.70803785653706,-0.0594235609680669,0.07826461762069,-0.00126723689995943,0
1233,2074690987,0.0362671398037999,0.0421754486502268,-0.703876379852475,-0.708141206248709,-0.0132493713647864,0.0765374493384215,0.0248412333614237,0
1235,2074724321,0.0358306372006226,0.0417178180112539,-0.703716687895788,-0.708349216329883,-0.0244284638216673,0.12588776433765,0.0247838654210643,0
1238,2074774322,0.0352920311930092,0.0413289083624652,-0.703404698310349,-0.708708843082098,-0.00701982303608272,0.121912336176994,-0.0146460344127351,0
1241,2074824323,0.0349118411436467,0.0410826455506252,-0.703567745082477,-0.708580134961517,-0.0409204026908557,0.0931832778527065,0.0155780099613402,0
1244,2074874324,0.0344963163322931,0.0408922657771533,-0.703300797684172,-0.708876445324515,0.00069524044166314,0.0556122794888627,0.0210526003592652,0
1246,2074907658,0.0340581278969303,0.0408065207926679,-0.703133385118595,-0.70906862468778,-0.0333181933175948,0.105050300214462,-0.054728331997753,0
1249,2074957659,0.0333635119969364,0.0405997836298939,-0.702630584819853,-0.709611721233625,-0.0299288590679828,0.0929238845193361,-0.045270848847881,0
1252,2075007660,0.0327685211547157,0.0403688211665904,-0.702241137454722,-0.710038004028834,-0.0357533874760278,0.116017644482996,0.0243734823108932,0
1256,2075074328,0.0320314259083992,0.0403935282364783,-0.701906993592254,-0.710400537005123,-0.0342882705908802,0.109594024052947,0.017522397352819,0
1258,2075107662,0.0315681263176135,0.0403824591371135,-0.701857047217957,-0.71047124900683,-0.0713089327172812,0.070738652625876,0.0182526841840873,0
1261,2075157663,0.0310887276233255,0.0404379420578189,-0.702190180207415,-0.710159992309598,-0.0191768801543421,0.146972191375122,0.0109764287519222,0
1264,2075207664,0.0307450054985619,0.0405557152650638,-0.702515298528594,-0.709846627046655,-0.0212273596530808,0.0862966916087988,-0.0134171348573619,0
1266,2075240998,0.0304648682521573,0.0405004977821591,-0.702751184667095,-0.709628335067569,-0.0528635833605497,0.103609108097836,-0.00280534215984867,0
1269,2075290999,0.0301708506455964,0.0402966614799727,-0.703055223922816,-0.709351288826437,-0.0200973208276155,0.11991230565371,0.00389650397992589,0
1272,2075341000,0.0298007744330337,0.0400127458775407,-0.703273118061497,-0.709166986980211,0.00737859633954808,0.0975336875694847,0.021916105453286,0
1275,2075391001,0.0294932048608368,0.0396162683879092,-0.703381560581872,-0.709094551085724,-0.0156667262708235,0.123022268005085,0.0346241436910243,0
1277,2075424335,0.0293639219994405,0.0392969460598904,-0.703437549176194,-0.709062144331628,-0.0324276294291154,0.116235145626898,0.0406336818492991,0
1280,2075474336,0.0292793558696733,0.0387854682882328,-0.703591776878813,-0.708940772052245,0.0241328823825867,0.10001251505014,0.044221002824648,0
1284,2075541004,0.0288879421612546,0.0383099393438666,-0.703839450457271,-0.7087368082195,0.0466085733161086,0.0741252444834615,0.0557262609867602,0
1287,2075591005,0.0284746125657354,0.0374596998772463,-0.703659410827715,-0.708977715360597,-0.0402338251449651,0.132574390233768,0.0936350713972329,0
1289,2075624339,0.0281258525871551,0.0372142565997521,-0.703911144732028,-0.708754637264561,-0.00646982396393172,0.125888182554439,0.040880098714347,0
1292,2075674340,0.0278467427057786,0.0369650472130175,-0.704181469328102,-0.708510128692691,-0.0502716939772427,0.0428646674001686,-0.00461200270511091,0
1295,2075724341,0.027482003489272,0.0368727293111587,-0.704474647357375,-0.708237680830429,-0.0241531285185423,0.0952399106355818,-0.00459605246369466,0
1298,2075774342,0.0272248900566462,0.0368073339356725,-0.704552268004363,-0.708173797298276,-0.0313239800435274,0.0865551221134739,0.0216763680509445,0
1300,2075807676,0.0269620477152307,0.0367398778844893,-0.704617044551978,-0.708122905915965,-0.126312654758398,0.102137257844069,-0.00834625903779749,0
1303,2075857677,0.0265889735987944,0.0366088862500924,-0.704751323349733,-0.708010161062177,-0.0138265880467815,0.117915042931535,0.0092050542236142,0
1306,2075907678,0.0265159203453562,0.0366070633559754,-0.704812828993048,-0.707951767401923,0.0348478373169782,0.116041959057901,0.012804440607983,0
1308,2075941012,0.0266185654948504,0.036533812113389,-0.704702286905065,-0.70806173415475,0.0306800371032888,0.101452259132324,-0.0230652391869536,0
1312,2076007680,0.0267337074020184,0.0362740259668515,-0.704542392542728,-0.70822985042913,0.010209592673669,0.125067726506221,0.017121191013527,0
1315,2076057681,0.0267073480737946,0.0361774137841528,-0.704622301567129,-0.708156285310663,-0.0302525045700364,0.126949642148178,0.0267628455808121,0
1318,2076107682,0.0268974207461591,0.0361879431093221,-0.704742330249262,-0.708029102145922,0.012148791495203,0.101148113038861,0.036553219930799,0
1320,2076141016,0.0271006362172208,0.0361867501673375,-0.704759240416795,-0.70800458167733,0.0133235852231879,0.0838576059633894,0.0605476634609596,0
1324,2076207684,0.0273962044294069,0.0360463957172551,-0.704825013214342,-0.707934888309695,-0.00611435337497913,0.127413411419821,-0.000848874126770618,0
1327,2076257685,0.0275643804245808,0.0359648766434008,-0.705005033105432,-0.707753230918688,-0.000993221837566509,0.0955121169653459,0.0457788484482339,0
1330,2076307686,0.0277200643884049,0.0357298195640359,-0.704713715771708,-0.708049120349327,-0.0328802850552001,0.0888834907903652,0.000836771502882619,0
1333,2076357687,0.0277441202182303,0.0355523467103002,-0.704606347662341,-0.708163956489345,0.010633748244213,0.1257598485855,0.016549025461193,0
1335,2076391021,0.0279265966966476,0.0354337786110538,-0.704481034865147,-0.7082873880323,-0.0383291893519712,0.0758178344598718,0.0322485061088428,0
1338,2076441022,0.0280209898864719,0.0351795230576193,-0.704333322941768,-0.708443219656331,-0.0267640783409301,0.0329312709862362,0.0126372177797241,0
1341,2076491023,0.0278401259759451,0.0346855368904065,-0.704234243618172,-0.708573193842252,-0.021459956454026,0.11883851428481,0.0292415148511762,0
1343,2076524357,0.0276608176242705,0.0343623472836077,-0.704198039017531,-0.708631942619991,-0.0730000676702571,0.124767750768505,-0.0165480998674651,0
1346,2076574358,0.0273090099192941,0.0339392808296995,-0.704174263887529,-0.708689600087688,-0.00840670522338666,0.106599798368044,-0.0190746300199885,0
1349,2076624359,0.026908993419497,0.0336937565967926,-0.704096133778222,-0.708794237588107,-0.0076930538281047,0.104729677680778,0.00915097296722298,0
1352,2076674360,0.0265054361107312,0.0335287410874996,-0.703917392647709,-0.70899477410325,-0.056963391458541,0.12692926457292,0.0215373267443512,0
1354,2076707694,0.0262101902325203,0.0335038003247577,-0.703851974410126,-0.709071871823118,-0.0783145570549044,0.106583451074283,0.0143073390762076,0
1357,2076757695,0.0258905726210481,0.0336250186915134,-0.703709175103672,-0.709219594513757,-0.0457758341862487,0.103813694360965,0.0364462012765649,0
1360,2076807696,0.0255941214584722,0.0338850513313108,-0.703482408541965,-0.709442911808299,-0.0202333564597344,0.0936921506899542,0.022572153460532,0
1362,2076841030,0.0254073786273418,0.0340456638389823,-0.70327438408431,-0.709648151252355,-0.0277069949199581,0.0771461939209893,0.0381217533799447,0
1365,2076891031,0.0250879628707902,0.0341970722492878,-0.703143419799155,-0.709781998617688,-0.0686974607305221,0.0907863011939863,0.059238775648853,0
1368,2076941032,0.0249388601466366,0.03443191620769,-0.703152042427684,-0.709767357400035,-0.010933972635812,0.117203523837613,-0.00311733938545064,0
1370,2076974366,0.0247168410952184,0.0345392475340329,-0.703320875612599,-0.709602609968131,-0.0140260021274734,0.0936870052530065,0.004554180980145,0
1373,2077024367,0.0245923529312278,0.0345488106045935,-0.703277508106903,-0.709649450400731,-0.0205828299005726,0.135502143602595,0.000178215638636762,0
1376,2077074368,0.0243635558841,0.0345571684863808,-0.703603285954087,-0.709333937751111,0.0036484573821465,0.123442532898206,-0.0354351872333466,0
1378,2077107702,0.0242614327814642,0.0349261375970061,-0.703605478453399,-0.709317191728995,0.047870003376762,0.115359902135422,0.0302351794544966,0
1381,2077157703,0.0242602619287724,0.0354550864292775,-0.703318488283686,-0.70957556368282,0.0152000813239078,0.0605199348699743,0.0199428672686542,0
1384,2077207704,0.0241940018668066,0.0359204445400839,-0.703089277852704,-0.709781543368292,-0.0186685907083614,0.114142898385766,-0.02787639089207,0
1387,2077257705,0.0240954405360287,0.0361243774210319,-0.703055411705844,-0.709808091791326,-0.0258922152439894,0.093665252456439,0.00490279275843611,0
1389,2077291039,0.0239562877212487,0.0360372057515525,-0.703123502849761,-0.709749783952428,-0.0198905939555781,0.0725795976528062,-0.0082282155777808,0
1393,2077357707,0.0238395276367269,0.035846469072182,-0.703235534555187,-0.709652373008077,-0.0150439288496965,0.0976390935706206,0.00633251638907046,0
1396,2077407708,0.0236841978158536,0.0356184261414389,-0.703166719386183,-0.709737240984789,-0.0158002507086435,0.065149679182999,0.00292651120824806,0
1399,2077457709,0.0234987858682972,0.0352794014471161,-0.702938068106512,-0.709986790935531,0.00612456950924938,0.111034695116152,0.0189968678416516,0
1401,2077491043,0.0234449060805082,0.0349615374604576,-0.702792252273638,-0.710148630514362,-0.0315507881604873,0.105703804574208,0.00339632628499362,0
1404,2077541044,0.0234897311029595,0.034500415388705,-0.702749575681882,-0.710211931573704,-0.0148022106842207,0.114283496816612,0.00641954331251766,0
1407,2077591045,0.0236514693056608,0.0340506991859277,-0.702820255955668,-0.710158324391851,0.00127324323293042,0.092631827115534,0.000398157057139531,0
1410,2077641046,0.0238455626193591,0.0335366275624746,-0.703010503846047,-0.709987968374979,-0.028510966288395,0.128995176195515,0.0301088659653488,0
1412,2077674380,0.0241813752009672,0.033386574563887,-0.703248201195062,-0.709748240750331,-0.0656117777261921,0.0812259612564027,0.0528728870366814,0
1415,2077724381,0.0242091457393211,0.033217021295977,-0.70377282692698,-0.709235049076117,-0.0423093598633195,0.0897548262585305,-0.0392903194936825,0
1418,2077774382,0.0241299756942662,0.0325914373416839,-0.703860027938554,-0.709180233477594,-0.0334028343824965,0.0857854605920296,0.0740592060777454,0
1422,2077841050,0.0243518786913412,0.0321610993782158,-0.704203264510645,-0.708851473824762,0.0393908247790561,0.119036766330811,0.0460931843698043,0
1424,2077874384,0.0246087575367625,0.0320889202363001,-0.704279402110251,-0.708770226528875,0.0311250354732912,0.107648434989594,-0.0020240769883916,0
1427,2077924385,0.0247789106558148,0.0320072155476241,-0.704373838458188,-0.708674141926512,-0.0521663405694603,0.124909294866191,-0.0476419453864552,0
1430,2077974386,0.0248164353561992,0.0316941822676745,-0.704330063253948,-0.708730403851341,-0.0330141925442864,0.125825012670136,-0.0333075809351331,0
1432,2078007720,0.024840952164193,0.0314244176313911,-0.704336287577111,-0.708735371682687,-0.0553476089894793,0.155372810197345,-0.0143950716929271,0
1435,2078057721,0.024779573241534,0.0313830330888607,-0.704487764949546,-0.708588785559371,0.00422817419503598,0.0864918793540242,-0.01085463249835,0
1438,2078107722,0.0249288467275259,0.0314259562215445,-0.704547942809595,-0.708521812056033,-0.0215539886520691,0.0477506487893284,0.0917931813754536,0
1441,2078157723,0.0247554443959737,0.0317381663071325,-0.704860256522608,-0.708203272759384,0.0130233190466276,0.105961555551636,0.115770201311193,0
1443,2078191057,0.0249912411121312,0.0319561633232377,-0.704784247956256,-0.708260831421637,0.0558148173802309,0.128987576358528,0.142114148012626,0
1446,2078241058,0.025350512645341,0.0327071401961056,-0.704661732124307,-0.708335681558103,0.0122322593840869,0.0524714243495207,0.124207657470081,0
1450,2078307726,0.0260060332662844,0.0347554967771813,-0.70476587837606,-0.708110724642937,0.0184438041370039,0.122011392825364,0.137202333660088,0
1453,2078357727,0.0267732028955999,0.0367198575433376,-0.705047968663902,-0.707702062701257,-0.0544647392274263,0.109339055468312,0.101970056026995,0
1455,2078391061,0.0274250691935871,0.038049803969125,-0.705364414293584,-0.707291397548356,0.0216310802088018,0.0774100237218871,0.138056814228553,0
1458,2078441062,0.0284857136431323,0.0404544067832263,-0.706067593459026,-0.706413872002127,0.0172065647132471,0.140220473144892,0.0993896879306799,0
1461,2078491063,0.0297747567975039,0.0430920648337473,-0.706348321181818,-0.705923924349955,-0.000985584527556647,0.109146651993244,-0.0272087911700925,0
1464,2078541064,0.0309068853225842,0.0453294110526517,-0.706867367694895,-0.705215239073409,-0.0174844149873305,0.11320217138674,0.029477140652584,0
1466,2078574398,0.0317696993657332,0.0468206533730762,-0.707253412656955,-0.704692218564261,-0.0141117397681569,0.12268266841767,0.0401636840409064,0
1469,2078624399,0.033367951778361,0.0491072720038777,-0.707585169429247,-0.704129450906748,0.0207850667689361,0.0825072682798905,0.0946807791305308,0
1472,2078674400,0.0346510653741717,0.0515084933640462,-0.707667195612974,-0.703813412086662,-0.0557018485252565,0.0391372368634516,0.0174927499152794,0
1474,2078707734,0.0352004505751788,0.0532875037499674,-0.707779788108286,-0.703540433641729,-0.0878269685359337,0.153994523676549,-0.000794708001063031,0
1477,2078757735,0.0360925707094876,0.0553399877759912,-0.707974135282651,-0.703141120873553,-0.141467252633514,0.0670168501691251,0.0507251516345813,0
1480,2078807736,0.0372760382621983,0.0572077129598185,-0.708541200865997,-0.702358271272399,-0.00677041514598118,0.0907006790183678,0.107570599628028,0
1482,2078841070,0.0383002048661582,0.0581752176069086,-0.708812671215809,-0.701949667346248,0.0216877432851847,0.102006006455291,0.0378526282876011,0
1485,2078891071,0.0393859755505668,0.0594533172403275,-0.709082248355155,-0.701510094771736,0.00992172908136799,0.078794775964156,-0.0449931796301928,0
1488,2078941072,0.0398130688605093,0.060295897473716,-0.709475079188422,-0.701016716139015,-0.0640737797328223,0.0767874444467808,-0.0820574844223275,0
1491,2078991073,0.0398401946222582,0.060856947331665,-0.709874374063536,-0.700562319784497,-0.0767052465456354,0.0583658610343418,-0.0205847275212674,0
1493,2079024407,0.0397275847076004,0.0611453415513311,-0.710293493531268,-0.700118646564294,-0.0813721897340125,0.100958633591368,-0.0196129706859082,0
1496,2079074408,0.0397624662711977,0.0614255575732696,-0.71093249050406,-0.699443236509253,-0.0336141458278,0.161043428950108,-0.0229966817710945,0
1499,2079124409,0.0399620558068309,0.0612216929795517,-0.711430446369672,-0.698943244035349,-0.0358856582133181,0.132400199859112,-0.0384336324650717,0
1501,2079157743,0.040040006559421,0.0610015695490776,-0.711737209586887,-0.698645654732599,0.00543485107123568,0.146003915943249,-0.067400063994003,0
1504,2079207744,0.0400900603675192,0.0604151567953225,-0.712051795413129,-0.698373135607366,-0.0357431993401951,0.0849120597023968,-0.0260958354679732,0
1507,2079257745,0.0401474045031895,0.0593232458787983,-0.711797432133953,-0.698722658869434,-0.0644912316039922,0.0837160937534072,-0.0223464732903016,0
1509,2079291079,0.0401392750118404,0.0586542967691987,-0.711639576301636,-0.69894035905309,-0.0673773411984927,0.14703460842062,-0.0271358004442897,0
1512,2079341080,0.0401425385536867,0.0576523496099326,-0.711110672635729,-0.699561573020188,-0.0626014447010663,0.0557232724476343,0.00328389567364477,0
1515,2079391081,0.0398676514943593,0.0567219441754991,-0.710486108992311,-0.700287569747059,-0.0378494084930904,0.118282713832098,-0.0223482985041856,0
1518,2079441082,0.0395288719130059,0.0558195865005302,-0.709634534814785,-0.701242090184551,-0.04317832400648,0.0621332459727822,0.0400192588303327,0
1520,2079474416,0.0392479779787173,0.0553202422626129,-0.709228085029578,-0.701708479659371,-0.106660663356057,0.0586643850374124,0.017216016341406,0
1523,2079524417,0.038430057724844,0.0544952415551684,-0.708902459841999,-0.702147208027685,-0.0651774727606856,0.072230051206726,-0.00508925596599424,0
1526,2079574418,0.0375116550221955,0.0537994748007077,-0.708649041133567,-0.702506248192241,-0.0537736074603924,0.0981437535214431,0.0400178368866869,0
1530,2079641086,0.0362200934573356,0.0531182644285834,-0.708193948352507,-0.703084551338545,-0.037869852207331,0.0979242662689697,0.0465886583751776,0
1532,2079674420,0.0356094126198276,0.0527869616745673,-0.707972121633723,-0.703364046137903,-0.0441705383567117,0.0946481315546697,0.0437194554265974,0
1535,2079724421,0.0349580438001172,0.0524341534982914,-0.707832783227759,-0.703563320326345,-0.0305466993683114,0.0780170482626045,0.0445625190431273,0
1538,2079774422,0.0344539399495571,0.0520042980059958,-0.708391865176549,-0.703057212723507,-0.061021160551388,0.106723386583896,-0.0709316720992483,0
1540,2079807756,0.0342880461869889,0.0517296519407976,-0.708635399801943,-0.702840126306334,-0.0413266865763552,0.201174244360175,-0.166742466285301,0
1543,2079857757,0.0341220285781507,0.051363467843381,-0.708434762736422,-0.703077284715844,-0.0362779681645546,0.111716191419945,-0.00432043300179945,0
1546,2079907758,0.0345420485929026,0.0512663114491845,-0.708329981428646,-0.703169431644106,-0.0843212714813977,0.103502266106742,0.0804264680580314,0
1549,2079957759,0.0350679136705632,0.0515361015096612,-0.708282054443295,-0.703171958361228,-0.0982916194749718,0.0631087435503594,0.0920851677053765,0
1551,2079991093,0.0354010340031351,0.0516839623071268,-0.70805886119365,-0.703369166168731,-0.0679896399375815,0.0164669895548568,0.0410502647092235,0
1554,2080041094,0.0351439321708129,0.0512496265961627,-0.707451238438161,-0.704024946317699,-0.0143293223896528,0.0608300713365155,0.085684603180524,0
1558,2080107762,0.0346125441457186,0.0511909443972244,-0.706993176430482,-0.70451551259019,-0.0136512463630248,0.0700367600395917,0.131001700808343,0
1561,2080157763,0.0341747433962767,0.0513535541499468,-0.706799778287267,-0.704719073676197,0.0222044566894313,0.0593972434596049,0.0510017008168242,0
1563,2080191097,0.0340921341306718,0.0517831681785984,-0.706629350805642,-0.704862533025979,0.0200778664314283,0.121873605686136,0.0445976216006812,0
1566,2080241098,0.0345595172252673,0.0528965471524133,-0.706442255210921,-0.704944632663458,-0.0118380117909782,-0.0947909691354435,0.209794034444281,0
1569,2080291099,0.0337252633602377,0.0526313947546207,-0.706793427611829,-0.704652817763605,-0.0390285722634641,-0.103149587162472,-0.0638420916953579,0
1572,2080341100,0.0317336491349594,0.0509412128046159,-0.706870073528468,-0.704792641491405,0.0295552696571457,0.199448007870558,0.0985875050332443,0
1574,2080374434,0.0305393838976392,0.0497738911894414,-0.706503790480928,-0.705295895226319,0.0182062975691717,0.239561927273348,0.00207045321443443,0
1577,2080424435,0.02980017476496,0.0487976353180596,-0.705726305129133,-0.706173578251215,-0.0282554385751174,0.199025715903159,-0.0304866506697405,0
1580,2080474436,0.0292254512676082,0.047994809749823,-0.705167920360641,-0.706810140935691,-0.0685566654920062,0.250452586838699,-0.057216249560563,0
1582,2080507770,0.0292219442571561,0.0477584932736224,-0.704938495536549,-0.707055105210854,-0.116275690698583,0.377293080398471,-0.0871218345598943,0
1586,2080574438,0.0295736178598982,0.0479556033175329,-0.704802961001664,-0.707162249699752,-0.145173950952783,0.00403444754825268,-0.0628052874917556,0
1589,2080624439,0.0291366620043137,0.0477851038779711,-0.705018818207697,-0.706976735648097,-0.0147900253987153,0.0306452919006899,0.104215206369652,0
1592,2080674440,0.0287179168814716,0.0479430583327509,-0.70534983159366,-0.706652927170394,0.220503572979493,-0.00249648024800371,0.120101423360371,0
1594,2080707774,0.0285027865648241,0.0481684255333628,-0.705429669642214,-0.706566610538705,0.22260223858968,-0.0781168160054606,0.0629707826821063,0
1597,2080757775,0.0284359930626999,0.0482770456609012,-0.705353290117581,-0.70663813743747,-0.0165773014004754,0.0875704353896118,0.0456526013861282,0
1600,2080807776,0.0290212704339758,0.0485062961444328,-0.705137440383343,-0.7068140457478,-0.0288510794700817,0.193148572811437,-0.102043494309808,0
1603,2080857777,0.0296340596020894,0.0482083891295959,-0.704941310203428,-0.707004613066777,-0.110718464912228,0.122239187960238,-0.0724076351819632,0
1605,2080891111,0.0298609898072868,0.0477449276015624,-0.704892668028259,-0.70707500997847,-0.116991413252364,0.0613538169277786,-0.0182758205659815,0
1608,2080941112,0.03000837595101,0.0466897042683574,-0.705021377077839,-0.707010909923873,-0.0324355547795301,0.160107892782417,0.00650289236541554,0
1611,2080991113,0.0302075791678097,0.0456919804805474,-0.704995720509921,-0.707093189857803,0.0567066719600142,0.131824521651672,0.000363291075519471,0
1613,2081024447,0.030490410149576,0.0451832456302492,-0.704953389809097,-0.707155942773509,0.0655292972542562,0.0863661238468502,-0.022241002779581,0
1616,2081074448,0.0308457556240868,0.0443759631250788,-0.704765520738856,-0.70737887587515,0.0950009198598557,0.0229564849907564,-0.015400062852928,0
1619,2081124449,0.030998211482562,0.043872364400737,-0.704832105230128,-0.707337281615806,0.0835495300434375,-0.0577460249465043,-0.121195545120862,0
1621,2081157783,0.0312329316047596,0.0438225545864691,-0.70464885834477,-0.707512596443555,0.0566715783615452,-0.0103225146587018,-0.127567625040135,0
1624,2081207784,0.0319473491278845,0.0440354843333876,-0.704199651830157,-0.707914608809221,-0.0943297743405107,0.176633195251541,-0.0330148803968936,0
1627,2081257785,0.0325667034597487,0.0441321679062383,-0.704282393051452,-0.707798044938936,-0.144595110116026,0.302030924675276,0.0431218030731036,0
1630,2081307786,0.0328138096991828,0.0439693306587624,-0.704622298282703,-0.707458386491565,-0.00943434207008922,0.256228343856131,0.132182996257171,0
1632,2081341120,0.0328958787897206,0.0437959672800966,-0.704693776358018,-0.70739413057427,-0.00280881265157561,0.0352965250695648,0.0973229681364218,0
1635,2081391121,0.0333093421897353,0.0439473773686554,-0.704715236696305,-0.707344011718043,-0.0487693435573309,0.0501460809631066,0.0267476275500742,0
1638,2081441122,0.0341044450836915,0.0447580994867134,-0.704795331377737,-0.707175466361792,-0.0461345749215932,0.119019019312268,-0.0766330009050659,0
1640,2081474456,0.0345704726808636,0.0452018466056167,-0.704860367200053,-0.707059784058372,-0.0683418658245539,0.148109652784827,-0.105728116554515,0
1643,2081524457,0.0349335035344896,0.0455359654331826,-0.704851242346355,-0.707029597927607,-0.0176038121392816,0.0466351150377826,0.00678430994070865,0
1646,2081574458,0.0347980034553824,0.0451171047706729,-0.704739254522565,-0.707174751350478,-0.0549565807255793,0.0174882347193791,0.0681793594967908,0
1648,2081607792,0.0346226699294197,0.0445811424165477,-0.704590219058149,-0.707365828744493,-0.0656262576978618,0.0628105606982351,0.0711339025294525,0
1651,2081657793,0.034801191185568,0.0444389052303955,-0.704697184540526,-0.707259456560777,-0.0333448796168061,0.149092558047625,0.00900239178605617,0
1654,2081707794,0.0350706202924923,0.0445923682690753,-0.704800056415826,-0.707133970871647,-0.0499156382614819,0.0513818670510524,0.00416289552005349,0
1657,2081757795,0.0349999061608227,0.0445626735069226,-0.704763167574649,-0.707176111254329,-0.0639891091828423,0.0792454310495816,-0.0239579690782159,0
1659,2081791129,0.0348666439100045,0.0445187800126385,-0.704610044006823,-0.707338024747251,-0.0580749525231869,0.104082392827417,0.0114319823217808,0
1662,2081841130,0.0345759814436447,0.0443678217486555,-0.704489270354877,-0.707482060447714,-0.0805824110568875,0.070967853928176,0.00972579185582773,0
1666,2081907798,0.0339625206677354,0.0440689863769707,-0.704534484944868,-0.707485428226667,-0.021489578672585,0.134261524285135,0.0385550627754492,0
1669,2081957799,0.0337091635813008,0.0441165097643883,-0.704286472472021,-0.707741471548598,-0.0649420047560487,0.067398290320047,0.0206127540294346,0
1671,2081991133,0.033651616294723,0.0442720480415468,-0.704097849077669,-0.707922152081117,-0.0915191029365251,0.0873792445341072,0.000841022667901387,0
1674,2082041134,0.0335887237422992,0.0447813822195082,-0.703947113797096,-0.708042997578969,-0.0584256378724497,0.123583645366966,-0.0234966707056481,0
1677,2082091135,0.0337000723331256,0.0454428097512669,-0.703928344243961,-0.708014224671092,-0.0635971334974061,0.109135954951618,-0.0381751936595155,0
1680,2082141136,0.0342505809158552,0.0467061662706402,-0.704200191993095,-0.707635161178495,-0.0265713565454659,0.120709165482399,-0.0160008034594433,0
1682,2082174470,0.0345439245100366,0.047525646955056,-0.704367394528887,-0.70739988951479,0.047294829819074,0.0348121583720008,0.0530454872582238,0
1685,2082224471,0.034685256769403,0.0483418922994129,-0.704557043690066,-0.707148758464912,0.0215591787648924,0.065695669443465,0.0347237466019524,0
1688,2082274472,0.0344553686316526,0.0487855383801962,-0.704696465302429,-0.706990587354367,0.0675218829581425,0.0640956968453308,0.0480623590436362,0
1690,2082307806,0.0341797190950462,0.0489064944079235,-0.704697991843874,-0.706994089012435,0.0829535936148402,0.139420924770978,0.0420349365094311,0
1694,2082374474,0.0336755627088696,0.0494319217111845,-0.704842077639562,-0.706838091206838,0.013510303607773,0.113309061552596,0.00279711611830082,0
1697,2082424475,0.033491034644961,0.049895586941117,-0.704814258321953,-0.706842020729021,-0.0170943018716149,0.0746353261603286,0.0466553108971792,0
1700,2082474476,0.0334415783636335,0.050355000352541,-0.70474315391518,-0.70688267894024,-0.0598320294448257,0.135195242655373,-0.00890357049728177,0
1702,2082507810,0.0335760525825887,0.0506814977242932,-0.704627848530774,-0.706967912677999,-0.0387290113048492,0.119080285577087,0.0193056498373891,0
1705,2082557811,0.033660930193678,0.0510270455392984,-0.704574787606816,-0.706991903115473,-0.0613581416051984,0.0554710377136738,0.023574138855832,0
1708,2082607812,0.0336329202140087,0.0511485668513934,-0.704602092370875,-0.706957242139517,-0.0471889862529196,0.114027659150291,0.00506500698259805,0
1711,2082657813,0.0334922467129244,0.0511492825261715,-0.70467664136059,-0.706889560983848,-0.0565585723285895,0.101398073962841,0.01383415312531,0
1713,2082691147,0.0334269747020612,0.0510595500190232,-0.704674602558543,-0.706901170053553,-0.0410244135663425,0.105135691811645,-0.000109739815208138,0
1716,2082741148,0.0332646462737159,0.0508508514693798,-0.704600409396537,-0.706997819863227,-0.0283607178172097,0.110899225148228,0.0109486003338045,0
1719,2082791149,0.0330931579359903,0.0506064658892605,-0.70443255341711,-0.707190643457811,-0.0656770956746181,0.0901032225099737,0.00210590651048865,0
1723,2082857817,0.0330433435117954,0.0500384607607502,-0.70413277020478,-0.707531859224727,-0.0390258568912905,0.13537247962166,0.00290737132632502,0
1725,2082891151,0.033114201394177,0.0496539241627828,-0.704015429256538,-0.707672390905563,-0.0463898431330015,0.0686522594245953,0.00237571277641523,0
1728,2082941152,0.0329770570525665,0.0488780420886508,-0.704016978576539,-0.707731265796342,-0.046918000958019,0.0752807939849759,-0.000411785458148796,0
1731,2082991153,0.0327935129337175,0.0480529189554622,-0.703924790542428,-0.707887979661418,-0.0690368022797895,0.14114533320975,-0.0281930632684311,0
1734,2083041154,0.0325527853218915,0.0471183326122454,-0.703690999926875,-0.708194292211921,-0.0783226702067455,0.0947890370760322,-0.0343456133087048,0
1736,2083074488,0.0322262043794411,0.0464095978640196,-0.703738009214682,-0.708209316066904,-0.0711196462746003,0.103701757892177,-0.027207471805195,0
1739,2083124489,0.0318266915391641,0.0456761778472823,-0.703866458824712,-0.708147411648518,-0.0452453165182769,0.101392798104116,-0.0441695040144106,0
1742,2083174490,0.0313491596168032,0.0450549932274768,-0.703869853941577,-0.708205130233363,-0.0233076743124824,0.0713974725082151,-0.0201955843361991,0
1744,2083207824,0.0308988300243533,0.0446538598985382,-0.703872536906082,-0.708247659289238,-0.0268265815744357,0.141072878998056,-0.0225013209830954,0
1747,2083257825,0.0302993708715931,0.0441949195108661,-0.704101575399133,-0.708074663248639,0.0432572716214279,0.0800691168916238,0.027693935872618,0
1750,2083307826,0.0298130297135784,0.0439140820021958,-0.704492693201179,-0.707723662093724,0.0178716362045803,0.0546804510079707,0.0421364970056312,0
1752,2083341160,0.0297108391090978,0.0438354016326291,-0.704737577042491,-0.707488990096254,-0.0415805640732651,0.108418497203692,0.0370347180351416,0
1755,2083391161,0.0298403128470737,0.0439093218152382,-0.704899616019516,-0.707317508989036,-0.03607473931088,0.0862270663851128,0.0307606664313813,0
1758,2083441162,0.030067447346339,0.0440961661312854,-0.704899330345331,-0.707296550833736,-0.0803387898973564,0.0949053301776475,0.0674115704231847,0
1761,2083491163,0.0302879168485119,0.0444799431401567,-0.704963963366917,-0.707198689977035,-0.0561790501710211,0.0721032568823991,0.0280687392985016,0
1763,2083524497,0.0303941806748306,0.0447463421075785,-0.704955660639165,-0.707185601650582,-0.0273193833440038,0.0924576771682172,0.0328847928071383,0
1766,2083574498,0.0304567089982913,0.0451011311867106,-0.7048224181344,-0.707293175237716,-0.0187154686678436,0.108800149708261,-0.0079275127427641,0
1769,2083624499,0.0304583249428438,0.0454429874469086,-0.704686004847817,-0.70740713871518,-0.0246004087084629,0.110477533401185,-0.00410749648616456,0
1771,2083657833,0.0304982855706988,0.0456720164028117,-0.704610797861496,-0.707465578690537,-0.0344650997311234,0.0955231189644171,-0.0158999450785671,0
1774,2083707834,0.0304905794122711,0.0458469012846543,-0.704568934458839,-0.70749629172543,-0.0264784036183146,0.107333544485616,-0.0111581207772904,0
1777,2083757835,0.0304635006077292,0.0459731596767511,-0.704505124332006,-0.707552806163614,-0.0113617833435676,0.0934762507300824,-0.000250138311406581,0
1779,2083791169,0.0302478082554882,0.0458387955943917,-0.704426136138513,-0.707649414356543,-0.0419004984097694,0.11148580432486,0.0402299650134623,0
1782,2083841170,0.0299821475831584,0.0455566018222045,-0.704284468693128,-0.707819930500939,-0.0352665064302638,0.0583529131556137,0.00146049071431389,0
1785,2083891171,0.0295312381942982,0.0452826287563153,-0.704481011057812,-0.707660861262365,0.00220315443698742,0.136714756796097,0.0248197716119239,0
1788,2083941172,0.0292254740613655,0.0450185506807235,-0.704575030805087,-0.707596797425275,-0.0126419906631403,0.09967662455255,0.0246820207555427,0
1790,2083974506,0.0290882644914088,0.0448866608418816,-0.704642199093565,-0.70754394337308,-0.00691269790152043,0.11184578948277,0.0102261176246008,0
1793,2084024507,0.0288918962809737,0.0448167304936568,-0.704734608353148,-0.707464381284657,-0.00106660597540014,0.126240970421092,-0.0158467540591606,0
1796,2084074508,0.0288273597487715,0.0448384445247883,-0.704832664175098,-0.707367947205941,-0.081035867772446,0.0527448395035913,-0.00503522841124961,0
1798,2084107842,0.0286651736301121,0.0446448210268888,-0.704899817310788,-0.707319867762423,-0.0533008900708177,0.0976198557169889,-0.0308047477968991,0
1802,2084174510,0.0284404130682141,0.0445049622546907,-0.705245613906808,-0.706992981085687,-0.0108794410332175,0.0954810927112841,0.000248090517152803,0
1805,2084224511,0.0285490343332235,0.0445231709290676,-0.705352381741074,-0.706880935845107,-0.0403009963368329,0.111455820943168,0.0408747389111478,0
1808,2084274512,0.0286586596910875,0.0445977388398413,-0.705470965143014,-0.706753450826573,-0.0229652818272898,0.107824084019173,0.0273040529717375,0
1810,2084307846,0.0286927202019584,0.0446422937686405,-0.705534863462648,-0.706685467413354,-0.0276790029622123,0.0922641355263823,0.0505135884583497,0
1813,2084357847,0.028716738065735,0.0446745309780189,-0.705619750868024,-0.706597694888475,0.00120847904182169,0.0986081888153162,0.014566584726504,0
1816,2084407848,0.0286523514361392,0.0446877942298515,-0.705759804175365,-0.706459583142872,0.00852858116626247,0.0995160809627618,0.00768003856739251,0
1819,2084457849,0.0286464931545958,0.0446626090576262,-0.705870117261561,-0.70635119263668,-0.0273317439335783,0.111573082328515,0.025786318939942,0
1821,2084491183,0.0287026290566335,0.0446999812271058,-0.705885743798637,-0.706330933391267,-0.0108795174522522,0.089967635842839,0.0126479600314278,0
1824,2084541184,0.0287713445440068,0.0446433447667734,-0.705907718882314,-0.706309757771711,-0.0473507979004369,0.108903792772214,0.0421600554276461,0
1827,2084591185,0.0289093696634273,0.0446599766564492,-0.705811352593033,-0.706399369607237,-0.0219963232037612,0.143040723537765,0.0254126693887304,0
1831,2084657853,0.0291328262992115,0.0446108549540584,-0.705427618375807,-0.706776503064954,-0.0112193043154678,0.0780428412587147,0.00490851896666267,0
1833,2084691187,0.0291546391661958,0.0443066305633825,-0.705101856030919,-0.707119722624792,-0.0327810736007986,0.0729181022540568,0.0124571074469666,0
1836,2084741188,0.0292217766815808,0.0441928341701593,-0.704933845464645,-0.70729156271937,-0.0130176222649471,0.111634751539656,0.0651400795115309,0
1839,2084791189,0.0294618043997679,0.0440409620041815,-0.704535841825807,-0.707687532269756,-0.0244879685228719,0.081184806859479,0.0606075226897841,0
1842,2084841190,0.029592946755006,0.0439088680720109,-0.704254929327868,-0.707969818088589,-0.0388183731852608,0.130582066591821,0.0364099429687649,0
1844,2084874524,0.0296898857205269,0.0437792066124913,-0.704147994092588,-0.708080146713399,-0.0733118962036794,0.128583198996201,0.0209734807190426,0
1847,2084924525,0.0298683953147381,0.0437425757153637,-0.704153786328829,-0.708069142972551,-0.0697662879014114,0.0507452466805813,0.00953109433486677,0
1850,2084974526,0.0297742945152539,0.0435333966270777,-0.704087939181156,-0.708151472965962,-0.0354330957860883,0.102381293122567,-0.0232784144185732,0
1852,2085007860,0.0296014421754667,0.0434666970916582,-0.703994685574834,-0.70825552136744,-0.0185373891351095,0.10663774380479,-0.0191919422580009,0
1855,2085057861,0.0293516282965224,0.0434112444282784,-0.703847089080534,-0.708415994290352,-0.0518040234326336,0.0697596432390245,-0.0121125421968858,0
1859,2085124529,0.029126447827206,0.0433573181124054,-0.703766130063691,-0.708509017005602,-0.0301718211673977,0.123865419662472,0.0348765508348791,0
1862,2085174530,0.0291769055867832,0.0436440810103917,-0.70362696863981,-0.708627540655801,0.013859231830994,0.102299568697817,0.0659065498287715,0
1864,2085207864,0.029302667501219,0.0439063917920884,-0.703648176654117,-0.708585087289063,-0.0275391491112267,0.0912812180671291,0.111219754162936,0
1867,2085257865,0.0294987134714118,0.0442803627441601,-0.703988782434684,-0.708215270652157,0.0245613485257379,0.0853748674040314,0.0857962825661781,0
1870,2085307866,0.0298791885830898,0.044429627468745,-0.704319836918409,-0.707860727555803,0.0103119216432403,0.14387641756667,0.123567928249912,0
1873,2085357867,0.0311201774975769,0.0450167917121235,-0.70456349010346,-0.707527604712139,-0.0375259049192897,0.0448539881209689,0.0576740942029872,0
1875,2085391201,0.0317714885004594,0.0455510533947113,-0.704727762733988,-0.707300823189854,-0.0148028798990639,0.086250069265457,-0.0132589982288127,0
1878,2085441202,0.0328670242826714,0.0464060703709989,-0.705191141930899,-0.70673310994301,-0.115565698556432,0.115600944628419,-0.107289039663168,0
1881,2085491203,0.0332116364306865,0.0465802231744511,-0.705647418186527,-0.706249949537204,-0.0208023080646612,0.0234337519902555,-0.0610295619921125,0
1883,2085524537,0.0332502079398727,0.0466172308642979,-0.705673481933309,-0.706219650218415,0.0177695872909708,0.102228871947907,0.127668856876548,0
1886,2085574538,0.0335009761854946,0.0474260719494208,-0.705381493805189,-0.706445610426753,0.0838461712568788,0.116613948066555,0.268936393358155,0
1889,2085624539,0.0351987852604816,0.0497128281191313,-0.705276626857146,-0.706310526500625,0.0817104411912884,0.16471625629384,0.50333875838134,0
1891,2085657873,0.0369630559178149,0.0518263774909422,-0.705453957056604,-0.70589126185735,-0.0888636582993163,0.00700270345264797,0.298982284088463,0
1894,2085707874,0.0399190779853673,0.0558279221305304,-0.706043504815353,-0.704834930768502,-0.0666825397465692,0.163599922975035,0.247028602768195,0
1897,2085757875,0.0420130116595271,0.0583693828692352,-0.706951547176195,-0.703596071577965,-0.0063493203227599,0.0366003526953192,0.0744138714579545,0
1900,2085807876,0.0431767562265539,0.0601129564366529,-0.708517236844427,-0.701801628157513,0.0181102393673282,0.0656508413908043,0.125469847443936,0
1902,2085841210,0.0439056853072517,0.0610472993485295,-0.710150662256361,-0.700022538877717,-0.0294072132400918,0.140583255908551,-0.144417757727704,0
1905,2085891211,0.0444151110380592,0.0613431774084406,-0.712660971964682,-0.697408525568241,-0.0150494035135314,0.0437917835406106,0.10311295400771,0
1908,2085941212,0.0449507974059207,0.0621518108962899,-0.716256094333235,-0.693609245573749,-0.0489368249231475,0.092877482025903,0.112997436613123,0
1910,2085974546,0.0448904478886801,0.0626012151464311,-0.718358173665856,-0.691395306520084,0.170381978343795,-0.00682275966691407,-0.0921621780767113,0
1913,2086024547,0.0434898711523959,0.0621400332164082,-0.720942245821485,-0.688832000976208,0.0799400199691137,0.166799418091053,-0.220323289291482,0
1916,2086074548,0.0409981049163668,0.0612902403240294,-0.722443918663451,-0.687486324387974,-0.258610193583986,0.222772969689124,-0.489490057478714,0
1918,2086107882,0.0386277118113006,0.0609414739711943,-0.723009223655334,-0.687060185966086,-0.0480582555849785,0.299101469226854,-0.655562106746103,0
1921,2086157883,0.0343112148834365,0.0611384267488012,-0.722419196085453,-0.687891952587869,0.0709002390270719,0.240217965559672,-0.590631734816735,0
1924,2086207884,0.0301412418063008,0.0604428552725423,-0.722114184401199,-0.68846878758261,-0.193267351428937,0.100526257176568,-0.0694268955163615,0
1927,2086257885,0.0267499043769203,0.0600499540659751,-0.72020313354028,-0.690641652430014,-0.128330095353609,0.0833710195297339,-0.201542289311892,0
1929,2086291219,0.0248632084819482,0.0599648029462588,-0.71865984749681,-0.692325116449967,0.0019922533765194,0.201300531812944,-0.406473083112033,0
1932,2086341220,0.0227976026492701,0.0596960073131817,-0.716469037412161,-0.694686097783742,-0.0485508108511913,0.203418753998921,-0.143327539640609,0
1935,2086391221,0.0217226821088484,0.059874517960746,-0.713260148683024,-0.697999374986566,0.0251292827850695,0.115270294866191,0.103057654160651,0
1939,2086457889,0.0208683787249281,0.0604162176749041,-0.709585983576412,-0.701713704671034,-0.0276286766907241,0.131496637113431,0.106590881266731,0
1941,2086491223,0.020688728086234,0.0613516967490178,-0.708818063941393,-0.702413623206844,-0.00183550996710613,-0.0118256608133006,0.115003483381984,0
1944,2086541224,0.0206670163125708,0.0628615342585397,-0.707662198001161,-0.703445460194011,0.0775432258645096,0.062746118591939,0.25500844839778,0
1947,2086591225,0.0212294140360277,0.0645929931462251,-0.706508424794827,-0.704430907122928,0.0758152162766901,-0.0221951276245698,0.249852869374575,0
1950,2086641226,0.0214477605397436,0.0661778262771806,-0.705532787957916,-0.705254545531887,0.0320787556216313,0.0415226926256278,0.177720391198591,0
1952,2086674560,0.022334349571985,0.067027371541364,-0.70548800223788,-0.705191595945284,-0.123589750181699,-0.00189306320442855,0.0928901073863374,0
1955,2086724561,0.0231325113744104,0.0680209423605446,-0.70582866695773,-0.704729686630675,-0.0596820111971144,0.083472036979698,0.0167065030215882,0
1958,2086774562,0.0239586259903037,0.0685352846524646,-0.705572938277662,-0.704908311604062,-0.111000788787725,0.110256778395314,-0.0318978530901616,0
1960,2086807896,0.0246946523244446,0.0684970111275901,-0.705132272394248,-0.705327450225273,-0.0796778623004496,0.101532375242101,-0.0545245705526112,0
1963,2086857897,0.0254108380758002,0.0684032890774246,-0.703513763672604,-0.706925500795439,-0.0307199956897177,0.169134011589236,-0.12974425803752,0
1967,2086924565,0.027048034455683,0.068009893797414,-0.702175890894015,-0.708231654492331,-0.0940593760534206,0.131657956461197,-0.0511943040881796,0
1970,2086974566,0.0281471092531005,0.067898739710039,-0.701504046749824,-0.708864989811249,-0.00810175155273815,0.110412057760863,0.0847925101000746,0
1972,2087007900,0.0289627049640266,0.0677488486468564,-0.701072090670906,-0.709273698166312,-0.0578548590700273,0.0971044738084492,0.0264700006703278,0
1975,2087057901,0.0300282644410467,0.0676021115398347,-0.700984026197331,-0.709330425729923,-0.0399023166934882,0.0604019080516337,0.09250906479699,0
1978,2087107902,0.03137591428758,0.0671485561951078,-0.700804279663232,-0.709492766002042,-0.132082711853454,0.119119808093038,-0.00148063226834392,0
1981,2087157903,0.0331359949085923,0.0664350458987232,-0.700722033994312,-0.709561147183755,-0.15945184320217,0.0788550721992975,0.0330471531282067,0
1983,2087191237,0.0340948268155445,0.0658464671382331,-0.700861970275666,-0.70943236758069,-0.041049878533511,0.0633558720941483,0.0705485641812913,0
1986,2087241238,0.0354388911429116,0.064775725802671,-0.701416149501575,-0.70891718526192,0.00471911760864612,0.131475886652085,0.117516846412043,0
1989,2087291239,0.0367058758348457,0.0641886212627704,-0.702303775421937,-0.708026769697075,-0.0260817367182102,0.0633054353711575,0.0450840920364956,0
1991,2087324573,0.0373655128045241,0.0640295669979035,-0.702881557139131,-0.707433070782379,0.0474463518638046,0.0683295606807813,0.0687278749646609,0
1995,2087391241,0.0385783870688476,0.063974770915381,-0.703795631452213,-0.706463478097963,-0.0323939784858077,0.110417447672815,0.0210141197031224,0
1998,2087441242,0.0391072379365628,0.0641988060708026,-0.704483763517004,-0.705727825851422,-0.0423657953764621,0.0401337646433635,0.0868717749631182,0
2001,2087491243,0.0391749386850325,0.0643571935979086,-0.705148073729015,-0.705045863704968,-0.0395778563867211,0.10167656977246,0.0560743707975472,0
2004,2087541244,0.0391378745312789,0.0649393331204371,-0.705496874345998,-0.704645492484748,-0.0507207563687401,0.0564656633894146,-0.0106658600380715,0
2006,2087574578,0.0389492206318331,0.0653954133364986,-0.705617264231451,-0.704493204044754,-0.0507973245712653,0.0767260226564542,-0.0239961274119461,0
2009,2087624579,0.0385034178112024,0.065964429909078,-0.705653396856344,-0.704428466424185,-0.0354767332985002,0.143549888913345,-0.0247694896198218,0
2012,2087674580,0.038063434120342,0.0664847086157752,-0.705729504794434,-0.704327214131219,-0.0600182153575523,0.128635162021086,-0.0419628775296919,0
2014,2087707914,0.0377855814683244,0.0666944864225677,-0.70568580771448,-0.704366123620587,-0.0527016025668606,0.0909093623347466,-0.0144980828411182,0
2017,2087757915,0.0373475298509962,0.0669551719603067,-0.705568801431073,-0.704481961024492,-0.0534799100139752,0.098028228229261,0.0215337478079769,0
2020,2087807916,0.036762705380454,0.0672596914285642,-0.705586192865255,-0.704466295744487,-0.00514720710264455,0.0914958823346651,0.0836145506540054,0
2022,2087841250,0.0364720933449351,0.0674775325402162,-0.705658775492256,-0.704387863027247,-0.032344024681859,0.06220931491729,0.0288995927063421,0
2025,2087891251,0.0363488198319549,0.0677622001881982,-0.705519613301617,-0.704506297182087,-0.0929579551059309,0.142058681604643,0.00923643546252272,0
2028,2087941252,0.0365820937099371,0.0677796582777502,-0.705237910255233,-0.704774544292273,-0.0758268918215204,0.0712582263250043,-0.0842283608944636,0
2031,2087991253,0.0363641616926615,0.0675387362174523,-0.704894644289409,-0.705152258244024,0.00384365567417474,0.143034610958008,-0.0401408661800647,0
2033,2088024587,0.0361755018957746,0.0675681329299278,-0.704576527969519,-0.705476999419095,-0.00952013136670372,0.103801413809644,-0.0562965868513595,0
2036,2088074588,0.0359432050399622,0.0674670920733316,-0.70405099278803,-0.706023000370961,-0.0710523936385221,0.0946055234558801,-0.0112090907611037,0
2039,2088124589,0.0356553479033119,0.0673764415607019,-0.703605572915861,-0.706490133724636,-0.040500708916677,0.13484386378002,-0.0450293593373426,0
2041,2088157923,0.0355385183859176,0.067423166622164,-0.70342550361873,-0.706670850659845,0.0166339447299018,0.122508130148241,0.00531450259871083,0
2044,2088207924,0.0354671236735311,0.0673503862815003,-0.703410945272799,-0.706695868585975,0.00624654288740532,0.100055218714629,0.00356714083148663,0
2047,2088257925,0.0352242883334703,0.0671131642951077,-0.703645132470234,-0.706497417009181,0.000134569006033335,0.150200764925226,0.0392179516124648,0
2049,2088291259,0.0352259311100976,0.067012423062344,-0.703738170372761,-0.706414224441396,-0.012643761211437,0.121474241327021,0.0451517420587336,0
2052,2088341260,0.0354500557954516,0.0670455565691483,-0.704024922571009,-0.706114080929786,-0.0354434279570549,0.0683730135843094,0.0549916344533051,0
2055,2088391261,0.0355968681262705,0.0671639452302383,-0.704448595893328,-0.705672759276301,-0.0234669162863544,0.114403718786702,0.0557142435733291,0
2058,2088441262,0.0358199884572458,0.0673966869051675,-0.704832094770866,-0.705256218123628,-0.0148757841082762,0.0768506429225697,0.0683327505512128,0
2060,2088474596,0.0359139485701718,0.0675863610790269,-0.705076582352376,-0.704988854601608,-0.0378609958681847,0.0871085982403643,0.0443896786291869,0
2063,2088524597,0.0360528166285688,0.0680674119833479,-0.705389992539091,-0.7046218704133,-0.0131892929058639,0.124391772970415,0.0358799831343469,0
2066,2088574598,0.03607031470817,0.0687174493531344,-0.705735436031962,-0.704211856531846,-0.00871004759090726,0.0827619165489088,0.0395522592926714,0
2068,2088607932,0.0360694639403628,0.0691855399573218,-0.70582984320809,-0.704071436197146,-0.00900803472060401,0.135070135824001,-0.0257479460067143,0
2071,2088657933,0.0360542646471192,0.069647622103484,-0.705949330837003,-0.703906841156465,-0.0369260762531177,0.132384642511305,0.0174039656594862,0
2075,2088724601,0.0359697691923548,0.0698812726738422,-0.705946391065571,-0.703890954889483,-0.0054879378774861,0.0706369042945632,-0.00451024530825027,0
2078,2088774602,0.0355362290367813,0.0700042947843262,-0.706087132632295,-0.703759572772334,0.000588883755069106,0.121024692817469,0.0222610972119368,0
2080,2088807936,0.0354101996104703,0.070099186008218,-0.706080555503264,-0.703763078759276,-0.0247470222623146,0.0779227914652946,0.00603432953046809,0
2083,2088857937,0.0353244962903435,0.0701381321858381,-0.705861214311837,-0.703983500165689,-0.0283558008252408,0.111600514170818,0.00356457227222907,0
2086,2088907938,0.0354616074617289,0.070281833629221,-0.705706269531621,-0.704117603388601,-0.0130710589978386,0.0738681269213392,0.0577492504324084,0
2089,2088957939,0.0359558011923968,0.0704016136730743,-0.705738702563484,-0.704048064308717,0.00604805465646648,0.0655703113614006,0.0228629365525818,0
2091,2088991273,0.0364032698156995,0.0702572037227773,-0.705844016317075,-0.703933911600487,-0.00975657581755409,0.0727384914465337,0.0306409836544555,0
2094,2089041274,0.0371623930847123,0.0699425092406264,-0.705861173181448,-0.703908379078025,0.0198968229067066,0.0919436894390031,0.00681022052159892,0
2097,2089091275,0.038038243270452,0.0695021815805942,-0.705717179831497,-0.704049572754017,-0.0475785332129295,0.108569062876571,-0.0497214629848337,0
2099,2089124609,0.0384170155759776,0.0692616677441925,-0.705770255453034,-0.703999503418353,-0.0132293136974615,0.104145026584856,0.0236839953433655,0
2103,2089191277,0.0392817068627143,0.0686438642437306,-0.705697739453622,-0.704084986303278,-0.0669056222183199,0.114587029382181,-0.00309608229591199,0
2106,2089241278,0.0396226269749632,0.068019120650329,-0.705505989488023,-0.704318639149983,-0.0291015570862306,0.131126535316942,-0.0863557963847551,0
2109,2089291279,0.0393433267570376,0.0671238484498096,-0.704714492315535,-0.705212007788745,-0.018437055714132,0.107375435841869,-0.0873534219832554,0
2112,2089341280,0.0386338287845911,0.0663171350510402,-0.704331148513586,-0.705710350006005,-0.0622490701145495,0.130415919416099,0.0242096367176186,0
2114,2089374614,0.0380449959786211,0.0663488915718639,-0.704249193837045,-0.705821135875119,-0.0149181986380257,0.128527385082799,-0.00901038000972577,0
2117,2089424615,0.0373316141099312,0.0664971969834707,-0.703861807644559,-0.706231569048441,-0.0762036014257782,0.104932256187798,0.0365687313483069,0
2120,2089474616,0.0369454945289661,0.0666147026524903,-0.703541406862826,-0.706559976685636,-0.0677690288595911,0.0572437463515679,0.0648021786508156,0
2122,2089507950,0.0366778730257343,0.0666747985225736,-0.703620191695229,-0.706489795192438,-0.0188209037267014,0.119421141217639,0.0560508655218333,0
2125,2089557951,0.0363951472437377,0.0669192612631842,-0.703828220308065,-0.706274055892667,0.00716165155816328,0.070947920634546,0.0672011184855813,0
2128,2089607952,0.0362569568039306,0.0670976944359977,-0.704001321091902,-0.706091688370248,0.0406149607012499,0.0636517186220288,0.0513406407449479,0
2132,2089674620,0.0363767759212548,0.0674420171534226,-0.70431695779083,-0.705737860302338,0.0167125997209591,0.116523479739161,0.0533693170252012,0
2134,2089707954,0.0363413787665339,0.0675812832782522,-0.70464896858955,-0.705394857796324,-0.0616594334594027,0.044596428604274,0.0010370481902068,0
2137,2089757955,0.0360668835925339,0.0676305561735482,-0.705248663980833,-0.704804660691761,-0.0219901649439255,0.100079822022497,0.0269223538793635,0
2140,2089807956,0.0357120384914906,0.0677156640636474,-0.705609530266912,-0.704453284429642,-0.0317787564973817,0.0883935165875325,0.0129699363951719,0
2143,2089857957,0.0354151920758102,0.0677403134554486,-0.705894742523679,-0.704180109475282,-0.0313758148374856,0.0843240612423981,0.0055940395143817,0
2145,2089891291,0.0351425909338523,0.0677846379877226,-0.706124231963593,-0.703959381064813,-0.0474500750350364,0.100294793403671,0.00636734955949079,0
2148,2089941292,0.034803881065641,0.0680415442013186,-0.706434890737375,-0.703639668633274,-0.00968272670304038,0.0998812946576211,0.045221036465244,0
2151,2089991293,0.0347790055584431,0.0683804139687399,-0.706719086199243,-0.703322595228915,-0.0619526391747696,0.0979051464211541,0.041148717910183,0
2153,2090024627,0.0348470807749165,0.0686455996254273,-0.706825601130414,-0.703186342444277,-0.0228914939580933,0.10274051378491,0.013892577496755,0
2156,2090074628,0.0350587822743432,0.0688616080264221,-0.706962025220475,-0.703017535785289,-0.0437773487790137,0.121843359707803,-0.00386256060117618,0
2159,2090124629,0.0353469224643363,0.0690411739183561,-0.706911672320593,-0.703036129166331,-0.0182557583708776,0.114602535886363,-0.0273808933301795,0
2161,2090157963,0.0353805883823147,0.0689595058875935,-0.706819448631231,-0.703135170184298,-0.054148075769767,0.162221953466356,-0.0232679115045316,0
2164,2090207964,0.0356061588377845,0.0687367793099347,-0.706484794213037,-0.703481834995531,-0.0219385129608021,0.0999871162765576,0.0102608922513119,0
2167,2090257965,0.0357359301499288,0.0684358680471496,-0.706387084981552,-0.703602701410546,-0.0342395595458872,0.148693371809056,0.0372366747603219,0
2170,2090307966,0.0360293028811159,0.0683042539523359,-0.706321757738771,-0.703666108868921,-0.0143279806036473,0.0606249779899291,0.0762121881651807,0
2172,2090341300,0.0362621639018223,0.0682311096090127,-0.70616927320916,-0.703814271470767,-0.00495667646581533,0.0934982931952044,0.0128003987298088,0
