DeviceTag:;Xsens_2;;;;;;;;
FirmwareVersion:;2.4.0;;;;;;;;
AppVersion:;2022.0.1;;;;;;;;
SyncStatus:;Synced;;;;;;;;
OutputRate:;60Hz;;;;;;;;
FilterProfile:;General;;;;;;;;
Measurement Mode:;Sensor fusion Mode - Extended (Quaternion);;;;;;;;
StartTime:;2020-11-25 11:02:17.796 +0100;;;;;;;;
© Xsens Technologies B. V. 2005-2020;;;;;;;;;
;;;;;;;;;
PacketCounter;SampleTimeFine;Quat_W;Quat_X;Quat_Y;Quat_Z;FreeAcc_X;FreeAcc_Y;FreeAcc_Z;Status
1;1702266872;-0.30299097;0.57491827;0.2836114;0.70513415;-0.050927833;-0.12939744;0.14440346;0
2;1702283539;-0.3031084;0.5750326;0.28303307;0.70522285;-0.09155766;-0.17089918;0.1711607;0
3;1702300206;-0.3030344;0.5752871;0.2821962;0.70538247;-0.003952148;-0.059389025;0.1607399;0
4;1702316873;-0.30300403;0.5755281;0.28141564;0.70551074;0.02482988;0.023493083;0.20293617;0
5;1702333540;-0.30307654;0.57567734;0.28076345;0.7056177;0.0972321;-0.025731929;0.23978615;0
6;1702350207;-0.30315286;0.57579035;0.280118;0.70574933;0.06821056;-0.050217018;0.2198124;0
7;1702366874;-0.30323863;0.57589597;0.2795187;0.70586383;-0.001484426;-0.029723702;0.19401932;0
8;1702383541;-0.30330148;0.5759661;0.2789471;0.7060058;-0.047773108;-0.044013053;0.16425133;0
9;1702400208;-0.30331033;0.57599795;0.27842522;0.706182;-0.03497622;-0.07698096;0.13850594;0
10;1702416875;-0.30326623;0.57604706;0.27792716;0.7063571;-0.020114012;-0.083954625;0.13305187;0
11;1702433542;-0.30316618;0.57609344;0.27748966;0.7065341;-0.046360686;-0.06776147;0.17271137;0
12;1702450209;-0.30293462;0.5762266;0.27697134;0.7067281;0.008988523;-0.111456074;0.20545864;0
13;1702466876;-0.30275083;0.5762188;0.2765915;0.70696205;0.073656976;-0.07319225;0.20949745;0
14;1702483543;-0.30275792;0.57605445;0.27644885;0.7071488;0.16352926;-0.081984416;0.24927616;0
15;1702500210;-0.30286038;0.57580894;0.27640647;0.7073213;0.14105818;-0.042721316;0.23872566;0
16;1702516877;-0.30299115;0.57553035;0.27641594;0.70748836;0.11560533;-0.067273065;0.24637794;0
17;1702533544;-0.30322033;0.5751373;0.2765755;0.70764744;0.04008962;-0.023087297;0.16679192;0
18;1702550211;-0.30348548;0.57471967;0.27679336;0.7077878;0.008917046;-0.105972745;0.12851143;0
19;1702566878;-0.30354953;0.5744864;0.27684325;0.7079303;-3.70E-05;-0.15400983;0.124718666;0
20;1702583545;-0.30325615;0.574528;0.276479;0.70816463;0.008607631;-0.17665559;0.13379955;0
21;1702600212;-0.30264997;0.5748007;0.275841;0.7084513;0.00661353;-0.09857765;0.18091106;0
22;1702616879;-0.30192748;0.5751498;0.2750154;0.70879734;0.11038752;-0.036433954;0.1891346;0
23;1702633546;-0.30145139;0.5753329;0.27441755;0.70908284;0.16677745;0.01215754;0.20429325;0
24;1702650213;-0.3013347;0.5752598;0.27420583;0.7092736;0.10040195;0.06312257;0.2321558;0
25;1702666880;-0.3013578;0.57507557;0.2741492;0.7094351;0.065448634;-0.057089064;0.2160635;0
26;1702683547;-0.30122796;0.57501554;0.27386507;0.70964855;-4.72E-04;-0.1298698;0.19109535;0
27;1702700214;-0.30093345;0.5750485;0.2733825;0.7099329;-0.015909065;-0.09344322;0.15298748;0
28;1702716881;-0.30082607;0.57504195;0.2730596;0.7101079;0.014151704;0.03952187;0.11232853;0
29;1702733548;-0.3009656;0.5749607;0.2729314;0.7101639;0.008167083;0.016080836;0.09161377;0
30;1702750215;-0.3011376;0.57494813;0.27282867;0.7101404;-0.03644696;-0.082719125;0.104849815;0
31;1702766882;-0.30121726;0.57504267;0.27259442;0.7101202;-0.047833577;-0.1774634;0.21477127;0
32;1702783549;-0.3010427;0.575338;0.27206364;0.7101586;-0.039606355;-0.13929215;0.24349213;0
33;1702800216;-0.30073336;0.57573843;0.2714368;0.7102051;-0.010324976;-0.078641556;0.28743362;0
34;1702816883;-0.30069718;0.57596314;0.27110222;0.71016586;0.081076406;0.051645406;0.2725458;0
35;1702833550;-0.30105388;0.5759317;0.27115014;0.7100218;0.078010164;0.08248123;0.24807835;0
36;1702850217;-0.3015774;0.5758021;0.27140242;0.70980835;0.015423274;-0.043842934;0.16105556;0
37;1702866884;-0.30211112;0.5756646;0.27165088;0.7095979;-0.005524444;-0.17382284;0.1713829;0
38;1702883551;-0.30250007;0.5755656;0.27170742;0.7094908;-0.02744604;-0.17590319;0.18778515;0
39;1702900218;-0.30288574;0.5754281;0.27176824;0.7094144;-0.06687033;-0.059436202;0.2077589;0
40;1702916885;-0.30334827;0.57519674;0.2719557;0.7093327;-0.11118193;0.02555147;0.21163464;0
41;1702933552;-0.30398864;0.5748225;0.2723587;0.7092074;-0.10140837;0.042853832;0.2547884;0
42;1702950219;-0.304752;0.5743782;0.27293658;0.7090176;-0.08689056;-0.028063225;0.21811676;0
43;1702966886;-0.30548552;0.5739318;0.27350274;0.7088452;-0.038112003;-0.10238497;0.22334862;0
44;1702983553;-0.30611008;0.5735252;0.27398437;0.7087188;-0.003700844;-0.11003048;0.17100334;0
45;1703000220;-0.3066867;0.573086;0.27444366;0.7086471;0.061228663;-0.13927391;0.19087219;0
46;1703016887;-0.3072439;0.57267135;0.27487004;0.7085756;0.07951217;-0.09224391;0.19310379;0
47;1703033554;-0.307797;0.5723163;0.27524737;0.708476;0.06279465;-0.074876614;0.20301819;0
48;1703050221;-0.30821145;0.57209015;0.27551106;0.708376;0.027149184;-0.11797953;0.21062946;0
49;1703066888;-0.30854484;0.57192415;0.2757468;0.70827323;-0.025273383;-0.13989444;0.2026968;0
50;1703083555;-0.3088458;0.57179004;0.27594918;0.7081714;0.020647155;-0.101376645;0.24725533;0
51;1703100222;-0.3090656;0.571731;0.27611786;0.7080575;0.033956222;-0.05061962;0.2186966;0
52;1703116889;-0.30920768;0.5716931;0.2762482;0.7079752;0.029989637;-0.04790572;0.21138382;0
53;1703133556;-0.30927402;0.5716944;0.2763586;0.70790213;0.06892699;-0.04698765;0.21746445;0
54;1703150223;-0.30939925;0.5715938;0.27657157;0.70784545;0.056212462;-0.012948692;0.19057369;0
55;1703166890;-0.3096949;0.5713783;0.2770044;0.7077208;0.07389021;0.030570257;0.1772089;0
56;1703183557;-0.3101456;0.5710878;0.27758995;0.7075286;0.022060279;0.009198564;0.16182423;0
57;1703200224;-0.31064758;0.57085377;0.27818;0.7072653;0.041966002;-0.013698326;0.13123894;0
58;1703216891;-0.31099406;0.5707133;0.2786193;0.7070534;0.13603403;-0.13752651;0.14765549;0
59;1703233558;-0.31110075;0.57069343;0.278806;0.7069488;0.12766756;-0.18707071;0.16082668;0
60;1703250225;-0.31104535;0.57075936;0.2788366;0.706908;0.14907087;-0.1908251;0.19883442;0
61;1703266892;-0.31099758;0.57087857;0.27882016;0.7068393;0.15412991;-0.10983879;0.21443367;0
62;1703283559;-0.3110327;0.5710183;0.27892116;0.70667106;0.1408063;-0.062322397;0.24970436;0
63;1703300226;-0.31115437;0.5710749;0.27912188;0.7064925;0.14095129;-0.09859048;0.2944622;0
64;1703316893;-0.31132478;0.5710715;0.27937993;0.7063182;0.13493726;-0.07645923;0.32327938;0
65;1703333560;-0.31162366;0.5709661;0.2797442;0.70612735;0.14357443;0.025055913;0.32135868;0
66;1703350227;-0.3122158;0.5706617;0.2804555;0.7058298;0.15948428;0.0438842;0.2577381;0
67;1703366894;-0.31300026;0.5702152;0.28136843;0.7054798;0.16237894;-0.044038784;0.19386005;0
68;1703383561;-0.31375992;0.5698003;0.28218347;0.70515186;0.11455843;-0.117801964;0.118860245;0
69;1703400228;-0.3143382;0.5695149;0.28274778;0.70489895;0.043518517;-0.14892946;0.08479214;0
70;1703416895;-0.31479993;0.56934476;0.283148;0.70466954;0.097752824;-0.10320873;0.12709808;0
71;1703433562;-0.31520003;0.5692166;0.28345495;0.7044708;0.12019863;-0.12210406;0.23719215;0
72;1703450229;-0.31559682;0.5690738;0.28369132;0.7043134;0.109501794;-0.04841559;0.2687931;0
73;1703466896;-0.3159254;0.56899214;0.28384286;0.7041707;0.050996926;-0.119134806;0.22998905;0
74;1703483563;-0.31619832;0.56896406;0.28393006;0.7040359;0.09747322;-0.17325388;0.24709702;0
75;1703500230;-0.31634736;0.5689987;0.283805;0.7039915;0.101860724;-0.043889508;0.2623272;0
76;1703516897;-0.3165039;0.56898636;0.28372163;0.70396465;0.03964511;-0.017208822;0.20976543;0
77;1703533564;-0.3166379;0.5690183;0.2835995;0.70392764;0.048571978;-0.031038098;0.1604662;0
78;1703550231;-0.31679556;0.5690277;0.28341603;0.70392305;0.09170006;-0.049186707;0.14739418;0
79;1703566898;-0.3170443;0.56902117;0.2832592;0.7038794;0.114709646;-0.08731668;0.15001869;0
80;1703583565;-0.31727734;0.5690757;0.2830737;0.703805;0.0621556;-0.087333694;0.19943333;0
81;1703600232;-0.31751448;0.56909084;0.28292158;0.70374715;0.029265355;-0.16459598;0.22250366;0
82;1703616899;-0.31767264;0.56917006;0.28265762;0.70371765;0.016373523;-0.17732015;0.2425766;0
83;1703633566;-0.31775272;0.5693198;0.28228155;0.7037111;-0.034270354;-0.06212741;0.20291519;0
84;1703650233;-0.318014;0.5693706;0.28210318;0.7036236;-0.06992367;-0.008236751;0.16153145;0
85;1703666900;-0.31838518;0.5694095;0.28211612;0.70341897;-0.08448476;-0.124735795;0.19269276;0
86;1703683567;-0.31872663;0.5694992;0.28214303;0.70318097;-0.049077164;-0.19889347;0.17317772;0
87;1703700234;-0.31902018;0.5696576;0.28207687;0.7029461;-0.024887348;-0.14711693;0.1614275;0
88;1703716901;-0.31932425;0.569848;0.28205273;0.7026633;-0.001086246;0.003067604;0.1529417;0
89;1703733568;-0.31965962;0.5700627;0.28215358;0.70229626;-0.036759205;-0.038198475;0.14369202;0
90;1703750235;-0.32002068;0.57027745;0.28232497;0.70188826;-0.04364083;-0.10577058;0.18379116;0
91;1703766902;-0.32030597;0.57056946;0.282422;0.7014819;0.002927382;-0.07003832;0.19578743;0
92;1703783569;-0.32056725;0.57087255;0.28255448;0.70106256;0.027760727;-0.04590403;0.22918606;0
93;1703800236;-0.32085648;0.5711162;0.28267652;0.70068234;0.037113108;-0.03984032;0.23383522;0
94;1703816903;-0.32110602;0.5713664;0.28276625;0.7003277;-0.018340785;-0.043199494;0.21686935;0
95;1703833570;-0.3213144;0.5716329;0.28285718;0.69997764;-0.01624322;-0.07974889;0.2057991;0
96;1703850237;-0.32148844;0.57189983;0.28301156;0.6996174;3.06E-04;-0.07174024;0.1520195;0
97;1703866904;-0.3216029;0.5722183;0.2831258;0.6992581;0.018390285;-0.09591867;0.13211441;0
98;1703883571;-0.32163775;0.5726137;0.28321674;0.6988815;0.022384211;-0.08408615;0.07815838;0
99;1703900238;-0.32156458;0.5731175;0.28320736;0.698506;0.042078022;-0.073318675;0.096796036;0
100;1703916905;-0.32133448;0.57371813;0.28303012;0.69819033;0.069823675;-0.07269655;0.14225769;0
101;1703933572;-0.32101855;0.5743576;0.2828403;0.69788694;0.07529828;-0.07148573;0.16668606;0
102;1703950239;-0.32076833;0.57492965;0.2826763;0.69759744;0.14626496;-0.04491297;0.20005226;0
103;1703966906;-0.32053787;0.575502;0.2825673;0.69727546;0.09814876;0.006136967;0.2545128;0
104;1703983573;-0.3203526;0.5760092;0.2825338;0.6969552;0.06042079;-0.01142263;0.23524666;0
105;1704000240;-0.32017636;0.5764776;0.28253582;0.69664806;-0.027105087;-0.010335546;0.21558952;0
106;1704016907;-0.32001135;0.5768845;0.28258678;0.69636637;-0.015178461;-0.008790765;0.1858921;0
107;1704033574;-0.31991547;0.57719773;0.2827177;0.6960975;-0.002084842;0.023453886;0.21374893;0
108;1704050241;-0.3198394;0.57745755;0.2829397;0.6958268;-0.023049016;-0.016267804;0.18056774;0
109;1704066908;-0.31975123;0.57767016;0.28313974;0.69560945;-0.03235087;-0.014056255;0.1776514;0
110;1704083575;-0.31960645;0.57786566;0.28332737;0.69543713;-0.009071026;-0.006027837;0.15427208;0
111;1704100242;-0.3193923;0.5780529;0.28346172;0.69532526;0.029016566;-0.04029866;0.17561722;0
112;1704116909;-0.31919196;0.57820547;0.28355268;0.6952534;0.043817736;-0.003282735;0.17203522;0
113;1704133576;-0.3190151;0.5783257;0.283654;0.69519323;0.01319771;-0.024238303;0.22996235;0
114;1704150243;-0.3187754;0.5784376;0.283701;0.6951909;0.07937157;-0.033799097;0.26631355;0
115;1704166910;-0.31850255;0.5785442;0.2836879;0.6952326;0.09567131;0.026261209;0.2688141;0
116;1704183577;-0.31837118;0.5786328;0.28378576;0.69517905;0.07257016;0.12176966;0.2332735;0
117;1704200244;-0.31841302;0.5786523;0.28402883;0.6950445;0.09971616;0.0971699;0.18897152;0
118;1704216911;-0.31856427;0.5786409;0.28435928;0.6948493;0.105663136;-0.033827595;0.14000225;0
119;1704233578;-0.31861454;0.5787104;0.28457013;0.69468206;0.14569677;-0.1071992;0.16230965;0
120;1704250245;-0.3185032;0.57886535;0.28451154;0.6946281;0.11479524;-0.03228639;0.25469398;0
121;1704266912;-0.31826624;0.5791026;0.28427306;0.6946364;0.119985804;0.07042117;0.23929119;0
122;1704283579;-0.31815296;0.5792228;0.28410485;0.69465697;0.14823408;0.048988562;0.23456955;0
123;1704300246;-0.31824508;0.5791941;0.28415003;0.69462013;0.078099325;0.10691636;0.24528122;0
124;1704316913;-0.31844702;0.5790591;0.28427458;0.69458926;0.082298554;0.075057715;0.25714493;0
125;1704333580;-0.31853515;0.5789858;0.28428772;0.6946046;0.08748819;-0.029959481;0.2096014;0
126;1704350247;-0.31845674;0.5789948;0.2841018;0.6947091;0.06259635;-0.047740467;0.18846226;0
127;1704366914;-0.31835997;0.5789966;0.28382567;0.69486487;0.0682096;-0.01139891;0.17311668;0
128;1704383581;-0.3183415;0.5789326;0.28363192;0.6950058;0.031714212;0.0386664;0.18709946;0
129;1704400248;-0.31844634;0.5787146;0.2835853;0.69515824;0.012931241;0.046261594;0.14515972;0
130;1704416915;-0.31859338;0.578461;0.28354788;0.69531727;-0.01730097;-0.010001758;0.11339378;0
131;1704433582;-0.3186349;0.5782675;0.28340602;0.695517;-0.059868254;-0.04839022;0.13101673;0
132;1704450249;-0.31859276;0.57813585;0.28312048;0.695762;-0.0494266;-0.08392758;0.18511868;0
133;1704466916;-0.31853056;0.5779813;0.28279883;0.69604975;-0.003382899;-0.029137975;0.218009;0
134;1704483583;-0.31843647;0.5777808;0.28252214;0.69637144;-0.035936434;-0.039511308;0.2354908;0
135;1704500250;-0.31848016;0.5774376;0.28243163;0.69667274;-0.015113171;-0.014993529;0.22623062;0
136;1704516917;-0.31866556;0.5770159;0.2824833;0.69691634;-0.048285667;0.0374335;0.20139408;0
137;1704533584;-0.31885293;0.5765846;0.28264588;0.69712186;-0.058632903;-0.039578892;0.18432045;0
138;1704550251;-0.3190114;0.5761318;0.2828113;0.6973564;-0.02891153;-0.11058555;0.16982651;0
139;1704566918;-0.3190989;0.57567847;0.28293887;0.69763905;-0.053673618;-0.09290624;0.16644764;0
140;1704583585;-0.3190971;0.5753215;0.28306094;0.69788444;-0.06356101;-0.046311494;0.17388916;0
141;1704600252;-0.319094;0.5749415;0.28322673;0.69813186;-0.06424168;-0.039856914;0.20062351;0
142;1704616919;-0.3191187;0.5745596;0.2834255;0.6983543;0.011015225;-0.05900267;0.19577408;0
143;1704633586;-0.31920272;0.5741466;0.2836924;0.6985471;0.023626238;-0.050728362;0.22174072;0
144;1704650253;-0.31926668;0.5737647;0.28397638;0.6987162;2.83E-04;-0.020203643;0.21828747;0
145;1704666920;-0.31929988;0.57343477;0.28422537;0.69887066;0.038921684;-0.063097626;0.20383263;0
146;1704683587;-0.31928208;0.5731443;0.28443605;0.69903153;-0.002258752;-0.07966857;0.16447735;0
147;1704700254;-0.31924123;0.5728908;0.2845899;0.69919527;-0.012430944;-0.04466574;0.17047787;0
148;1704716921;-0.3191759;0.5726478;0.28472468;0.6993693;-0.08409658;-0.022354145;0.17364502;0
149;1704733588;-0.31910464;0.5724073;0.28489214;0.6995304;-0.09709215;0.006137251;0.15598011;0
150;1704750255;-0.3190732;0.57218295;0.28506303;0.6996589;-0.04050559;-0.012333194;0.16473293;0
151;1704766922;-0.31916454;0.5719221;0.2852807;0.69974166;0.011572266;-0.046147436;0.15253258;0
152;1704783589;-0.3193033;0.5716335;0.28557086;0.6997958;-0.014998914;-0.13797362;0.14470196;0
153;1704800256;-0.3194217;0.57137936;0.2858535;0.6998339;-0.042592198;-0.18188564;0.1490984;0
154;1704816923;-0.3194443;0.57124716;0.28599757;0.69987255;-0.030756075;-0.15783703;0.1785841;0
155;1704833590;-0.31933948;0.5712731;0.28602788;0.6998869;-0.03733518;-0.09519808;0.22761917;0
156;1704850257;-0.31925067;0.57128626;0.28605497;0.69990563;0.017399473;-0.115360565;0.28064632;0
157;1704866924;-0.31918707;0.5712601;0.28605777;0.69995487;0.09384879;-0.096583694;0.32989407;0
158;1704883591;-0.3193593;0.5710243;0.28623822;0.69999504;0.115913354;-0.048808776;0.30853653;0
159;1704900258;-0.3196833;0.5707027;0.28657734;0.69997054;0.05430888;-0.06976762;0.26593018;0
160;1704916925;-0.32000226;0.5703909;0.2869212;0.69993806;-0.009686346;-0.10742794;0.19783783;0
161;1704933592;-0.32020733;0.57018477;0.2871611;0.69991374;-0.062713645;-0.16039577;0.14409924;0
162;1704950259;-0.3202861;0.5701033;0.28726837;0.6999002;-0.03671944;-0.117974915;0.12926102;0
163;1704966926;-0.32034117;0.57008046;0.28736553;0.6998538;0.025353456;-0.09505903;0.16043758;0
164;1704983593;-0.32040852;0.57005626;0.2874473;0.6998089;0.058782127;-0.08856659;0.20777607;0
165;1705000260;-0.320546;0.5700195;0.28755704;0.699731;0.049258202;-0.03208746;0.20744991;0
166;1705016927;-0.32067207;0.57000613;0.28770638;0.6996226;0.08080804;-0.07252093;0.2304821;0
167;1705033594;-0.32076165;0.5699997;0.28781334;0.6995428;0.08731403;-0.100864805;0.18739223;0
168;1705050261;-0.32077515;0.5700788;0.2879106;0.69943196;0.0690504;-0.13053463;0.16171455;0
169;1705066928;-0.32073426;0.57024384;0.28788546;0.69932675;0.09364275;-0.1112802;0.17257023;0
170;1705083595;-0.32072598;0.57041436;0.28780764;0.69922346;0.12802124;-0.09402863;0.20051575;0
171;1705100262;-0.3207249;0.5705679;0.2877257;0.6991323;0.11131085;-0.10102766;0.2514534;0
172;1705116929;-0.320768;0.57067704;0.28769225;0.69903725;0.064748794;-0.015110984;0.26855183;0
173;1705133596;-0.32084382;0.57079077;0.28774548;0.6988879;0.08429635;-0.05534044;0.23988533;0
174;1705150263;-0.3210015;0.57089156;0.2878331;0.69869703;0.10805409;-0.10897034;0.1666069;0
175;1705166930;-0.3210861;0.5711148;0.2878389;0.69847316;0.054673065;-0.10777514;0.20949745;0
176;1705183597;-0.32101655;0.5714813;0.28771153;0.69825786;0.04239804;-0.13028006;0.18003178;0
177;1705200264;-0.3207769;0.57196987;0.28741047;0.6980918;0.08189378;-0.12177531;0.1682005;0
178;1705216931;-0.32053554;0.5724345;0.2870689;0.69796264;0.07923403;-0.06337833;0.18173409;0
179;1705233598;-0.3203482;0.5728682;0.28666526;0.6978582;0.14823876;-0.021654103;0.2223854;0
180;1705250265;-0.32026228;0.57319474;0.28631926;0.69777167;0.12934478;0.082239375;0.23767948;0
181;1705266932;-0.32032686;0.5733371;0.2861733;0.69768506;0.09391741;0.02081634;0.21355247;0
182;1705283599;-0.32039043;0.573445;0.28602654;0.6976274;0.059513174;-0.08062221;0.20545769;0
183;1705300266;-0.32036552;0.573579;0.28575045;0.6976418;0.088589706;-0.10732694;0.17633629;0
184;1705316933;-0.32025164;0.5737458;0.28533658;0.69772625;0.07662562;-0.05718621;0.1920023;0
185;1705333600;-0.3201379;0.573874;0.2848983;0.6978524;0.07474617;0.005989421;0.20280457;0
186;1705350267;-0.32003182;0.5738978;0.28452414;0.6980338;0.053247802;-0.010199902;0.22568226;0
187;1705366934;-0.3199327;0.57384527;0.28416237;0.6982698;0.06546089;-0.024778813;0.23582172;0
188;1705383601;-0.31986165;0.57371706;0.28382784;0.6985436;0.018877883;0.008926884;0.23440647;0
189;1705400268;-0.31986842;0.5734916;0.28357223;0.6988294;-0.007847365;0.013574305;0.19377708;0
190;1705416935;-0.31988347;0.57322687;0.28335276;0.69912887;0.018530698;-0.04217818;0.20077801;0
191;1705433602;-0.3198027;0.57299685;0.28309843;0.69945717;0.006074761;-0.07838365;0.17544937;0
192;1705450269;-0.31960875;0.57280374;0.28278655;0.6998301;-0.001303074;-0.030219762;0.16872215;0
193;1705466936;-0.31939244;0.57260275;0.28246906;0.7002215;0.019839229;0.00839632;0.16185284;0
194;1705483603;-0.3192224;0.5723491;0.28221124;0.7006104;0.01753145;-5.77E-04;0.1628151;0
195;1705500270;-0.31907344;0.5720839;0.282036;0.7009651;-0.010858964;-0.016563287;0.16701412;0
196;1705516937;-0.3189359;0.5718474;0.28190485;0.70127326;-0.021873267;-0.027443089;0.18110752;0
197;1705533604;-0.31873807;0.5716955;0.2817795;0.7015375;0.011347727;-0.06263015;0.17537498;0
198;1705550271;-0.31845605;0.5716514;0.2815659;0.70178723;0.045387227;-0.062312163;0.17554188;0
199;1705566938;-0.31811044;0.5716629;0.2813143;0.70203555;0.082101665;-0.009864354;0.18070698;0
200;1705583605;-0.3178112;0.5716589;0.2811386;0.7022447;0.06560219;0.014500878;0.1792965;0
201;1705600272;-0.3176314;0.5716316;0.2810779;0.7023725;0.01599877;0.04727285;0.15171051;0
202;1705616939;-0.31745028;0.57163686;0.28107467;0.70245135;0.00684751;0.019186296;0.16597462;0
203;1705633606;-0.31730708;0.571629;0.2810973;0.70251334;-0.01966175;0.010089515;0.17907429;0
204;1705650273;-0.31716377;0.57167715;0.2811411;0.7025213;-0.03812223;0.023426756;0.1460495;0
205;1705666940;-0.31701964;0.5717349;0.2811997;0.70251596;0.020324096;0.012720066;0.16802788;0
206;1705683607;-0.31692162;0.5717801;0.28133067;0.70247096;-0.020620434;0.002695455;0.15155506;0
207;1705700274;-0.31683525;0.57186234;0.28151745;0.7023683;0.012650928;-0.001164139;0.16818428;0
208;1705716941;-0.31672192;0.57198536;0.28163007;0.702274;0.061538912;-0.013196177;0.19676113;0
209;1705733608;-0.31659287;0.57212996;0.2817081;0.7021832;0.08678301;0.001815596;0.20675373;0
210;1705750275;-0.3164746;0.5722774;0.28176898;0.7020918;0.14644381;-0.004260324;0.21607113;0
211;1705766942;-0.3163572;0.5724313;0.28183445;0.701993;0.10970178;-0.030744094;0.20743465;0
212;1705783609;-0.31623387;0.57257044;0.28189647;0.70191044;0.10817478;-0.045076583;0.21076679;0
213;1705800276;-0.31612593;0.5727123;0.28194857;0.7018222;0.06630231;-0.010795509;0.17714024;0
214;1705816943;-0.3160686;0.5728551;0.28207877;0.70167917;0.017451894;0.010625577;0.18027592;0
215;1705833610;-0.316038;0.57301545;0.28224295;0.7014958;0.018168114;0.008014727;0.18116856;0
216;1705850277;-0.3159904;0.57320666;0.28238153;0.7013053;0.048465654;-0.018164087;0.20730114;0
217;1705866944;-0.3159598;0.5733756;0.2825194;0.70112556;0.07901736;-0.016049488;0.21131706;0
218;1705883611;-0.3159994;0.5735015;0.28270844;0.70092845;0.08678379;0.02691015;0.21123886;0
219;1705900278;-0.31610182;0.5735914;0.2829449;0.7007131;0.10749583;0.020843254;0.19874668;0
220;1705916945;-0.31622133;0.5736479;0.2832048;0.7005081;0.10818585;-0.05026499;0.17188454;0
221;1705933612;-0.31634903;0.5737131;0.28342342;0.70030856;0.13680989;-0.08717503;0.17881107;0
222;1705950279;-0.31640887;0.57381797;0.2835364;0.7001499;0.16624634;-0.11550624;0.20152569;0
223;1705966946;-0.31643018;0.5739216;0.28353778;0.70005465;0.14714625;-0.0972254;0.21953964;0
224;1705983613;-0.3164582;0.57397723;0.28345862;0.7000285;0.08157711;-0.041673098;0.26569653;0
225;1706000280;-0.31651336;0.573966;0.2833914;0.70004;0.030977758;-0.003664244;0.33417606;0
226;1706016947;-0.31661448;0.57389414;0.2833741;0.7000601;-0.033345934;0.012213642;0.30870342;0
227;1706033614;-0.31676915;0.57379574;0.28343675;0.7000454;-0.044173807;-0.14829238;0.24862194;0
228;1706050281;-0.3169044;0.5737192;0.2834206;0.70005363;-0.010154936;-0.10117576;0.24158859;0
229;1706066948;-0.31692088;0.5737139;0.2833018;0.7000986;0.036463503;-0.06874532;0.2043047;0
230;1706083615;-0.31686828;0.5737245;0.28311867;0.70018774;0.08086126;-0.10420891;0.1603508;0
231;1706100282;-0.3168216;0.5737087;0.2828711;0.700322;0.048180692;-0.120069794;0.108522415;0
232;1706116949;-0.3168557;0.57370204;0.28268167;0.7003883;-0.018627595;-0.078749366;0.11552906;0
233;1706133616;-0.31691268;0.57372105;0.2825513;0.7003996;-0.03486814;-0.08860199;0.13337898;0
234;1706150283;-0.31695154;0.57377917;0.28236064;0.7004113;-0.00446134;-0.15510345;0.15807438;0
235;1706166950;-0.3168347;0.5739187;0.28203171;0.7004825;0.015484674;-0.16622652;0.21040821;0
236;1706183617;-0.31656793;0.5741256;0.28157276;0.700618;0.01368614;-0.13273883;0.2594242;0
237;1706200284;-0.3163634;0.574273;0.2811515;0.7007589;-0.01808609;-0.029349513;0.26279926;0
238;1706216951;-0.3163417;0.57429355;0.2809816;0.70081985;-0.06917809;-0.0179496;0.25038433;0
239;1706233618;-0.3164082;0.57424057;0.2809705;0.7008376;-0.08683495;-0.062729776;0.23557758;0
240;1706250285;-0.31640992;0.5742226;0.2809542;0.7008582;-0.08454025;-0.107899144;0.19979858;0
241;1706266952;-0.31625745;0.5742705;0.28085074;0.7009293;-0.059186496;-0.14969154;0.17642021;0
242;1706283619;-0.3159498;0.57440937;0.28063178;0.70104206;-0.060113054;-0.14041269;0.16411781;0
243;1706300286;-0.31563643;0.5745369;0.28040934;0.7011676;-0.014683925;-0.077476405;0.20100021;0
244;1706316953;-0.31526706;0.57469326;0.28018945;0.70129335;0.036467146;-0.0532193;0.21514988;0
245;1706333620;-0.31498003;0.5747776;0.28007498;0.7013991;0.05776473;-0.018818337;0.20754337;0
246;1706350287;-0.3147406;0.5748133;0.27999482;0.7015092;0.06898188;-0.077842526;0.20656872;0
247;1706366954;-0.31447408;0.5748608;0.27990198;0.7016269;0.0305206;-0.09923978;0.20956135;0
248;1706383621;-0.3141857;0.57491565;0.27978846;0.7017566;0.028505567;-0.077525;0.21562195;0
249;1706400288;-0.31389266;0.57503116;0.27966598;0.7018419;0.020151004;-0.052488163;0.20552921;0
250;1706416955;-0.31364262;0.57514447;0.27958432;0.7018933;0.051149067;-0.03355136;0.18621731;0
251;1706433622;-0.313395;0.5752739;0.2795165;0.70192486;0.056191467;-0.063058786;0.1895895;0
252;1706450289;-0.3131287;0.57539403;0.27940166;0.701991;0.06281828;-0.10328383;0.18322372;0
253;1706466956;-0.31281614;0.57555324;0.2792142;0.7020744;0.015236365;-0.059669577;0.17196178;0
254;1706483623;-0.3124659;0.5757234;0.27900922;0.70217234;3.77E-04;-0.023745904;0.19198322;0
255;1706500290;-0.31218612;0.5758446;0.2788398;0.7022647;0.023751523;-0.005378727;0.20280647;0
256;1706516957;-0.3119564;0.5759461;0.278672;0.70235014;0.030849297;-0.007758554;0.1999197;0
257;1706533624;-0.31175405;0.57603014;0.27848586;0.7024448;0.04546503;-0.03731303;0.22549343;0
258;1706550291;-0.3115994;0.5760346;0.27826482;0.7025974;0.0689133;-0.03556541;0.22297668;0
259;1706566958;-0.3114955;0.57599294;0.27805027;0.70276254;0.08254622;-0.024039237;0.22129154;0
260;1706583625;-0.3114504;0.57588464;0.27785587;0.70294803;0.047113493;-1.65E-04;0.20603085;0
261;1706600292;-0.31143606;0.5757304;0.27766982;0.7031544;9.61E-04;-0.02459855;0.20732117;0
262;1706616959;-0.31138822;0.57560855;0.2774469;0.70336324;-0.034754246;-0.050727718;0.19397926;0
263;1706633626;-0.3112909;0.57553023;0.27718782;0.7035725;-0.038649723;-0.057404194;0.15799236;0
264;1706650293;-0.3111984;0.57546043;0.27691305;0.7037786;0.024527665;-0.034799878;0.18839169;0
265;1706666960;-0.31110883;0.57537264;0.27660704;0.7040101;0.051687956;-0.044869136;0.18002892;0
266;1706683627;-0.3110532;0.5752711;0.27632788;0.7042273;0.032133557;-0.033333186;0.16440868;0
267;1706700294;-0.31099874;0.57518053;0.2760638;0.70442903;-0.002403877;-0.026622126;0.18717766;0
268;1706716961;-0.31091037;0.57506955;0.27576482;0.70467556;0.006865564;-0.04333036;0.17764091;0
269;1706733628;-0.31081137;0.57498485;0.2754942;0.7048944;-0.009066626;-0.05750206;0.16483974;0
270;1706750295;-0.31074703;0.5748832;0.27528673;0.7050867;-0.004648547;-0.06052284;0.15871716;0
271;1706766962;-0.31070518;0.5748138;0.27511337;0.70522946;-0.037682295;-0.08596087;0.17646694;0
272;1706783629;-0.31058118;0.5748076;0.274884;0.7053784;-0.04156384;-0.0860585;0.20467377;0
273;1706800296;-0.3103277;0.5748825;0.27457872;0.70554775;-0.037026882;-0.07746213;0.20825577;0
274;1706816963;-0.31001917;0.5749441;0.27421966;0.7057729;0.05451271;-0.06912876;0.19227028;0
275;1706833630;-0.3098226;0.574946;0.27399474;0.70594496;0.07441739;0.02803685;0.18566513;0
276;1706850297;-0.30971006;0.5748809;0.27390864;0.7060807;0.005892675;0.06395865;0.19299793;0
277;1706866964;-0.3096001;0.574814;0.27386326;0.7062009;0.003672234;-0.011630218;0.16218948;0
278;1706883631;-0.30942824;0.57479995;0.273756;0.7063292;-0.014426231;-0.018246954;0.14298248;0
279;1706900298;-0.30918556;0.57482624;0.27361614;0.70646846;-0.03520798;-0.03930672;0.14175034;0
280;1706916965;-0.308918;0.5748936;0.2734914;0.70657897;0.006427869;-0.02378773;0.16478348;0
281;1706933632;-0.3086827;0.5749073;0.27339098;0.70670956;0.032800347;0.014513982;0.15437698;0
282;1706950299;-0.30852008;0.5749094;0.27335653;0.7067921;0.035876796;0.0489176;0.16965294;0
283;1706966966;-0.30839258;0.57490814;0.27336442;0.70684564;0.022302782;0.064503185;0.18549347;0
284;1706983633;-0.308306;0.5748963;0.27342814;0.7068684;-0.043676887;0.030222472;0.1829071;0
285;1707000300;-0.3081767;0.57493937;0.27344674;0.7068826;-0.05375899;-0.03716034;0.20633698;0
286;1707016967;-0.30798057;0.575057;0.2734021;0.7068897;-0.025515381;-0.025573822;0.19189739;0
287;1707033634;-0.30775124;0.5752091;0.27336526;0.70688015;-0.018947395;0.045178674;0.19309807;0
288;1707050301;-0.3075846;0.57533133;0.27336264;0.7068541;0.05390577;0.07045522;0.20698357;0
289;1707066968;-0.3075233;0.5753983;0.27340275;0.7068108;0.05609326;0.04549824;0.1703682;0
290;1707083635;-0.30758578;0.5753936;0.27352306;0.7067408;0.06111857;0.027182445;0.19461441;0
291;1707100302;-0.30764312;0.57537335;0.27360654;0.7066999;0.088851765;0.006983718;0.19603157;0
292;1707116969;-0.30767328;0.57535803;0.27368775;0.70666796;0.014305245;0.027793193;0.18002224;0
293;1707133636;-0.30772075;0.5753497;0.27374297;0.7066327;0.022716621;0.052733775;0.18037033;0
294;1707150303;-0.3078656;0.57531667;0.27379704;0.70657545;0.047756214;0.018518189;0.18384266;0
295;1707166970;-0.30803633;0.5752898;0.27389243;0.7064861;0.04043353;0.008876483;0.20948696;0
296;1707183637;-0.30821308;0.575277;0.27394187;0.7064003;0.014168851;-0.04369832;0.20635891;0
297;1707200304;-0.3083497;0.575299;0.27396607;0.70631325;0.03834536;-0.031900775;0.20808315;0
298;1707216971;-0.30843562;0.57535034;0.27391517;0.70625377;0.014976053;0.03926631;0.18475437;0
299;1707233638;-0.30855423;0.5753931;0.27389237;0.7061759;0.050018806;0.023419185;0.2111969;0
300;1707250305;-0.30876204;0.5753331;0.27395725;0.70610875;0.0735521;-0.027527744;0.21225071;0
301;1707266972;-0.30900037;0.57525927;0.27402812;0.70603716;0.062113196;-0.022641946;0.20112038;0
302;1707283639;-0.30922055;0.57519954;0.27407277;0.7059722;0.022345513;-0.0293779;0.1995058;0
303;1707300306;-0.3094251;0.57514185;0.27413657;0.7059048;0.05446749;-0.035896573;0.22774506;0
304;1707316973;-0.30962944;0.5750817;0.27417007;0.70585114;0.078314595;-0.047422156;0.23657513;0
305;1707333640;-0.309863;0.5749767;0.27423593;0.7058086;0.09552198;-0.059323106;0.23260975;0
306;1707350307;-0.31007788;0.5748797;0.2742857;0.70577395;0.050882053;-0.0833132;0.21745872;0
307;1707366974;-0.3102813;0.5747884;0.27432936;0.705742;0.035417903;-0.08777552;0.17982388;0
308;1707383641;-0.31043237;0.57476;0.27438894;0.70567524;-0.015922703;-0.07499701;0.17221737;0
309;1707400308;-0.31053638;0.57477385;0.27441308;0.70560896;0.005547086;-0.03452138;0.18042469;0
310;1707416975;-0.31063586;0.5747896;0.27443558;0.7055435;0.017371766;-0.024557313;0.16513729;0
311;1707433642;-0.31077105;0.57474536;0.2745102;0.70549107;0.058258057;-0.029216291;0.17561722;0
312;1707450309;-0.31101063;0.574626;0.27468264;0.70541567;0.08619163;-0.03378468;0.18962383;0
313;1707466976;-0.31122467;0.5744738;0.27480265;0.7053983;0.1042789;-0.06528093;0.21821785;0
314;1707483643;-0.31142196;0.5743344;0.274854;0.7054048;0.060016282;-0.069347605;0.24086475;0
315;1707500310;-0.31159502;0.574221;0.27484855;0.7054227;0.027945839;-0.064168975;0.22273159;0
316;1707516977;-0.31179988;0.57409877;0.27489263;0.70541465;0.006349714;-0.09622716;0.20053291;0
317;1707533644;-0.3119398;0.57404757;0.27493763;0.7053768;-0.04469031;-0.13033183;0.18940163;0
318;1707550311;-0.31198567;0.5741036;0.27494225;0.7053091;-0.006291078;-0.08273991;0.22330093;0
319;1707566978;-0.31195846;0.5742512;0.27479193;0.70525974;0.04646088;-0.08389064;0.16344166;0
320;1707583645;-0.311937;0.57443273;0.27468473;0.70516324;0.10349785;-0.070120096;0.18872452;0
321;1707600312;-0.31186172;0.57462835;0.2745329;0.7050961;0.059647184;-0.023096543;0.21937466;0
322;1707616979;-0.3117295;0.57485765;0.27431515;0.70505255;0.07462126;-0.07674074;0.17419624;0
323;1707633646;-0.3116305;0.5750349;0.2741307;0.7050235;0.018887749;-0.05933121;0.149333;0
324;1707650313;-0.311618;0.5751613;0.2740491;0.7049574;-0.021375982;-0.061726175;0.11351204;0
325;1707666980;-0.31170502;0.575252;0.2740349;0.70485055;0.012327264;-0.05153161;0.13446236;0
326;1707683647;-0.31182396;0.57535195;0.27402952;0.7047184;0.026522804;-0.023572123;0.14081573;0
327;1707700314;-0.31190145;0.5754579;0.2740162;0.7046029;0.053076927;-0.07701438;0.19787884;0
328;1707716981;-0.31190208;0.57556766;0.273923;0.7045491;0.06394639;-0.09673793;0.2164669;0
329;1707733648;-0.31191176;0.5756524;0.27385533;0.7045019;0.018836051;-0.06400914;0.20977306;0
330;1707750315;-0.31200784;0.5756918;0.27386189;0.7044246;-0.016397292;-0.03831867;0.22331715;0
331;1707766982;-0.3120746;0.575723;0.27394402;0.70433754;-0.01934277;-0.100761205;0.22052002;0
332;1707783649;-0.312079;0.57578343;0.27404356;0.70424753;-0.03260466;-0.09708528;0.2056303;0
333;1707800316;-0.3120074;0.5758518;0.27407187;0.7042124;-0.030205084;-0.064968675;0.20139217;0
334;1707816983;-0.3119189;0.5759276;0.2741535;0.7041577;0.007108838;-0.040121607;0.18018532;0
335;1707833650;-0.3118887;0.57592034;0.27436978;0.7040929;0.019093549;-0.06815955;0.13899422;0
336;1707850317;-0.3118931;0.5758576;0.2746659;0.7040268;0.004579635;-0.063580945;0.15145779;0
337;1707866984;-0.3118617;0.5757866;0.27498144;0.70397574;-0.013949677;-0.06312517;0.13829422;0
338;1707883651;-0.311726;0.5757779;0.27520508;0.70395553;0.029951379;-0.036627766;0.15759754;0
339;1707900318;-0.31159472;0.57572514;0.2754109;0.7039763;0.06376502;-0.032965843;0.1851902;0
340;1707916985;-0.3115719;0.5756182;0.27579007;0.7039254;0.003290496;-0.011824003;0.16286182;0
341;1707933652;-0.3115809;0.5754739;0.27624223;0.70386195;-0.013667922;-0.031983446;0.18518448;0
342;1707950319;-0.3116172;0.5753845;0.27664018;0.70376265;-0.014220281;-0.047370136;0.18097019;0
343;1707966986;-0.31150714;0.5754102;0.27688032;0.703696;0.09341738;-0.09061056;0.21868801;0
344;1707983653;-0.3113215;0.57546264;0.27698842;0.7036926;0.12115609;-0.008164133;0.18649769;0
345;1708000320;-0.31125543;0.5754025;0.2772131;0.70368266;0.11483511;0.04075376;0.18985367;0
346;1708016987;-0.31129396;0.57525474;0.27746612;0.70368683;0.1304794;-0.027362373;0.1868391;0
347;1708033654;-0.3114124;0.5750867;0.27773932;0.70366395;0.059788097;-0.030731663;0.18664837;0
348;1708050321;-0.31155312;0.57492054;0.27801207;0.70362973;0.013052409;-0.014366994;0.18732548;0
349;1708066988;-0.3116317;0.57480985;0.27820843;0.7036076;0.011766443;-0.046010282;0.18187237;0
350;1708083655;-0.31171283;0.57469475;0.27842847;0.70357877;0.005166988;-0.071493074;0.18335819;0
351;1708100322;-0.31173182;0.574621;0.278535;0.70358837;0.040831495;-0.07900001;0.18029118;0
352;1708116989;-0.31174403;0.57457715;0.27861956;0.7035852;0.064991035;-0.02809555;0.20479965;0
353;1708133656;-0.31180644;0.5744924;0.27874961;0.7035754;0.055969078;-0.013296283;0.20878696;0
354;1708150323;-0.3118644;0.57439643;0.27883238;0.70359516;0.04712971;-0.07241219;0.20463085;0
355;1708166990;-0.3119737;0.574243;0.2789568;0.7036226;0.014761637;-0.07368524;0.19658661;0
356;1708183657;-0.31208503;0.5740787;0.27908304;0.7036573;0.03508842;-0.06522449;0.18162441;0
357;1708200324;-0.31218022;0.57394487;0.27923548;0.7036637;0.028848335;-0.041016333;0.19744587;0
358;1708216991;-0.31228483;0.57377166;0.27939916;0.7036937;0.04021608;-0.058953304;0.20977306;0
359;1708233658;-0.3123238;0.57363635;0.27948824;0.7037513;0.020387985;-0.0935497;0.20367146;0
360;1708250325;-0.31231907;0.57352644;0.27953625;0.7038239;0.005886931;-0.07991098;0.18051529;0
361;1708266992;-0.31234777;0.57338995;0.2796571;0.70387423;0.033789214;-0.08569755;0.17227554;0
362;1708283659;-0.31234574;0.57329553;0.27977726;0.7039043;0.050041012;-0.08178577;0.19102573;0
363;1708300326;-0.31231448;0.5732222;0.2798732;0.70393974;0.003317324;-0.07448787;0.22289753;0
364;1708316993;-0.3122239;0.5731957;0.2799277;0.70397997;-0.036312103;-0.047470324;0.23873425;0
365;1708333660;-0.31210285;0.5731702;0.27997378;0.70403594;0.006910801;-0.07889315;0.18537712;0
366;1708350327;-0.31206754;0.57311046;0.28010243;0.704049;0.038752664;-0.015389705;0.15236855;0
367;1708366994;-0.3120494;0.5730581;0.28028905;0.7040255;0.035573594;0.04820504;0.1879816;0
368;1708383661;-0.31198603;0.57302773;0.28046238;0.70400923;0.028071882;-0.02013318;0.18438148;0
369;1708400328;-0.3118182;0.57301074;0.2805225;0.7040735;0.023924436;-0.07330879;0.18548393;0
370;1708416995;-0.311673;0.57299405;0.28053528;0.70414627;0.008684099;-0.043132048;0.15832138;0
371;1708433662;-0.311589;0.57299024;0.2806349;0.70414686;-0.01598085;0.026930684;0.16099453;0
372;1708450329;-0.3116232;0.5729323;0.28090104;0.7040727;-0.014430005;0.020279443;0.16111183;0
373;1708466996;-0.31165442;0.57288325;0.28114262;0.7040025;0.011985337;-0.023613557;0.18193626;0
374;1708483663;-0.3116085;0.57288;0.28126878;0.70397496;0.024233852;0.00246546;0.20768929;0
375;1708500330;-0.31160456;0.57285386;0.28138822;0.70395017;0.040853832;0.003110295;0.22291946;0
376;1708516997;-0.31172705;0.57277614;0.2816449;0.70385665;0.0447787;-0.031199949;0.22089863;0
377;1708533664;-0.31185812;0.57272995;0.28188065;0.7037419;0.0528381;-0.09156935;0.22714233;0
378;1708550331;-0.31188518;0.57278407;0.28199318;0.70364076;0.03316852;-0.07610974;0.18436432;0
379;1708566998;-0.31176698;0.57297724;0.2819541;0.7035515;0.07282629;-0.06750555;0.20792007;0
380;1708583665;-0.31164286;0.57316047;0.2818718;0.70349026;0.07390919;-0.026154732;0.21289062;0
381;1708600332;-0.31167126;0.57324517;0.2819354;0.703383;0.013719386;0.022224257;0.19377136;0
382;1708616999;-0.31179747;0.573239;0.2820862;0.70327175;0.061949898;0.019861137;0.21154594;0
383;1708633666;-0.31195268;0.5731983;0.28227243;0.7031613;0.001771869;0.006043092;0.17924786;0
384;1708650333;-0.31209916;0.57319295;0.2824537;0.7030278;-0.017896274;-0.023116715;0.18228722;0
385;1708667000;-0.31220934;0.5732256;0.2825623;0.7029086;0.002054731;-0.06325263;0.18814182;0
386;1708683667;-0.3122719;0.5732856;0.28262815;0.7028055;0.028189838;-0.047051825;0.2139988;0
387;1708700334;-0.3123063;0.57330716;0.28267896;0.70275223;0.045925613;-0.028569706;0.23876953;0
388;1708717001;-0.3123786;0.5732893;0.28271583;0.7027197;0.07211357;-0.02182632;0.23453808;0
389;1708733668;-0.31245065;0.5732619;0.2827319;0.7027036;0.054646;-0.01134197;0.20750427;0
390;1708750335;-0.31255105;0.5732228;0.28277963;0.7026716;0.041958313;-0.042039853;0.17850304;0
391;1708767002;-0.31262374;0.5732117;0.2828048;0.7026383;0.004358261;-0.059879486;0.17636967;0
392;1708783669;-0.31265634;0.57321817;0.2827525;0.7026396;0.05926064;-0.08436055;0.19326973;0
393;1708800336;-0.31264517;0.57325065;0.28267232;0.70265025;0.0555267;-0.060242645;0.21703434;0
394;1708817003;-0.3126089;0.57326126;0.28254896;0.70270723;0.085683495;-0.07965432;0.23184681;0
395;1708833670;-0.31260097;0.5732448;0.28246364;0.7027586;0.051263228;-0.06709621;0.21624851;0
396;1708850337;-0.3125937;0.57323915;0.2823767;0.7028013;-0.009054224;-0.06174495;0.21325397;0
397;1708867004;-0.31253716;0.57327425;0.28226388;0.7028431;-0.025687031;-0.056576073;0.1947937;0
398;1708883671;-0.31241363;0.5733265;0.28211066;0.702917;-0.014060602;-0.07042564;0.20040417;0
399;1708900338;-0.31226718;0.57337373;0.28198728;0.70299315;0.003742952;-0.055417188;0.17862701;0
400;1708917005;-0.31210056;0.5734037;0.28184995;0.7030977;-0.002952868;-0.031668153;0.20212078;0
401;1708933672;-0.3119359;0.5734419;0.2817275;0.70318854;-0.010725332;-0.027609605;0.14375019;0
402;1708950339;-0.3117987;0.57349265;0.28169358;0.70322156;-0.005719301;-0.045163196;0.17326832;0
403;1708967006;-0.31161705;0.57355803;0.28153196;0.7033136;0.04977102;-0.04356086;0.19935894;0
404;1708983673;-0.31145394;0.573599;0.28140655;0.7034027;0.07177707;-0.0252238;0.18239307;0
405;1709000340;-0.3113585;0.57357144;0.2813484;0.7034905;0.05894165;-0.022814889;0.19831085;0
406;1709017007;-0.3113251;0.5735209;0.28134832;0.7035465;0.020940157;-0.023161447;0.1864214;0
407;1709033674;-0.31129822;0.5735208;0.2813568;0.7035552;0.00144848;-0.06411656;0.18484497;0
408;1709050341;-0.31118727;0.5736042;0.28126937;0.70357126;-0.005225791;-0.056937132;0.18984985;0
409;1709067008;-0.31109926;0.57369727;0.28121403;0.7035564;0.005922586;-0.035579275;0.18957615;0
410;1709083675;-0.31101453;0.5738257;0.28116658;0.7035082;0.018966222;-0.041815165;0.18654919;0
411;1709100342;-0.3108978;0.57400304;0.2811137;0.7034362;-0.007698176;-0.043458574;0.24530125;0
412;1709117009;-0.31076992;0.57420325;0.2810199;0.7033668;-0.003246356;0.004048378;0.24517345;0
413;1709133676;-0.3106035;0.5744139;0.28090292;0.703315;0.028944803;0.015188152;0.20186329;0
414;1709150343;-0.3104912;0.57460093;0.28079295;0.7032557;0.09198;-0.012621637;0.15479946;0
415;1709167010;-0.31038272;0.5747751;0.28069225;0.7032015;0.04865452;0.038048945;0.18865967;0
416;1709183677;-0.3102094;0.5749851;0.28052497;0.7031731;0.022312861;-0.013668516;0.17998981;0
417;1709200344;-0.31001008;0.57522386;0.28032637;0.703145;-0.012614472;0.021469928;0.14266014;0
418;1709217011;-0.30988312;0.5754054;0.28020307;0.7031014;-0.01803243;0.05433315;0.15953541;0
419;1709233678;-0.30992687;0.5754924;0.28021175;0.7030076;-0.00889366;0.056001086;0.18702602;0
420;1709250345;-0.31001374;0.57553947;0.28023016;0.70292336;0.04046394;0.037126146;0.18501854;0
421;1709267012;-0.31004855;0.57560307;0.2801885;0.70287246;0.015228549;-0.055223513;0.1817646;0
422;1709283679;-0.31003794;0.57565886;0.2801112;0.70286226;0.020470465;-0.06624265;0.21292591;0
423;1709300346;-0.31004795;0.5756984;0.28001386;0.7028642;0.002708032;-0.013904713;0.18985939;0
424;1709317013;-0.31005976;0.57574916;0.27992335;0.70285344;-0.021309238;-0.03408578;0.22178555;0
425;1709333680;-0.31007016;0.57581556;0.2798425;0.7028266;0.009437454;-0.05506583;0.20857811;0
426;1709350347;-0.31002414;0.57591397;0.27975246;0.7028021;-0.00935203;-0.07636524;0.19933414;0
427;1709367014;-0.30992398;0.5760696;0.27961758;0.70277244;0.03532534;-0.067879096;0.19400501;0
428;1709383681;-0.30991796;0.5761163;0.27957729;0.702753;0.06813144;-0.053166162;0.19354057;0
429;1709400348;-0.3099048;0.5761561;0.2794993;0.70275706;0.06208592;-0.045316525;0.20157433;0
430;1709417015;-0.3098637;0.57618856;0.27940673;0.7027855;0.016310478;0.010037911;0.19692802;0
431;1709433682;-0.3098226;0.5761973;0.27941895;0.70279163;-0.06433963;-0.024084527;0.18350029;0
432;1709450349;-0.30982673;0.5762005;0.2794876;0.70275986;-0.041678816;-0.049017116;0.15003109;0
433;1709467016;-0.3098153;0.5762111;0.27960047;0.7027113;-0.044927098;-0.06511958;0.16600132;0
434;1709483683;-0.30982643;0.57620543;0.27973366;0.7026581;-0.008978053;0.03731099;0.21174717;0
435;1709500350;-0.3098518;0.5761206;0.27988395;0.7026563;0.04478981;0.06359013;0.2153225;0
436;1709517017;-0.30996227;0.5759569;0.28013295;0.70264274;0.06233868;0.002575903;0.20127773;0
437;1709533684;-0.3100901;0.5757592;0.28041172;0.70263714;0.032474857;-0.002922376;0.19276142;0
438;1709550351;-0.31018814;0.5755554;0.28064966;0.70266604;-0.015526247;-0.02531572;0.19125462;0
439;1709567018;-0.31019148;0.5754069;0.2808019;0.70272523;-0.002825843;-0.051868137;0.17322445;0
440;1709583685;-0.31013262;0.5753225;0.28087983;0.70278925;0.006205411;-0.07069377;0.16794395;0
441;1709600352;-0.31007156;0.5752622;0.2809429;0.7028402;0.022093821;-0.07767043;0.17585278;0
442;1709617019;-0.3099664;0.5752677;0.28099725;0.7028605;0.021117069;-0.08446898;0.21219921;0
443;1709633686;-0.30985603;0.57526904;0.2809885;0.70291144;0.043200858;-0.07117083;0.20570087;0
444;1709650353;-0.3097386;0.5752966;0.2809481;0.7029568;0.038146097;-0.036064878;0.18701077;0
445;1709667020;-0.3096642;0.57531804;0.2809668;0.7029646;-0.002730177;-0.040052794;0.16059875;0
446;1709683687;-0.30957508;0.57538766;0.28097767;0.70294255;-0.064186834;-0.032871686;0.14316654;0
447;1709700354;-0.3094907;0.5754646;0.28101492;0.7029017;-0.037652437;-0.034321755;0.16854954;0
448;1709717021;-0.3094449;0.5754896;0.2810511;0.702887;0.004799842;-0.06457786;0.19176865;0
449;1709733688;-0.3094005;0.5755189;0.28112042;0.7028549;-0.033387393;-0.01811525;0.19220066;0
450;1709750355;-0.30935705;0.57556283;0.28119195;0.7028095;-0.013584243;-0.030171288;0.22353554;0
451;1709767022;-0.30932045;0.57557607;0.28128523;0.7027774;-0.016763503;-0.042178627;0.20004368;0
452;1709783689;-0.30929053;0.5756084;0.28139886;0.7027186;-0.055330407;-0.06640019;0.17973328;0
453;1709800356;-0.3092554;0.5756667;0.2815388;0.7026303;-0.024440272;-0.04822052;0.1821289;0
454;1709817023;-0.30920592;0.5757301;0.2816687;0.70254797;-0.048784208;-0.047355466;0.1554203;0
455;1709833690;-0.3091453;0.5758091;0.28177428;0.70246756;-0.05383398;-0.031198023;0.15418911;0
456;1709850357;-0.30911797;0.5758607;0.28196788;0.70235956;-0.01610501;-0.038857337;0.1761465;0
457;1709867024;-0.30909204;0.57586783;0.28221846;0.7022645;-0.00660463;-0.05481696;0.23179436;0
458;1709883691;-0.3090403;0.57593644;0.28243974;0.70214206;-0.02086397;-0.039397065;0.20361423;0
459;1709900358;-0.3090375;0.57597023;0.2826851;0.70201683;0.10334222;-0.028830992;0.23572826;0
460;1709917025;-0.30907014;0.57596487;0.28299144;0.7018834;0.08698216;-0.004849365;0.23748112;0
461;1709933692;-0.3090435;0.5759981;0.2832524;0.70176256;0.045999717;-0.043907918;0.19531345;0
462;1709950359;-0.30892384;0.57606393;0.28341964;0.70169383;0.002262715;-0.08039971;0.18008041;0
463;1709967026;-0.30880582;0.57613605;0.28356242;0.70162874;-0.021973824;-0.037954345;0.17837715;0
464;1709983693;-0.3087287;0.5762105;0.28368533;0.70155185;0.018384488;-0.002521031;0.18212223;0
465;1710000360;-0.30877197;0.5762105;0.28388348;0.70145273;0.048765045;0.006040466;0.16820431;0
466;1710017027;-0.30887148;0.57619447;0.28410605;0.701332;0.07580222;-0.021010442;0.17099857;0
467;1710033694;-0.30895057;0.5761481;0.2842576;0.70127386;0.08144794;-0.062370397;0.17805672;0
468;1710050361;-0.30903122;0.5761282;0.28433418;0.7012235;0.03101301;-0.04010669;0.17941952;0
469;1710067028;-0.30908453;0.57614225;0.2842875;0.7012074;0.05641416;-0.017170098;0.22978115;0
470;1710083695;-0.30916622;0.5761542;0.28422365;0.7011875;0.094696306;-0.050046757;0.25384426;0
471;1710100362;-0.3092447;0.57618725;0.2841466;0.7011569;0.082347;-0.032460004;0.2373333;0
472;1710117029;-0.30934334;0.57619137;0.28409728;0.70113003;0.08362708;-0.043658536;0.23960495;0
473;1710133696;-0.30947337;0.57616454;0.28401262;0.701129;0.07220891;-0.05759574;0.2063551;0
474;1710150363;-0.30964118;0.5761366;0.2839578;0.7011002;0.036893953;-0.03646092;0.18401527;0
475;1710167030;-0.30972245;0.576161;0.28379533;0.7011099;0.08738483;-0.04044657;0.22189808;0
476;1710183697;-0.309762;0.57618046;0.28366587;0.7011289;0.028099595;-0.005458969;0.18522453;0
477;1710200364;-0.309802;0.57615757;0.28353488;0.70118296;0.056126423;-0.010993149;0.18650055;0
478;1710217031;-0.30991575;0.57603776;0.28348553;0.7012512;0.04576941;-0.04443077;0.18689632;0
479;1710233698;-0.31004736;0.57590526;0.28349823;0.7012965;0.024707144;-0.074223034;0.20944214;0
480;1710250365;-0.3101465;0.5757897;0.28348824;0.70135176;0.014445012;-0.056586355;0.24207783;0
481;1710267032;-0.3101945;0.57570875;0.28346285;0.7014071;8.27E-04;-0.033491936;0.20570278;0
482;1710283699;-0.31016505;0.5756827;0.28340405;0.70146537;0.028610555;-0.043586254;0.18023968;0
483;1710300366;-0.3101705;0.57560104;0.28343406;0.70151764;0.026531199;-0.02896172;0.16714191;0
484;1710317033;-0.31022346;0.5754859;0.28354067;0.70154566;0.036285058;-0.0429683;0.16019726;0
485;1710333700;-0.31025606;0.57539356;0.28360084;0.7015827;0.06650501;-0.022919213;0.18335342;0
486;1710350367;-0.31027922;0.57530594;0.28361806;0.7016375;0.07593657;-0.016400207;0.18128681;0
487;1710367034;-0.31026956;0.57522315;0.2836596;0.7016927;0.017678631;-0.038310457;0.17050838;0
488;1710383701;-0.3103101;0.57509667;0.28371495;0.70175594;-3.73E-04;-0.01938701;0.14975262;0
489;1710400368;-0.3103829;0.5749866;0.28382444;0.7017697;-0.018314397;-0.02217416;0.16796207;0
490;1710417035;-0.31045592;0.57490975;0.28393865;0.7017543;0.02275;-0.017720386;0.18026447;0
491;1710433702;-0.31041074;0.5749528;0.28388217;0.70176184;0.047608446;-0.02591669;0.2195673;0
492;1710450369;-0.3103221;0.5750191;0.28372058;0.7018121;0.05015427;0.020180538;0.22050476;0
493;1710467036;-0.31035334;0.5749855;0.28368646;0.70183945;0.0667645;0.03909493;0.19485474;0
494;1710483703;-0.31052017;0.5748797;0.2837973;0.70180756;0.030628053;-0.004345818;0.18564987;0
495;1710500370;-0.31069946;0.5748048;0.28390753;0.70174503;0.013961136;-0.04566529;0.16191769;0
496;1710517037;-0.31079024;0.57483226;0.28392342;0.70167595;-0.017023806;-0.04672326;0.16846085;0
497;1710533704;-0.31085467;0.5749051;0.28382498;0.7016276;0.026465366;-0.010621307;0.18673134;0
498;1710550371;-0.3109203;0.5749698;0.28374216;0.7015789;0.04985417;0.002787402;0.19581509;0
499;1710567038;-0.31108192;0.5749659;0.28379014;0.70149106;0.03328845;-0.00592734;0.20838928;0
500;1710583705;-0.3112907;0.57494617;0.28387544;0.7013802;0.022021793;0.002750355;0.18778801;0
501;1710600372;-0.31149453;0.5749649;0.28395313;0.70124274;0.001601075;-0.03679057;0.1941452;0
502;1710617039;-0.311663;0.5750032;0.28392196;0.7011492;0.03496325;-0.04056587;0.18688202;0
503;1710633706;-0.3118374;0.5750386;0.2838839;0.7010579;0.022858532;-0.029640947;0.22170639;0
504;1710650373;-0.3120359;0.5750385;0.28391874;0.7009557;-0.001737452;0.007479414;0.2561655;0
505;1710667040;-0.31225827;0.57502186;0.2840121;0.7008325;0.017403161;-0.015977796;0.20287609;0
506;1710683707;-0.31247276;0.57502997;0.28408316;0.7007014;0.08400018;-0.06359059;0.19379139;0
507;1710700374;-0.31263793;0.5750848;0.28409535;0.7005776;0.040891115;-0.022027314;0.19675446;0
508;1710717041;-0.31271785;0.5751859;0.2840088;0.7004941;0.014880747;-0.015955025;0.18518353;0
509;1710733708;-0.31276938;0.57528347;0.2839543;0.7004131;0.015478597;0.019121477;0.15534401;0
510;1710750375;-0.31290588;0.5752926;0.28398257;0.70033324;-0.01208985;0.019471778;0.1568842;0
511;1710767042;-0.31311777;0.57527286;0.28406203;0.70022243;0.008498109;0.006171193;0.15763283;0
512;1710783709;-0.31336296;0.57526356;0.28420287;0.70006335;-0.004738982;-7.36E-04;0.16731262;0
513;1710800376;-0.3135173;0.57526326;0.2842253;0.6999852;0.03887318;-0.0395419;0.1941824;0
514;1710817043;-0.31362998;0.57526016;0.2841792;0.69995594;0.02984461;-0.043488245;0.20604801;0
515;1710833710;-0.31374454;0.5752169;0.2841662;0.69994545;0.002250948;0.001199929;0.2044239;0
516;1710850377;-0.3139597;0.575109;0.28426805;0.6998964;0.014618389;-0.017095333;0.22129536;0
517;1710867044;-0.31415772;0.5750345;0.28437442;0.69982547;0.026695926;-0.04310006;0.22208023;0
518;1710883711;-0.31432673;0.5749677;0.28442445;0.6997842;0.07301336;-0.07449156;0.21503353;0
519;1710900378;-0.31443512;0.57492495;0.2844423;0.69976336;0.053425606;-0.07146765;0.1862669;0
520;1710917045;-0.31459016;0.5748536;0.2845074;0.69972587;0.046862155;-0.06771289;0.18929958;0
521;1710933712;-0.31465048;0.57480234;0.28454697;0.6997246;0.015032294;-0.07859752;0.1566248;0
522;1710950379;-0.3146982;0.5747745;0.2845492;0.69972515;0.01400174;-0.07017928;0.19124126;0
523;1710967046;-0.31467137;0.5747796;0.28447527;0.69976306;0.055241764;-4.67E-04;0.18100739;0
524;1710983713;-0.3146997;0.57469976;0.28451613;0.69979936;0.002138278;0.020734012;0.19604874;0
525;1711000380;-0.31478474;0.57455033;0.28463852;0.699834;0.03186597;-0.05156567;0.19373703;0
526;1711017047;-0.31485513;0.5743732;0.28474575;0.6999042;0.013081657;-0.0673007;0.19392586;0
527;1711033714;-0.31496942;0.5741987;0.28492942;0.69992125;-0.06027979;-0.051186647;0.21391678;0
528;1711050381;-0.3150743;0.5740362;0.28512207;0.6999289;-0.023119604;-0.031958245;0.22114563;0
529;1711067048;-0.31513;0.57390875;0.2852951;0.6999378;0.05040609;-0.073969014;0.20314121;0
530;1711083715;-0.3151362;0.5738034;0.28535295;0.6999978;0.077404924;-0.066667095;0.18194103;0
531;1711100382;-0.3151614;0.573687;0.28541598;0.70005614;0.0569738;-0.036767125;0.15704632;0
532;1711117049;-0.31522694;0.5735438;0.28557473;0.7000792;-0.006929623;-0.029343143;0.17244244;0
533;1711133716;-0.3153625;0.5733929;0.28576997;0.7000621;-0.010446388;-0.06640559;0.17485046;0
534;1711150383;-0.3154961;0.5733083;0.28594854;0.6999983;0.010078519;-0.044552866;0.17831612;0
535;1711167050;-0.31560373;0.57325613;0.28605482;0.69994915;0.058102805;-0.011065763;0.21743679;0
536;1711183717;-0.31566098;0.5732273;0.28605047;0.6999484;0.09491519;0.009011819;0.23042965;0
537;1711200384;-0.31574264;0.5731898;0.28602186;0.69995403;0.13794911;-0.020597892;0.23128033;0
538;1711217051;-0.31586638;0.573139;0.28604126;0.699932;0.023998076;-0.014864561;0.1828165;0
539;1711233718;-0.31608632;0.5730806;0.2861513;0.69983554;-0.02066493;-0.043294765;0.13852978;0
540;1711250385;-0.3162406;0.57312083;0.28616327;0.69972795;-0.01835161;-0.046763714;0.15372086;0
541;1711267052;-0.3163208;0.5732224;0.2860369;0.6996601;0.05960995;-0.03107266;0.19249249;0
542;1711283719;-0.3162392;0.5733825;0.28568867;0.6997083;0.06371154;-0.012922569;0.22337532;0
543;1711300386;-0.3162934;0.57341385;0.28547603;0.6997447;0.0351212;0.028772851;0.21704578;0
544;1711317053;-0.31651708;0.5733369;0.2854538;0.69971573;-0.020397779;-0.01997742;0.20608616;0
545;1711333720;-0.31685084;0.5732153;0.28554323;0.6996279;-0.014391025;-0.058000438;0.18482399;0
546;1711350387;-0.31705377;0.5732274;0.28551272;0.6995385;-0.072757125;-0.065384805;0.18492317;0
547;1711367054;-0.31714118;0.5733167;0.28539178;0.6994751;-0.041284006;-0.079892024;0.18532562;0
548;1711383721;-0.31723556;0.57337725;0.2853135;0.6994145;-0.006434696;-0.06352604;0.18523026;0
549;1711400388;-0.317498;0.5733086;0.28542832;0.69930476;-0.023255058;-0.011353509;0.18255424;0
550;1711417055;-0.31774855;0.5732098;0.28556672;0.69921553;0.005332465;-0.019837556;0.20760822;0
551;1711433722;-0.31789967;0.57315034;0.28561544;0.69917583;0.026895318;-0.05801262;0.19853115;0
552;1711450389;-0.31805938;0.57306933;0.2856573;0.6991523;-0.023430172;-0.100353226;0.17857265;0
553;1711467056;-0.31823134;0.5730169;0.2857331;0.699086;0.003343238;-0.10437371;0.1939764;0
554;1711483723;-0.31834233;0.5729996;0.28575096;0.69904226;0.013817919;-0.08860378;0.19015694;0
555;1711500390;-0.31843176;0.5730338;0.2857564;0.6989713;0.03659527;-0.040592134;0.22173691;0
556;1711517057;-0.31843087;0.5731271;0.28572646;0.6989074;0.039596453;0.006432395;0.21510696;0
557;1711533724;-0.31850863;0.57314646;0.28579357;0.6988288;0.10164525;-0.050467998;0.1742363;0
558;1711550391;-0.31863508;0.57314044;0.28590846;0.69872916;0.11666192;-0.046459906;0.17905521;0
559;1711567058;-0.31867778;0.57316417;0.2859124;0.69868845;0.08090915;-0.072687335;0.22249603;0
560;1711583725;-0.31855693;0.5732818;0.28577086;0.69870496;0.07382166;-0.076522395;0.18147087;0
561;1711600392;-0.3184523;0.5733964;0.28564698;0.6987094;0.05454408;0.016532807;0.19647312;0
562;1711617059;-0.3184396;0.57343113;0.28564826;0.6986862;0.015520418;0.052809574;0.16842556;0
563;1711633726;-0.31856135;0.57337546;0.28578782;0.6986193;0.01462278;0.0164498;0.15524197;0
564;1711650393;-0.31864977;0.57331103;0.2859159;0.69857943;0.02988694;9.64E-04;0.1728878;0
565;1711667060;-0.31868714;0.5732331;0.2859065;0.6986302;0.08127647;-0.05638064;0.16147995;0
566;1711683727;-0.31865293;0.573181;0.28580707;0.69872934;0.05034375;-0.027541993;0.14441013;0
567;1711700394;-0.31865934;0.57311356;0.28575224;0.69880414;-0.013071726;-0.006442593;0.18097782;0
568;1711717061;-0.31874907;0.57301265;0.28577435;0.6988368;0.023800697;-0.024030631;0.20500278;0
569;1711733728;-0.31872934;0.5729638;0.2857181;0.6989088;0.03845533;-0.06693003;0.21841717;0
570;1711750395;-0.3187063;0.5729283;0.2856351;0.69898236;0.09076349;-0.01790836;0.23222828;0
571;1711767062;-0.31868955;0.57286245;0.2855333;0.69908565;0.07399675;0.028797543;0.20315075;0
572;1711783729;-0.31869963;0.5727747;0.28550738;0.6991634;0.027817857;-0.03154662;0.16401577;0
573;1711800396;-0.31878874;0.5726349;0.28557003;0.6992117;0.012686529;-0.07869385;0.14690399;0
574;1711817063;-0.3187489;0.5726003;0.28546467;0.6993013;0.042270683;-0.034211926;0.1798811;0
575;1711833730;-0.31863225;0.57261604;0.28528783;0.69941366;0.049933918;0.03844272;0.1808672;0
576;1711850397;-0.31858277;0.57255393;0.28520173;0.6995222;0.048029993;0.006381546;0.19132233;0
577;1711867064;-0.31860465;0.5724262;0.28523648;0.6996026;0.03831346;-0.029437046;0.19544983;0
578;1711883731;-0.31865957;0.57230216;0.2852601;0.6996695;0.056954555;-0.042242244;0.214221;0
579;1711900398;-0.31866533;0.57221675;0.28523928;0.6997451;0.010851942;-0.04751455;0.19367313;0
580;1711917065;-0.3186414;0.5721738;0.2852315;0.6997943;0.03471978;-0.026007632;0.18338394;0
581;1711933732;-0.3185868;0.57216835;0.28516743;0.69984967;0.0788624;0.007154678;0.21754265;0
582;1711950399;-0.3185296;0.57215637;0.28506404;0.6999278;0.09785346;0.021719843;0.22133827;0
583;1711967066;-0.31858602;0.57207376;0.28504366;0.69997776;0.08051281;0.005032562;0.20291042;0
584;1711983733;-0.3186489;0.57197076;0.28506526;0.70002466;0.04992021;-0.028061632;0.19381428;0
585;1712000400;-0.31874517;0.5718812;0.28513736;0.70002455;0.00610196;-0.03870222;0.16370487;0
586;1712017067;-0.31882605;0.57182646;0.2851828;0.70001405;0.01053681;-0.028266342;0.1784544;0
587;1712033734;-0.31887987;0.5717929;0.28513658;0.7000357;0.02522164;0.014525106;0.17108631;0
588;1712050401;-0.31895512;0.5717274;0.28515238;0.7000485;0.009003332;0.02618457;0.17954254;0
589;1712067068;-0.31901184;0.57164466;0.28519058;0.7000746;0.022122765;0.011074844;0.18724728;0
590;1712083735;-0.31918025;0.57151544;0.28534222;0.7000416;0.004802953;-0.027375197;0.18558311;0
591;1712100402;-0.31932843;0.571431;0.2854732;0.6999895;0.008597414;-0.067800194;0.19148827;0
592;1712117069;-0.31939477;0.57141536;0.28553164;0.6999482;-0.021000067;-0.07257016;0.19093895;0
593;1712133736;-0.31940037;0.5714275;0.28555766;0.69992495;0.003672334;-0.0326703;0.1941719;0
594;1712150403;-0.3194291;0.57139635;0.28551105;0.69995636;0.10490045;0.011251084;0.21783543;0
595;1712167070;-0.3195254;0.5712924;0.28553882;0.69998586;0.08334821;0.019144444;0.21522522;0
596;1712183737;-0.31980038;0.5710494;0.28575805;0.69996905;0.012436276;-2.78E-04;0.1919241;0
597;1712200404;-0.32009882;0.57081646;0.2860195;0.6999159;-0.042014506;-0.07160708;0.18264389;0
598;1712217071;-0.32029313;0.57069963;0.28618103;0.69985634;-0.10095527;-0.11886124;0.15032387;0
599;1712233738;-0.32034737;0.5707465;0.28622106;0.699777;-0.061294697;-0.12191405;0.1520729;0
600;1712250405;-0.3202129;0.57090557;0.28611532;0.6997521;0.00763759;-0.09206757;0.2072773;0
601;1712267072;-0.32000336;0.5711126;0.28594193;0.6997498;0.09763356;-0.063715585;0.21754551;0
602;1712283739;-0.31990007;0.5712477;0.2858641;0.69971865;0.10228383;-0.01898318;0.2120676;0
603;1712300406;-0.31994587;0.57126397;0.28594127;0.69965273;0.100278616;-0.05481806;0.22771645;0
604;1712317073;-0.32006517;0.5712231;0.28609565;0.6995685;0.062585816;-0.09871518;0.18301201;0
605;1712333740;-0.32008705;0.57125074;0.2861909;0.699497;0.010694481;-0.10022913;0.1674242;0
606;1712350407;-0.32005852;0.57135546;0.28625512;0.69939816;-0.055323474;-0.089922324;0.1345501;0
607;1712367074;-0.31993893;0.5715622;0.2862841;0.6992723;-0.010995076;-0.07293588;0.15838146;0
608;1712383741;-0.31971282;0.57181305;0.28618;0.6992131;0.06793756;-0.10508402;0.19127274;0
609;1712400408;-0.3194454;0.57209384;0.28596804;0.6991924;0.057060786;-0.08328543;0.23756981;0
610;1712417075;-0.3192215;0.572312;0.28584442;0.69916666;0.048306465;0.038067777;0.26440144;0
611;1712433742;-0.31916228;0.5723993;0.2859385;0.6990836;0.03289261;0.027923698;0.20845222;0
612;1712450409;-0.3192102;0.57246923;0.2861766;0.698907;0.015078315;-0.07093963;0.16945553;0
613;1712467076;-0.3191384;0.5726105;0.2863097;0.69876957;-0.017394947;-0.07917894;0.19830322;0
614;1712483743;-0.3188389;0.5728876;0.2862044;0.69872236;0.022134153;-0.11955035;0.17163944;0
615;1712500410;-0.31836003;0.5732134;0.28594494;0.6987799;0.065732636;0.002568443;0.16828442;0
616;1712517077;-0.3181222;0.57338274;0.28581542;0.69880223;0.074207984;0.06595764;0.15947723;0
617;1712533744;-0.31811944;0.5733966;0.2859343;0.6987434;0.004221059;0.073576555;0.16548729;0
618;1712550411;-0.31827047;0.57332915;0.28623724;0.69860595;-0.030740833;-0.0192719;0.14615917;0
619;1712567078;-0.3182744;0.57333106;0.286386;0.6985414;-0.035636116;-0.11554442;0.16194057;0
620;1712583745;-0.31810248;0.5734516;0.28633195;0.6985429;-0.032924283;-0.09789261;0.16226101;0
621;1712600412;-0.3178881;0.5736343;0.28619805;0.6985455;0.022334836;-0.01609648;0.21792412;0
622;1712617079;-0.3177777;0.573744;0.2861827;0.69851196;0.02537542;0.003271978;0.2281208;0
623;1712633746;-0.3177838;0.57378775;0.28625256;0.69844466;0.07528813;-0.039505187;0.26315594;0
624;1712650413;-0.31779468;0.57381624;0.28620902;0.6984341;0.09182406;-0.05792872;0.24774551;0
625;1712667080;-0.3177969;0.57389075;0.28615874;0.6983924;0.058096122;-0.012125131;0.21327686;0
626;1712683747;-0.3177823;0.57395166;0.2861294;0.69836104;0.031303916;-0.02089441;0.19328213;0
627;1712700414;-0.3178223;0.5739826;0.28615427;0.6983073;0.019442163;-0.09637683;0.15660667;0
628;1712717081;-0.317725;0.57414865;0.2860359;0.69826347;0.024924748;-0.10238257;0.17509079;0
629;1712733748;-0.31750447;0.5743816;0.28576297;0.698284;0.047352694;-0.027240725;0.1975832;0
630;1712750415;-0.31725898;0.5746111;0.28544286;0.6983377;0.027935082;0.016224386;0.19126701;0
631;1712767082;-0.31716156;0.5746788;0.28524214;0.6984084;0.050919566;0.005206427;0.22907734;0
632;1712783749;-0.31716514;0.57467;0.28517398;0.6984417;0.028280245;0.015530937;0.23198223;0
633;1712800416;-0.31723678;0.57461077;0.2852521;0.69842595;0.0245986;-0.03089424;0.2508192;0
634;1712817083;-0.3172878;0.57458246;0.28523982;0.6984311;0.048550114;-0.14353785;0.21421623;0
635;1712833750;-0.3171805;0.5746875;0.2850574;0.69846785;0.07753084;-0.09061102;0.21739483;0
636;1712850417;-0.3170193;0.5747759;0.28481036;0.6985692;0.09591361;-0.014712729;0.19389725;0
637;1712867084;-0.3169132;0.5748012;0.28464216;0.698665;0.0994845;-0.023230512;0.17605972;0
638;1712883751;-0.3168036;0.5748147;0.284464;0.6987762;0.12223271;-0.055300876;0.20207405;0
639;1712900418;-0.3166879;0.5748066;0.2841687;0.6989554;0.118165135;-0.021941485;0.21411133;0
640;1712917085;-0.31654283;0.5747797;0.28384417;0.6991751;0.098334335;-0.008280568;0.22936249;0
641;1712933752;-0.3164962;0.57467973;0.28365844;0.69935364;0.05870233;0.018508438;0.21234608;0
642;1712950419;-0.3165455;0.5745105;0.2836046;0.6994923;0.035828456;-0.049337663;0.18806744;0
643;1712967086;-0.31655318;0.57438064;0.2835374;0.6996227;-0.024445724;-0.06935417;0.17535496;0
644;1712983753;-0.31648016;0.5743035;0.28343073;0.6997621;-0.05590867;-0.053858966;0.14425278;0
645;1713000420;-0.31643367;0.5742428;0.2834642;0.6998195;-0.11874629;-0.060119927;0.1195097;0
646;1713017087;-0.31629956;0.5742749;0.28352407;0.6998296;-0.10942943;-0.067903936;0.08880234;0
647;1713033754;-0.31612793;0.5744197;0.28356612;0.6997713;-0.07964779;-0.036129415;0.09755802;0
648;1713050421;-0.31590635;0.5746758;0.28355974;0.6996636;-0.00350176;0.023469474;0.14055252;0
649;1713067088;-0.31563547;0.5749386;0.2834768;0.69960344;0.11548924;0.055187415;0.21167374;0
650;1713083755;-0.31541994;0.5750944;0.28334242;0.69962704;0.16569181;0.045706555;0.25028706;0
651;1713100422;-0.31537232;0.57507753;0.2833704;0.6996511;0.10253317;0.07828276;0.20609093;0
652;1713117089;-0.31543535;0.5749671;0.283522;0.69965214;0.019589545;0.0347484;0.18590832;0
653;1713133756;-0.31555384;0.5748497;0.2836549;0.6996411;0.023639966;-0.016166525;0.1754961;0
654;1713150423;-0.31564218;0.5748057;0.28371942;0.6996113;0.045476064;0.020651788;0.1934309;0
655;1713167090;-0.31557027;0.5748416;0.2835681;0.6996756;0.10476896;0.003376834;0.25120163;0
656;1713183757;-0.31564486;0.574777;0.2835326;0.6997093;0.1025566;0.01885452;0.20874119;0
657;1713200424;-0.31569234;0.5747131;0.28347573;0.6997635;0.075387076;-0.021562155;0.20303059;0
658;1713217091;-0.3158203;0.5746153;0.2834003;0.6998165;0.042922698;-0.0273593;0.15623474;0
659;1713233758;-0.31592467;0.5745821;0.2832608;0.6998532;0.01734789;-0.003836376;0.17412186;0
660;1713250425;-0.31603384;0.5745729;0.28314543;0.6998581;0.02746955;-5.92E-04;0.19724846;0
661;1713267092;-0.3161796;0.5745507;0.2830655;0.699843;0.01849152;-0.0081908;0.22226334;0
662;1713283759;-0.3163779;0.57451296;0.28301004;0.6998069;0.03675473;-0.039248206;0.17077923;0
663;1713300426;-0.3166301;0.5744342;0.28300685;0.6997586;0.11172524;-0.053878497;0.18458939;0
664;1713317093;-0.31676522;0.5744111;0.28290415;0.69975793;0.049245317;-0.003552291;0.21372128;0
665;1713333760;-0.3168518;0.57444507;0.28276336;0.6997477;0.027258279;-0.051550526;0.17575836;0
666;1713350427;-0.31679696;0.5745424;0.28254747;0.6997798;-0.00552659;-0.025186054;0.14842606;0
667;1713367094;-0.31693724;0.5745257;0.28250566;0.69974685;-0.006405592;0.00386398;0.15506077;0
668;1713383761;-0.31712285;0.5744725;0.28252548;0.6996986;0.045995593;-0.026529228;0.17366505;0
669;1713400428;-0.31726366;0.5744344;0.28253427;0.6996624;0.02161512;-0.055410396;0.16619778;0
670;1713417095;-0.31735337;0.5744018;0.28252023;0.69965404;0.019262107;-0.05279189;0.15679264;0
671;1713433762;-0.3172863;0.5744233;0.28237337;0.69972616;-0.00990331;-0.05655783;0.16278934;0
672;1713450429;-0.31742322;0.5743372;0.2824336;0.69971055;-0.026115568;-0.029048666;0.16731548;0
673;1713467096;-0.31752288;0.5742658;0.28252193;0.6996882;0.001135814;-0.03605222;0.20688629;0
674;1713483763;-0.31761748;0.57420284;0.2826399;0.69964933;0.008323504;-0.06936965;0.206913;0
675;1713500430;-0.31760952;0.5742108;0.28268722;0.6996272;0.008780549;-0.056563444;0.20993805;0
676;1713517097;-0.317589;0.57421684;0.28277308;0.699597;0.024211464;-0.06734535;0.18304253;0
677;1713533764;-0.31744194;0.57425666;0.28277686;0.69962955;0.026723988;-0.070199884;0.17368698;0
678;1713550431;-0.31733185;0.574232;0.2828093;0.69968647;0.05816155;-0.035286687;0.18241215;0
679;1713567098;-0.3173552;0.5741334;0.28293285;0.6997071;0.06066977;0.015413119;0.19782734;0
680;1713583765;-0.31728518;0.57406133;0.28308034;0.6997381;0.031317256;-1.81E-04;0.1907816;0
681;1713600432;-0.3171735;0.57398987;0.28322628;0.6997883;0.007630037;-0.079149485;0.16099453;0
682;1713617099;-0.31707084;0.57394975;0.28331503;0.6998318;0.031904206;-0.11671992;0.17361641;0
683;1713633766;-0.31696185;0.57392734;0.28337613;0.6998748;0.03441844;-0.03429644;0.20121193;0
684;1713650433;-0.31683;0.57388735;0.2833986;0.69995826;0.078738555;0.02673891;0.24424267;0
685;1713667100;-0.31683448;0.5737456;0.28353992;0.7000153;0.08590549;-0.006359129;0.21118832;0
686;1713683767;-0.31680357;0.57361627;0.283694;0.7000728;0.043802306;-0.026830886;0.21233559;0
687;1713700434;-0.3167866;0.573521;0.2838193;0.70010763;0.015119946;-0.057123456;0.17456436;0
688;1713717101;-0.31666183;0.5735213;0.28385007;0.70015144;0.002079532;-0.09015898;0.14535522;0
689;1713733768;-0.3164814;0.5735945;0.2838265;0.7001827;0.018028747;-0.07350531;0.18294811;0
690;1713750435;-0.31620008;0.5736774;0.28370014;0.700293;0.060061857;-0.010704958;0.1984787;0
691;1713767102;-0.31601986;0.57370245;0.28365368;0.7003727;0.0740678;0.035323177;0.24294853;0
692;1713783769;-0.31596577;0.57361495;0.28367564;0.7004598;0.09306715;0.045745336;0.21867085;0
693;1713800436;-0.3159472;0.5734883;0.28376856;0.7005343;0.03175169;0.007373637;0.21433067;0
694;1713817103;-0.31594086;0.573364;0.28387734;0.7005949;-0.028649474;-0.026665123;0.17507648;0
695;1713833770;-0.3159168;0.5733123;0.28395244;0.7006176;-0.009221038;-0.061433766;0.17231464;0
696;1713850437;-0.31577826;0.57335466;0.2839095;0.70066273;-0.008187507;-0.016190942;0.18655396;0
697;1713867104;-0.31570384;0.5733789;0.28390923;0.70067644;0.05579906;-0.003899826;0.20529842;0
698;1713883771;-0.3157075;0.57335854;0.28393784;0.70067996;0.11669318;-0.002617113;0.20249939;0
699;1713900438;-0.31572786;0.57333785;0.28395683;0.7006799;0.11604345;-0.010258462;0.22182846;0
700;1713917105;-0.31576005;0.57330054;0.28394058;0.7007024;0.071640976;-0.00718094;0.19804382;0
701;1713933772;-0.31587002;0.57324517;0.28397876;0.70068276;0.09488385;0.006179275;0.21183491;0
702;1713950439;-0.31601351;0.5731706;0.28405198;0.70064944;0.04830249;-0.008897883;0.18668175;0
703;1713967106;-0.3161359;0.5731311;0.28413877;0.70059127;0.030893413;-0.046889722;0.16831493;0
704;1713983773;-0.3162484;0.5731356;0.2842103;0.7005078;0.03717807;-0.08177707;0.16714859;0
705;1714000440;-0.3162701;0.5732354;0.28418902;0.7004249;0.05748711;-0.060494117;0.19590569;0
706;1714017107;-0.31621152;0.5733847;0.28407362;0.7003761;0.07043608;-0.008997849;0.20231247;0
707;1714033774;-0.3162529;0.57345927;0.28406104;0.7003016;0.09640851;0.036089938;0.22764969;0
708;1714050441;-0.3163642;0.5734482;0.2841047;0.7002427;0.11311344;0.002624126;0.22807217;0
709;1714067108;-0.31654972;0.5733714;0.28422213;0.7001741;0.07597583;-0.017091505;0.2024498;0
710;1714083775;-0.31670478;0.57330096;0.28433558;0.70011544;-0.009785663;-0.059028514;0.18340206;0
711;1714100442;-0.31690028;0.5732448;0.2844341;0.70003295;0.037454356;-0.09016038;0.17509365;0
712;1714117109;-0.31699237;0.57327646;0.28444552;0.69996077;0.06727223;-0.074329205;0.18240356;0
713;1714133776;-0.3169807;0.57334715;0.284353;0.69994575;0.05789392;-0.038524106;0.22656631;0
714;1714150443;-0.31697387;0.5734056;0.2842938;0.6999249;0.038257495;-0.037073925;0.18400097;0
715;1714167110;-0.3170276;0.57344276;0.28426632;0.69988126;0.12327702;-0.07873068;0.17317772;0
716;1714183777;-0.31707925;0.573487;0.28423613;0.6998339;0.12597501;-0.04229136;0.23062515;0
717;1714200444;-0.31716186;0.57347625;0.28421462;0.6998139;0.15414715;-0.073584795;0.24951458;0
718;1714217111;-0.31714997;0.5734689;0.28410867;0.6998683;0.10691952;-0.09204384;0.21351147;0
719;1714233778;-0.31713808;0.57344085;0.28400755;0.699938;0.0354322;-0.040334366;0.16528034;0
720;1714250445;-0.31720203;0.5734021;0.28398266;0.69995064;0.021458562;-0.020718254;0.1768732;0
721;1714267112;-0.3172031;0.57337874;0.2839197;0.69999474;0.024706757;-0.052481066;0.17081928;0
722;1714283779;-0.3173124;0.5732917;0.2839512;0.7000038;0.042476527;-0.042214222;0.1692276;0
723;1714300446;-0.3172965;0.57324433;0.28380683;0.70010847;0.06683069;-0.040681034;0.19086647;0
724;1714317113;-0.31721792;0.5732438;0.28357646;0.70023793;0.056004867;-0.049833164;0.18271732;0
725;1714333780;-0.31716448;0.5732106;0.28342175;0.70035183;0.006657498;-0.053622406;0.18650913;0
726;1714350447;-0.31712803;0.5731908;0.2832726;0.70044494;0.035359506;-0.043620676;0.21654987;0
727;1714367114;-0.3170862;0.5731646;0.28311566;0.70054877;0.07706975;-0.04204276;0.22408867;0
728;1714383781;-0.31711754;0.573102;0.28305256;0.70061135;0.05490238;-0.05555163;0.21185589;0
729;1714400448;-0.31716162;0.5730392;0.28299236;0.700667;0.05567009;-0.060561392;0.19738293;0
730;1714417115;-0.3172034;0.57301646;0.2828935;0.70070654;0.06803804;-0.05421684;0.1609211;0
731;1714433782;-0.31719536;0.5730178;0.28278998;0.7007509;0.00339017;-0.069601014;0.1483202;0
732;1714450449;-0.3171097;0.57307583;0.28262025;0.70081073;0.036483735;-0.08513843;0.17681217;0
733;1714467116;-0.31695306;0.5731941;0.28241807;0.70086634;0.038917948;-0.03255002;0.16922092;0
734;1714483783;-0.31679693;0.573294;0.28222173;0.70093447;0.035831843;0.00268819;0.20566845;0
735;1714500450;-0.31665245;0.5733827;0.2820393;0.7010006;0.030896787;-0.019070657;0.21683788;0
736;1714517117;-0.31663305;0.5734056;0.28199586;0.7010081;-0.003216839;-0.034750815;0.21123314;0
737;1714533784;-0.31670326;0.57336617;0.282068;0.7009794;-0.006332082;-0.04524232;0.20595074;0
738;1714550451;-0.31675342;0.57337517;0.28215855;0.700913;6.19E-04;-0.052932814;0.18103981;0
739;1714567118;-0.31670552;0.5734262;0.28215298;0.7008952;0.059717305;-0.015277055;0.19989109;0
740;1714583785;-0.31662226;0.57345366;0.28212377;0.700922;0.061295014;-0.025721507;0.18557453;0
741;1714600452;-0.31658265;0.5734642;0.28210187;0.70094013;0.06280627;-0.023007724;0.20373821;0
742;1714617119;-0.31659567;0.5734427;0.28214893;0.700933;0.02990974;-0.002258068;0.17861176;0
743;1714633786;-0.3165925;0.573427;0.2822085;0.7009232;0.001109221;-0.040505603;0.19311333;0
744;1714650453;-0.31658483;0.57343155;0.28228375;0.7008927;-0.009637333;-0.057122257;0.18519306;0
745;1714667120;-0.3164909;0.5734893;0.28227258;0.7008924;-0.012791535;-0.058736466;0.18267536;0
746;1714683787;-0.31639865;0.5735575;0.2822262;0.7008968;0.014678892;-0.029635387;0.18189144;0
747;1714700454;-0.31630567;0.573614;0.2821811;0.7009108;0.011297239;0.01010069;0.17557049;0
748;1714717121;-0.3162576;0.573635;0.28219324;0.7009103;-0.003714165;0.008235362;0.177454;0
749;1714733788;-0.3162682;0.57363254;0.2822747;0.70087475;0.03021453;-0.029583253;0.18795967;0
750;1714750455;-0.31628296;0.573639;0.28234202;0.70083576;0.033116624;-0.057886537;0.17914963;0
751;1714767122;-0.31618166;0.573719;0.28229383;0.7008353;0.034612495;-0.054949265;0.19912148;0
752;1714783789;-0.31601843;0.57383984;0.28214863;0.70086855;-9.84E-04;-0.03408282;0.19881058;0
753;1714800456;-0.3158338;0.5739909;0.28197894;0.70089644;-0.027288845;0.01606776;0.17726326;0
754;1714817123;-0.31575188;0.5740481;0.28198147;0.7008855;0.005054457;0.002467527;0.20274067;0
755;1714833790;-0.31572244;0.5740571;0.28201917;0.70087594;0.03532762;-0.035324045;0.18660545;0
756;1714850457;-0.31565094;0.5741017;0.282012;0.7008746;0.0550072;-0.05434614;0.20445633;0
757;1714867124;-0.31550503;0.574177;0.2818833;0.7009304;0.023527278;-0.029559644;0.1972208;0
758;1714883791;-0.31539583;0.5742204;0.28184962;0.7009575;-0.0533218;-0.008647353;0.18266106;0
759;1714900458;-0.31533995;0.57421905;0.2818989;0.700964;-0.034864683;-0.012760075;0.18800926;0
760;1714917125;-0.3152918;0.5742218;0.28194797;0.7009636;-0.014400099;-0.034443792;0.16084385;0
761;1714933792;-0.31521085;0.57428634;0.28197876;0.7009349;0.0251823;-0.033889454;0.19206429;0
762;1714950459;-0.31514537;0.5743074;0.2819976;0.7009393;0.06355574;-0.03339851;0.19420242;0
763;1714967126;-0.31509125;0.5743126;0.28209203;0.70092136;-0.010305528;-0.044104807;0.19455051;0
764;1714983793;-0.31502968;0.5743419;0.28217843;0.7008903;-0.021939844;-0.0567581;0.19716167;0
765;1715000460;-0.31488523;0.5744153;0.2822057;0.7008842;-0.006029591;-0.05586413;0.19177628;0
766;1715017127;-0.3146829;0.5745312;0.28216255;0.70089734;-0.008445064;-0.02824532;0.18077946;0
767;1715033794;-0.31453916;0.57462144;0.28217548;0.70088273;0.015212306;0.00903431;0.1732502;0
768;1715050461;-0.31444713;0.5746844;0.28225398;0.70084083;0.027630633;-0.018730134;0.20672894;0
769;1715067128;-0.31430894;0.57474566;0.28224394;0.7008567;0.023097511;-0.020452637;0.23080254;0
770;1715083795;-0.3140872;0.5748038;0.28219137;0.70092946;-0.015530724;-0.009797663;0.18523312;0
771;1715100462;-0.31399855;0.57478;0.28231174;0.7009403;0.001176499;-0.035010763;0.14373875;0
772;1715117129;-0.31395936;0.5747573;0.28251997;0.70089275;-0.003805231;0.010872397;0.1949215;0
773;1715133796;-0.31380272;0.5748251;0.2825551;0.700893;0.05198917;-0.05212339;0.22024441;0
774;1715150463;-0.31353033;0.5749517;0.28247008;0.70094514;0.069837034;-0.026814654;0.20741749;0
775;1715167130;-0.3132873;0.5750201;0.28246897;0.70099825;0.04474186;-2.00E-04;0.1869936;0
776;1715183797;-0.3132499;0.574989;0.2826644;0.7009618;-0.007294838;-0.00871002;0.15777874;0
777;1715200464;-0.31325334;0.5750019;0.28287005;0.7008666;-0.01985707;-0.014701118;0.15007687;0
778;1715217131;-0.31316772;0.5750553;0.28299284;0.70081145;-4.67E-05;-0.027270565;0.17232513;0
779;1715233798;-0.313003;0.5751237;0.28300226;0.7008251;0.05989974;6.74E-04;0.18818283;0
780;1715250465;-0.3129039;0.57514465;0.28306213;0.7008281;0.07866219;-0.006847543;0.20901966;0
781;1715267132;-0.31289905;0.5751159;0.28312618;0.7008279;0.04792853;-0.013027732;0.24772072;0
782;1715283799;-0.31292975;0.5750492;0.28326157;0.70081425;0.07216074;-0.017875431;0.27578545;0
783;1715300466;-0.31289387;0.5750142;0.28329068;0.7008472;0.057955515;-0.058583334;0.26189518;0
784;1715317133;-0.3128147;0.5749978;0.28332284;0.70088303;0.022452012;-0.043398168;0.22569561;0
785;1715333800;-0.31270087;0.5750244;0.28329659;0.7009226;0.028815992;-0.030716296;0.22201347;0
786;1715350467;-0.31261605;0.57503814;0.2832856;0.70095354;-0.001973192;-0.015827762;0.18915462;0
787;1715367134;-0.31254885;0.5750078;0.28326705;0.701016;0.067379825;-0.025021214;0.22862911;0
788;1715383801;-0.31244168;0.57497936;0.28319958;0.7011143;0.069233;-0.05038686;0.21019936;0
789;1715400468;-0.31229705;0.5749709;0.28316918;0.70119786;-0.031867605;0.003210903;0.20399761;0
790;1715417135;-0.31218475;0.57494605;0.28313068;0.7012839;0.016105033;-0.043161526;0.20522499;0
791;1715433802;-0.31207258;0.5749322;0.28303376;0.7013842;0.056319077;-0.049170587;0.24059963;0
792;1715450469;-0.31196278;0.57488763;0.2829644;0.7014975;0.04196798;-0.036947306;0.24001312;0
793;1715467136;-0.31186125;0.5748253;0.28295645;0.7015971;0.038404923;-0.03895596;0.221879;0
794;1715483803;-0.31174722;0.5747881;0.28291792;0.7016938;-0.001462722;-0.03965187;0.21062183;0
795;1715500470;-0.31163394;0.5747521;0.28290594;0.7017784;0.00363553;-0.004940558;0.18921375;0
796;1715517137;-0.31152105;0.57471216;0.2829052;0.7018616;-9.94E-05;-0.030141644;0.18769741;0
797;1715533804;-0.3114444;0.5746581;0.28294367;0.7019243;0.029400427;-0.05048652;0.1990118;0
798;1715550471;-0.31137207;0.57461435;0.2829587;0.701986;0.02538048;-0.01957409;0.19080353;0
799;1715567138;-0.31130454;0.57457685;0.28298804;0.7020349;0.042277824;-0.022751607;0.20218849;0
800;1715583805;-0.3112846;0.5745001;0.28305033;0.7020815;0.037235413;-0.030478813;0.19064808;0
801;1715600472;-0.31128085;0.57444614;0.28311893;0.7020997;0.01460924;-0.052033342;0.15853786;0
802;1715617139;-0.31123886;0.5744769;0.2831356;0.7020863;-0.016830713;-0.0707473;0.17213345;0
803;1715633806;-0.3111436;0.57457256;0.283065;0.70207864;5.70E-04;-0.050973386;0.17462254;0
804;1715650473;-0.31104636;0.5747068;0.28295472;0.70205635;0.05061096;-0.001762064;0.19194698;0
805;1715667140;-0.31096712;0.5748266;0.28283954;0.70203984;0.068367414;0.009633241;0.18963718;0
806;1715683807;-0.3109833;0.57488704;0.2828013;0.70199865;0.056758072;-0.006143757;0.17486477;0
807;1715700474;-0.31103396;0.5749126;0.28279462;0.7019579;0.007627127;-0.04502607;0.1590128;0
808;1715717141;-0.31107658;0.5749869;0.2827314;0.70190364;0.010566868;-0.04946783;0.17189598;0
809;1715733808;-0.31107444;0.575106;0.28263152;0.7018472;0.017077008;-0.00859642;0.17930603;0
810;1715750475;-0.31108636;0.5752234;0.28251627;0.7017921;0.018488199;0.019766591;0.19434261;0
811;1715767142;-0.31117487;0.5752596;0.2825273;0.7017187;0.0302058;-0.001170481;0.19798565;0
812;1715783809;-0.3113421;0.5752177;0.2826299;0.7016376;0.053921424;-0.052208714;0.1954813;0
813;1715800476;-0.31151468;0.5751628;0.28269356;0.70158035;0.036509734;-0.059340566;0.1706028;0
814;1715817143;-0.3116357;0.575155;0.28271434;0.7015246;0.015246954;-0.052252494;0.16094017;0
815;1715833810;-0.31171483;0.5751704;0.28275573;0.7014602;-0.001800155;-0.055489805;0.1608429;0
816;1715850477;-0.31174603;0.57520634;0.28274778;0.7014201;0.07055017;-0.062312562;0.1802454;0
817;1715867144;-0.31176984;0.57523054;0.28270453;0.701407;0.057164434;-0.023827879;0.18970394;0
818;1715883811;-0.31181738;0.5752074;0.28273186;0.7013939;0.05420042;-0.027942082;0.19452477;0
819;1715900478;-0.31190014;0.5751288;0.28278938;0.7013983;0.04858484;-0.038526174;0.1757307;0
820;1715917145;-0.3119543;0.57506955;0.28283232;0.70140564;0.016543014;-0.06350182;0.17323303;0
821;1715933812;-0.31196952;0.5749895;0.28280595;0.701475;0.024059094;-0.088367745;0.24284935;0
822;1715950479;-0.31191647;0.57494086;0.28278202;0.70154804;0.023267554;-0.026320439;0.19979095;0
823;1715967146;-0.31192225;0.5748194;0.28284007;0.7016217;0.09743095;-0.07801091;0.16510487;0
824;1715983813;-0.31191593;0.5747025;0.28289217;0.70169926;0.12129676;-0.040164523;0.2287302;0
825;1716000480;-0.31176108;0.57458764;0.28276083;0.70191497;0.11510877;-0.031364065;0.23668861;0
826;1716017147;-0.31162673;0.57443947;0.28269836;0.70212114;0.065971635;-0.063620925;0.20611191;0
827;1716033814;-0.311448;0.57426614;0.28262627;0.7023713;0.038693886;0.011183862;0.17408562;0
828;1716050481;-0.31144318;0.57403;0.2827252;0.7025265;-0.031824276;-0.031051844;0.15184593;0
829;1716067148;-0.31141743;0.5738539;0.2829046;0.7026096;-0.07486834;-0.06201395;0.12506866;0
830;1716083815;-0.31127477;0.57375145;0.2829589;0.7027346;0.02387444;-0.12628734;0.15151787;0
831;1716100482;-0.31095442;0.5737216;0.28275278;0.70298356;0.10509409;-0.06703533;0.2027998;0
832;1716117149;-0.31071454;0.5736146;0.28260526;0.70323646;0.052411366;0.056843508;0.22920227;0
833;1716133816;-0.31065637;0.57334965;0.28270873;0.70343626;0.023029588;0.056387316;0.23953438;0
834;1716150483;-0.310627;0.57304835;0.28290683;0.7036152;-0.011449447;-0.09709079;0.21564865;0
835;1716167150;-0.3105625;0.5728094;0.28306738;0.70377374;-0.03654567;-0.09641628;0.1827488;0
836;1716183817;-0.31035942;0.57271403;0.28310698;0.70392483;-0.105734915;-0.03806959;0.1655159;0
837;1716200484;-0.31015998;0.57265955;0.28323793;0.70400465;-0.08055418;0.009446886;0.138484;0
838;1716217151;-0.31003198;0.5725761;0.28349796;0.7040243;-0.042651992;-0.015172479;0.14500904;0
839;1716233818;-0.30998778;0.5724447;0.2838147;0.7040228;0.001068208;-0.016464999;0.1598568;0
840;1716250485;-0.30991745;0.5723573;0.28410637;0.70400715;0.023398437;-0.021159831;0.19821835;0
841;1716267152;-0.30981997;0.57228285;0.28444508;0.70397377;0.002906785;0.03973253;0.1870184;0
842;1716283819;-0.30976275;0.57215405;0.28483963;0.7039441;0.003740884;-0.008630562;0.1916008;0
843;1716300486;-0.30975047;0.5720462;0.2852326;0.7038782;0.013157343;-0.037965547;0.221385;0
844;1716317153;-0.3097478;0.5719762;0.2856045;0.70378554;0.035838634;-0.001701828;0.2573681;0
845;1716333820;-0.3097615;0.5718879;0.285944;0.7037133;0.110693134;0.0344631;0.257864;0
846;1716350487;-0.30980748;0.5718031;0.28617904;0.7036665;0.1655583;0.00765409;0.25982952;0
847;1716367154;-0.3099009;0.5717037;0.28640002;0.70361626;0.14150202;0.050775997;0.22432327;0
848;1716383821;-0.31001842;0.5715605;0.28654346;0.70362234;0.13832209;6.38E-04;0.22351456;0
849;1716400488;-0.31021237;0.5713922;0.2866525;0.7036291;0.07911435;0.003043408;0.18775654;0
850;1716417155;-0.31041607;0.5712466;0.28673527;0.70362383;0.07953992;0.052520797;0.20090675;0
851;1716433822;-0.31073505;0.571063;0.28684196;0.70358866;0.08569249;0.01247085;0.21878242;0
852;1716450489;-0.3110107;0.5708513;0.286882;0.7036222;0.11765873;-0.020632397;0.22479057;0
853;1716467156;-0.3113113;0.57064384;0.28693447;0.70363617;0.05041756;-0.03278611;0.21520615;0
854;1716483823;-0.311565;0.57051057;0.2868754;0.70365596;0.059253816;-0.03411945;0.22851753;0
855;1716500490;-0.31184676;0.5703438;0.2867887;0.7037017;0.05841686;-0.03164136;0.20088196;0
856;1716517157;-0.31212944;0.57020867;0.2867065;0.7037194;-0.003081912;-0.024185192;0.1877594;0
857;1716533824;-0.3124488;0.57002544;0.28672028;0.7037205;0.02266116;-0.031166982;0.20213032;0
858;1716550491;-0.31271812;0.56986517;0.28666055;0.7037552;0.069888294;-0.044679094;0.19725323;0
859;1716567158;-0.31308424;0.56963325;0.2867056;0.70376164;0.03140168;-0.034054656;0.19092083;0
860;1716583825;-0.31342468;0.5694436;0.2867956;0.70372707;0.008077232;-0.09632732;0.1760788;0
861;1716600492;-0.3137548;0.5692706;0.2868996;0.7036774;-0.011285484;-0.08495931;0.16606903;0
862;1716617159;-0.31391588;0.5691693;0.28690714;0.7036844;0.029511651;-0.07389221;0.1930666;0
863;1716633826;-0.31411546;0.5690592;0.28692904;0.7036753;0.066312775;-0.055563707;0.21210575;0
864;1716650493;-0.31432316;0.56893903;0.28697476;0.70366114;0.059534855;-0.035887465;0.20110512;0
865;1716667160;-0.3145039;0.56881875;0.28701872;0.7036598;0.009938696;-0.06374774;0.19046116;0
866;1716683827;-0.31461;0.56871784;0.2870555;0.70367897;0.04896358;-0.11341531;0.1881876;0
867;1716700494;-0.31466037;0.5686726;0.28695938;0.70373213;0.0579379;-0.062256545;0.19396973;0
868;1716717161;-0.31472617;0.5685792;0.28689808;0.7038031;0.10333694;-0.00233395;0.19407082;0
869;1716733828;-0.31484395;0.5684311;0.2869005;0.7038691;0.05809029;-0.004526529;0.21095085;0
870;1716750495;-0.3148688;0.56830627;0.28686464;0.7039734;0.050507795;-0.046968788;0.20385075;0
871;1716767162;-0.31493342;0.56814647;0.2868697;0.7040716;0.004068088;-0.106997356;0.18175983;0
872;1716783829;-0.31498906;0.5680166;0.2869011;0.7041386;0.010572;-0.06935372;0.17523766;0
873;1716800496;-0.3150391;0.56791455;0.28696007;0.7041745;0.006887851;-0.06330429;0.19721699;0
874;1716817163;-0.31500703;0.5678733;0.28694266;0.70422906;0.014399976;-0.03380094;0.21952438;0
875;1716833830;-0.3149234;0.5678569;0.28690857;0.7042936;0.02448931;-0.06551866;0.15327168;0
876;1716850497;-0.31483543;0.56784093;0.28693378;0.7043355;0.07456202;-0.03655373;0.18757439;0
877;1716867164;-0.31477165;0.56780165;0.2870079;0.7043656;0.07864582;0.04208249;0.2225647;0
878;1716883831;-0.31465685;0.56779087;0.28701472;0.7044229;0.08747692;-0.028006062;0.21533585;0
879;1716900498;-0.3145064;0.567786;0.28700438;0.70449823;-6.24E-04;-0.045050293;0.16055107;0
880;1716917165;-0.3144162;0.5677668;0.2870583;0.704532;-0.03242938;-0.060306154;0.15328693;0
881;1716933832;-0.3143502;0.56779045;0.28715804;0.7045016;-0.022054024;-0.008280875;0.11925602;0
882;1716950499;-0.31428057;0.56787574;0.2872725;0.7044173;0.042852957;0.027659003;0.16057014;0
883;1716967166;-0.3141828;0.567965;0.28730413;0.704376;0.080558896;-0.00296353;0.20694733;0
884;1716983833;-0.314076;0.5680289;0.28731403;0.7043681;0.049158316;-0.014539517;0.22594261;0
885;1717000500;-0.31405628;0.5680369;0.28738847;0.70434;0.05485307;0.005768199;0.23573971;0
886;1717017167;-0.31415585;0.5679603;0.28756118;0.704287;0.013734166;0.03055506;0.23160458;0
887;1717033834;-0.31427586;0.5679174;0.2877767;0.70417994;-0.047833882;-0.003749458;0.2058382;0
888;1717050501;-0.31433842;0.5679799;0.2879547;0.70402884;-0.022393037;-0.07930413;0.17270947;0
889;1717067168;-0.3142583;0.56812125;0.28796935;0.70394474;-0.010917299;-0.07115879;0.17343998;0
890;1717083835;-0.31416386;0.56827474;0.28794786;0.70387167;0.06783771;-0.02089508;0.19408607;0
891;1717100502;-0.31414497;0.5683517;0.28799972;0.70379674;0.050975323;0.04627509;0.18514729;0
892;1717117169;-0.31425366;0.5683562;0.2881957;0.70366424;0.005316165;-0.005949133;0.1965189;0
893;1717133836;-0.31426787;0.56841594;0.28833196;0.7035539;-0.027072709;-0.05361816;0.18764687;0
894;1717150503;-0.31426364;0.56847554;0.28841242;0.70347464;-0.014010541;-0.014901665;0.19959354;0
895;1717167170;-0.31426215;0.5685281;0.28847593;0.70340675;0.029207367;-0.031103477;0.19002533;0
896;1717183837;-0.31428313;0.5685657;0.28858668;0.7033214;0.0133803;9.04E-04;0.21375561;0
897;1717200504;-0.31433338;0.56856716;0.28874543;0.7032327;0.00204775;0.009871058;0.20874786;0
898;1717217171;-0.31443226;0.56853867;0.28888848;0.7031528;4.53E-04;-0.012179892;0.2243557;0
899;1717233838;-0.31454822;0.5684935;0.28903222;0.7030784;0.041231792;-0.025669541;0.22167873;0
900;1717250505;-0.31470603;0.5684156;0.28923693;0.70298666;-0.006304006;-0.026380563;0.18074608;0
901;1717267172;-0.31484672;0.56834114;0.28944054;0.7028999;9.87E-04;-0.045205776;0.18554401;0
902;1717283839;-0.3149586;0.56829053;0.28959864;0.70282555;-0.005259234;-0.047354013;0.19058609;0
903;1717300506;-0.31498957;0.5682771;0.28965694;0.70279855;0.056138612;-0.068384096;0.21292782;0
904;1717317173;-0.31501657;0.56824017;0.28964332;0.70282185;0.050562613;-0.057967413;0.20059967;0
905;1717333840;-0.31510743;0.5681654;0.28969255;0.70282155;-0.006602408;-0.026764475;0.19105339;0
906;1717350507;-0.31519353;0.5681111;0.28974274;0.70280606;0.018291071;-0.027089743;0.20079613;0
907;1717367174;-0.3152127;0.5680983;0.2897556;0.7028025;0.02772179;-0.06200079;0.19981766;0
908;1717383841;-0.31524023;0.5680705;0.28975222;0.702814;0.04272824;-0.086697794;0.20928574;0
909;1717400508;-0.31522915;0.5680775;0.28970796;0.70283145;0.01043063;-0.04938675;0.19164753;0
910;1717417175;-0.31526005;0.5680508;0.28970748;0.7028394;-0.004890459;-0.04721887;0.19192314;0
911;1717433842;-0.31530166;0.5680226;0.28975666;0.7028233;0.027095634;-0.06809096;0.18334389;0
912;1717450509;-0.31522113;0.5680506;0.28970248;0.7028591;0.037172876;-0.04596431;0.18456364;0
913;1717467176;-0.31519642;0.5680301;0.2897213;0.70287883;0.031266116;-0.05501344;0.19023323;0
914;1717483843;-0.31515998;0.56800354;0.28970793;0.7029224;0.040547986;-0.048553802;0.21819496;0
915;1717500510;-0.31510758;0.5679665;0.2896811;0.7029867;0.02008411;-0.037099827;0.17690372;0
916;1717517177;-0.3150709;0.56793296;0.2897498;0.703002;-0.029406356;-0.036277186;0.1951828;0
917;1717533844;-0.3150275;0.56789833;0.28984892;0.7030085;-0.005431721;-0.03922817;0.17732143;0
918;1717550511;-0.31496146;0.56791526;0.28991526;0.7029972;0.006482473;-0.030583557;0.18477821;0
919;1717567178;-0.3148148;0.5679707;0.28989458;0.70302653;0.0362875;-0.029858928;0.18753624;0
920;1717583845;-0.3147222;0.5679743;0.28994218;0.70304537;0.09625337;-0.014693155;0.21241856;0
921;1717600512;-0.3146456;0.5679425;0.29001197;0.7030767;0.05147878;3.80E-04;0.21310806;0
922;1717617179;-0.3145469;0.56792545;0.2900248;0.70312935;0.049639437;-0.041145634;0.21901035;0
923;1717633846;-0.31438133;0.5679638;0.28995398;0.70320153;0.005042273;-0.014182568;0.18402481;0
924;1717650513;-0.31426775;0.56800306;0.2899321;0.70322967;0.002755664;-0.03216737;0.17797756;0
925;1717667180;-0.31417736;0.56805515;0.2899397;0.7032249;0.068959236;-1.15E-04;0.19138432;0
926;1717683847;-0.31410265;0.5680713;0.28990927;0.70325756;0.08872136;0.003695451;0.2564621;0
927;1717700514;-0.3140717;0.5680748;0.28990498;0.70327044;0.058981605;0.054188315;0.2182293;0
928;1717717181;-0.3140224;0.56808364;0.28991222;0.7032823;0.014577707;-0.01847071;0.14082146;0
929;1717733848;-0.3139451;0.5681523;0.2899385;0.7032507;0.00553739;-0.046672635;0.16209698;0
930;1717750515;-0.31386757;0.5683035;0.2899195;0.7031708;-0.015721563;-0.053887885;0.18983269;0
931;1717767182;-0.31369647;0.5685311;0.28979665;0.70311385;0.06413865;-0.021005161;0.18731785;0
932;1717783849;-0.31343198;0.5687924;0.28955802;0.703119;0.09080173;0.04633178;0.20404243;0
933;1717800516;-0.3133658;0.5689357;0.28949025;0.70306027;0.07579481;0.034664568;0.1886177;0
934;1717817183;-0.31342348;0.56901073;0.28949687;0.70297104;0.031036234;0.0131213;0.19984436;0
935;1717833850;-0.31344926;0.5691077;0.28950816;0.7028764;-0.027315762;-0.038388155;0.1916027;0
936;1717850517;-0.31336588;0.5692802;0.2894337;0.7028045;-0.04409396;-0.059817877;0.21185303;0
937;1717867184;-0.3132122;0.569516;0.28922784;0.7027668;0.03412804;0.020101499;0.23857307;0
938;1717883851;-0.31319857;0.5696535;0.28912216;0.702705;0.06179818;0.07170209;0.2609825;0
939;1717900518;-0.31329557;0.56964934;0.28922;0.70262474;0.01668096;0.01168034;0.24430847;0
940;1717917185;-0.31349933;0.5696002;0.28946462;0.70247304;-0.036301848;-0.074117035;0.20638275;0
941;1717933852;-0.3135598;0.5696736;0.28956226;0.7023463;-0.08766124;-0.078454666;0.16539192;0
942;1717950519;-0.3134264;0.5699054;0.28945872;0.7022605;-0.03462054;-0.030827131;0.17141247;0
943;1717967186;-0.31336;0.57006127;0.28941184;0.7021829;0.106102645;-0.033806335;0.21122837;0
944;1717983853;-0.3133921;0.5701121;0.28937152;0.7021439;0.13397999;0.03712483;0.23906517;0
945;1718000520;-0.31355107;0.5700568;0.28949678;0.7020661;0.04841492;0.023433246;0.20979977;0
946;1718017187;-0.31371692;0.56997615;0.28965813;0.701991;-0.018428167;-0.05794861;0.18883419;0
947;1718033854;-0.3137362;0.5700089;0.28965947;0.7019552;-0.004587602;-0.1378686;0.18639755;0
948;1718050521;-0.31363454;0.57011545;0.2894476;0.70200145;0.10162516;-0.05611913;0.23123455;0
949;1718067188;-0.31358588;0.5701766;0.2892859;0.7020404;0.049754363;0.065636285;0.22963524;0
950;1718083855;-0.31366545;0.5701038;0.28935775;0.70203424;0.050736595;0.006541582;0.23309803;0
951;1718100522;-0.31375998;0.57002324;0.28942966;0.70202774;0.034535054;-0.10402972;0.19544125;0
952;1718117189;-0.31376892;0.57001644;0.28940886;0.7020379;0.01337273;-0.08305113;0.19791603;0
953;1718133856;-0.31369758;0.57006747;0.28930062;0.7020729;0.03673646;-0.006950918;0.17819595;0
954;1718150523;-0.3135756;0.57013005;0.28917155;0.7021297;0.04888751;-0.03228653;0.167799;0
955;1718167190;-0.3134782;0.5701745;0.28905043;0.702187;0.060283657;-0.065715745;0.17149925;0
956;1718183857;-0.31345576;0.5701863;0.28899974;0.7022084;-0.00464061;-0.026722483;0.16594887;0
957;1718200524;-0.3134335;0.5702223;0.2890046;0.7021871;-0.007456972;-0.05325942;0.17297745;0
958;1718217191;-0.31334788;0.5702982;0.28892496;0.7021962;0.046078164;-0.080660544;0.19407177;0
959;1718233858;-0.31323847;0.5704183;0.28876555;0.7022133;0.043356333;-0.061010517;0.19131279;0
960;1718250525;-0.31313986;0.5705208;0.28865543;0.70221925;0.019558838;-0.029298106;0.19286919;0
961;1718267192;-0.31310594;0.5705397;0.28864068;0.70222515;0.0311301;-0.055774994;0.20039463;0
962;1718283859;-0.3130672;0.57058865;0.28853887;0.7022445;0.10517726;-0.079498336;0.20794773;0
963;1718300526;-0.31304777;0.5706299;0.28847343;0.7022466;0.035082985;-0.01068269;0.16920376;0
964;1718317193;-0.31307393;0.5706392;0.2885275;0.70220494;-0.007550706;-0.021623677;0.17615032;0
965;1718333860;-0.3130374;0.5707028;0.28851202;0.7021759;0.021567931;-0.12477482;0.17724133;0
966;1718350527;-0.31302473;0.57078135;0.28849295;0.70212555;0.049544886;-0.07188051;0.18946934;0
967;1718367194;-0.31312695;0.57080376;0.28864717;0.70199823;0.038350634;0.003900441;0.18344784;0
968;1718383861;-0.3133116;0.57076955;0.2889589;0.70181566;0.040198922;-0.067108564;0.19985199;0
969;1718400528;-0.31353158;0.57075644;0.28926235;0.7016029;0.05421115;-0.08216389;0.20649624;0
970;1718417195;-0.3138333;0.5706968;0.28952956;0.7014062;0.10491427;0.003465457;0.27312565;0
971;1718433862;-0.31430978;0.57052565;0.28979635;0.7012218;0.20369858;0.17715548;0.33424664;0
972;1718450529;-0.3151806;0.5700621;0.2902511;0.70102006;0.33776623;0.24507229;0.29117393;0
973;1718467196;-0.31646344;0.5692666;0.29072785;0.7008909;0.4418876;0.28875667;0.3188038;0
974;1718483863;-0.3182319;0.5682641;0.29122588;0.70069695;0.36219752;0.4552312;0.24397278;0
975;1718500530;-0.32018206;0.5671548;0.2916665;0.70052385;0.2227204;0.29692668;0.28328705;0
976;1718517197;-0.32234234;0.56591445;0.2920284;0.70038563;0.066865854;0.104483224;0.20000648;0
977;1718533864;-0.32458252;0.5647505;0.2922048;0.70021695;-0.008481132;0.02065593;0.15313053;0
978;1718550531;-0.32688296;0.5636788;0.29230154;0.69996995;-0.021852085;0.17872731;0.18539143;0
979;1718567198;-0.3292963;0.562612;0.29232588;0.6996869;0.04578034;0.2401269;0.24823952;0
980;1718583865;-0.3318028;0.56155044;0.29221505;0.69940174;0.14285207;0.22056405;0.2430954;0
981;1718600532;-0.33440363;0.560482;0.292044;0.69909143;0.13026193;0.13109235;0.24366283;0
982;1718617199;-0.33724234;0.55925465;0.29188517;0.6987772;0.21941634;0.07684899;0.28034592;0
983;1718633866;-0.34056702;0.5577479;0.2918994;0.69836277;0.2648913;0.18958586;0.38039112;0
984;1718650533;-0.34441367;0.55598456;0.29206607;0.69781256;0.33189893;0.3534002;0.5326576;0
985;1718667200;-0.348614;0.55397725;0.29228058;0.69723296;0.35439414;0.31205496;0.5323849;0
986;1718683867;-0.35323703;0.5516932;0.29246482;0.69663966;0.36230323;0.3980369;0.53426933;0
987;1718700534;-0.35826245;0.54919744;0.29251134;0.6960256;0.34699053;0.45350564;0.5263777;0
988;1718717201;-0.36362526;0.54645157;0.2922677;0.69550776;0.2544249;0.38389385;0.6213608;0
989;1718733868;-0.36923498;0.5436003;0.29160726;0.6950639;0.32771036;0.35771304;0.65399075;0
990;1718750535;-0.3750717;0.54067326;0.29055655;0.69466174;0.3015109;0.36868575;0.66445446;0
991;1718767202;-0.38103998;0.53763163;0.28907225;0.69439334;0.21042967;0.4876914;0.6851568;0
992;1718783869;-0.3873229;0.5342895;0.28733402;0.6942183;0.2809925;0.50879425;0.6540165;0
993;1718800536;-0.39402387;0.5305775;0.2853323;0.69412;0.39063472;0.35511458;0.7326813;0
994;1718817203;-0.40092736;0.5267304;0.28282323;0.6941236;0.53742284;0.29309517;0.8113804;0
995;1718833870;-0.40797168;0.5226757;0.27965707;0.6943671;0.64168024;0.3603409;0.9244709;0
996;1718850537;-0.41513383;0.5182469;0.27571812;0.6950166;0.6671912;0.5442422;0.9295502;0
997;1718867204;-0.4225967;0.5133515;0.27137432;0.69586104;0.47396737;0.51915836;0.8466196;0
998;1718883871;-0.43043828;0.50793487;0.26677382;0.69680786;0.2558381;0.3587168;0.84669685;0
999;1718900538;-0.4383501;0.5023692;0.26172772;0.6978232;0.08263234;0.18246923;0.86147213;0
1000;1718917205;-0.44623917;0.49681175;0.25612685;0.69887924;-0.012959844;0.11726711;0.9296417;0
1001;1718933872;-0.45401743;0.49132082;0.24998198;0.6999754;-0.023047827;0.10841396;0.95534897;0
1002;1718950539;-0.46166033;0.48588157;0.24319816;0.7011618;0.017615885;0.09260268;0.95688343;0
1003;1718967206;-0.46907452;0.4805362;0.23571563;0.70247906;0.023154918;0.082258746;0.9012518;0
1004;1718983873;-0.4765644;0.47493145;0.22792535;0.7038188;-0.045346104;0.25297424;1.0036898;0
1005;1719000540;-0.48454612;0.46867532;0.22039363;0.70496064;-0.023939185;0.2673073;1.0306845;0
1006;1719017207;-0.4929725;0.46191102;0.2130717;0.7058338;-0.012052779;0.16405812;0.9414606;0
1007;1719033874;-0.5017317;0.4546964;0.20574747;0.70651877;-0.05532996;0.1696747;0.8967762;0
1008;1719050541;-0.51089;0.44697765;0.19844438;0.7069699;-0.06539239;0.1677729;1.0165806;0
1009;1719067208;-0.5200955;0.4391002;0.19083859;0.70728827;-0.115230314;-0.05938704;0.9619036;0
1010;1719083875;-0.5288767;0.43158907;0.18260838;0.7075724;-0.29635993;-0.11507436;0.667902;0
1011;1719100542;-0.53741896;0.42416444;0.17426431;0.7077299;-0.53399795;-0.14512429;0.49639416;0
1012;1719117209;-0.5460031;0.41646636;0.16597559;0.70772374;-0.59579945;-0.2524911;0.5337095;0
1013;1719133876;-0.5543859;0.40886578;0.15751374;0.7075725;-0.53365195;-0.30534235;0.40522003;0
1014;1719150543;-0.56249183;0.40169838;0.1488277;0.7071606;-0.46285436;-0.20622015;0.3269062;0
1015;1719167210;-0.5704779;0.39463183;0.14002351;0.7065397;-0.45216286;-0.18158975;0.4720297;0
1016;1719183877;-0.57838035;0.38738477;0.13124175;0.70581096;-0.3715781;-0.15293477;0.6072855;0
1017;1719200544;-0.5862322;0.37983707;0.12274632;0.7049634;-0.31350005;-0.15388018;0.52719116;0
1018;1719217211;-0.59433293;0.37166783;0.11465239;0.7038966;-0.33891198;-0.2615548;0.592577;0
1019;1719233878;-0.6025249;0.36290714;0.1066051;0.70276713;-0.4178643;-0.26464033;0.6867981;0
1020;1719250545;-0.61061907;0.35390553;0.09858446;0.7015416;-0.626505;-0.20916264;0.5078211;0
1021;1719267212;-0.61858493;0.3447553;0.09098395;0.7001449;-0.7733022;-0.33917212;0.20082855;0
1022;1719283879;-0.62632364;0.3356919;0.0836901;0.6985773;-0.8251091;-0.48984042;0.04232788;0
1023;1719300546;-0.63374937;0.32688642;0.076516174;0.6968763;-0.5911094;-0.5944008;-0.0691061;0
1024;1719317213;-0.6407416;0.31871524;0.06904954;0.69504476;-0.33144757;-0.5507817;0.013237953;0
1025;1719333880;-0.64725214;0.31125677;0.06097488;0.69314516;-0.23162061;-0.5567133;-0.00329876;0
1026;1719350547;-0.65342057;0.30422997;0.05256045;0.6911638;-0.33769846;-0.42720675;0.04167366;0
1027;1719367214;-0.65946424;0.29708374;0.044488676;0.68909603;-0.44877163;-0.37644047;0.08343983;0
1028;1719383881;-0.66554725;0.28948298;0.036960483;0.6869242;-0.47837228;-0.35196775;0.026625633;0
1029;1719400548;-0.671681;0.28140527;0.030017935;0.6846453;-0.5054075;-0.32636708;-0.007145882;0
1030;1719417215;-0.6777917;0.2729727;0.0234204;0.6822902;-0.42635942;-0.4948749;0.09993744;0
1031;1719433882;-0.68359363;0.26475123;0.016902313;0.6799302;-0.23714398;-0.53814363;0.10445595;0
1032;1719450549;-0.68897235;0.25701454;0.010464944;0.6775954;-0.3078718;-0.36399007;-0.3254738;0
1033;1719467216;-0.69426847;0.24905698;0.004596584;0.6752224;-0.4960095;-0.40505654;-0.69097805;0
1034;1719483883;-0.6994443;0.24112806;-8.47E-04;0.6727693;-0.383538;-0.6646175;-0.6129093;0
1035;1719500550;-0.70412374;0.23418023;-0.006639734;0.67030543;-0.1861508;-0.7206994;-0.45108223;0
1036;1719517217;-0.7083097;0.22840069;-0.012823164;0.66779506;-0.1377538;-0.4883933;-0.32869434;0
1037;1719533884;-0.7121862;0.22314656;-0.018887788;0.6652998;-0.10397683;-0.3212906;-0.30138588;0
1038;1719550551;-0.71595246;0.21770298;-0.024488077;0.6628742;-0.15109503;-0.3991559;-0.29313278;0
1039;1719567218;-0.71964693;0.21212569;-0.029739194;0.6604628;-0.19605827;-0.4755409;-0.21000576;0
1040;1719583885;-0.72317135;0.20659013;-0.034639582;0.65812457;-0.18326174;-0.431946;-0.091321945;0
1041;1719600552;-0.72649384;0.20129335;-0.03929449;0.6558416;-0.110568225;-0.34555873;-3.76E-04;0
1042;1719617219;-0.72959024;0.19641031;-0.043834522;0.65359306;-0.049349926;-0.30682704;-0.21615791;0
1043;1719633886;-0.7325486;0.1915683;-0.04802672;0.651423;-0.1880046;-0.2267293;-0.591135;0
1044;1719650553;-0.73543704;0.18671098;-0.051687293;0.649295;-0.17966954;-0.3136857;-0.6267595;0
1045;1719667220;-0.7381167;0.18248665;-0.05529528;0.6471547;0.05794171;-0.4346607;-0.44124222;0
1046;1719683887;-0.7404777;0.17927103;-0.059223652;0.6450052;0.0831103;-0.35622662;-0.35797215;0
1047;1719700554;-0.74261725;0.17670074;-0.063193776;0.6428741;-0.10565636;-0.30678034;-0.26573658;0
1048;1719717221;-0.7446184;0.17413367;-0.06689953;0.64088184;-0.18710253;-0.29580867;-0.13212776;0
1049;1719733888;-0.7464916;0.17133206;-0.0702097;0.6391013;-0.09867103;-0.29609922;-0.05786991;0
1050;1719750555;-0.74822694;0.16849889;-0.07331237;0.6374749;-0.106825;-0.329497;-0.064964294;0
1051;1719767222;-0.74980897;0.16581482;-0.07637142;0.6359591;-0.044254504;-0.34772027;-0.069747925;0
1052;1719783889;-0.75118554;0.1633294;-0.07941684;0.63460314;-0.051188435;-0.3462768;0.011445999;0
1053;1719800556;-0.75244486;0.16080803;-0.08236097;0.6333786;-0.1290561;-0.2367578;0.007599831;0
1054;1719817223;-0.7536856;0.15785539;-0.084917106;0.63230765;-0.0975182;-0.220477;-0.031580925;0
1055;1719833890;-0.7548907;0.15476005;-0.08719127;0.6313251;-0.05955771;-0.21735953;-0.057357788;0
1056;1719850557;-0.7560084;0.15185322;-0.08935106;0.63039094;-0.027136708;-0.2550157;-0.0358963;0
1057;1719867224;-0.7570138;0.14913866;-0.09161866;0.62950647;-0.03486925;-0.2953597;-0.027523994;0
1058;1719883891;-0.75787175;0.14671388;-0.093999475;0.62869215;0.061447117;-0.22787374;-0.07984924;0
1059;1719900558;-0.7585876;0.14468177;-0.09635189;0.6279432;0.19469208;-0.13105403;-0.21846676;0
1060;1719917225;-0.7591976;0.14301607;-0.098819286;0.6272039;0.089209884;-0.16759759;-0.27903366;0
1061;1719933892;-0.75972044;0.14167808;-0.10157343;0.62643385;-0.25065884;-0.30390847;-0.11467075;0
1062;1719950559;-0.76014936;0.1405781;-0.10446556;0.6256854;-0.23955521;-0.2189381;0.113186836;0
1063;1719967226;-0.7605208;0.13939968;-0.10722988;0.62502956;-0.14354566;-0.12331445;0.24658489;0
1064;1719983893;-0.760797;0.13790867;-0.10974691;0.62458724;-0.035881095;-0.20853125;0.18912792;0
1065;1720000560;-0.76095665;0.13641754;-0.11209969;0.6243023;0.015911663;-0.16515747;-0.12071705;0
1066;1720017227;-0.76108646;0.13520148;-0.11436117;0.6239983;0.07425598;-0.15654214;-0.29380894;0
1067;1720033894;-0.76123303;0.13431726;-0.11656851;0.6236018;0.002152039;-0.15175222;-0.20961952;0
1068;1720050561;-0.76142216;0.13355051;-0.118564926;0.623159;-0.15366767;0.038367424;-0.08896923;0
1069;1720067228;-0.76169384;0.13240275;-0.12000796;0.62279564;-0.24139684;0.121740915;-0.087641716;0
1070;1720083895;-0.7620448;0.13067676;-0.12083238;0.6225716;-0.10664077;0.08508191;-0.2873106;0
1071;1720100562;-0.76240087;0.12902415;-0.121292606;0.6223907;0.087256834;-0.04048415;-0.45425415;0
1072;1720117229;-0.7626987;0.1281942;-0.12191043;0.6220765;0.08675013;-0.21397796;-0.3718052;0
1073;1720133896;-0.76295024;0.1285025;-0.12299151;0.6214913;0.016566612;-0.21505766;-0.14032269;0
1074;1720150563;-0.7631422;0.12956677;-0.12430404;0.6207731;-0.12401192;-0.1384042;0.028306007;0
1075;1720167230;-0.7633617;0.13037817;-0.1253;0.62013304;-0.24585956;-0.07227987;0.13253307;0
1076;1720183897;-0.76363224;0.13051863;-0.1257727;0.61967427;-0.20617601;-0.060433768;0.11656189;0
1077;1720200564;-0.76399934;0.1302893;-0.12576464;0.6192716;-0.13281062;0.014714627;-0.03348255;0
1078;1720217231;-0.76448166;0.12985997;-0.1253318;0.61885417;-0.18516713;0.006023423;-0.05041313;0
1079;1720233898;-0.76507694;0.12945586;-0.12476331;0.61831784;-0.13200608;-0.05728887;0.048030853;0
1080;1720250565;-0.76568115;0.12956432;-0.124414265;0.61761737;-0.022634262;-0.09686797;0.002047539;0
1081;1720267232;-0.76625633;0.13002364;-0.12409595;0.61687094;-0.07617338;-0.13095069;-0.016734123;0
1082;1720283899;-0.76683617;0.1304883;-0.123594075;0.6161524;-0.1853684;-0.08673788;0.1272726;0
1083;1720300566;-0.76747334;0.13066062;-0.1228089;0.6154793;-0.18275844;0.06481925;0.13341045;0
1084;1720317233;-0.7682112;0.13045153;-0.12174687;0.6148141;-0.07452827;-0.04480615;0.10248947;0
1085;1720333900;-0.76895845;0.13037047;-0.12071812;0.61409944;-0.022984564;-0.0789998;0.041212082;0
1086;1720350567;-0.76969874;0.13050194;-0.1197427;0.61333454;-0.054757323;-0.17187928;0.036868095;0
1087;1720367234;-0.77036446;0.1307826;-0.11883327;0.6126151;-0.03836907;-0.1409524;0.068740845;0
1088;1720383901;-0.7709441;0.13110508;-0.11797906;0.61198187;-0.038621083;-0.21187533;0.16258049;0
1089;1720400568;-0.77142733;0.13162702;-0.117254525;0.6114;0.19248047;-0.23675051;0.10948467;0
1090;1720417235;-0.7718078;0.13261615;-0.11678703;0.6107954;0.24609196;-0.19753681;-0.058540344;0
1091;1720433902;-0.77214783;0.13383771;-0.116427846;0.6101674;0.06758465;-0.28050262;0.013032913;0
1092;1720450569;-0.7724054;0.13513179;-0.11619112;0.6096009;-0.121490575;-0.33893383;0.2962923;0
1093;1720467236;-0.7725651;0.13633199;-0.11595747;0.6091756;-0.14798753;-0.16388802;0.34607792;0
1094;1720483903;-0.7726532;0.13697238;-0.11543988;0.60901856;-0.22069798;-0.17143011;0.153368;0
1095;1720500570;-0.7726668;0.13704412;-0.11451727;0.60915935;-0.19354327;-0.28855178;0.17095566;0
1096;1720517237;-0.7725843;0.1372273;-0.113602154;0.60939395;-0.06138163;-0.3682437;0.27081203;0
1097;1720533904;-0.77237093;0.13781485;-0.1132234;0.6096024;0.019138074;-0.3613581;0.3497467;0
1098;1720550571;-0.77199626;0.13886672;-0.11320029;0.60984254;0.064986;-0.2788342;0.31866932;0
1099;1720567238;-0.77157027;0.13991761;-0.11319719;0.610142;-0.06613251;-0.22199197;0.20902538;0
1100;1720583905;-0.7711881;0.14055398;-0.11305735;0.6105046;-0.1436753;-0.18722951;0.26412678;0
1101;1720600572;-0.7709075;0.1410074;-0.112922505;0.61077935;-0.16527286;-0.2416836;0.4510212;0
1102;1720617239;-0.77061605;0.14146867;-0.11293262;0.6110387;-0.10494369;-0.1866969;0.40124893;0
1103;1720633906;-0.77032864;0.14176366;-0.11294499;0.61133033;-0.085293606;-0.12424236;0.22589302;0
1104;1720650573;-0.7700952;0.14186728;-0.11287774;0.61161244;-0.16439171;-0.13619365;0.16096115;0
1105;1720667240;-0.769917;0.14191389;-0.11277732;0.61184466;-0.20889029;-0.13018724;0.31797314;0
1106;1720683907;-0.769783;0.14204693;-0.11268209;0.6119998;-0.22375742;-0.05800759;0.24813557;0
1107;1720700574;-0.7697205;0.14201814;-0.1124468;0.6121287;-0.22911943;-0.036139544;0.082922935;0
1108;1720717241;-0.76972425;0.14194115;-0.11208389;0.6122082;-0.1945758;-0.056895755;0.05134964;0
1109;1720733908;-0.76977503;0.14191055;-0.111706026;0.6122205;-0.20279017;-0.097106434;0.09618282;0
1110;1720750575;-0.7698209;0.14198205;-0.11143044;0.61219656;-0.27388054;-0.09495629;0.07153416;0
1111;1720767242;-0.76988316;0.14208764;-0.11110617;0.6121527;-0.2358288;-0.14341368;0.11984444;0
1112;1720783909;-0.76994824;0.14210041;-0.1106046;0.61215854;-0.2014762;-0.12584534;0.17286491;0
1113;1720800576;-0.7700542;0.14184314;-0.10989331;0.6122129;-0.08898308;-0.08501773;0.13077545;0
1114;1720817243;-0.7702144;0.14144525;-0.10906723;0.61225134;-0.081727125;-0.14674294;0.14296246;0
1115;1720833910;-0.77037156;0.14108972;-0.10817817;0.61229354;-0.13266343;-0.17778039;0.09057522;0
1116;1720850577;-0.7705536;0.14079602;-0.10724209;0.61229664;-0.1427319;-0.06396282;0.14566326;0
1117;1720867244;-0.77074957;0.14039212;-0.10630292;0.6123066;-0.14052539;-0.08349458;0.16344738;0
1118;1720883911;-0.77092123;0.13992098;-0.10536577;0.6123601;-0.09338712;-0.13675098;0.20627213;0
1119;1720900578;-0.77101743;0.13954818;-0.10449644;0.61247313;-0.10384708;-0.13971333;0.1896143;0
1120;1720917245;-0.7710749;0.13919055;-0.10365601;0.6126249;-0.14026299;-0.1217622;0.13486004;0
1121;1720933912;-0.7711617;0.1387232;-0.102788165;0.6127678;-0.0840559;-0.092099376;0.21518326;0
1122;1720950579;-0.77125233;0.13823606;-0.10203199;0.61289024;-0.11673154;-0.13647917;0.2254591;0
1123;1720967246;-0.7713213;0.13781092;-0.10145886;0.6129943;-0.03725838;-0.21331719;0.21414852;0
1124;1720983913;-0.7713703;0.13765332;-0.101074904;0.61303145;-0.06072009;-0.1990496;0.22218227;0
1125;1721000580;-0.77138764;0.13756183;-0.1007489;0.61308396;-0.009626592;-0.16537595;0.2283392;0
1126;1721017247;-0.77139187;0.13758731;-0.10061568;0.6130948;0.030637033;-0.14573786;0.26748848;0
1127;1721033914;-0.77139413;0.1377559;-0.10072906;0.6130354;0.012064167;-0.20009866;0.31599045;0
1128;1721050581;-0.7713788;0.13812836;-0.101089835;0.61291146;-0.031203862;-0.22150779;0.34298992;0
1129;1721067248;-0.77137125;0.13857062;-0.10155218;0.6127448;-0.055251844;-0.17632478;0.34427834;0
1130;1721083915;-0.77141654;0.13876627;-0.1019551;0.61257654;-0.058387563;-0.11123047;0.2858162;0
1131;1721100582;-0.7715356;0.13863008;-0.102297895;0.6124002;-0.1279382;-0.12285856;0.27359486;0
1132;1721117249;-0.7716863;0.13845259;-0.10271539;0.6121805;-0.09262807;-0.17064242;0.4444189;0
1133;1721133916;-0.7718073;0.13830142;-0.1033483;0.6119557;-0.09620791;-0.131237;0.38745594;0
1134;1721150583;-0.77192813;0.1379001;-0.10393965;0.61179364;-0.11466835;-0.12141489;0.22113705;0
1135;1721167250;-0.7720538;0.13739982;-0.104439355;0.61166245;-0.1169773;-0.17607948;0.14895344;0
1136;1721183917;-0.77215636;0.13707897;-0.10510996;0.61149;-0.054171383;-0.27793953;0.28576756;0
1137;1721200584;-0.7721766;0.13717663;-0.10611906;0.61126804;-0.024407893;-0.23253408;0.28094387;0
1138;1721217251;-0.77212423;0.13734707;-0.10726102;0.61109686;-0.122605346;-0.21031907;0.23032856;0
1139;1721233918;-0.7720742;0.13710982;-0.10813971;0.61105853;-0.16595016;-0.23240449;0.18532753;0
1140;1721250585;-0.7720735;0.13649023;-0.10869774;0.6110991;-0.11958804;-0.23585023;0.23371029;0
1141;1721267252;-0.77210027;0.13570555;-0.109167255;0.61115634;-0.14433025;-0.23659584;0.34165287;0
1142;1721283919;-0.77207375;0.13483478;-0.10968925;0.6112894;-0.047753375;-0.3197882;0.28656864;0
1143;1721300586;-0.7719779;0.13397568;-0.11018242;0.6115103;0.03039888;-0.31711963;0.17775059;0
1144;1721317253;-0.77186203;0.13308568;-0.11053098;0.61178786;0.047424756;-0.23509601;0.00775528;0
1145;1721333920;-0.7717426;0.13220748;-0.11081223;0.61207813;-0.008939959;-0.17187081;0.017785072;0
1146;1721350587;-0.77158815;0.13142718;-0.11120815;0.612369;-0.115709305;-0.20011146;0.096865654;0
1147;1721367254;-0.77138424;0.13071916;-0.1116726;0.61269283;-0.21276522;-0.19937566;0.1940527;0
1148;1721383921;-0.771157;0.12996003;-0.11193313;0.6130926;-0.10680594;-0.16365702;0.096461296;0
1149;1721400588;-0.77086306;0.12916115;-0.11206657;0.6136066;0.027250476;-0.18138884;0.07962799;0
1150;1721417255;-0.77048296;0.12858309;-0.11233331;0.6141565;0.014238502;-0.21678904;0.04091072;0
1151;1721433922;-0.77007234;0.12815945;-0.112621434;0.6147069;-0.060198016;-0.19787711;0.006137848;0
1152;1721450589;-0.76968133;0.12797403;-0.11280387;0.6152015;-0.040407117;-0.13542694;-0.044062614;0
1153;1721467256;-0.76931727;0.12786335;-0.112797484;0.61568093;-0.012010972;-0.095807;-0.027573586;0
1154;1721483923;-0.7689998;0.12772954;-0.11273297;0.61611694;-0.08369202;-0.16352448;0.1412592;0
1155;1721500590;-0.768664;0.12769058;-0.11267418;0.61655456;-0.034508612;-0.14097776;0.20882893;0
1156;1721517257;-0.76832515;0.12763338;-0.112472035;0.6170256;-0.119892105;-0.09739909;0.14338589;0
1157;1721533924;-0.76805425;0.12722853;-0.11199774;0.61753243;-0.17781244;-0.12155072;0.13633251;0
1158;1721550591;-0.76784575;0.12671745;-0.111330405;0.6180176;-0.028004497;-0.10529025;0.18834686;0
1159;1721567258;-0.76768625;0.12636942;-0.110771224;0.61838716;-0.03209456;-0.15774995;0.14794827;0
1160;1721583925;-0.7675379;0.12626716;-0.11038181;0.61866176;-0.002470042;-0.18082891;0.09430218;0
1161;1721600592;-0.767388;0.12645833;-0.11012492;0.61885446;-0.09657006;-0.12293488;0.07970333;0
1162;1721617259;-0.76730245;0.12658985;-0.109812506;0.6189891;-0.11933731;-0.026149843;0.19025421;0
1163;1721633926;-0.76725626;0.12646364;-0.10942751;0.6191404;-0.14355443;-0.1387996;0.26364326;0
1164;1721650593;-0.7672231;0.12646763;-0.10916416;0.61922723;-0.06079083;-0.1811658;0.29934692;0
1165;1721667260;-0.7671487;0.12671658;-0.10909631;0.61928034;-0.052631322;-0.15025935;0.22402096;0
1166;1721683927;-0.76707256;0.12679364;-0.109017685;0.61937267;-0.117111795;-0.13819516;0.20757008;0
1167;1721700594;-0.76703405;0.1267743;-0.108900815;0.61944485;-0.1314616;-0.12982523;0.2526722;0
1168;1721717261;-0.76704365;0.1267809;-0.108832814;0.6194435;-0.06756724;-0.18419811;0.24383259;0
1169;1721733928;-0.767043;0.12697878;-0.10893239;0.6193865;-0.026557082;-0.21695852;0.2747488;0
1170;1721750595;-0.76701105;0.12733841;-0.1091974;0.6193055;-0.06725248;-0.20440961;0.27794266;0
1171;1721767262;-0.76699245;0.12751907;-0.10944562;0.6192475;-0.108225144;-0.14897737;0.22189236;0
1172;1721783929;-0.7669995;0.1274633;-0.109574005;0.6192274;-0.19080316;-0.10621073;0.21570873;0
1173;1721800596;-0.7670586;0.12707204;-0.10947769;0.6192516;-0.17576578;-0.14335933;0.12838554;0
1174;1721817263;-0.767135;0.12665325;-0.10934687;0.6192662;-0.090748884;-0.14716649;0.11555481;0
1175;1721833930;-0.7671942;0.12640303;-0.10933794;0.6192455;-0.07679553;-0.20396152;0.1168623;0
1176;1721850597;-0.7672108;0.12640926;-0.109489724;0.61919683;-0.041761998;-0.21037154;0.12914467;0
1177;1721867264;-0.7671691;0.12660779;-0.109779544;0.61915666;-0.099664204;-0.20267981;0.1733036;0
1178;1721883931;-0.76709193;0.1268012;-0.11002325;0.61916953;-0.1331508;-0.16981581;0.1814642;0
1179;1721900598;-0.7670126;0.12678067;-0.1100492;0.61926717;-0.10565653;-0.14027019;0.1475792;0
1180;1721917265;-0.7669709;0.12661691;-0.10992125;0.61937517;-0.10234686;-0.1740612;0.13424778;0
1181;1721933932;-0.76694226;0.12650013;-0.10978685;0.6194582;-0.13132806;-0.18687265;0.15270138;0
1182;1721950599;-0.7669194;0.12644769;-0.1096337;0.6195245;-0.071243525;-0.1931217;0.16908169;0
1183;1721967266;-0.7668835;0.12640183;-0.1094017;0.619619;-0.04723343;-0.15164913;0.17862129;0
1184;1721983933;-0.76686174;0.12635285;-0.10908614;0.61971176;-0.05566093;-0.100905985;0.18194199;0
1185;1722000600;-0.7668583;0.1263116;-0.1088531;0.61976546;-0.1314968;-0.13528474;0.10732269;0
1186;1722017267;-0.7668492;0.12640819;-0.10870644;0.61978257;-0.08851051;-0.17535272;0.09298229;0
1187;1722033934;-0.7667984;0.12678069;-0.1086764;0.6197749;-0.15304877;-0.15491234;0.11677456;0
1188;1722050601;-0.76673543;0.12718296;-0.10860855;0.619782;-0.16106376;-0.1045278;0.12595367;0
1189;1722067268;-0.76667833;0.12746681;-0.10848859;0.6198154;-0.13202877;-0.08569571;0.19468021;0
1190;1722083935;-0.7666248;0.12766808;-0.10842111;0.61985207;-0.1332867;-0.13421585;0.21263504;0
1191;1722100602;-0.76656854;0.1279522;-0.10844817;0.61985826;-0.118485674;-0.15163049;0.2517662;0
1192;1722117269;-0.7664907;0.1283577;-0.10853946;0.61985457;-0.13982457;-0.12240567;0.21408081;0
1193;1722133936;-0.76641333;0.12873285;-0.108613014;0.6198598;-0.08786395;-0.09185335;0.17846298;0
1194;1722150603;-0.7663225;0.12913454;-0.10873435;0.61986715;-0.13963196;-0.13018616;0.18581486;0
1195;1722167270;-0.76622576;0.12944281;-0.10880658;0.61990994;-0.17492515;-0.087735206;0.1954813;0
1196;1722183937;-0.7661581;0.12953666;-0.10880767;0.6199734;-0.17709462;-0.09792295;0.2734728;0
1197;1722200604;-0.7661314;0.12958157;-0.108795784;0.61999923;-0.12706259;-0.13805121;0.24988651;0
1198;1722217271;-0.76611316;0.12971476;-0.10872902;0.62000585;-0.038035143;-0.12922654;0.16083336;0
1199;1722233938;-0.766111;0.12988226;-0.108691454;0.6199799;-0.108382046;-0.13275209;0.119633675;0
1200;1722250605;-0.76613307;0.12997118;-0.108616754;0.6199471;-0.11329536;-0.15868297;0.17272186;0
1201;1722267272;-0.7661916;0.13008761;-0.1085381;0.619864;-0.11670265;-0.13438602;0.24200153;0
1202;1722283939;-0.766281;0.13028793;-0.108442076;0.61972845;-0.09261785;-0.1471254;0.19983387;0
1203;1722300606;-0.7664014;0.13045287;-0.108320534;0.6195658;-0.12798;-0.12441041;0.15637589;0
1204;1722317273;-0.7665592;0.13048777;-0.10810058;0.6194017;-0.17111188;-0.0814587;0.1904192;0
1205;1722333940;-0.76674443;0.13041621;-0.10776667;0.61924577;-0.14582884;-0.09713907;0.17048264;0
1206;1722350607;-0.7669547;0.13032818;-0.10738022;0.6190711;-0.1315338;-0.11532718;0.11095142;0
1207;1722367274;-0.76717;0.13034625;-0.1070851;0.6188513;-0.15774594;-0.11478972;0.16446304;0
1208;1722383941;-0.76737833;0.13047493;-0.106834196;0.6186092;-0.10900229;-0.12947226;0.15141106;0
1209;1722400608;-0.7675576;0.13071719;-0.10668579;0.6183615;-0.07726463;-0.17970265;0.1802988;0
1210;1722417275;-0.76771903;0.13105394;-0.10663457;0.6180986;-0.08960489;-0.18664137;0.2080679;0
1211;1722433942;-0.7678989;0.13146237;-0.10667129;0.6177817;-0.10703773;-0.14732529;0.21436882;0
1212;1722450609;-0.7680838;0.13184705;-0.106712565;0.6174626;-0.11849735;-0.122275025;0.18183708;0
1213;1722467276;-0.76827466;0.13209888;-0.10666238;0.6171803;-0.12114894;-0.1516091;0.17928028;0
1214;1722483943;-0.76846164;0.13224514;-0.1065478;0.616936;-0.037448198;-0.17223006;0.23657703;0
1215;1722500610;-0.7686399;0.13241868;-0.106530875;0.61667943;-0.053745814;-0.18969712;0.22553921;0
1216;1722517277;-0.7687851;0.13266753;-0.106603265;0.6164323;-0.05868316;-0.20104206;0.21114254;0
1217;1722533944;-0.7688905;0.13291727;-0.10670321;0.6162299;-0.022845091;-0.22292833;0.1824398;0
1218;1722550611;-0.76896775;0.13318567;-0.10683161;0.61605316;-0.051150773;-0.23202154;0.1964922;0
1219;1722567278;-0.769034;0.13344559;-0.10693777;0.61589587;-0.036662385;-0.20614824;0.19074726;0
1220;1722583945;-0.76909655;0.13369672;-0.10700475;0.6157517;-0.019027267;-0.21568565;0.15086651;0
1221;1722600612;-0.7691386;0.13401935;-0.10714629;0.6156043;-0.064240135;-0.24029627;0.15660763;0
1222;1722617279;-0.769154;0.13440093;-0.10730952;0.6154734;-0.08200942;-0.24192676;0.22960186;0
1223;1722633946;-0.76916873;0.1346814;-0.107323304;0.6153912;0.011064897;-0.21234559;0.2591505;0
1224;1722650613;-0.7691866;0.13490002;-0.107317105;0.61532223;-0.013322713;-0.17181231;0.22535324;0
1225;1722667280;-0.7692225;0.13498163;-0.10731912;0.615259;-0.057771895;-0.19767162;0.12783527;0
1226;1722683947;-0.76925576;0.13515615;-0.10732013;0.61517894;-0.016410097;-0.21615356;0.114972115;0
1227;1722700614;-0.7692762;0.13550633;-0.10735187;0.61507106;-0.06445655;-0.21736374;0.20106506;0
1228;1722717281;-0.7692815;0.13569947;-0.107339785;0.61502385;-0.07821752;-0.20652667;0.23608875;0
1229;1722733948;-0.76928705;0.13575688;-0.10732886;0.61500585;-0.06902337;-0.21434698;0.26891232;0
1230;1722750615;-0.76929086;0.13585125;-0.107384965;0.61497045;-0.037962504;-0.18832707;0.18404579;0
1231;1722767282;-0.76929283;0.13595255;-0.107408404;0.6149416;-0.06265951;-0.182595;0.18119621;0
1232;1722783949;-0.7692783;0.1360651;-0.1074473;0.61492807;-0.052128978;-0.19422407;0.18033314;0
1233;1722800616;-0.7692434;0.13632865;-0.10758372;0.6148897;-0.024117216;-0.1672557;0.19554138;0
1234;1722817283;-0.7691933;0.13673332;-0.107855216;0.61481476;-0.048514437;-0.15980014;0.18703175;0
1235;1722833950;-0.7691215;0.13714066;-0.10818395;0.61475605;-0.08789993;-0.1531104;0.2329359;0
1236;1722850617;-0.76904887;0.1375047;-0.108497694;0.6147105;-0.14996652;-0.1271131;0.2631569;0
1237;1722867284;-0.76896536;0.13767411;-0.10874286;0.6147337;-0.121570736;-0.13255867;0.23535919;0
1238;1722883951;-0.7688666;0.13767454;-0.10889934;0.6148295;-0.014313211;-0.15356734;0.20054436;0
1239;1722900618;-0.7687716;0.13781044;-0.10911864;0.6148791;-0.035683453;-0.15145232;0.16518688;0
1240;1722917285;-0.76868635;0.13796568;-0.109389186;0.6149026;-0.07216798;-0.16335402;0.14440727;0
1241;1722933952;-0.76859915;0.13814405;-0.10964833;0.6149253;-0.10949402;-0.11877948;0.19733047;0
1242;1722950619;-0.7685048;0.13829064;-0.10979469;0.61498415;-0.101944536;-0.13217106;0.1778965;0
1243;1722967286;-0.76839185;0.13834427;-0.10992488;0.61509013;-0.0302023;-0.18157455;0.1578598;0
1244;1722983953;-0.76824296;0.13854897;-0.11016451;0.61518687;-0.03955967;-0.16147283;0.1364479;0
1245;1723000620;-0.768083;0.1388234;-0.110452496;0.6152731;-0.08720123;-0.14600536;0.14770031;0
1246;1723017287;-0.7679328;0.13917255;-0.110743776;0.6153295;-0.07998411;-0.1327179;0.1652422;0
1247;1723033954;-0.7678049;0.13947886;-0.110944286;0.61538386;-0.13414125;-0.115953155;0.15884972;0
1248;1723050621;-0.7676946;0.13953874;-0.11101607;0.6154946;-0.1161912;-0.11584749;0.19360638;0
1249;1723067288;-0.7676333;0.13939482;-0.11097461;0.61561126;-0.09613728;-0.120424;0.1722393;0
1250;1723083955;-0.7676077;0.13924748;-0.11089429;0.61569095;-0.12050813;-0.104643375;0.13829517;0
1251;1723100622;-0.76760316;0.13914147;-0.11079459;0.6157386;-0.09361527;-0.12088058;0.14982796;0
1252;1723117289;-0.7675893;0.13916515;-0.11072287;0.61576337;-0.06614978;-0.12961078;0.1526146;0
1253;1723133956;-0.7675556;0.13933432;-0.110777885;0.6157572;-0.08970068;-0.10026185;0.13440704;0
1254;1723150623;-0.7675152;0.13956685;-0.11086169;0.6157399;-0.09081041;-0.14435413;0.107320786;0
