"sep=,",,,,,,,,,
"DeviceTag:,Xsens_2,,,,,,,,,,,,,,,,,",,,,,,,,,
"FirmwareVersion:,2.4.0,,,,,,,,,,,,,,,,,",,,,,,,,,
"AppVersion:,2022.0.1,,,,,,,,,,,,,,,,,",,,,,,,,,
"SyncStatus:,Synced,,,,,,,,,,,,,,,,,",,,,,,,,,
"OutputRate:,60Hz,,,,,,,,,,,,,,,,,",,,,,,,,,
"FilterProfile:,General,,,,,,,,,,,,,,,,,",,,,,,,,,
"Measurement Mode:,Sensor fusion Mode - Extended (Quaternion),,,,,,,,,,,,,,,,,",,,,,,,,,
"StartTime:,2020-11-25 11:02:17.796 +0100,,,,,,,,,,,,,,,,,",,,,,,,,,
"© Xsens Technologies B. V. 2005-2020,,,,,,,,,,,,,,,,,,,",,,,,,,,,
PacketCounter,SampleTimeFine,Quat_W,Quat_X,Quat_Y,Quat_Z,FreeAcc_X,FreeAcc_Y,FreeAcc_Z,Status
1,1702266872,0.5,0.5,-0.5,-0.5,-0.14440346,0.050927833,-0.12939744,0
2,1702283539,0.500499836501339,0.499678892249991,-0.499920831943295,-0.499900070105094,-0.171330151605221,0.0913525621674414,-0.170839130734776,0
3,1702300206,0.501175732415076,0.499146970642384,-0.499696794187294,-0.499978300344808,-0.160879175558691,0.00374455742658289,-0.059024235536526,0
4,1702316873,0.501807851814741,0.498644983660014,-0.499519944542513,-0.500021884653085,-0.202825912864624,-0.0249511154739858,0.0243028371011276,0
5,1702333540,0.502359053477195,0.498266419646652,-0.49940295674094,-0.499962641844778,-0.239779721286855,-0.097622529117323,-0.0242721700848729,0
6,1702350207,0.502914496286447,0.497921959698032,-0.499262364946631,-0.499887809836685,-0.219974691973773,-0.0687973178784959,-0.0486824868906127,0
7,1702366874,0.50343092275123,0.497600330646771,-0.49914376990807,-0.499806676546072,-0.194210772437289,0.000930143355851929,-0.0284694435831885,0
8,1702383541,0.503930294816311,0.497321441701187,-0.498991513157213,-0.499733040120096,-0.16469131104706,0.0471019420270296,-0.0430824466808965,0
9,1702400208,0.504390879837451,0.49709756120351,-0.498790080841974,-0.499692215504685,-0.139236865924384,0.0340696716349538,-0.0760634749767268,0
10,1702416875,0.504820240205522,0.496869696431832,-0.498573898541842,-0.499701008143236,-0.133876043264683,0.0190890288945955,-0.0828768162019853,0
11,1702433542,0.505190829075589,0.496669504436937,-0.498340969084757,-0.499757849475075,-0.173550146709381,0.0452329777774146,-0.0663661935684783,0
12,1702450209,0.505597305159828,0.496368292489719,-0.498044441827925,-0.499941613781322,-0.206646584955202,-0.0106170674807083,-0.109091564899983,0
13,1702466876,0.505923873390531,0.496241680935224,-0.497730545308316,-0.500049530249946,-0.210031269464494,-0.075104577432178,-0.0701270662861121,0
14,1702483543,0.506099282953087,0.496333594250729,-0.497537783218644,-0.499972632533423,-0.24944107686252,-0.165342213907171,-0.0777365342763355,0
15,1702500210,0.506216296270869,0.496530377149591,-0.497395088103404,-0.499800732580592,-0.238431040740603,-0.142679301698208,-0.0388035746598756,0
16,1702516877,0.506298728121809,0.496774564751934,-0.497269699095588,-0.499599315531105,-0.246429647697073,-0.117604619404017,-0.0635132202638125,0
17,1702533544,0.506287777793321,0.497171670176283,-0.497191728663933,-0.499292901390953,-0.166754586809195,-0.0414072614226293,-0.0209306467021377,0
18,1702550211,0.506234465877514,0.497610413832527,-0.497146836213052,-0.498954471717092,-0.129533867787185,-0.0106337282859819,-0.104560149921841,0
19,1702566878,0.506261558348292,0.497832629896757,-0.497026732275311,-0.498824953819037,-0.126279043851644,-0.0020143615276185,-0.152719743938461,0
20,1702583545,0.506550256181483,0.497673403156585,-0.496678297109616,-0.499037765037186,-0.135692719742871,-0.0109002573094055,-0.175077921421446,0
21,1702600212,0.506990485071128,0.497221467240054,-0.496162291737982,-0.499554242120217,-0.182127064167299,-0.00877655000989405,-0.0961395244248247,0
22,1702616879,0.507565664394199,0.496635821440792,-0.495537982050951,-0.500172035938412,-0.188728210173098,-0.112209823384399,-0.0327925710167046,0
23,1702633546,0.50800528407035,0.496270267998534,-0.495064711948892,-0.500557073109777,-0.202594034640617,-0.168447987949943,0.0167089223640836,0
24,1702650213,0.50820459359468,0.496260333682419,-0.494823411653787,-0.500603199692118,-0.230079983970861,-0.102087290241389,0.0678432902208182,0
25,1702666880,0.508309410935228,0.496400854167075,-0.49466512496489,-0.500513884802759,-0.216404370425085,-0.0678428371614968,-0.0528452349783157,0
26,1702683547,0.50856835110175,0.496352345229099,-0.494392400483154,-0.500568412894506,-0.193442802728713,-0.00221638915964638,-0.126328107157119,0
27,1702700214,0.508963058438358,0.496153855226091,-0.493983944167411,-0.500767231350223,-0.154943481262721,0.0137586963690505,-0.0905158474428982,0
28,1702716881,0.509243207044468,0.49604188440799,-0.493754403211967,-0.500819722356088,-0.111346949701463,-0.0150999249293427,0.0418783553362539,0
29,1702733548,0.509393252274344,0.496058402953328,-0.493735098929282,-0.500669778878306,-0.0911732578386456,-0.00906772623831221,0.0179886292072395,0
30,1702750215,0.509504049931867,0.496022217292404,-0.493807553944921,-0.500521410853008,-0.10689974309734,0.0347079025038998,-0.08082156066944,0
31,1702766882,0.509693576898796,0.49584566603495,-0.493839493493693,-0.500471865151639,-0.218880294884068,0.0441331365861631,-0.173354234479918,0
32,1702783549,0.510067457966403,0.495390341601823,-0.493713221365474,-0.500666408719666,-0.246868993257418,0.0358333714980052,-0.134279758098904,0
33,1702800216,0.510484514796474,0.494811284667575,-0.49352933239674,-0.500995160438361,-0.28926823335056,0.00660038020397208,-0.0720382504036221,0
34,1702816883,0.510715531968195,0.494486146745093,-0.493536560493388,-0.501073606908197,-0.270361590383217,-0.0834716664953625,0.058812719766786,0
35,1702833550,0.51071430700633,0.494515463884955,-0.49379859309574,-0.500787681612038,-0.245250700048662,-0.0798463856301245,0.0889283731763323,0
36,1702850217,0.510573900110044,0.494701710573592,-0.494196165222632,-0.500354534666396,-0.161803681114353,-0.0175626077114453,-0.0401260169682939,0
37,1702866884,0.510439706603323,0.494892645297048,-0.494593318779825,-0.499910016474928,-0.175012630378485,0.00188860449092962,-0.17024690887257,0
38,1702883551,0.510452293096022,0.494982957247885,-0.494828347787244,-0.499575054154326,-0.191586456768237,0.0234860873537625,-0.172341269602449,0
39,1702900218,0.510471504905361,0.495108979387117,-0.495031520957199,-0.499229140243942,-0.209628779308714,0.0638628295318331,-0.0560836657274651,0
40,1702916885,0.510411136874345,0.495362480802091,-0.495271982614453,-0.498800708906258,-0.212423440543347,0.109010562132618,0.0282223187720823,0
41,1702933552,0.510214393504163,0.495815325392973,-0.49562514335879,-0.498200916335185,-0.25525606654707,0.0988212476179989,0.0459993337760559,0
42,1702950219,0.509891492823359,0.496389703349087,-0.496091479404658,-0.497494896473792,-0.219601882183192,0.0837859440328599,-0.0258333879221031,0
43,1702966886,0.509576022607643,0.496961963543182,-0.496528954016474,-0.496809905092467,-0.225128480364211,0.033904359259549,-0.0999373536900874,0
44,1702983553,0.509314504151773,0.49747170376471,-0.496879933408516,-0.496216657912669,-0.172248146843407,-1.30598252129268e-05,-0.108134734491148,0
45,1703000220,0.509077335123914,0.498003623430135,-0.497158703094989,-0.49564693265519,-0.191285464563906,-0.065692933160209,-0.136647991841193,0
46,1703016887,0.508860352815943,0.49850173326346,-0.497428524546902,-0.495097996595071,-0.192624543339315,-0.0835277517418957,-0.0896610161375933,0
47,1703033554,0.508669604463923,0.498928317855628,-0.497722030644291,-0.494569052153077,-0.202512092480136,-0.0668500453359357,-0.072704777707546,0
48,1703050221,0.508532171256012,0.4992051825992,-0.497966076607521,-0.494185191008248,-0.210818762660187,-0.0319700779349338,-0.116423281769758,0
49,1703066888,0.508395815370928,0.499422563881451,-0.498185976277209,-0.49388412673433,-0.203707070366406,0.0202202047473922,-0.139247131978105,0
50,1703083555,0.508277440783444,0.499600756330739,-0.498392794753188,-0.493617007002891,-0.247278775237374,-0.025926353035192,-0.100098745795629,0
51,1703100222,0.508161325442423,0.499704368421475,-0.498584808635151,-0.493437736805105,-0.218291327882592,-0.0380984631486409,-0.0494062452528407,0
52,1703116889,0.508067046577107,0.49977907031993,-0.498718736869151,-0.493323806995163,-0.211015434133633,-0.0339758825788519,-0.0468570342028302,0
53,1703133556,0.507973314492099,0.499815841178571,-0.498818886002206,-0.493281821718971,-0.216472479253509,-0.072964038774369,-0.045447453045872,0
54,1703150223,0.507821148392127,0.499977899514108,-0.498926110492396,-0.493165811377971,-0.189691670118093,-0.059367178719228,-0.0117664441339084,0
55,1703166890,0.507518174421007,0.500314479082788,-0.499165970097697,-0.49289355742281,-0.175995679692489,-0.0762560141636724,0.0317464804277359,0
56,1703183557,0.507111768380997,0.500765616882085,-0.499529363485543,-0.492485397076839,-0.161461414717808,-0.0244999882369463,0.00939750169068367,0
57,1703200224,0.506688991578249,0.50116496148863,-0.499979611437444,-0.492057248027483,-0.130524770526297,-0.0442187032560658,-0.0134327730867216,0
58,1703216891,0.506362140807118,0.501433623307484,-0.500322005806911,-0.491771892526717,-0.144991178522272,-0.140176502738036,-0.136194890612008,0
59,1703233558,0.50620864356674,0.501514851190499,-0.500469621034396,-0.491696879830837,-0.158040767164221,-0.132659913999659,-0.185968117019632,0
60,1703250225,0.506158190229366,0.501471316538973,-0.500495420922442,-0.491766955770789,-0.195731827275091,-0.154654513005128,-0.189585081290707,0
61,1703266892,0.506135626698362,0.501362667960704,-0.500549290014963,-0.491846125152468,-0.211641114163928,-0.158819271226366,-0.108567332368067,0
62,1703283559,0.506008447109295,0.501274974563624,-0.500734796994841,-0.491877540053226,-0.247350431841007,-0.145293460008896,-0.0614030702590346,0
63,1703300226,0.505821998640645,0.501292956017439,-0.500962209660337,-0.491819420550585,-0.291948559556931,-0.146497911906917,-0.0979782450734892,0
64,1703316893,0.505604753360138,0.501382459741946,-0.501203034478945,-0.49170619344467,-0.320937532991921,-0.140519834520323,-0.0762686799749759,0
65,1703333560,0.505330866500537,0.501594075465898,-0.501504916582285,-0.491464055107922,-0.319483974671662,-0.147701320148978,0.0250425017056329,0
66,1703350227,0.504823866946086,0.50209328275774,-0.502020550483824,-0.490948638518405,-0.255859145340019,-0.162460004123363,0.0439639804212514,0
67,1703366894,0.504189362595763,0.502780383363138,-0.502655860769129,-0.490246936130089,-0.191068777557538,-0.165694028807628,-0.0438892321405798,0
68,1703383561,0.503630727004787,0.503403166407649,-0.503254896802845,-0.489567004312321,-0.115623028488191,-0.117863901767688,-0.117762941501551,0
69,1703400228,0.503246736318474,0.503828748588274,-0.503710630399948,-0.489055125014415,-0.0818714609850923,-0.0468116542934045,-0.149563649601204,0
70,1703416895,0.502968800821388,0.504098358411143,-0.504099217030924,-0.488662674895776,-0.123960777059435,-0.101030145975745,-0.103866326799474,0
71,1703433562,0.502758245556997,0.504299949801316,-0.504433751731559,-0.488326015351285,-0.233260328431377,-0.125358249707042,-0.124467491958567,0
72,1703450229,0.50261506713005,0.504488390638043,-0.504722164739066,-0.487980629150793,-0.266250721171368,-0.114099251594419,-0.0517335202088196,0
73,1703466896,0.502525894956783,0.504595551270523,-0.504971160444481,-0.487703989788105,-0.226876372012258,-0.0561353898728732,-0.122738263831561,0
74,1703483563,0.502475616380264,0.50463521533692,-0.505192735452886,-0.487485235090013,-0.242169776851477,-0.103724000302227,-0.176550286848004,0
75,1703500230,0.502590162345405,0.5045490868741,-0.505276669903809,-0.487369299914396,-0.259910980640749,-0.106373777805568,-0.0474168472577222,0
76,1703516897,0.502680719271329,0.504519258365965,-0.505346869497337,-0.487233982702312,-0.208782837983795,-0.0430134515747347,-0.0207119161760824,0
77,1703533564,0.502792108725776,0.504437409900119,-0.505418790034776,-0.487129183662949,-0.159089581997915,-0.0514542744322503,-0.0333910835270358,0
78,1703550231,0.502967055243243,0.504351368166445,-0.505462421904678,-0.486992380649669,-0.145018855206943,-0.0947251463558784,-0.0504970863486701,0
79,1703566898,0.503129122403469,0.504283275819388,-0.505573692608578,-0.48677993514576,-0.146511651631496,-0.118490956985034,-0.0882175826576857,0
80,1703583565,0.503298693192913,0.504151617294215,-0.50570994517223,-0.486599448791132,-0.196685736104392,-0.0667748124647217,-0.0901109952631162,0
81,1703600232,0.503449452911082,0.504066769979857,-0.505832183060564,-0.486404299267379,-0.218668783897153,-0.0357686418835194,-0.168406483116241,0
82,1703616899,0.503677168439616,0.503888959251286,-0.505897049027263,-0.486285309795406,-0.238710397164341,-0.0235589532547021,-0.181703760902738,0
83,1703633566,0.503980333141912,0.503612332977883,-0.505910251989037,-0.486244032159912,-0.20216720566331,0.0298526187196217,-0.066678997286997,0
84,1703650233,0.504146271358752,0.503484425696328,-0.50606803353526,-0.486040240710646,-0.162392119984965,0.0671917321680553,-0.0127923229889042,0
85,1703666900,0.504150815829638,0.503430415075688,-0.50638507979569,-0.485761179012222,-0.191414647959005,0.0787978432790813,-0.130301670842138,0
86,1703683567,0.504126130160817,0.503338481811037,-0.506727397495566,-0.485525037711352,-0.169763999786765,0.0420445439570193,-0.203396518748891,0
87,1703700234,0.504162408708695,0.503154374266075,-0.507047838366129,-0.485343621478841,-0.158671245716389,0.0191130635249231,-0.150929571406168,0
88,1703716901,0.504152278427583,0.502956576139423,-0.507421316042059,-0.485168806396836,-0.152972280853552,-0.0011006591440535,-0.000153498116463233,0
89,1703733568,0.504024521427225,0.502781184725938,-0.507894387933578,-0.48498830170553,-0.143312704364493,0.0337904559574179,-0.0421596146823397,0
90,1703750235,0.503834476220562,0.502629632652289,-0.508418956842648,-0.484793190210434,-0.181906418829164,0.0385269751066651,-0.110891185892523,0
91,1703766902,0.503684087652355,0.502387128201582,-0.50891580491558,-0.484679499020032,-0.194067500854363,-0.00720374425149489,-0.0743812124254047,0
92,1703783569,0.503496465060608,0.502149143493089,-0.509419763330703,-0.484591634356929,-0.227708312567481,-0.03168079351274,-0.0504909867422562,0
93,1703800236,0.503336823568292,0.501957762439236,-0.509891831072585,-0.484459252541041,-0.232395489761176,-0.0407942222640692,-0.0444039611307728,0
94,1703816903,0.503201529527981,0.501751191572689,-0.510324783211991,-0.484357902873198,-0.215909908097996,0.0148544318930612,-0.0489607300184945,0
95,1703833570,0.503057362698398,0.501533170599715,-0.510740705705702,-0.484295054856409,-0.20387756369865,0.011977750364855,-0.0852494558898215,0
96,1703850237,0.502853201312617,0.501340398265097,-0.511159507270633,-0.484264825404335,-0.150132627769719,-0.00372263553838923,-0.0755183410160477,0
97,1703866904,0.502666182316352,0.501090928653034,-0.511557548802603,-0.484296876554266,-0.129454048334199,-0.0222304783237823,-0.0986927878316385,0
98,1703883571,0.50247241566712,0.500769789055788,-0.511947951772021,-0.484417572492063,-0.0758052326700716,-0.0253911293483099,-0.0853763617074018,0
99,1703900238,0.502330524207643,0.500322606615177,-0.512300273963846,-0.484654271677902,-0.0946533323709385,-0.0448155294865215,-0.07448473408975,0
100,1703916905,0.502301381862801,0.49973809274763,-0.512537979170758,-0.485036060868918,-0.140108995849664,-0.0726610391436142,-0.0740758193279904,0
101,1703933572,0.502266099882145,0.499119967283072,-0.512736932513483,-0.485498569725173,-0.164701884160955,-0.0780181472674987,-0.0731487608486499,0
102,1703950239,0.502230995931551,0.498566333147911,-0.512942198701021,-0.485886755292641,-0.198710134352007,-0.148039678966038,-0.0450561437161421,0
103,1703966906,0.502146885105557,0.49803071721888,-0.513187669289049,-0.486263638960294,-0.25455001967381,-0.0981859540947886,0.00337827227701142,0
104,1703983573,0.50201614891165,0.497577487765692,-0.513448117152888,-0.486587567548588,-0.234979417715336,-0.060727273925699,-0.0147990142167858,0
105,1704000240,0.501864940183424,0.497171093283214,-0.513699663656384,-0.486893357294571,-0.215256668344022,0.0270264416175475,-0.0159526979897098,0
106,1704016907,0.501687962565688,0.496836684202474,-0.513931468869824,-0.487172395310618,-0.185610283021046,0.0153077520500204,-0.0133428495474559,0
107,1704033574,0.501470593933554,0.496610432351046,-0.514174958462426,-0.487369914941616,-0.214201544966739,0.00349319758972785,0.0186690147888772,0
108,1704050241,0.501187715740467,0.496463976682097,-0.514430620908026,-0.48754028522783,-0.180054659917657,0.0232388042343371,-0.0209972553909579,0
109,1704066908,0.500937651996017,0.496352528287915,-0.514628646087136,-0.487701746051246,-0.17711752746667,0.0327234427827786,-0.0190455972045359,0
110,1704083575,0.500699863259041,0.496255750244083,-0.514764403727601,-0.487901102619195,-0.154041251992628,0.00970393596715291,-0.0097785128738203,0
111,1704100242,0.500507989658161,0.496151735726945,-0.514816932124795,-0.488148270324807,-0.174867936302874,-0.0292085291595179,-0.0433060935466135,0
112,1704116909,0.500366573770872,0.496061951399928,-0.514831905365979,-0.488368653215304,-0.172228271742567,-0.0427910536746893,-0.00576501480246578,0
113,1704133576,0.500226866787706,0.496003277271334,-0.514842830981478,-0.488559812169225,-0.229467633617357,-0.0123607150767346,-0.0289166931707054,0
114,1704150243,0.500134486779571,0.495936586894991,-0.514775007255356,-0.488793503248488,-0.266131635310101,-0.0784470365815579,-0.0372175648669539,0
115,1704166910,0.500095815741836,0.495854952216049,-0.514650713124378,-0.489046710367114,-0.270074081736516,-0.0928436852604379,0.0233176219950926,0
116,1704183577,0.499971627730855,0.495820127119707,-0.514668518101816,-0.489190238539198,-0.236403057668129,-0.067110305321173,0.118830153017024,0
117,1704200244,0.499748288056294,0.495888440211704,-0.514825773312923,-0.489183734993261,-0.19189105731059,-0.0952730020984572,0.0958979384431038,0
118,1704216911,0.499462234584186,0.496008595063773,-0.515079926567943,-0.489086514937589,-0.140157101311889,-0.105441864153688,-0.0338767580140867,0
119,1704233578,0.499253687768806,0.496019394978572,-0.515270122364612,-0.489088147528334,-0.161187634161941,-0.147372154506115,-0.106600349069303,0
120,1704250245,0.49925316498285,0.495866430194447,-0.515286737076306,-0.489226265907786,-0.255006264823642,-0.11338743324472,-0.0347055678097747,0
121,1704266912,0.499382621680441,0.49558245835967,-0.515195029378322,-0.489478401805049,-0.241958921195388,-0.115596854336901,0.0686240167775736,0
122,1704283579,0.499491679413046,0.495420834287044,-0.515132185224238,-0.48959686569418,-0.237050403092397,-0.144478991882395,0.0482599499155938,0
123,1704300246,0.499465602903771,0.495456717325619,-0.515198580196065,-0.489517288496385,-0.248302883036528,-0.0725531942439726,0.103803669330801,0
124,1704316913,0.499406761990576,0.49560960781253,-0.515296342776462,-0.489319611136934,-0.259540609134759,-0.0776328194759029,0.0717080549617494,0
125,1704333580,0.499422745954575,0.49567423180869,-0.515308599112198,-0.4892249221218,-0.209729558143382,-0.0864343953760994,-0.0320485336665383,0
126,1704350247,0.499583368824786,0.495603819620544,-0.515172848371303,-0.489275227118852,-0.187969413628164,-0.0623133605645759,-0.0500002330238712,0
127,1704366914,0.499826670819549,0.495508219442858,-0.514976570057271,-0.489330191071493,-0.173462453542912,-0.0670212443261657,-0.0130690319234419,0
128,1704383581,0.50002014991593,0.495496364088553,-0.514822608786397,-0.48930653412298,-0.188140940010862,-0.0289817637739754,0.0356389355117567,0
129,1704400248,0.500134392780038,0.495668113221308,-0.514701849267347,-0.489142839112405,-0.146200832427586,-0.0104110684317833,0.0435387486647116,0
130,1704416915,0.500253751149874,0.495872270974062,-0.51458779735595,-0.488933813672013,-0.113019953064611,0.0177937924591275,-0.012937512431474,0
131,1704433582,0.500442547181801,0.495991449337237,-0.51439638104007,-0.488821135311698,-0.129542354526786,0.0592307422550889,-0.0529311092281058,0
132,1704450249,0.500737358124108,0.496008211237383,-0.514127765447055,-0.4887848129396,-0.183033757948728,0.0479585851599016,-0.0891872789011177,0
133,1704466916,0.501070123692837,0.496033578801531,-0.513808943872976,-0.488753300796964,-0.217361759991498,0.0036271924662433,-0.0336020601152047,0
134,1704483583,0.501373234232495,0.496118607819986,-0.513448887630663,-0.488734536083591,-0.234498593519157,0.0357701528661129,-0.0451596438717041,0
135,1704500250,0.501559319791289,0.496390308908712,-0.513159757285588,-0.488571359633994,-0.22583456232926,0.0154497095458939,-0.0198384527529871,0
136,1704516917,0.501649530026113,0.496774613052897,-0.512977339953689,-0.488279614099095,-0.201943139281638,0.0498836318848131,0.0319834298659296,0
137,1704533584,0.501642109617266,0.497207897098024,-0.512838509651772,-0.487991971184208,-0.183341443675288,0.0577580391221903,-0.045036188139965,0
138,1704550251,0.501636011211573,0.497663075172504,-0.5126618875366,-0.487719760654619,-0.167432226578299,0.0258334272788659,-0.114913739268132,0
139,1704566918,0.501659167547292,0.498109542943606,-0.512414167671031,-0.487500444732387,-0.164401152827384,0.0509813998790063,-0.0979305946940037,0
140,1704583585,0.501652552513024,0.498473578350845,-0.51217586136998,-0.487385571465951,-0.172864140565288,0.062090591751492,-0.051816442919324,0
141,1704600252,0.501612916421445,0.498874276918878,-0.511937223220747,-0.48726709040204,-0.199763501685054,0.0628081617052866,-0.0459895425643019,0
142,1704616919,0.501545679711774,0.499286601770356,-0.511733014641679,-0.487128465787829,-0.194386621003519,-0.0130392451857931,-0.0630393552361946,0
143,1704633586,0.50142969171921,0.499747331231461,-0.511578961085949,-0.486937198993497,-0.220459483823275,-0.0256085332049999,-0.0551573364006783,0
144,1704650253,0.501287566650329,0.50018769657754,-0.511442999966521,-0.48677417916267,-0.217747894180811,-0.0015796707542182,-0.025318883182105,0
145,1704666920,0.501159751774374,0.500570818014852,-0.511310581619352,-0.4866510541214,-0.202115723436918,-0.04132906492381,-0.0669708270595729,0
146,1704683587,0.50105153886079,0.500908119461709,-0.511154650912025,-0.486579216688891,-0.162485326367467,-0.000451466385403046,-0.0836857010655082,0
147,1704700254,0.500982330626314,0.501193049107959,-0.510986122900753,-0.486534083214064,-0.16937438663593,0.0105026850566259,-0.049135238032591,0
148,1704716921,0.500925579920922,0.501463253024387,-0.51079908320155,-0.486510499216146,-0.173435322775171,0.082609285564625,-0.0286431543226724,0
149,1704733588,0.500837933348521,0.501743448987254,-0.510624473379706,-0.486495141911257,-0.156584905645654,0.0963094647714674,-2.19398365811853e-05,0
150,1704750255,0.500745350899702,0.502007808634317,-0.510494466598508,-0.486454163508556,-0.164587997051089,0.0392108980126649,-0.0174081999536343,0
151,1704766922,0.500629350498304,0.502313169157193,-0.510448563788931,-0.486306484880391,-0.151215730996004,-0.0135895564111569,-0.0497877274747229,0
152,1704783589,0.500458835695136,0.502666356540466,-0.510448451812877,-0.486117131789077,-0.141070752473808,0.0109633798042195,-0.142053481353565,0
153,1704800256,0.5002836623797,0.502987385026783,-0.510457798112357,-0.485955537067083,-0.144357932883678,0.0375673049163698,-0.186751972054147,0
154,1704816923,0.500192384675092,0.503155883742477,-0.510432000735799,-0.485902158457052,-0.174368070525177,0.0260546041956351,-0.163302414381944,0
155,1704833590,0.50015006124615,0.503151070000012,-0.510387809922978,-0.485997119822063,-0.225161304490805,0.0336581328590592,-0.1021596481261,0
156,1704850257,0.500115429118611,0.503155322812118,-0.510343828539655,-0.486074536830339,-0.277262609395435,-0.0218371559760176,-0.122563218778934,0
157,1704866924,0.50011587398019,0.503183933705301,-0.510275773697856,-0.486115908226572,-0.326506237740899,-0.098226727524047,-0.103495359647256,0
158,1704883591,0.500031839608929,0.503447562277647,-0.510294515724599,-0.48590968156171,-0.306239341906507,-0.119237423940146,-0.0548898423697494,0
159,1704900258,0.499838843132012,0.503834653204665,-0.510429488868403,-0.4855651449807,-0.263392224873643,-0.0578652120343675,-0.076236402030009,0
160,1704916925,0.499638128988633,0.504214846619188,-0.510570846198799,-0.485228337508609,-0.194595269554693,0.00581192274832206,-0.11346055346017,0
161,1704933592,0.499493426788852,0.504470977338471,-0.510665721753289,-0.485011206307742,-0.13960035412241,0.0581629019420613,-0.165991605927024,0
162,1704950259,0.499424782464508,0.504576917434798,-0.510707027653383,-0.484928193609861,-0.125831509827828,0.0331701194348219,-0.122641687226409,0
163,1704966926,0.499346902820345,0.504628737205789,-0.510773792131555,-0.484884152660582,-0.157180650015044,-0.0286792282658058,-0.0994534017460799,0
164,1704983593,0.49928415873856,0.50467522107165,-0.510841921742385,-0.484828609984556,-0.204409929728035,-0.0623713719434615,-0.0937905494918727,0
165,1705000260,0.499204568739587,0.504738257246483,-0.510965110467746,-0.484715118503632,-0.205924926708399,-0.0516883941921355,-0.0376121679581415,0
166,1705016927,0.499081389330698,0.504795570034402,-0.51111690290232,-0.484622235215145,-0.227382984727466,-0.0842375381380121,-0.0781808062250091,0
167,1705033594,0.498992224081939,0.504833881730421,-0.511227589820129,-0.484557389345635,-0.183327618447771,-0.0909495415133159,-0.105035526369358,0
168,1705050261,0.498882109585884,0.504797960778501,-0.511346432189771,-0.484582795625058,-0.156836250709244,-0.073045881535886,-0.134259199704199,0
169,1705066928,0.498855049020406,0.504645189496186,-0.511438811266022,-0.484672275992764,-0.168183398018667,-0.0972738360883979,-0.114825420815243,0
170,1705083595,0.498876462391062,0.504466035248554,-0.511536612901935,-0.484733522890256,-0.196491983415657,-0.131459492359892,-0.0977071618190682,0
171,1705100262,0.498906923679199,0.504299913387614,-0.511624164221508,-0.484782624943227,-0.247335337091595,-0.115234568681449,-0.106638318586452,0
172,1705116929,0.498909080695302,0.504187774569608,-0.511730649194459,-0.484784653067042,-0.26751518711258,-0.0669188408639778,-0.0223232381117629,0
173,1705133596,0.498833402413114,0.504100750870631,-0.511904679320496,-0.484769294508637,-0.237460337696858,-0.08706529975588,-0.0612015691893447,0
174,1705150263,0.498735686102207,0.504031838259793,-0.512145633384578,-0.484686983148634,-0.162336893427042,-0.111478701796807,-0.111925477757343,0
175,1705166930,0.498672112360045,0.503829379241095,-0.512394530957522,-0.48469983042366,-0.205559535694523,-0.0582873994210431,-0.113321060482156,0
176,1705183597,0.498677841070058,0.503461955937238,-0.51258382362972,-0.484875544343797,-0.175512910499265,-0.0462719981398337,-0.135040920004411,0
177,1705200264,0.498794411731658,0.502934536012893,-0.512666119649996,-0.485215866469534,-0.163978859094499,-0.085410435893694,-0.125072845730199,0
178,1705216931,0.498954343974457,0.502413602095575,-0.512709127663744,-0.485545554473163,-0.179487329526457,-0.0813420599204362,-0.0670066527974571,0
179,1705233598,0.49918276605931,0.501893294303646,-0.512740132747589,-0.485816059298573,-0.221324501662478,-0.149358317342644,-0.0246262924668318,0
180,1705250265,0.499396703545478,0.501482285602925,-0.512785830391591,-0.485972367387265,-0.239730012744917,-0.1278631290997,0.0785204644208425,0
181,1705266932,0.499492533867999,0.501297678358294,-0.512884932653995,-0.485959763909747,-0.213913594851344,-0.0938578257398666,0.0170334917255535,0
182,1705283599,0.49959893918818,0.501143529402633,-0.51295479714652,-0.485935632552593,-0.202980622059715,-0.0620002646602444,-0.0849085110886128,0
183,1705300266,0.499809056862857,0.500925148699946,-0.512920845815345,-0.485980563403382,-0.173123151069723,-0.0917153947535305,-0.109901574869462,0
184,1705316933,0.500128462941108,0.500633390188515,-0.512784413202645,-0.486096569377873,-0.190257971760532,-0.0785242097109684,-0.0603529960372723,0
185,1705333600,0.500481127638964,0.500367076812734,-0.512605343884941,-0.486196658503235,-0.202764804895913,-0.0750466813816515,0.00264314433933326,0
186,1705350267,0.500806093001681,0.50021645783252,-0.51237603490632,-0.486258728846646,-0.225238450647539,-0.0541164311610522,-0.0145224352515536,0
187,1705366934,0.501142375503381,0.50013794404296,-0.512094985916253,-0.486289092827242,-0.234964997749472,-0.0668617005848143,-0.0288437886647489,0
188,1705383601,0.501477632038073,0.500134745454253,-0.511785663393021,-0.486272408944063,-0.234491715354611,-0.0195407313307328,0.00377520217790489,0
189,1705400268,0.501774834427184,0.500241663130084,-0.511491106618335,-0.48616575553485,-0.1940757960407,0.0073017087578705,0.00875614455033898,0
190,1705416935,0.502051112740671,0.500396141737341,-0.511186942152726,-0.48604145060147,-0.199635443831298,-0.020762280009368,-0.0463552826669515,0
191,1705433602,0.502341919473596,0.500513199923841,-0.510823458007198,-0.486002600189699,-0.173556830981759,-0.00926699676551526,-0.0821920308329449,0
192,1705450269,0.502666032303313,0.500583847441964,-0.510378816038269,-0.48606186415725,-0.168010479307291,-0.000690978407008785,-0.0339720077202026,0
193,1705466936,0.502995617459382,0.500660678228205,-0.509908450784082,-0.48613543988451,-0.161846316099772,-0.0208905995130703,0.00545782281131875,0
194,1705483603,0.503289396645657,0.500802902463601,-0.50945688319857,-0.486158328396915,-0.162618021655768,-0.0189635087790016,-0.00349374318302826,0
195,1705500270,0.503513012813678,0.500984039010278,-0.509049264619007,-0.486167136667103,-0.166731270421643,0.00884275653171933,-0.0202105164525235,0
196,1705516937,0.503689241945396,0.501155002369099,-0.508693532362058,-0.486180729031821,-0.180723324815575,0.0193300822027123,-0.0315741117579941,0
197,1705533604,0.503831637837435,0.5012569296258,-0.508363979230255,-0.486272799812353,-0.173985920330954,-0.0147568260023075,-0.0657177740038259,0
198,1705550271,0.504016692497251,0.501235994138467,-0.508019400505008,-0.486462681584813,-0.173844356202012,-0.0488117173181807,-0.0644462080775938,0
199,1705566938,0.504215413266806,0.501155719812842,-0.507655223881813,-0.486719565241178,-0.179604473059715,-0.0843343839862436,-0.0110881211633305,0
200,1705583605,0.50435323830617,0.501114002287379,-0.507347573579655,-0.486940455604625,-0.178789734034098,-0.0672788321673318,0.0129979788441667,0
201,1705600272,0.504402582598787,0.501127550471366,-0.5071626455268,-0.487068027906266,-0.152303010287928,-0.0166371122262782,0.0450972436752071,0
202,1705616939,0.504390682831959,0.501133543574193,-0.507029146382066,-0.48721315180951,-0.166185529655418,-0.00830840864592851,0.0166107466715556,0
203,1705633606,0.504361953124455,0.501158241137258,-0.5069251331994,-0.487325709265853,-0.179423426151017,0.0178332080145924,0.00672271560760287,0
204,1705650273,0.504298152492731,0.501141078031514,-0.506876270879644,-0.487460192550095,-0.146821201335904,0.0369886366630157,0.0201977563902464,0
205,1705666940,0.504218212993749,0.501120938914449,-0.506841230381631,-0.487600005590777,-0.167985082469972,-0.0218960718592618,0.0104790991619933,0
206,1705683607,0.504079935900736,0.501135689959823,-0.506863246783567,-0.487704918501775,-0.151786400962453,0.0190329070350626,-0.000202280927454807,0
207,1705700274,0.50388162296552,0.501137483750787,-0.50694928435443,-0.487818568230132,-0.168006251072989,-0.0144266601687921,-0.00362274793211685,0
208,1705716941,0.503736493242737,0.501077280754579,-0.507015110391964,-0.487961865232654,-0.195913114105646,-0.0637771725048909,-0.0150546685498443,0
209,1705733608,0.503615267639994,0.500986160296108,-0.507071062588954,-0.488122389239183,-0.205945770052901,-0.0887012709633296,0.000341186883498552,0
210,1705750275,0.503509401541607,0.500885364308415,-0.507129882813922,-0.488273915274999,-0.214673364959728,-0.14847545950907,-0.0045888311392119,0
211,1705766942,0.503397614312527,0.500780476826102,-0.507196613399921,-0.488427426840395,-0.20598130453183,-0.112138051652413,-0.0317107777677836,0
212,1705783609,0.503292735721328,0.500687827433981,-0.507245167984699,-0.48858004583257,-0.209141179407538,-0.110857156930326,-0.0461191821616256,0
213,1705800276,0.503197017429852,0.500587929484749,-0.507303337005975,-0.488720585576744,-0.17643568800791,-0.0679181511700283,-0.0121974046906729,0
214,1705816943,0.503034293953682,0.500512796856917,-0.507435396901201,-0.488827942389454,-0.180295400551831,-0.0185672685541103,0.00810579428008464,0
215,1705833610,0.502837722519416,0.500432755242179,-0.507617344256584,-0.48892321902534,-0.181152395559834,-0.0192452767290893,0.00545822812176391,0
216,1705850277,0.502654151149283,0.500316916951387,-0.507800061914404,-0.489040779551542,-0.206681171885303,-0.0501427998208122,-0.0205233801733191,0
217,1705866944,0.502478814820548,0.500219463596645,-0.507977057080541,-0.489136829911033,-0.210590281322493,-0.0805533324621028,-0.0178640178917969,0
218,1705883611,0.502274689019094,0.500174491615613,-0.508194904512015,-0.489166182126135,-0.211236808481549,-0.0873084049423894,0.0251732302820156,0
219,1705900278,0.502042590049487,0.50017483163913,-0.508452067926677,-0.489136862434489,-0.198601317980742,-0.107986458836725,0.019659062030939,0
220,1705916945,0.501800162208632,0.500212416142607,-0.508705192458424,-0.489084004144486,-0.17051027010239,-0.109983332625128,-0.0510387772699787,0
221,1705933612,0.501593001678704,0.500226362070961,-0.508953166238714,-0.489024254952438,-0.176658854318943,-0.139353255350545,-0.0875337079403247,0
222,1705950279,0.501464947301886,0.500170545325014,-0.509134833348042,-0.489023571710462,-0.19876674243051,-0.169416938315355,-0.115679833539488,0
223,1705966946,0.501435336380872,0.50007728935821,-0.509236273126202,-0.489043685399661,-0.217219398187639,-0.149957583718859,-0.0981371843989501,0
224,1705983613,0.501492998571781,0.499996832373367,-0.509267115531822,-0.489034707396091,-0.264622948697631,-0.0833626345246333,-0.0448495731818469,0
225,1706000280,0.501561124535085,0.499978539569103,-0.509269153532202,-0.488981418446594,-0.333951584687248,-0.0322175732075827,-0.00922248934654572,0
226,1706016947,0.501604911132434,0.500029556619788,-0.509278802007672,-0.488874275719301,-0.308986418921519,0.0324672192278033,0.0056743706789929,0
227,1706033614,0.501587930688026,0.500130069592798,-0.509343087965457,-0.488721884121245,-0.24587918580386,0.0399334125191956,-0.153959646639319,0
228,1706050281,0.501634560328256,0.500183473010474,-0.509374988732693,-0.488586105067497,-0.239617961456916,0.00692258475452149,-0.106018933792404,0
229,1706066948,0.501744791137886,0.500143465768408,-0.509329513122519,-0.488561280984835,-0.202807048230999,-0.0388494960156628,-0.0718048352284278,0
230,1706083615,0.501903551296591,0.500070165072491,-0.509216061991669,-0.488591503620293,-0.158038448161394,-0.0838779570472171,-0.105350636339509,0
231,1706100282,0.50212864772902,0.499996303128327,-0.509056351873734,-0.488602239664164,-0.106092208907351,-0.0513817689688926,-0.120911563123714,0
232,1706116949,0.502304294544127,0.499930216751604,-0.508991361554716,-0.488557026276257,-0.114166107493287,0.0162648051260553,-0.0812217314480075,0
233,1706133616,0.502420866660508,0.499861553566882,-0.508991044363958,-0.488507744838394,-0.131922795862345,0.0321553748603915,-0.0917521657744922,0
234,1706150283,0.502579307292552,0.499737008176481,-0.508981921142444,-0.488481695143539,-0.155321313881148,4.70286338661251e-05,-0.15792333775838,0
235,1706166950,0.502827819074819,0.499499210578553,-0.508859771360021,-0.488596414320951,-0.207478971011421,-0.0204612966498213,-0.169341246726988,0
236,1706183617,0.50316308776252,0.499162983758346,-0.508621513465315,-0.48884289787109,-0.257223003595481,-0.0181428138051473,-0.136436753450306,0
237,1706200284,0.503485881182113,0.498889431828052,-0.5083983430074,-0.489021908597033,-0.262418250021803,0.0160296143797754,-0.0336402309698262,0
238,1706216951,0.503631653202281,0.498809671095663,-0.508322446876956,-0.489032064301716,-0.250433900325847,0.0674077783757437,-0.0232198614937154,0
239,1706233618,0.50366183119362,0.498848403152946,-0.508324261993483,-0.488959584361761,-0.235071267280849,0.0840217036276114,-0.0682201008182983,0
240,1706250285,0.503681880806666,0.4988583046437,-0.508303466959178,-0.488950447706466,-0.198632259402354,0.0808189673178702,-0.112793048377994,0
241,1706266952,0.50375017886942,0.498787300165045,-0.508181266826825,-0.489079529861327,-0.174576569925243,0.0546113796554922,-0.153542526350305,0
242,1706283619,0.503884903177735,0.498602524284812,-0.507964663460644,-0.489354092454219,-0.162522207739261,0.0558710602748994,-0.14397539702586,0
243,1706300286,0.50402538768616,0.498426697798172,-0.507733113763441,-0.48962875801765,-0.200080971868708,0.0117929904742195,-0.0802983528904662,0
244,1706316953,0.504150879208722,0.498229526442351,-0.507484242172078,-0.489958134865761,-0.214337048097847,-0.0387944923426839,-0.0548291407051433,0
245,1706333620,0.504208220358534,0.49813028947214,-0.507285692233709,-0.490205581045594,-0.207047672568354,-0.0592161849487574,-0.0197445940580567,0
246,1706350287,0.504252077435096,0.498083905181483,-0.507098819402402,-0.490400910645813,-0.205405672572475,-0.0717646692849042,-0.0784024018912125,0
247,1706366954,0.504301884380191,0.498023993073625,-0.506895441656375,-0.490620752681314,-0.208407728441752,-0.0337795031614029,-0.100603997259296,0
248,1706383621,0.504366489834366,0.49795117567342,-0.506672299093977,-0.490858688329382,-0.214743825794267,-0.0312741789651711,-0.0788830356292791,0
249,1706400288,0.504421170219394,0.49782112539145,-0.506491355057695,-0.491121082219352,-0.20496478546766,-0.022269260025548,-0.0538223295357709,0
250,1706416955,0.50444289056626,0.497705401546843,-0.506359349644433,-0.491352126744068,-0.185707725543878,-0.0527082661033587,-0.0339600752966394,0
251,1706433622,0.504447629072019,0.497580256649849,-0.506248536062068,-0.491588138029084,-0.188857066676607,-0.0583448052446104,-0.0633005689779479,0
252,1706450289,0.50449588821802,0.497447001632878,-0.506094970195748,-0.491831536687244,-0.182220499599419,-0.0657530194296132,-0.103232007506842,0
253,1706466956,0.504594567443264,0.497254641158838,-0.505906034760195,-0.492119120077606,-0.171512650336667,-0.0171619289756302,-0.0604345760874374,0
254,1706483623,0.504702780766622,0.497048153025984,-0.505689914476051,-0.492438774932581,-0.191843825736718,-0.00157952175526583,-0.0247995639713381,0
255,1706500290,0.504798454338682,0.496894081722692,-0.505502731171093,-0.492688320162762,-0.202694226121645,-0.0245780656551157,-0.00587360295292199,0
256,1706516957,0.504902165013091,0.496755024592135,-0.505337819987223,-0.492891404873448,-0.199778670991929,-0.0316964131379301,-0.00797375308976539,0
257,1706533624,0.505029458183852,0.496622929794996,-0.505171037896535,-0.493065040779507,-0.225197644093882,-0.0469991738508098,-0.0371983452018135,0
258,1706550291,0.505214832753913,0.496545836763661,-0.504959301573886,-0.493169654897912,-0.222613761809112,-0.0704426623427268,-0.0348351188378203,0
259,1706566958,0.505411583275308,0.496509115958796,-0.504750954830083,-0.493218311560996,-0.220900912909318,-0.0838997502294092,-0.0229200264981295,0
260,1706583625,0.505613976758111,0.49653566022517,-0.504541423517413,-0.493198536683378,-0.20582128291616,-0.0480198242476703,0.000339997915069203,0
261,1706600292,0.505824539260571,0.496604412162826,-0.504321039064703,-0.493138806888024,-0.207263944382749,-0.00249719914592616,-0.0249700186697984,0
262,1706616959,0.506056089695097,0.496632363928201,-0.504085618239677,-0.493113798899926,-0.194084946880748,0.0326443860945169,-0.0517154691506601,0
263,1706633626,0.506303582770844,0.496610887302538,-0.503832416596331,-0.493140147090758,-0.158157885249332,0.0365307319750197,-0.0583285294685573,0
264,1706650293,0.506562969953693,0.496575533219993,-0.503582834624009,-0.49316429914484,-0.188213905449839,-0.0264369347894574,-0.0343610389028052,0
265,1706666960,0.506855644939372,0.496544140585185,-0.503306857699629,-0.493176924273774,-0.179672037156052,-0.0538377593858983,-0.0437578670151018,0
266,1706683627,0.507130807678719,0.496532976436716,-0.503057072350158,-0.493160145563806,-0.164185398461661,-0.0340321458091063,-0.0325399572424223,0
267,1706700294,0.507389304491246,0.496517563425383,-0.50282385830781,-0.493147615237524,-0.187220391296859,0.00037323102365039,-0.0264268500514869,0
268,1706716961,0.507682014352254,0.496508943233996,-0.502533123221478,-0.493151398312086,-0.177649500468672,-0.0092625131733302,-0.0428463511321671,0
269,1706733628,0.507940893521464,0.496488229680301,-0.502268394654209,-0.493175370643164,-0.165044676058108,0.00640533831909849,-0.0572717822354712,0
270,1706750295,0.508150652803596,0.496504146318305,-0.50204427559179,-0.493171463174347,-0.15891548615088,0.0019112344193007,-0.0601496090675352,0
271,1706766962,0.508322409893953,0.496502917895496,-0.501878595581979,-0.493164329019773,-0.177085722983282,0.0341857277200753,-0.086149812398663,0
272,1706783629,0.508519520098399,0.496429086979852,-0.501677980390303,-0.493239559717944,-0.205385972377649,0.037739563704731,-0.086123736714525,0
273,1706800296,0.508750877934573,0.496262016195984,-0.501412457741873,-0.493439056726515,-0.208962524931957,0.0333240972348463,-0.0772399186341862,0
274,1706816963,0.509029530457662,0.496089450992517,-0.50107072077811,-0.49367228655749,-0.192064088690082,-0.0578903859922314,-0.0669206293102415,0
275,1706833630,0.509214119965066,0.4960139430525,-0.500824339013848,-0.493807786266132,-0.18468768493773,-0.0757858657274754,0.0307004068137593,0
276,1706850297,0.509300453890764,0.496045535950866,-0.500648368865735,-0.49386545200283,-0.192511386877534,-0.00668532691683146,0.0653322726068871,0
277,1706866964,0.509351057878734,0.496093942020238,-0.500491089591667,-0.493924052631557,-0.162211769841786,-0.005680307811629,-0.0104522975421259,0
278,1706883631,0.509436829939234,0.496075520746855,-0.500302862120354,-0.494044775472206,-0.143259624744066,0.01247757918262,-0.0174941988677613,0
279,1706900298,0.509534428211129,0.496012968112159,-0.500079779439742,-0.494232755012882,-0.142432724590797,0.0328543023250261,-0.038875349095956,0
280,1706916965,0.50960461488416,0.495920946984907,-0.499878478377201,-0.494456325357108,-0.164889069328365,-0.00871276367784887,-0.0222811903735864,0
281,1706933632,0.509670949701858,0.495883871944351,-0.499668422755304,-0.494637418597412,-0.153864107156773,-0.0342423871201753,0.0164944181280881,0
282,1706950299,0.509687585923957,0.495877952609347,-0.499532935207058,-0.494763041783026,-0.168790883933226,-0.0368545657274668,0.051123131923908,0
283,1706966966,0.509670249761342,0.49588909500938,-0.499439937414902,-0.494863608354855,-0.184633922776713,-0.0231822966737725,0.0666243052777046,0
284,1706983633,0.509609459857391,0.495928532243759,-0.499393862669698,-0.494933186660834,-0.183105543251591,0.0421816387225215,0.0311310919730435,0
285,1707000300,0.509569796152509,0.495904525306102,-0.499340413384715,-0.495051993421704,-0.207260203866882,0.0508088851195884,-0.0361598434208341,0
286,1707016967,0.509559808639321,0.495794069834529,-0.49926949700532,-0.49524439532056,-0.192402413692597,0.0229901438844598,-0.024133541337926,0
287,1707033634,0.50953021140197,0.495657769627161,-0.499205319968665,-0.495475920294694,-0.19282419085369,0.0177295360063847,0.046813202988338,0
288,1707050301,0.509483702532618,0.495557398925,-0.499179144541016,-0.495650484595388,-0.205680034566363,-0.0547559811183696,0.0735491279828017,0
289,1707066968,0.509423639836678,0.495516538309832,-0.499205768259872,-0.495726251446363,-0.169313518100846,-0.0569781073817877,0.0482524102949178,0
290,1707083635,0.509322700009154,0.495562867624109,-0.499302526312315,-0.495686209920849,-0.193711267625505,-0.0625414831406444,0.0302264979142382,0
291,1707100302,0.50925865124504,0.495609297778427,-0.499366311057826,-0.495641339547213,-0.195059969143731,-0.0906282721510923,0.0104837792577403,0
292,1707116969,0.509193008570262,0.495652051905204,-0.499412587554645,-0.495619401211556,-0.179594899968639,-0.0155705896487957,0.0298049853129693,0
293,1707133636,0.509150011760537,0.495677762558879,-0.499466011289912,-0.495584023950545,-0.179628193561656,-0.0235430399841341,0.0548615456016237,0
294,1707150303,0.509123208285379,0.495719575890745,-0.499571782398654,-0.495463111739849,-0.183183105154411,-0.0492095094075259,0.0210731370514168,0
295,1707166970,0.509059913143556,0.495770186920238,-0.499720295569491,-0.495327722611291,-0.208991762285876,-0.0423005563397374,0.0114697401341347,0
296,1707183637,0.509034122083121,0.495790512821379,-0.499864352036314,-0.495188509069725,-0.206572497761565,-0.0169512588912225,-0.0416504170017734,0
297,1707200304,0.509017557247959,0.495772541770549,-0.49999556588508,-0.495091049540334,-0.207954396136819,-0.0409207360498032,-0.029446322038009,0
298,1707216971,0.50905560472971,0.495702976955508,-0.500079041703769,-0.495037273323287,-0.184271027917381,-0.0160162324856618,0.0410849250432431,0
299,1707233638,0.509073625331675,0.495649773536833,-0.500192679415094,-0.49495719960831,-0.210507833378819,-0.0515755649713827,0.0260937336036409,0
300,1707250305,0.509049946300898,0.495715980034503,-0.500328467994598,-0.494777973866727,-0.211730279985605,-0.0760909042396039,-0.0244645627154953,0
301,1707266972,0.509027341002053,0.495794980926102,-0.500478510419953,-0.494570281768617,-0.20065770421992,-0.0644844460783521,-0.0199588586473468,0
302,1707283639,0.509022630420844,0.495852534594986,-0.50061470550508,-0.494379552861194,-0.199469884640256,-0.0248690149983591,-0.0275362380854287,0
303,1707300306,0.508998842623587,0.495916314739016,-0.500749490641192,-0.494203535606645,-0.227413938199972,-0.0574140786852516,-0.0333107798700526,0
304,1707316973,0.509002783904334,0.495970773992199,-0.500868611051274,-0.494024080168958,-0.236052991470108,-0.0816093250832958,-0.0443703964562113,0
305,1707333640,0.50899292905949,0.496075580814248,-0.500987487795987,-0.49380841766733,-0.231941212361026,-0.0990674343215362,-0.0560347466231052,0
306,1707350307,0.508993615109039,0.496168225077733,-0.50109168630375,-0.493608867544646,-0.217344928086765,-0.0548258744360902,-0.0810781921545493,0
307,1707366974,0.508997161640041,0.496254109625432,-0.501189221371951,-0.493419813650434,-0.179859719693092,-0.0391155567467214,-0.0861165026853659,0
308,1707383641,0.508964138183185,0.496293044237508,-0.501306165091994,-0.49329590422552,-0.172717397755925,0.0125390348576967,-0.0744874461016242,0
309,1707400308,0.508947058670648,0.496283914010705,-0.501406196248838,-0.493221040232452,-0.180504422588815,-0.00817066759835558,-0.0335701984040358,0
310,1707416975,0.508930458395565,0.496272652757638,-0.501503792437376,-0.4931502700122,-0.165045516287923,-0.0196179167522637,-0.0234580331621598,0
311,1707433642,0.508887251238263,0.496332296914619,-0.50160241798035,-0.493034512831393,-0.175100271630314,-0.0607104632456993,-0.0272605090418912,0
312,1707450309,0.508786290854849,0.496489431954508,-0.501761827762555,-0.49281824478811,-0.188796482714566,-0.0889066636095914,-0.0312904437336364,0
313,1707466976,0.508739420787913,0.496657255556139,-0.501852001796621,-0.492605664332585,-0.217237634448593,-0.108022512129314,-0.0623992461328586,0
314,1707483643,0.508749031905855,0.49678880789996,-0.501909213941877,-0.492404756110701,-0.240335640764953,-0.0641849317059338,-0.0674236348538569,0
315,1707500310,0.508800048830329,0.496877180564129,-0.501944178601231,-0.492227202939082,-0.2225276723614,-0.0318839674807202,-0.0630304379248509,0
316,1707516977,0.508811809743702,0.496990237501809,-0.502017813744014,-0.492025772472249,-0.200607623713909,-0.0108014743532698,-0.0956731030241507,0
317,1707533644,0.508797221790753,0.497044332724061,-0.502101257679504,-0.491901052490808,-0.190103358740211,0.0395752783146096,-0.130962198773973,0
318,1707550311,0.508780775170629,0.496993646999348,-0.502183486905867,-0.491885335355839,-0.223471615623695,0.00185120593154727,-0.0824971863472313,0
319,1707566978,0.508871191890115,0.496807647503718,-0.502216169098718,-0.491946329330713,-0.16303428607148,-0.0501993187446882,-0.0825183557535629,0
320,1707583645,0.508913716043496,0.496607385349276,-0.50230022101477,-0.492018721603019,-0.187683716994053,-0.107159119830739,-0.0673596517159918,0
321,1707600312,0.508987765245228,0.496380828244294,-0.502335584482933,-0.492134624614411,-0.218762049568654,-0.0625397889450824,-0.0211759008078163,0
322,1707616979,0.509106675995947,0.496102867872475,-0.502326058451578,-0.492301602623398,-0.173612853845974,-0.0782027665233595,-0.0744627956594574,0
323,1707633646,0.509213175771954,0.495881609847622,-0.502313988414268,-0.492426672387394,-0.149325006897883,-0.0218003082525476,-0.058344436807568,0
324,1707650313,0.509248977245706,0.495739154140048,-0.502371464432631,-0.49247444801789,-0.113938806157065,0.0187768322863589,-0.0617852371715868,0
325,1707666980,0.509242695980196,0.495648088967698,-0.502504428354131,-0.492436948225839,-0.134507392627194,-0.0148754477908805,-0.0507353614882376,0
326,1707683647,0.509228344060181,0.495550168858706,-0.502672952362673,-0.492378336965414,-0.140626217581395,-0.0284432758620099,-0.0224370434141915,0
327,1707700314,0.509216097523547,0.495446392555481,-0.502811621190669,-0.492353848083125,-0.197608856664045,-0.0567970299222828,-0.0750283105649437,0
328,1707716981,0.509268050445168,0.49531353050279,-0.502860127968974,-0.492384251368448,-0.216181862463659,-0.0683010518696933,-0.0943697798321272,0
329,1707733648,0.509305067461263,0.49521204041819,-0.502906345423569,-0.49240084384152,-0.209810882545812,-0.0223275702742158,-0.0627501130961153,0
330,1707750315,0.509295508926072,0.495173757202394,-0.50301359955663,-0.492339672814288,-0.223584482563093,0.0134148833547247,-0.0379178216831866,0
331,1707766982,0.509218333690157,0.495173031011829,-0.503125962529213,-0.492305417217231,-0.220997769621787,0.0148624276150034,-0.100474556344926,0
332,1707783649,0.509112266062895,0.495156616174535,-0.503223106678974,-0.492332337864628,-0.206193862562399,0.0283962921928501,-0.0972120226915424,0
333,1707800316,0.5090616444879,0.495110770239972,-0.503237823525232,-0.492415739266368,-0.201838737742143,0.0268768515910203,-0.0650449134308298,0
334,1707816983,0.508959755599158,0.495079371342292,-0.503269892799053,-0.492519845543097,-0.180240900885156,-0.00957443131979346,-0.0393519553103805,0
335,1707833650,0.508765860091138,0.495169266733362,-0.503337954917826,-0.492560250149776,-0.139020524418154,-0.0218614529251095,-0.0672685047368447,0
336,1707850317,0.50851906082937,0.495336472508802,-0.503422486942601,-0.492560598724947,-0.151558033834255,-0.00729541918306943,-0.0630865359446549,0
337,1707866984,0.508254356127888,0.495520431850074,-0.503482028924079,-0.492587918697399,-0.13850803953236,0.0113910674213655,-0.0631699171223598,0
338,1707883651,0.508045702590363,0.49562043582913,-0.50347315739685,-0.492711606773024,-0.157426029735451,-0.0319678539157852,-0.0356477830721047,0
339,1707900318,0.507865979017801,0.495752623855023,-0.503423636648458,-0.492814493862338,-0.184760094569386,-0.0658595460223999,-0.0312147786917657,0
340,1707916985,0.507554957515174,0.495991684766986,-0.503488918175834,-0.492827680856002,-0.162843390253844,-0.0047281854395045,-0.0115879824106727,0
341,1707933652,0.507191532391342,0.496289302505748,-0.503580399867548,-0.492808744401032,-0.185278481427596,0.0116582690944535,-0.0322337342594486,0
342,1707950319,0.506862995722635,0.496515962372794,-0.503712928670455,-0.492783003122396,-0.181032578063632,0.0119623240936487,-0.0477542074264373,0
343,1707966986,0.506631347622127,0.496589675666235,-0.503758871127846,-0.492899960832104,-0.217990780527306,-0.0967252754168864,-0.088801840566293,0
344,1707983653,0.50650444566883,0.496594494508629,-0.50371087767007,-0.49307454432193,-0.185723491535164,-0.122474596664626,-0.00579633081277934,0
345,1708000320,0.506314749223591,0.496736095356111,-0.503712792297164,-0.493124780522345,-0.189181301557206,-0.115169327111345,0.0428817990429504,0
346,1708016987,0.506133029998523,0.496960002164954,-0.503734375614867,-0.493063678460118,-0.185973120639791,-0.13217279831419,-0.0250354219987512,0
347,1708033654,0.505945224160834,0.497204619609556,-0.503808562993457,-0.492933999884596,-0.18619479879869,-0.0615776826299636,-0.0299391312419505,0
348,1708050321,0.50575895929799,0.497445978464595,-0.503900820106244,-0.492787314259884,-0.187194924894205,-0.0145544168392962,-0.0146232827658737,0
349,1708066988,0.505620389357911,0.497613033328362,-0.503957585426128,-0.492702793800449,-0.181638192693054,-0.0138508044994338,-0.046353817209893,0
350,1708083655,0.505462018664784,0.497792726194885,-0.504023144705994,-0.492616706005255,-0.183047228263821,-0.00774812915362839,-0.072054576251079,0
351,1708100322,0.505388851830004,0.497896900996946,-0.504025006536895,-0.492584588887097,-0.179697794422729,-0.043528133174822,-0.0789121438794376,0
352,1708116989,0.505326314797505,0.497966677956655,-0.504036362063545,-0.492566593402082,-0.204243842121108,-0.066884639022069,-0.0276945702041339,0
353,1708133656,0.505238611931045,0.498086847867067,-0.504072280374568,-0.492498297615153,-0.208344790755998,-0.0576256622099871,-0.0131550263978315,0
354,1708150323,0.505196202344667,0.498199521972158,-0.504074639839656,-0.492425416600078,-0.203959302025637,-0.049889224278679,-0.0724581811467081,0
355,1708166990,0.505136831710437,0.49837572063571,-0.504087282208618,-0.49229506827299,-0.196098993409785,-0.0175352374268289,-0.0743734897938986,0
356,1708183657,0.505079070951059,0.498562112139145,-0.504093356305148,-0.492159364998352,-0.181001555364391,-0.0376345047298513,-0.0655357813039146,0
357,1708200324,0.504987663882286,0.498732073842245,-0.504124045799141,-0.49204951406828,-0.196979265277558,-0.0310939730696646,-0.0416145584447618,0
358,1708216991,0.504898147577257,0.498940646685546,-0.504134603567795,-0.491919092070642,-0.209078732040943,-0.042923030494844,-0.0595084792793138,0
359,1708233658,0.504859683236893,0.499091627133493,-0.504093429873527,-0.491847600304738,-0.202885826841329,-0.0237099595909051,-0.094469354841079,0
360,1708250325,0.504847479259542,0.499207376801119,-0.504021718349974,-0.491816149657747,-0.179926796258491,-0.00880341577817328,-0.0809631920593852,0
361,1708266992,0.504779872220826,0.499371770780005,-0.503986205849371,-0.491755040098548,-0.171392259498531,-0.0367510595841159,-0.08624787385475,0
362,1708283659,0.504698477820927,0.499500424922597,-0.503961570969154,-0.49173316643652,-0.19001062021671,-0.0530904494799571,-0.082226595195152,0
363,1708300326,0.504630548410456,0.499603079317721,-0.503921339812409,-0.491739825546884,-0.222317048121884,-0.00652062115565426,-0.0759958414072897,0
364,1708316993,0.504581934528367,0.499652349890259,-0.503856086538929,-0.491806511398973,-0.238687048170864,0.033440338568126,-0.0497622286472291,0
365,1708333660,0.504538121000714,0.499699327789648,-0.503765157344753,-0.491896871822802,-0.184746667124843,-0.00982570500054868,-0.0800542904528648,0
366,1708350327,0.504436496815221,0.499802280059443,-0.503747707286408,-0.491914371544334,-0.151917067531763,-0.0403147133495838,-0.0158339981140926,0
367,1708366994,0.504281942474016,0.499919234946107,-0.503775127106609,-0.491925911427983,-0.188033525249418,-0.0363969089336283,0.0473808696880081,0
368,1708383661,0.5041294430962,0.500014362419452,-0.503780663613531,-0.491979862338789,-0.183979875174437,-0.0299440382155672,-0.021087099588799,0
369,1708400328,0.504066849066362,0.50006179303227,-0.503667777135306,-0.492111354367321,-0.18471551512021,-0.0266186615761576,-0.0743133295391639,0
370,1708416995,0.504048568279185,0.500089980017422,-0.503550893895411,-0.492221037704618,-0.157918691323273,-0.0106743185746843,-0.0441496586502251,0
371,1708433662,0.503953234537817,0.500135351872205,-0.503529482274653,-0.492294452220171,-0.161317196751063,0.0150435426977038,0.0255018009723295,0
372,1708450329,0.503732622910476,0.500283516274316,-0.503627509175797,-0.492269418064255,-0.161379392770414,0.0134100868842739,0.0187979726951534,0
373,1708466996,0.503531361013866,0.500414842059783,-0.503719433029293,-0.492247790356092,-0.181630562140573,-0.0137900471442699,-0.0249444297638085,0
374,1708483663,0.503414873514127,0.500467200643343,-0.503739092894216,-0.492293583642001,-0.207507751311047,-0.0258380608428369,0.00106160878017639,0
375,1708500330,0.503314292786696,0.500534878311451,-0.503768547890334,-0.49229747960642,-0.222616065127622,-0.042552976289146,0.0017683109687797,0
376,1708516997,0.503114693844323,0.500691677307737,-0.503912437190553,-0.492194783350428,-0.22024906271465,-0.046928123634983,-0.0326017654826736,0
377,1708533664,0.502925587526208,0.500812152356299,-0.504079124775049,-0.492094785005582,-0.225820087747133,-0.0558525809143264,-0.0930388409426247,0
378,1708550331,0.502810773409981,0.500804153588652,-0.504194237044887,-0.492102323934703,-0.183338154666089,-0.0355968078248408,-0.0774792491395915,0
379,1708566998,0.502781624705036,0.500625325763026,-0.504245573984378,-0.492261436820714,-0.206740966085372,-0.0752185250860166,-0.068496494295278,0
380,1708583665,0.502793805976984,0.500439648115513,-0.504264890670912,-0.492417980278801,-0.212147827551131,-0.0756795969904265,-0.0271100040784696,0
381,1708600332,0.502714440124102,0.500386231719745,-0.504384065428811,-0.492431239197443,-0.193888161156383,-0.0146322055267389,0.0205610947852694,0
382,1708616999,0.502590118115744,0.50043997343871,-0.504541569016266,-0.49234216891474,-0.211355436364792,-0.0629734100164151,0.0186324583879701,0
383,1708633666,0.502445861840733,0.500535628452942,-0.504708731995315,-0.492220820786792,-0.179288144148055,-0.00278323940173489,0.0041795625004382,0
384,1708650333,0.502295234664854,0.500598516807733,-0.504895985970678,-0.492118548272238,-0.182119533221074,0.016473988454006,-0.025384503827301,0
385,1708667000,0.502196480382975,0.500602968045385,-0.505054281059483,-0.49205237186563,-0.187390797320744,-0.00406224681419632,-0.065350201109399,0
386,1708683667,0.502124784556928,0.500570223920368,-0.505179840326889,-0.492029959032243,-0.213281525294072,-0.030068723880109,-0.0491008188953381,0
387,1708700334,0.502075428945513,0.500567749629326,-0.505246134325477,-0.492014771556072,-0.238170398972242,-0.0476458181810089,-0.0306759767576949,0
388,1708717001,0.502052853206285,0.500592801727604,-0.505302536885243,-0.491954393885525,-0.233875536229173,-0.0737115535168163,-0.0235309716039966,0
389,1708733668,0.502051818936868,0.500618717211555,-0.505341495980133,-0.491889056109404,-0.207057065485003,-0.0559549162587344,-0.0130102511731798,0
390,1708750335,0.502027713205474,0.500664951785292,-0.505406505925337,-0.491799801744425,-0.177744198081685,-0.0435764912315704,-0.0435806610729201,0
391,1708767002,0.502013849719183,0.500679708330326,-0.505463318139382,-0.491740539687253,-0.175585698165342,-0.00624183596025824,-0.0619799149895507,0
392,1708783669,0.502061798117392,0.500652693680975,-0.505469523234034,-0.491712713139159,-0.19188461507259,-0.0616166340412554,-0.085821904497949,0
393,1708800336,0.502124044001205,0.500594911045787,-0.505451600952345,-0.49172640621147,-0.215975146368233,-0.0576589682420402,-0.0620199561528799,0
394,1708817003,0.502229573487033,0.500542133959119,-0.50537754756501,-0.491748474388951,-0.230396104699988,-0.0882194280251651,-0.0810825676408839,0
395,1708833670,0.502310749866312,0.500525778480681,-0.505319676251524,-0.491741680598774,-0.215144268012824,-0.0535531808768418,-0.0688348660038118,0
396,1708850337,0.502390286155483,0.500499113711967,-0.505270515148928,-0.491738084828991,-0.212566710526069,0.00682963815240466,-0.0643461200255247,0
397,1708867004,0.502477694024687,0.500429686263896,-0.505205942199186,-0.491785778647659,-0.194281436522626,0.0236409195593513,-0.0591700219915414,0
398,1708883671,0.502591445353222,0.500334172525865,-0.505086806254815,-0.491889086083365,-0.199697405297124,0.0117633581051488,-0.0728139572821515,0
399,1708900338,0.502677863214178,0.500255495717316,-0.504959792410981,-0.492011191831354,-0.178006080059309,-0.00567192076529536,-0.0572219179754322,0
400,1708917005,0.502780134988798,0.500188117342978,-0.504797369694497,-0.492141848128211,-0.201804313867676,0.00123654896281949,-0.033732638546591,0
401,1708933672,0.502866707310116,0.500118738078668,-0.504649900035537,-0.492275127236595,-0.143538059883145,0.00942558817336129,-0.0291448760787518,0
402,1708950339,0.502871976863259,0.500069322790394,-0.504573065530896,-0.492398688899908,-0.172866105028682,0.00399699167373461,-0.0468579681832028,0
403,1708967006,0.502984770985869,0.499962316967654,-0.504417279233209,-0.492551733505826,-0.19866620164772,-0.0516168263103691,-0.0445660574677205,0
404,1708983673,0.503073277483431,0.499889222846571,-0.504271818746233,-0.492684458027952,-0.181743629757184,-0.073246653361641,-0.025682691880971,0
405,1709000340,0.503125971717421,0.499897777015061,-0.504151623615445,-0.492744974124255,-0.197755286645769,-0.0604944390810721,-0.0235605589161975,0
406,1709017007,0.503137824662439,0.499944609425002,-0.504085263052583,-0.492753249075071,-0.186092536755858,-0.0224483371645815,-0.0243622885335826,0
407,1709033674,0.503128101055888,0.499949468618515,-0.504068748411558,-0.492775141043829,-0.18430317235157,-0.00353762580704916,-0.0655783513053757,0
408,1709050341,0.503174292084742,0.499849578428701,-0.504014227721686,-0.492885066708032,-0.189425351356463,0.00323016389077881,-0.0584783185340287,0
409,1709067008,0.503190581684863,0.499751605315443,-0.503999274493702,-0.492983065427311,-0.18926125405922,-0.00757552838525115,-0.0369170361938466,0
410,1709083675,0.50318992728219,0.499624972471769,-0.504019130759892,-0.493091776236809,-0.186124355126202,-0.0206430075463279,-0.0429000764438061,0
411,1709100342,0.503177548969906,0.499454679073946,-0.504052569500728,-0.493242724166806,-0.245022619131229,0.00574478522221047,-0.0452937784748407,0
412,1709117009,0.503194594611228,0.499249515745379,-0.504077895848689,-0.493407129963488,-0.245208202787727,0.00207722723035954,0.00236033709593624,0
413,1709133676,0.503226383160249,0.499028658547969,-0.504072457365492,-0.493603649667203,-0.201821756696165,-0.0296524248448972,0.0143520610505855,0
414,1709150343,0.503262890744971,0.498828156759848,-0.504091511053872,-0.493749613980621,-0.154333529096522,-0.0928200874386421,-0.012169309295336,0
415,1709167010,0.503295001790445,0.498642270141387,-0.504107076229448,-0.493888735745611,-0.188678406227236,-0.0488347468004253,0.0377237610139907,0
416,1709183677,0.503371570142959,0.498403538661313,-0.504073346653639,-0.494086061547069,-0.179837556648299,-0.0231720295288662,-0.0142314463694618,0
417,1709200344,0.50346591312794,0.498129010580248,-0.504029550893344,-0.494311414963125,-0.142793232805406,0.0124671427377144,0.020655780641802,0
418,1709217011,0.503514524715554,0.497928982595043,-0.504027312564795,-0.494465691308351,-0.159803354733118,0.0183774321832138,0.053422509926884,0
419,1709233678,0.503485237953165,0.497852257392428,-0.504135039638141,-0.494462947834878,-0.187275242487303,0.00923122457543309,0.0551064335860639,0
420,1709250345,0.503462074125331,0.497812103062093,-0.504246994793759,-0.494412801415759,-0.185067904605728,-0.040373992186626,0.0369777330379766,0
421,1709267012,0.503484073264412,0.49773794625719,-0.504306411930815,-0.494404457615642,-0.1814941358855,-0.0165527944039147,-0.0557296917492262,0
422,1709283679,0.503536795860533,0.497660176114361,-0.504309307473319,-0.494426098340401,-0.212607131439964,-0.022042307607523,-0.0667601385698971,0
423,1709300346,0.503613889771082,0.497588207054979,-0.504305420403948,-0.494423977149824,-0.189796900528467,-0.00340406238538458,-0.0145880553534278,0
424,1709317013,0.503681738805541,0.497508673797238,-0.504315114026053,-0.494425010750093,-0.22170756332108,0.0202090328085866,-0.035243518132026,0
425,1709333680,0.503736248666781,0.497418864116613,-0.504340891373166,-0.494433545270725,-0.208355242257265,-0.0108319604423109,-0.0556498050280132,0
426,1709350347,0.503785273893144,0.497300420900148,-0.504346347272641,-0.494497170036079,-0.19909491531892,0.00765133526250367,-0.077174357644045,0
427,1709367014,0.503853815246277,0.497117479662173,-0.504337783709577,-0.494619999796825,-0.193730000221039,-0.0368325099504368,-0.0678634544515687,0
428,1709383681,0.503876181924781,0.497061285370563,-0.504353249100498,-0.494637920095538,-0.193253368649561,-0.0693819836161009,-0.0525905123506212,0
429,1709400348,0.503933827263804,0.496997542390636,-0.504340955769234,-0.494655780245918,-0.201329206061183,-0.063224870217542,-0.0448288521827134,0
430,1709417015,0.504004533481614,0.496936614580493,-0.504295002243888,-0.494691805097979,-0.196921092140118,-0.0165298802709777,0.0098123870451207,0
431,1709433682,0.503987709402253,0.496935776926771,-0.504276776656665,-0.494728364768406,-0.183560960664239,0.0635751003969996,-0.0256044759557335,0
432,1709450349,0.503925299805917,0.496958213521189,-0.504313341857466,-0.49473212898891,-0.149977149291764,0.0405830366182793,-0.0500899307232776,0
433,1709467016,0.503819680905534,0.496991405592081,-0.50436413578728,-0.494754575958024,-0.165893428539974,0.0435660086359471,-0.0663084861432195,0
434,1709483683,0.503702280929645,0.497045344551759,-0.504427646684493,-0.494755178756161,-0.211872760570071,0.00924945816834877,0.0365234207799456,0
435,1709500350,0.503593348624259,0.497175216634188,-0.504445049684642,-0.494717833754569,-0.215461566420243,-0.0441089134022247,0.0635950302595524,0
436,1709517017,0.503425191037464,0.497407178344191,-0.504505910253566,-0.494593734776114,-0.201179889410494,-0.0626446420891899,0.00278779638053097,0
437,1709533684,0.503241248493333,0.497679300378425,-0.504565548441747,-0.494446323796012,-0.192684884288691,-0.0328914115841345,-0.00328817118303748,0
438,1709550351,0.503093430064878,0.497943408146521,-0.504579397087905,-0.494316694987524,-0.191154462529614,0.0147173853738252,-0.0265263966482565,0
439,1709567018,0.50299918243908,0.498131862290951,-0.504529065592371,-0.49427410635057,-0.172947578895566,0.00163121101913107,-0.0528343941678791,0
440,1709583685,0.502948517999749,0.498239369538869,-0.504450913544377,-0.494297071311989,-0.167539896336382,-0.00767147384402414,-0.0715039733773516,0
441,1709600352,0.502904060865336,0.498319957313273,-0.50438426014179,-0.494329084547603,-0.17536865545492,-0.0236763913057394,-0.078296207029232,0
442,1709617019,0.502845057695931,0.498341387313688,-0.504334198368474,-0.494418573677276,-0.211686297039641,-0.0228568884730808,-0.0852989929893046,0
443,1709633686,0.502843644298187,0.498343346190299,-0.504248616507842,-0.494505319937714,-0.205219569317095,-0.0447177397375617,-0.0716219325043086,0
444,1709650353,0.50286268154709,0.498310672093302,-0.50416485585999,-0.494604281927347,-0.186736283298509,-0.0391071355354428,-0.0364557360034427,0
445,1709667020,0.502833659862343,0.498302850325926,-0.504134938249283,-0.49467215800254,-0.160404439938124,0.00179003323297817,-0.0408760333605148,0
446,1709683687,0.502796634890741,0.498250077615028,-0.504129838597695,-0.494768137549931,-0.143141548553624,0.0634110598870462,-0.0344483691438335,0
447,1709700354,0.502734043798086,0.49820023103113,-0.504146232899411,-0.49486522090392,-0.168455107845667,0.0368451862131577,-0.0356362905779089,0
448,1709717021,0.502690535736706,0.498194050024057,-0.504148531570581,-0.494913297372983,-0.191450767516238,-0.00604162147942996,-0.0654114365808446,0
449,1709733688,0.502616011716009,0.498196232705687,-0.504170299803652,-0.494964612149646,-0.19216619748751,0.0328088546750309,-0.0194860359344464,0
450,1709750355,0.502535348768574,0.498186141813501,-0.504205735914429,-0.495020572515946,-0.223406333608675,0.0128332209831353,-0.0314307884610124,0
451,1709767022,0.502444425100899,0.49821100034056,-0.504231073377997,-0.495062040015954,-0.199854783009036,0.0159177096527834,-0.0433845334675774,0
452,1709783689,0.502330185281073,0.498226006602852,-0.504286156406838,-0.495106759958371,-0.179455841513348,0.0542285419390117,-0.0680393804813449,0
453,1709800356,0.502184296944148,0.498227915623585,-0.504370368142215,-0.495167050333699,-0.181893577974054,0.0236380964046798,-0.0494919018615587,0
454,1709817023,0.502044767196956,0.498222323508673,-0.504443562103028,-0.495239599326004,-0.155189780735901,0.048067079023006,-0.0488220916357899,0
455,1709833690,0.50192178386081,0.498194483390459,-0.504510164265264,-0.495324412641182,-0.15402972832251,0.0533777951831889,-0.0327314750449237,0
456,1709850357,0.501729911937728,0.498221630099266,-0.504618980552603,-0.495380648829,-0.175919608338126,0.0156104463736561,-0.0400681770767938,0
457,1709867024,0.501499508160816,0.49830933872893,-0.504718123440884,-0.495424729015729,-0.231453134563274,0.00598835316500586,-0.0563092505374935,0
458,1709883691,0.501275660525384,0.498332862790421,-0.504834996239021,-0.495508523236777,-0.203342560193501,0.0205206181402333,-0.0409499215916588,0
459,1709900358,0.501044010500384,0.498393407445938,-0.504970991994726,-0.495543346439018,-0.235643031566289,-0.103438740055692,-0.0291794761227782,0
460,1709917025,0.50077134989073,0.498509192298782,-0.505129073667805,-0.495541379965122,-0.23756370503246,-0.0867136943579025,-0.00556022640526829,0
461,1709933692,0.500523670201162,0.498577194354553,-0.505253827792263,-0.495596011222011,-0.195051717621391,-0.0461735023089084,-0.0448782588293228,0
462,1709950359,0.500343769291442,0.498587006224668,-0.505293150728429,-0.4957276889403,-0.179452504902577,-0.00280509280387435,-0.0817747959433434,0
463,1709967026,0.500184178702394,0.498581984684385,-0.505328008022126,-0.495858242073661,-0.178018879685734,0.021975741197431,-0.0395996737605786,0
464,1709983693,0.500045202374405,0.498565221132201,-0.50538642979191,-0.495955716210557,-0.182146805666252,-0.0179212618272347,-0.00377110256842204,0
465,1710000360,0.499869458502278,0.498635568256644,-0.505508152582685,-0.495938103192781,-0.168393616783627,-0.0482095139068781,0.00516133088304886,0
466,1710017027,0.499680743123956,0.498725864310805,-0.5056700128562,-0.495872468802758,-0.17104691826181,-0.0754955770011112,-0.0217093477197174,0
467,1710033694,0.499563389967832,0.498818281646359,-0.505759751253279,-0.495806227584369,-0.177738373534754,-0.081552839043558,-0.0631366288813041,0
468,1710050361,0.499506298954867,0.498859414051956,-0.505838591958127,-0.495741930042205,-0.179133557952388,-0.0308748693680738,-0.0414684022584597,0
469,1710067028,0.499548788172637,0.498826653659961,-0.505869023654501,-0.4957010275766,-0.229790961034804,-0.0558755428840064,-0.018729242997953,0
470,1710083695,0.499609718230508,0.498787817939355,-0.505911271625208,-0.495635579198563,-0.253662601353295,-0.0944600359915751,-0.0513961366871102,0
471,1710100362,0.499676183042471,0.498725453079639,-0.50596248403309,-0.495579054542946,-0.237278928566116,-0.0819771865147023,-0.0337672401481013,0
472,1710117029,0.499727569324833,0.498697923937912,-0.506017609486318,-0.495498653889659,-0.239442566363476,-0.0833985111394455,-0.0449670333965739,0
473,1710133696,0.499822406412274,0.498683176676144,-0.506055071194081,-0.495379567874158,-0.206012161498136,-0.072292040134094,-0.0587083766907439,0
474,1710150363,0.499893595704954,0.498678172416105,-0.506133368604164,-0.495232759936484,-0.183758674884315,-0.0368299500251702,-0.0377953202697033,0
475,1710167030,0.50004001486294,0.498591909918701,-0.506141155148409,-0.495163833457702,-0.221741223366483,-0.0873008451019082,-0.0414750979626108,0
476,1710183697,0.500154694960147,0.498524674542464,-0.506128355878876,-0.49512878865705,-0.185238821434916,-0.0276997759874332,-0.00684218793968877,0
477,1710200364,0.500283013068298,0.498494582376963,-0.506080652260144,-0.49507820754308,-0.186527939073765,-0.0558292977156789,-0.0119957198817542,0
478,1710217031,0.500371479270727,0.498576669278349,-0.506045734387574,-0.494941817077394,-0.186570907210414,-0.0459690872483578,-0.0455774751858793,0
479,1710233698,0.500408793133581,0.498691705759541,-0.506042015182584,-0.494791977735272,-0.20876995683885,-0.0253179610550644,-0.0758921452991056,0
480,1710250365,0.500459219023099,0.498785293892668,-0.506017334189829,-0.494671869212929,-0.241541305991271,-0.0148463878918022,-0.0587344189851859,0
481,1710267032,0.500509381274181,0.49884526316213,-0.505975817470793,-0.494603108372768,-0.205369115240919,-0.00102530628969506,-0.0354753897790584,0
482,1710283699,0.500567778006961,0.498848637170491,-0.505905852678912,-0.494612176396357,-0.179847616215271,-0.0289881866552791,-0.044935371566131,0
483,1710300366,0.500564618882955,0.498932098787755,-0.505856820696644,-0.494581338180579,-0.166881601168324,-0.026755987255039,-0.0302283337564075,0
484,1710317033,0.500505701179796,0.499070838841751,-0.505850448679129,-0.494507496884968,-0.159794491816654,-0.0367162399054884,-0.0440871915948502,0
485,1710333700,0.500480554742172,0.499173354855027,-0.505826523773495,-0.494453945251695,-0.183159416011341,-0.066687146350671,-0.0239193675360491,0
486,1710350367,0.500492162842433,0.499256451017121,-0.505779953767244,-0.494405935864748,-0.181149314254355,-0.0760696755773229,-0.0172791011259733,0
487,1710367034,0.500477668250528,0.499346023758631,-0.505723838316819,-0.494387551923653,-0.17011484250599,-0.0181167426551281,-0.0398253280531067,0
488,1710383701,0.500467280816651,0.499476629444872,-0.505675903568404,-0.494315160621901,-0.149543493392909,0.000130714844681191,-0.0209420337093622,0
489,1710400368,0.500405778512719,0.499610637473276,-0.505689911824657,-0.494227660935117,-0.167716586265657,0.0180136624257604,-0.0241872306242183,0
490,1710417035,0.500330451908169,0.499716782174666,-0.505733312428798,-0.494152196399207,-0.180057110008415,-0.0230055885548901,-0.0194173570557532,0
491,1710433702,0.500365541253979,0.499660348748325,-0.505709139739423,-0.494198469239159,-0.219271939797244,-0.0479619221026012,-0.0277039460394909,0
492,1710450369,0.500485559760348,0.499547144543159,-0.505623942903387,-0.494278548202306,-0.220699520259927,-0.0499454195217048,0.0184994843630495,0
493,1710467036,0.500528552992682,0.499562633774156,-0.505604646114115,-0.494239096393132,-0.195238577359577,-0.066338098221424,0.0378871528013896,0
494,1710483703,0.500472071135224,0.499687756432309,-0.50569333747271,-0.494079042786654,-0.185582084764435,-0.0307639590347418,-0.00597550317112567,0
495,1710500370,0.500408184210105,0.49978435055862,-0.505816370663663,-0.493920085925733,-0.161387132060506,-0.0146169078944094,-0.0473086669968808,0
496,1710517037,0.500393103303957,0.499760341724854,-0.505914105393471,-0.493859555915259,-0.167921324754229,0.0163535827029696,-0.0488561153187375,0
497,1710533704,0.500466284472223,0.499655456823894,-0.505977617326072,-0.493826460750844,-0.186592395305635,-0.0266738299715378,-0.0123937850091393,0
498,1710550371,0.50052771858081,0.499563431484658,-0.506042506475818,-0.493790808435348,-0.195824940438209,-0.0498780730966848,0.00123607244844246,0
499,1710567038,0.500498205165845,0.499574875601825,-0.506182291403276,-0.493665856792748,-0.20830165438334,-0.0334282000543836,-0.00789446034154741,0
500,1710583705,0.500443193109123,0.499611292296244,-0.506361337029364,-0.493501128106772,-0.187805091253309,-0.0220335962031089,0.00079300436037817,0
501,1710600372,0.500383450771858,0.499610805200154,-0.506564843425001,-0.49335332666022,-0.19367256457172,-0.00214702017999111,-0.0391764750971793,0
502,1710617039,0.500413825507003,0.49955506229778,-0.506708581648186,-0.493231341520581,-0.18635742685809,-0.035563491727282,-0.0424152751929649,0
503,1710633706,0.500451634773037,0.499498906475071,-0.50685144745416,-0.493103045921262,-0.221311223389853,-0.0233117738577124,-0.0321360419525713,0
504,1710650373,0.500435644301948,0.499499743615732,-0.50701610812841,-0.492949123275651,-0.256241398438647,0.00183187660053277,0.00408824132330019,0
505,1710667040,0.500373228436111,0.499535252381935,-0.507211671949357,-0.492775287256248,-0.202643253200931,-0.0176503260371975,-0.018467425224477,0
506,1710683707,0.500323159244969,0.499540916562271,-0.507411541253814,-0.492614592562673,-0.192904064114519,-0.0849704450736997,-0.0649841652003909,0
507,1710700374,0.500308974122181,0.499486264186537,-0.507586099666092,-0.492504572291011,-0.196437152650896,-0.041200480643865,-0.024177858280098,0
508,1710717041,0.500364261225599,0.499359429374373,-0.507689759045572,-0.492470176704448,-0.184946283547371,-0.0150782557358905,-0.0183427817756214,0
509,1710733708,0.500389333724163,0.499249222347154,-0.507783678665334,-0.492459606832835,-0.155610629381549,-0.0150858163664743,0.0171676864680474,0
510,1710750375,0.500371608186252,0.499243006330214,-0.507906451793202,-0.4923572997106,-0.15713922469653,0.012495950612145,0.0170024145701755,0
511,1710767042,0.500321602872575,0.499276555869267,-0.508085476558279,-0.492189356822034,-0.157713837371577,-0.00830548640422643,0.00397177093723862,0
512,1710783709,0.500215531448389,0.49932121435776,-0.508325654695971,-0.492003837147649,-0.167276928275435,0.00483601895833992,-0.00339912174813766,0
513,1710800376,0.500207009928455,0.499319968362452,-0.508451682344015,-0.491883525984043,-0.193575459116021,-0.0394273022677358,-0.0418989249574792,0
514,1710817043,0.500258213499786,0.499298739035656,-0.508513110171374,-0.491789493388424,-0.205363542198403,-0.0304842335416062,-0.0461978101785995,0
515,1710833710,0.5002912285745,0.499325368937277,-0.508558001065518,-0.491682440299949,-0.204418794558068,-0.00213067019227546,-0.00201349578900205,0
516,1710850377,0.500246587160661,0.499445430118146,-0.508677436296982,-0.491482329459098,-0.220994424288758,-0.0148528565459567,-0.0204558341450931,0
517,1710867044,0.500186763365807,0.499538309807133,-0.508813470724244,-0.491307979579225,-0.221336996527481,-0.0274200048455809,-0.046346450741306,0
518,1710883711,0.500173551509116,0.499605517728681,-0.508908498791775,-0.491154644570644,-0.213754096939462,-0.0743387761269241,-0.0768263931180556,0
519,1710900378,0.500177915320154,0.499643290278708,-0.508963133399582,-0.491055154076944,-0.185016469737426,-0.0547277193083983,-0.0736957330773014,0
520,1710917045,0.500151258445713,0.499720905342598,-0.509050764587792,-0.490912471334074,-0.188082971820946,-0.0481252472597639,-0.0701725325092405,0
521,1710933712,0.500134729312126,0.499777218991114,-0.509072176717868,-0.490849776209715,-0.155198439306861,-0.0165143472253245,-0.0810900040728131,0
522,1710950379,0.500144360891464,0.499799833071696,-0.509086289493741,-0.490802297243472,-0.189953137928387,-0.0153490908914562,-0.0733253734439756,0
523,1710967046,0.500207848286031,0.499769921404565,-0.509036932881654,-0.490819248944836,-0.180972914133664,-0.0552928947753981,-0.0026544902471834,0
524,1710983713,0.500196089498921,0.499854315896728,-0.50901134637368,-0.490771824978019,-0.19638822981401,-0.00183771118633509,0.0172587933773273,0
525,1711000380,0.500134799580654,0.500026949025624,-0.50900838308418,-0.490661490690448,-0.192753808996094,-0.0329397514715448,-0.0544925412354842,0
526,1711017047,0.500094155995925,0.500219668572342,-0.50896484482785,-0.490551633410248,-0.192636207618211,-0.0144971247725142,-0.0706319901666306,0
527,1711033714,0.499986697032179,0.500435132072676,-0.508991031603712,-0.490414224024186,-0.212954607374013,0.0590881654334334,-0.0563297308976916,0
528,1711050381,0.499866852961315,0.500643709353835,-0.509024041394367,-0.490289231859654,-0.220503156594408,0.0222388832209668,-0.0366745850103331,0
529,1711067048,0.499750932205946,0.500816962562234,-0.509039890538814,-0.490213999809734,-0.201571402288223,-0.0520134800198174,-0.0770850687051115,0
530,1711083715,0.499729346884992,0.500931584409907,-0.508984553243425,-0.490176348023924,-0.180467135159674,-0.0788704158213704,-0.0689175801089231,0
531,1711100382,0.499707646400965,0.501056697639605,-0.508936839459377,-0.490120135599429,-0.156185008042783,-0.0579023418209243,-0.0389222823980884,0
532,1711117049,0.499609859834772,0.501238037823551,-0.508940802180548,-0.490030281993364,-0.171814448175624,0.00606785172425981,-0.0329910807385268,0
533,1711133716,0.499486375948961,0.501435011250448,-0.509007634574156,-0.489885208675317,-0.173430320227877,0.00891961995598291,-0.0702415630037023,0
534,1711150383,0.499358707084293,0.501566918695274,-0.509119661673182,-0.489763900085966,-0.177294148427871,-0.011237001022074,-0.0482046450787442,0
535,1711167050,0.499285320317189,0.501645213580082,-0.509205990772606,-0.489668773324627,-0.217033214684309,-0.0587717720619507,-0.0148191510430584,0
536,1711183717,0.499301726988744,0.501665494970896,-0.509223741790017,-0.489612803528501,-0.230387442118961,-0.0952802449212254,0.00558848952590441,0
537,1711200384,0.499344554249249,0.501683172699958,-0.509241600004264,-0.4895324332426,-0.230484585134896,-0.138850668509347,-0.0232845231698408,0
538,1711217051,0.499350775849995,0.50172748726354,-0.509301910040892,-0.489417915089878,-0.182387610168662,-0.0247208949903954,-0.0185033106635727,0
539,1711233718,0.499283981075519,0.501805300290722,-0.509469451722475,-0.489231872022989,-0.137552529976749,0.0195371671277383,-0.0467929113517943,0
540,1711250385,0.499272876792972,0.501763744064058,-0.509623907880054,-0.489124945345001,-0.152642077606294,0.0171243206915514,-0.0506051689127952,0
541,1711267052,0.499364159468329,0.501621923511594,-0.509710253913234,-0.489087251057236,-0.191612204883461,-0.0606312545784792,-0.0343631918310325,0
542,1711283719,0.499628006054952,0.501357653467909,-0.509622265300734,-0.489180442765708,-0.222907290782916,-0.0644756075692798,-0.0166710062151853,0
543,1711300386,0.499815757726419,0.501248468058455,-0.509592792730005,-0.489131237190033,-0.217548833018798,-0.0351211150928437,0.0246831680849734,0
544,1711317053,0.499874532875611,0.501294238324464,-0.509688243700832,-0.488924771553096,-0.205638921642933,0.0194372011798978,-0.0249299249368868,0
545,1711333720,0.499852907314027,0.501413257859948,-0.509880508119628,-0.488624276240607,-0.183486879447433,0.0126959268007896,-0.0624694981697032,0
546,1711350387,0.499891871331724,0.501377911176183,-0.510029449350332,-0.488465216731417,-0.183549599460761,0.0708757017183985,-0.0710741177203158,0
547,1711367054,0.499982172596546,0.501248404964421,-0.510113632768626,-0.488417797863526,-0.183541352439206,0.0391021177624221,-0.0849487281240269,0
548,1711383721,0.500042514363072,0.501159559014102,-0.510198929827391,-0.488358098367615,-0.183736296822235,0.00458493200130278,-0.0678760924244866,0
549,1711400388,0.499977161091538,0.501245153491453,-0.510392392595214,-0.488134960916659,-0.182292598487248,0.022474950607638,-0.0161256182245885,0
550,1711417055,0.499898217960648,0.501366974190809,-0.510562839076821,-0.487912406302952,-0.207054522446496,-0.00638289168000074,-0.0247147780498239,0
551,1711433722,0.499882081505061,0.501427634723124,-0.510650013472363,-0.487775353484384,-0.196982289220725,-0.0287484996629052,-0.062249025939388,0
552,1711450389,0.499878876952023,0.501504282517464,-0.510723159930428,-0.487623232531537,-0.176097960598353,0.0206840647881522,-0.105212223593647,0
553,1711467056,0.499837520516168,0.501567034529899,-0.510844151578711,-0.487474323175036,-0.191282133910938,-0.00624798806818637,-0.109105454630062,0
554,1711483723,0.499834207746148,0.501581431779597,-0.510921773031371,-0.487381548587132,-0.187812774822402,-0.0163858968973352,-0.0930542343394657,0
555,1711500390,0.499825789474004,0.501546894355563,-0.511019566520342,-0.487323194166191,-0.220530666763492,-0.0382102753230275,-0.0453915439479959,0
556,1711517057,0.499825951076296,0.501452877282899,-0.511081666944769,-0.487354655470054,-0.215098774892527,-0.0401163393980425,0.00185886907545596,0
557,1711533724,0.499765037735144,0.501454863637066,-0.511186328243721,-0.487305309440626,-0.172638400928826,-0.103262596265756,-0.0526296745626821,0
558,1711550391,0.499671506705555,0.50149353439831,-0.511328582620031,-0.487212172404468,-0.177515702302243,-0.118188181906695,-0.0484667284380832,0
559,1711567058,0.499664059976953,0.501470861801363,-0.511382042561226,-0.487187036442324,-0.220344253864864,-0.0831488464541185,-0.076608757403911,0
560,1711583725,0.499749957238906,0.501322631238872,-0.511323172831281,-0.487313259180578,-0.179292872510892,-0.0760112853809129,-0.0794565380681971,0
561,1711600392,0.499821850424002,0.501182433948342,-0.511281970971714,-0.4874269503214,-0.196717681232129,-0.0546654055769851,0.0128033033486844,0
562,1711617059,0.499809755034,0.50115280814911,-0.511301350900429,-0.487449484792537,-0.169673426794015,-0.0147496250345773,0.048890495431986,0
563,1711633726,0.499707846842966,0.501245053021398,-0.511410655016851,-0.487344443448757,-0.15558431273086,-0.014634867548234,0.0127997323550486,0
564,1711650393,0.499616491632109,0.501343158366306,-0.511482500014709,-0.487261789007944,-0.172796729775384,-0.0302910593518588,-0.00284458852645311,0
565,1711667060,0.499650205253869,0.501406671596198,-0.511442695503051,-0.487203644572947,-0.159785825276077,-0.0829577042930397,-0.0587105163811793,0
566,1711683727,0.49975311037262,0.50141923750854,-0.511329326526359,-0.487204163327188,-0.143532292122805,-0.051371262584109,-0.0301133639366288,0
567,1711700394,0.499822798611643,0.501458915394663,-0.511254265855911,-0.487170608517557,-0.180784903022214,0.0123548246809285,-0.0113809274069195,0
568,1711717061,0.499838197859485,0.501550760663312,-0.511249474564609,-0.487065278167153,-0.204243784132846,-0.0250233234187256,-0.0287818369783709,0
569,1711733728,0.499901927747918,0.501575107052352,-0.511169289208734,-0.487058961922656,-0.216501749427908,-0.0407168055117438,-0.0716493943839927,0
570,1711750395,0.499985854225274,0.501578037985455,-0.511085397186438,-0.487057834520773,-0.231406939017788,-0.0920020524317346,-0.0217978308414931,0
571,1711767062,0.500096040917456,0.501600724456659,-0.510972914445745,-0.48703936574579,-0.203565792369308,-0.0741395337927655,0.0252852214743909,0
572,1711783729,0.500145527883484,0.501668701444458,-0.510897167501561,-0.48699799708835,-0.163057161356736,-0.0292042375861432,-0.0350666486491816,0
573,1711800396,0.500135305224798,0.501810015975298,-0.510878375513288,-0.486882603681292,-0.144781371265508,-0.0150919971108314,-0.0821281832350886,0
574,1711817063,0.500238035072518,0.501805098357547,-0.510772441299504,-0.486893278592038,-0.178776021192636,-0.0438594434375863,-0.0378148135920489,0
575,1711833730,0.500385565396252,0.501734394888275,-0.510617574903131,-0.486976975974445,-0.181559307173784,-0.0499350979108528,0.0350269453261111,0
576,1711850397,0.500478000577853,0.501761596897122,-0.510490630930272,-0.486987049673046,-0.191204426204892,-0.0488398099903582,0.00271637135217878,0
577,1711867064,0.500484795542225,0.501886511256525,-0.510418439229046,-0.486927013159873,-0.194470497009542,-0.0399878512703994,-0.0334259552600179,0
578,1711883731,0.500502974540093,0.502001833749703,-0.510369109717988,-0.486841147844062,-0.212805601983496,-0.0590606590659147,-0.0463085269636716,0
579,1711900398,0.50054677135131,0.502069797135105,-0.510294342337166,-0.486804409052725,-0.192361516970594,-0.0130111871342588,-0.0520810348303472,0
580,1711917065,0.500564457150476,0.502106788531255,-0.510237700984547,-0.486807442057413,-0.182487048145418,-0.0363599683666429,-0.0297986485426422,0
581,1711933732,0.500620193419085,0.502091890598724,-0.510163211161599,-0.486843561437679,-0.21722153868043,-0.0799863965973891,0.00350022936152108,0
582,1711950399,0.500713318288229,0.502068658802749,-0.510063544372481,-0.486876180808819,-0.221256817147033,-0.0987081371382,0.0184338142873332,0
583,1711967066,0.500759486905234,0.50213082102487,-0.51002948968008,-0.486800261409107,-0.202503176296296,-0.0816666196654206,0.00181786090548484,0
584,1711983733,0.500773997026088,0.502226122378187,-0.510002405275729,-0.486715391698739,-0.192755010595171,-0.0517875593757524,-0.0317334566857174,0
585,1712000400,0.500741180717704,0.502325598122117,-0.510034398990895,-0.486612962477053,-0.162642459393983,-0.00803772889531672,-0.0426286937046976,0
586,1712017067,0.500721491761685,0.502385451126355,-0.51007108145529,-0.486532977348455,-0.177614071681532,-0.0123594520664054,-0.0325033662829372,0
587,1712033734,0.500776827647643,0.502394720077624,-0.510063416351768,-0.486474485897105,-0.171235027007607,-0.0260792631459541,0.0107737114071696,0
588,1712050401,0.500786647177271,0.502453636954482,-0.51007375541968,-0.486392681639254,-0.180087857501539,-0.00969295607280736,0.0218317554473933,0
589,1712067068,0.500779749689751,0.502537294413567,-0.510066210679172,-0.486321262898871,-0.18731805559319,-0.0232242432127041,0.00679656856448287,0
590,1712083735,0.500691279147505,0.502696166430632,-0.510156040238608,-0.486153907574181,-0.184769116575486,-0.00676758886294831,-0.0320645253586848,0
591,1712100402,0.500607196042186,0.502808975411939,-0.510257942918262,-0.486016873374577,-0.189559669201559,-0.0115058147975613,-0.0726174043846078,0
592,1712117069,0.500563388239128,0.502839710554676,-0.510321544448625,-0.485963415408428,-0.189071401648602,0.0179839969003112,-0.078062119479651,0
593,1712133736,0.500536663291701,0.502837992100188,-0.510347527056561,-0.485965435014379,-0.193198919587426,-0.00581771238597529,-0.0377345065489262,0
594,1712150403,0.50058990826806,0.502846713278895,-0.510322657627425,-0.485927681653217,-0.217330369033143,-0.106253519238876,0.00778885164412056,0
595,1712167070,0.500601278605516,0.502942641345833,-0.510322947327778,-0.4858163735459,-0.215064967343894,-0.0845605235193678,0.0152284882316637,0
596,1712183737,0.500491366839809,0.50321977356152,-0.51043086531742,-0.48552917826514,-0.191744805948081,-0.0139851442591262,-0.00528615708073251,0
597,1712200404,0.500341783944269,0.503501618626181,-0.510583754417474,-0.485230305118341,-0.180839970958702,0.038898004632393,-0.0776880512959142,0
598,1712217071,0.500242241458496,0.503650922999826,-0.510707812737938,-0.485047397303019,-0.147578810279756,0.0970248576710662,-0.125394970222927,0
599,1712233738,0.500196328659581,0.503620156205658,-0.510805021523984,-0.485024330363692,-0.148901973820859,0.0573024519410968,-0.127635706508503,0
600,1712250405,0.500237413478883,0.503449601527294,-0.51078567998682,-0.485179366830833,-0.204467796917989,-0.011353811752682,-0.0977888557025244,0
601,1712267072,0.50032079277933,0.503216824330728,-0.510718448645583,-0.485405601776709,-0.214957820265781,-0.100709040516781,-0.0675933531946697,0
602,1712283739,0.500345499353412,0.503075497960025,-0.510715675337827,-0.485529529064179,-0.210746343770754,-0.1042676940468,-0.0225662699080587,0
603,1712300406,0.500273992426484,0.503085988875251,-0.510798448041503,-0.485505268537293,-0.225400290467981,-0.103156008129724,-0.0588994836423191,0
604,1712317073,0.500153997447129,0.503170418791287,-0.51092472196729,-0.485408525856011,-0.179691773500453,-0.0661172818389828,-0.102442366770515,0
605,1712333740,0.500061175328376,0.503179074716002,-0.511006800087679,-0.485408786448395,-0.164396385652169,-0.0141309389443757,-0.104715128364604,0
606,1712350407,0.499970846163751,0.503111321633862,-0.511099874757495,-0.485474066303243,-0.132240818112297,0.0523761018082639,-0.0949713142130841,0
607,1712367074,0.499876920056422,0.502946349086812,-0.511191521555713,-0.485645202822707,-0.156284384035589,0.00836032439825962,-0.0776564063160543,0
608,1712383741,0.499883492010508,0.502700810563002,-0.511178983691503,-0.485905789332461,-0.187884383285422,-0.0713827128040341,-0.108845722081371,0
609,1712400408,0.499976374315362,0.502392075668555,-0.511110969026787,-0.486200992154895,-0.234926929048375,-0.0601871033601301,-0.0884231947493162,0
610,1712417075,0.500010006500298,0.50216814707812,-0.51106458211347,-0.486446439362942,-0.265114034923794,-0.048754573484147,0.0320676118754689,0
611,1712433742,0.499895274224404,0.502128734889955,-0.511133863740666,-0.486532241216818,-0.208992316044361,-0.0332320326727461,0.0230614085516685,0
612,1712450409,0.499662391533794,0.502149953235155,-0.511334720215369,-0.486538511173505,-0.167398033298033,-0.0173719226214146,-0.0751736528827966,0
613,1712467076,0.499495775855099,0.502077530812148,-0.511456172932349,-0.486656661442011,-0.196111866317948,0.0148889643451099,-0.0849382741350807,0
614,1712483743,0.499490301018042,0.501812799493648,-0.511409260030133,-0.4869845194754,-0.168318473035242,-0.0253159447096727,-0.123573050687457,0
615,1712500410,0.499597804942651,0.501460530087482,-0.511197309792234,-0.487459414230609,-0.168155164415904,-0.0661118382539449,-0.000296435784905422,0
616,1712517077,0.499649448263531,0.501278444151204,-0.511098025154575,-0.487697815211829,-0.16094110962647,-0.0731396265503041,0.063551367510617,0
617,1712533744,0.499537326517599,0.501309586366509,-0.511161029703175,-0.48771462941507,-0.167283995614273,-0.00299880006567563,0.0694582028689458,0
618,1712550411,0.499292588047706,0.501469869412343,-0.511356575791537,-0.487595461409296,-0.145656615913047,0.030012687182872,-0.0237127975375076,0
619,1712567078,0.499157167889978,0.501521990056245,-0.511428460509554,-0.487605111760437,-0.15890593806427,0.0328393450746725,-0.120481011913113,0
620,1712583745,0.49915912740608,0.501406467645334,-0.511373035218293,-0.487780010437348,-0.159713395002968,0.030555325706462,-0.102730766557512,0
621,1712600412,0.499212569438485,0.501209300293346,-0.511300275101438,-0.488004176719088,-0.217428078787966,-0.0229745054470776,-0.0211202817061653,0
622,1712617079,0.499186853504078,0.50111330996272,-0.511299834476993,-0.488129506515129,-0.22811567799965,-0.0255596575448317,-0.00191272836535629,0
623,1712633746,0.49911119713975,0.501099316560364,-0.511371757495263,-0.488145893630857,-0.262043989121418,-0.0763624394000993,-0.044516701251167,0
624,1712650413,0.499143247035739,0.50105729817311,-0.511383606259003,-0.488143841644673,-0.246172562009406,-0.0932710542824286,-0.0621676159077352,0
625,1712667080,0.499167453327813,0.500972336848604,-0.511423535955431,-0.488164458068711,-0.212889469892411,-0.0585177702133941,-0.016215467395241,0
626,1712683747,0.499175404639671,0.500908293705296,-0.511449073844788,-0.488195290394508,-0.192694331099123,-0.0318830255791884,-0.025037187256129,0
627,1712700414,0.49914673893254,0.500887063346838,-0.511515712960124,-0.48817656455394,-0.154138931843959,-0.0216144488730457,-0.0998305836974537,0
628,1712717081,0.49919907057117,0.500702286825124,-0.511524774041659,-0.488303095884719,-0.172510994742029,-0.0272019433727247,-0.106114228147572,0
629,1712733748,0.499363440381828,0.500409750019581,-0.511425803397529,-0.488538518557704,-0.196896206663229,-0.0479502292757236,-0.0309211087100653,0
630,1712750415,0.499569653874731,0.500104580001899,-0.511283976273099,-0.48878856941931,-0.191607995570364,-0.02754421220691,0.0124242114104694,0
631,1712767082,0.499725113664413,0.499977445977623,-0.511175227789653,-0.488873450681236,-0.229166737020971,-0.0507700626977269,0.00115938002411498,0
632,1712783749,0.499789716461736,0.499960140405148,-0.511140031376567,-0.488861908568794,-0.232286476433755,-0.0279290716957161,0.0109406177767628,0
633,1712800416,0.499741208202484,0.500036742386218,-0.511180851741795,-0.488790464207961,-0.250064863528172,-0.0252895480324051,-0.0360252559287393,0
634,1712817083,0.499764252208247,0.500054130158584,-0.511190571976265,-0.488738946932462,-0.210914786146157,-0.0517491984481935,-0.147260974437693,0
635,1712833750,0.499891466565451,0.499900900579565,-0.511113314168703,-0.488846388279864,-0.215355015180788,-0.0795458481823784,-0.0936833799598599,0
636,1712850417,0.500078209394752,0.499742513106068,-0.510952582056107,-0.488985341266144,-0.193568059103613,-0.0962419211362342,-0.0167608963450375,0
637,1712867084,0.500215651809582,0.499665478733954,-0.510817473510279,-0.489064637653202,-0.175551275587794,-0.100019261438029,-0.0247334675167097,0
638,1712883751,0.500365282945999,0.499595559833702,-0.510665525172807,-0.489141678470361,-0.200892344734656,-0.123512747366576,-0.0567433787211038,0
639,1712900418,0.500626800852553,0.499502362929033,-0.510438526215453,-0.489206200544767,-0.213596076822271,-0.118777806779381,-0.023593179327023,0
640,1712917085,0.500917998502947,0.499417066983999,-0.510160851342129,-0.489284843152509,-0.229092717783418,-0.0987485654778095,-0.0105170594738614,0
641,1712933752,0.501111723300217,0.499441219495736,-0.509960263693167,-0.489270925453061,-0.212594634620811,-0.0585998256534047,0.0157786336490033,0
642,1712950419,0.501213121886381,0.499569238854162,-0.509834643586498,-0.489167270203772,-0.187037478181837,-0.0372940320891746,-0.0520901349941579,0
643,1712967086,0.501312099672578,0.499659900208596,-0.509703934408555,-0.489109458192997,-0.174055454052999,0.0224828721129897,-0.0731858981691829,0
644,1712983753,0.501425561327154,0.499694277604711,-0.509537884338217,-0.489131045631934,-0.143345444858563,0.0543204907737134,-0.0577650401011731,0
645,1713000420,0.501409440240715,0.499763774255569,-0.509468271120599,-0.489149081467715,-0.118643367024731,0.117068377290628,-0.0649338271235682,0
646,1713017087,0.501336142277858,0.499765943342936,-0.509420500114587,-0.48927173266346,-0.0877651551931808,0.107698276271524,-0.0719024275386572,0
647,1713033754,0.501243591039073,0.499663497281464,-0.509428627582019,-0.489462690433716,-0.0970211047335134,0.0786354850085225,-0.039623706038302,0
648,1713050421,0.501158896769351,0.499447171314115,-0.50946840858112,-0.489728724819238,-0.140957216086794,0.00377886909208125,0.0208536038307661,0
649,1713067088,0.501137787081164,0.499199838258712,-0.509442108759532,-0.490029772222577,-0.212527696322004,-0.114507861179973,0.053936217514739,0
650,1713083755,0.501198273281931,0.499025437453733,-0.509346727810933,-0.490244647601191,-0.25095023261991,-0.164885533862362,0.0449802061514237,0
651,1713100422,0.501174322251332,0.499053866339307,-0.509309671169839,-0.490278692235934,-0.207338370876298,-0.101023703445858,0.0769397439310632,0
652,1713117089,0.501073831198737,0.499204026481282,-0.509335072754452,-0.490202141259003,-0.186469691846671,-0.0190270788999248,0.0319394632427196,0
653,1713133756,0.500996275210397,0.499349816612139,-0.509388283385603,-0.490077615918336,-0.175166531247367,-0.0241603512445927,-0.0187629794214568,0
654,1713150423,0.500957171136317,0.499407032833716,-0.509447848682724,-0.489997365009107,-0.193736426286745,-0.0452466288224518,0.0181389506086491,0
655,1713167090,0.501078434125788,0.499324145982918,-0.509354844340795,-0.490054530270911,-0.251137422791799,-0.104970496112465,0.00117759020749597,0
656,1713183757,0.501134773769516,0.499363878167596,-0.509342212773096,-0.489969556184669,-0.208938157321086,-0.102421757851906,0.017345416236023,0
657,1713200424,0.501208291874354,0.499396950780505,-0.509299998435977,-0.489904526719891,-0.202528036288046,-0.0761492225661546,-0.0235212383113643,0
658,1713217091,0.501314298726773,0.49944813665156,-0.509282405116366,-0.48976215097357,-0.15566107729446,-0.0437953250814261,-0.0291853010862883,0
659,1713233758,0.501457875677595,0.499419739456157,-0.509270890260578,-0.4896560865502,-0.173996592087565,-0.0177995349681741,-0.00651549675960684,0
660,1713250425,0.5015729693389,0.499378426949851,-0.509293570787283,-0.48955674020525,-0.197154849632893,-0.0279281943007664,-0.00344426254785593,0
661,1713267092,0.501662498057566,0.499359389314811,-0.509349015678917,-0.489426724416127,-0.222045865161739,-0.019211473644854,-0.0116863536350282,0
662,1713283759,0.501738200597012,0.499359716098121,-0.509442389495082,-0.489251575148837,-0.16997059073931,-0.0380749648612823,-0.041438781178097,0
663,1713300426,0.501782309905539,0.499412166197183,-0.509566546895731,-0.48902345138537,-0.183309956283764,-0.113447793844342,-0.054641766000973,0
664,1713317093,0.501891774801862,0.499386110315174,-0.509603123323002,-0.488899596962361,-0.213494068078844,-0.0499523911549626,-0.00628864514791832,0
665,1713333760,0.502015602808759,0.499298317071379,-0.509632681089265,-0.48883131596903,-0.174723160145485,-0.0289997837551855,-0.0540583154171107,0
666,1713350427,0.502178670929979,0.499135698569986,-0.509573708226197,-0.488891371125176,-0.147971886720467,0.00447424364367138,-0.027919127573137,0
667,1713367094,0.502231540765612,0.499125939395064,-0.509646866067311,-0.488770751979865,-0.155121874428066,0.0060074292988796,0.000958758514343774,0
668,1713383761,0.502242574792966,0.499168447737662,-0.50975198124689,-0.488606359417655,-0.173025207023375,-0.0471917021342509,-0.0285335782787669,0
669,1713400428,0.502255853244404,0.499196290184142,-0.50983089870483,-0.488481910078512,-0.165090711596263,-0.0235180984162871,-0.0578894071997722,0
670,1713417095,0.502284458108227,0.499214202266503,-0.509865550744367,-0.488398017566091,-0.155734119025728,-0.0210924472222695,-0.0551718879093099,0
671,1713433762,0.502406180365197,0.499145452436881,-0.50976640684096,-0.488446576094962,-0.161769164933863,0.0079323446097976,-0.0597080236357945,0
672,1713450429,0.502386591529302,0.499235337951687,-0.509826200867269,-0.488312435742816,-0.166836709869434,0.0247713659668058,-0.0327446087784437,0
673,1713467096,0.502334565846156,0.499324854333788,-0.509882731744447,-0.48821539679686,-0.206171034399426,-0.00280813775301144,-0.0398573527447617,0
674,1713483763,0.502252940628393,0.499418100526873,-0.509955647018541,-0.488127834250581,-0.20552599728799,-0.0108198677677976,-0.0730507599496749,0
675,1713500430,0.502207242061419,0.499428913046597,-0.509977536022698,-0.488140921851853,-0.208789481628658,-0.0109557245288575,-0.0603111145392715,0
676,1713517097,0.502126394507102,0.499456516463694,-0.510005625970641,-0.488166501902317,-0.181637336126721,-0.026519455271737,-0.0702193389411047,0
677,1713533764,0.502100827816848,0.499432210273652,-0.509929097695966,-0.48829759508909,-0.172238759090406,-0.029033629372476,-0.0728026132924978,0
678,1713550431,0.502070596835221,0.499473409214251,-0.509840715849676,-0.488378821964372,-0.181531543815322,-0.0596399010769143,-0.0373026734299643,0
679,1713567098,0.501989106103939,0.499605271022329,-0.509833217976621,-0.488335540757865,-0.197891281754909,-0.0610073244328042,0.0130839075269326,0
680,1713583765,0.501871357640837,0.499728315833716,-0.509788166123103,-0.488377698522961,-0.190641156586705,-0.0320109536011302,-0.00310971425530542,0
681,1713600432,0.501751843525463,0.499853050412719,-0.509711409945038,-0.48845295994982,-0.159403585963557,-0.0100479123301538,-0.0820465317370084,0
682,1713617099,0.501675650979026,0.499928210373264,-0.509641303022399,-0.488527448503549,-0.171215535863869,-0.0351946205064243,-0.119292308523399,0
683,1713633766,0.501618883823687,0.499977827402593,-0.509568453776345,-0.488610947905638,-0.200399387858882,-0.0359147252755885,-0.0373809234395904,0
684,1713650433,0.501600485789035,0.500030437959955,-0.509446562882531,-0.488703093234486,-0.244452717720385,-0.0790252224473813,0.0238137400772035,0
685,1713667100,0.5015138461009,0.500208372476755,-0.509397722223523,-0.488660830092535,-0.210726925035456,-0.086842838938309,-0.00855468459017261,0
686,1713683767,0.501409407351719,0.500382173126865,-0.509338237446823,-0.488652071427717,-0.211607371006947,-0.0452255637206304,-0.0300318190722805,0
687,1713700434,0.501322169637173,0.500514099730902,-0.509304161047825,-0.488641985240947,-0.173336647049515,-0.017056670871051,-0.0602320059691263,0
688,1713717101,0.50128511167913,0.500533349997023,-0.509224284039879,-0.488743522610451,-0.143536040597048,-0.00457981880544485,-0.0929383474110197,0
689,1713733768,0.501272134216481,0.500471362338619,-0.50913758215726,-0.488910610819647,-0.181418772279874,-0.0202808340867678,-0.0766419865502356,0
690,1713750435,0.501341878504715,0.500369497010062,-0.508936627344202,-0.489152529040555,-0.198034708583311,-0.0610279462132228,-0.0131780546014719,0
691,1713767102,0.501363406912003,0.500341871113983,-0.508800465032099,-0.48930035050352,-0.243306533623941,-0.0742497575431195,0.0323520982327927,0
692,1713783769,0.501364714112081,0.500431348649533,-0.508698187157249,-0.489313849298227,-0.219143095742785,-0.0929878848410886,0.0435961887743294,0
693,1713800436,0.501315723972338,0.500579459201491,-0.50862256980728,-0.489291151980364,-0.214308829191867,-0.0324906179824944,0.00403260594910508,0
694,1713817103,0.501252584204664,0.500730481579091,-0.508565233445908,-0.489260906854233,-0.174655952996286,0.0273557044820568,-0.0305050571138935,0
695,1713833770,0.501197685944512,0.500805617543217,-0.508538757684499,-0.489267764086018,-0.171157170356658,0.00725866556726099,-0.0648382997521865,0
696,1713850437,0.501214066015669,0.500761097418399,-0.508449779207226,-0.489389012304613,-0.186250540660099,0.00706513047690307,-0.0198086319711668,0
697,1713867104,0.501201776595274,0.500744199397661,-0.508413516168203,-0.489456558322412,-0.204971903071163,-0.0567372061662709,-0.00660252857640054,0
698,1713883771,0.50118203680366,0.5007726175474,-0.50841247514147,-0.48944877834211,-0.201957524104932,-0.11758613093872,-0.00410009258157446,0
699,1713900438,0.501172278935052,0.500796652819966,-0.508419524622971,-0.489426854936994,-0.221139329067217,-0.117173383520159,-0.0121235032320866,0
700,1713917105,0.501200080898585,0.500821784386436,-0.508406000730163,-0.489386715811535,-0.1975834982691,-0.0726391386585103,-0.009469252037387,0
701,1713933772,0.5011896398592,0.500877996548736,-0.508460680321021,-0.489283061262716,-0.211519273035521,-0.095699586618702,0.00404274342636319,0
702,1713950439,0.501155456120272,0.500961952662961,-0.508540731034549,-0.489148909498777,-0.186269552569081,-0.0493282258339411,-0.0115220903890958,0
703,1713967106,0.501097278559772,0.501020979063313,-0.508639760605387,-0.48904507960895,-0.167233029422222,-0.0325858283420608,-0.0495403100359576,0
704,1713983773,0.501039535744606,0.501035892940439,-0.508760374926051,-0.488963494047674,-0.165337790663017,-0.0395460127188881,-0.0843082265405212,0
705,1714000440,0.501031682747204,0.500937823824562,-0.508848698297982,-0.488980113896123,-0.194440407029655,-0.0595299456974335,-0.0631859087260813,0
706,1714017107,0.501088923248034,0.500766445260965,-0.508874471337275,-0.489070169525838,-0.201835279297442,-0.0714327857144642,-0.0115071858370892,0
707,1714033774,0.501081935258631,0.500692778145955,-0.508960804400843,-0.489062915843757,-0.22796762573461,-0.0965561040135935,0.0336027703768754,0
708,1714050441,0.501053799203781,0.500711389123147,-0.509055223029106,-0.488974411408831,-0.227678341807929,-0.113933428566767,0.000444523362216046,0
709,1714067108,0.500983224563343,0.500810697679631,-0.509185089406406,-0.488809777441027,-0.201788260975313,-0.0771208008369479,-0.0196022350312556,0
710,1714083775,0.500912093036335,0.500904782882319,-0.50929553786229,-0.48867118663692,-0.182178106885842,0.00782307042594089,-0.0629791808317868,0
711,1714100442,0.50085333509873,0.500978025557491,-0.509441289815451,-0.488504377524057,-0.173013826068221,-0.0400371604538091,-0.0930201641982693,0
712,1714117109,0.500840618128551,0.50094796427688,-0.509541613875404,-0.488443605801845,-0.180541404547646,-0.069548232131479,-0.0767416900851649,0
713,1714133776,0.500903210397386,0.500851885216391,-0.509548856583705,-0.488470393824455,-0.225499763888138,-0.0595896460977732,-0.0420361285969337,0
714,1714150443,0.500939460024193,0.50077855240581,-0.50956484153281,-0.488491730855962,-0.183051284079796,-0.0397488194544668,-0.04008400614005,0
715,1714167110,0.500957551068852,0.500731826214352,-0.509623291859665,-0.48846010137703,-0.17107048476711,-0.125592002413524,-0.0796731103261866,0
716,1714183777,0.500975911085848,0.500677945556063,-0.509684713873562,-0.488432414760824,-0.229268333271221,-0.127722325281804,-0.0443763571208526,0
717,1714200444,0.501004474260419,0.500674135516059,-0.509728505610608,-0.488361318456186,-0.247389127109617,-0.156655813710156,-0.075439826084381,0
718,1714217111,0.501101675622924,0.500642627313718,-0.509665770356575,-0.48835936863252,-0.211167873390089,-0.109735464393414,-0.0941130020921975,0
719,1714233778,0.501200546855691,0.500631411230114,-0.509588112194239,-0.488350445716612,-0.164278564710684,-0.0369820223348538,-0.0429508541079162,0
720,1714250445,0.501238843511487,0.500652495512169,-0.50959351163382,-0.488283886067743,-0.17632232975509,-0.0226559825675717,-0.0238953404200811,0
721,1714267112,0.501302633347061,0.500650110495864,-0.509546885161903,-0.48826950394386,-0.169600220180116,-0.0265942563659137,-0.0554294451791827,0
722,1714283779,0.501307160746032,0.500731961664617,-0.509572227364479,-0.488154461467945,-0.16813409719919,-0.0441607527618043,-0.0447775586798903,0
723,1714300446,0.501450386271534,0.500722269908951,-0.509456361430768,-0.48813823280202,-0.189693681477036,-0.0686256079707733,-0.0431060339369882,0
724,1714317113,0.501653354831389,0.500643400547246,-0.509292832714376,-0.488181224158271,-0.181416395255788,-0.058012072897924,-0.0522321674871203,0
725,1714333780,0.501798979942102,0.500619627261928,-0.509155781800326,-0.488198896340921,-0.185374605976494,-0.00882514931308292,-0.0571289110888104,0
726,1714350447,0.501936973809667,0.500584864169065,-0.509044891298449,-0.488208323086142,-0.215474747738099,-0.0375034505390797,-0.0470215750602122,0
727,1714367114,0.50208341631789,0.500553240548745,-0.508921251700622,-0.488219065586525,-0.222828449185326,-0.079261217162478,-0.044589390480631,0
728,1714383781,0.502160788867762,0.500583694230768,-0.508865237798029,-0.488166648753005,-0.21044614923992,-0.0573773721555266,-0.0583389105797235,0
729,1714400448,0.502236477798053,0.5006145003945,-0.50882004511012,-0.488104296291178,-0.19586523167153,-0.0582162270857893,-0.0630439854635178,0
730,1714417115,0.502335441783407,0.500595581647469,-0.508788423882663,-0.488054819960111,-0.159456084929805,-0.0702486524576738,-0.0557056986185167,0
731,1714433782,0.50242807663256,0.500556824000958,-0.508736807588397,-0.4880530241297,-0.146956740583286,-0.00590508152684606,-0.0722739409642733,0
732,1714450449,0.5025585932673,0.500448346867702,-0.508643228614202,-0.488127420286443,-0.174986028738026,-0.0395342790548769,-0.0875162223169497,0
733,1714467116,0.502695865893067,0.500278910863448,-0.508530863025352,-0.488276805828407,-0.168375855623797,-0.0407209831824517,-0.034658375838841,0
734,1714483783,0.50283315835884,0.500127922959665,-0.508406416170891,-0.488419687898835,-0.205467727804257,-0.0370630555417394,-3.7558908130514e-05,0
735,1714500450,0.502961839737552,0.499991143692154,-0.50828798903403,-0.488550472521489,-0.216299284681382,-0.0326872826840837,-0.0219801866525875,0
736,1714517117,0.502993066644939,0.499956002405887,-0.508272541036238,-0.488570357874902,-0.210637421776176,0.00109787502811363,-0.0383155039971266,0
737,1714533784,0.502944345430254,0.500013056478545,-0.508325784315013,-0.48850673050762,-0.205187958030285,0.00400263800532734,-0.0488318630869838,0
738,1714550451,0.502863664449345,0.500035188159964,-0.508411629034257,-0.48847779994708,-0.180097497823444,-0.00294390655545502,-0.0559812774927865,0
739,1714567118,0.50285051915988,0.499990870670877,-0.508414718108168,-0.488533477908535,-0.199257294356428,-0.0612639982333191,-0.0172987269343121,0
740,1714583785,0.502862853677097,0.49996106701958,-0.508361384719737,-0.488606778895054,-0.184762664600983,-0.0629816529747438,-0.0274344674897429,0
741,1714600452,0.502876702529871,0.499946208781378,-0.508330289521336,-0.488640079335461,-0.202963387960356,-0.0645392777915528,-0.024975706171718,0
742,1714617119,0.502841356223718,0.499981881432395,-0.508343654010206,-0.488626051431937,-0.178375739994884,-0.0310318605172122,-0.00457943665942912,0
743,1714633786,0.502791789080103,0.500018000695669,-0.508355318710579,-0.488627962516064,-0.19238675013725,-0.00318014250282725,-0.0437254792279151,0
744,1714650453,0.502721939656636,0.500042215452067,-0.508387112649683,-0.488641973069626,-0.184238081208544,0.00725929875232087,-0.0604643027651157,0
745,1714667120,0.502708509592768,0.499992835772597,-0.508358540341039,-0.488736036139574,-0.181719052700144,0.0104203853210074,-0.0620764400757555,0
746,1714683787,0.502723959173956,0.499921006317595,-0.508324008342706,-0.488829531490551,-0.181289066723837,-0.0163669805669309,-0.0323205540141703,0
747,1714700454,0.502741614957242,0.499860166475304,-0.508279812233064,-0.48891953840871,-0.175652171282586,-0.0120506829376111,0.0074662085953694,0
748,1714717121,0.502721016591719,0.499849038996621,-0.508266324224724,-0.488966114725991,-0.177582438689086,0.00291600974342249,0.00524525350223646,0
749,1714733788,0.502648911219503,0.499880582184483,-0.508308961761681,-0.488963674517354,-0.18728589655551,-0.031881994056718,-0.0320071184903899,0
750,1714750455,0.502587332376933,0.499898710823309,-0.508355622913848,-0.48895992975223,-0.177986806331557,-0.0353431124937721,-0.0601141668102633,0
751,1714767122,0.502600334879863,0.499816279675676,-0.508323100528219,-0.489064633171521,-0.198015966377185,-0.0368498888949619,-0.0574332053754113,0
752,1714783789,0.502684673592081,0.499665765735107,-0.508233555224194,-0.489224789674591,-0.198240662974326,-0.00077288077950198,-0.0372598481687464,0
753,1714800456,0.502780777936101,0.499480623824348,-0.50814160695563,-0.489410566950243,-0.177612799171229,0.0267704683553119,0.0127339276453505,0
754,1714817123,0.502755924720947,0.499435910479727,-0.508127835463767,-0.489496020727625,-0.20273045381135,-0.00595921317500313,-0.00051610933439848,0
755,1714833790,0.502717005431742,0.499443618115639,-0.508130174967351,-0.489525699081214,-0.185885176669522,-0.0369621593442874,-0.0373888048869834,0
756,1714850457,0.502705334474079,0.499405891004222,-0.508109532800201,-0.489597595377209,-0.203368304854253,-0.0571113019120637,-0.0562255959188085,0
757,1714867124,0.502789009261351,0.49930073011755,-0.508003329669877,-0.489729119120344,-0.196660218908436,-0.0250547680269635,-0.0319431716355351,0
758,1714883791,0.502798751668758,0.499256645639615,-0.507941493569243,-0.48982819050731,-0.182733687920679,0.052310248548179,-0.0124535579336169,0
759,1714900458,0.502750469462792,0.499279640058424,-0.507920490383046,-0.489876088339816,-0.187943206672684,0.0337568329720475,-0.0162380655784459,0
760,1714917125,0.50270173014013,0.499298362788782,-0.507908643480687,-0.489919304894358,-0.160379277698784,0.0129648436362093,-0.0370793993435226,0
761,1714933792,0.502649294403474,0.499257465877047,-0.507914261101813,-0.490008951929572,-0.191452873616286,-0.0266918118439334,-0.0361203430696129,0
762,1714950459,0.502621237492528,0.499249782940278,-0.50789081494296,-0.490069858236702,-0.193457953485953,-0.0650368432190495,-0.0348367872822952,0
763,1714967126,0.502530369155002,0.499283441179981,-0.507896873084856,-0.490122474235818,-0.193923669991516,0.0086094685181431,-0.0471256418309917,0
764,1714983793,0.502439254790512,0.499293153070097,-0.507913375204728,-0.490188887910585,-0.196386196955378,0.0200062855639041,-0.0600647398303049,0
765,1715000460,0.502382626198033,0.499247066791146,-0.507876913106415,-0.490331626889704,-0.190968077521674,0.00418980117881311,-0.0587276552629197,0
766,1715017127,0.50237291244374,0.499140731021679,-0.507800085300936,-0.490529367975354,-0.180388988855472,0.00726320400408102,-0.0309417021680064,0
767,1715033794,0.502324357969748,0.499074226555728,-0.507771526074474,-0.490676301736779,-0.173315441486949,-0.0155610645178017,0.0069480806206144,0
768,1715050461,0.502228312704971,0.499052905943513,-0.507789102642377,-0.490778102837222,-0.206377630554232,-0.0285925067079285,-0.0210206232100845,0
769,1715067128,0.502209263522859,0.499003371545815,-0.507730685706339,-0.490908384130794,-0.230445092515883,-0.0241274552868427,-0.0231201877550291,0
770,1715083795,0.502223122348738,0.498946115661967,-0.507587865027534,-0.491100059377832,-0.185123226124499,0.0148503964724714,-0.0125444488611669,0
771,1715100462,0.502114516682402,0.499017307758875,-0.507555906482413,-0.491171803434091,-0.143256999207519,-0.00222186391850878,-0.0368844333779933,0
772,1715117129,0.501929961237607,0.499116799995326,-0.507601553957194,-0.491212170446419,-0.195058880160825,0.00355247421837972,0.00815433390012278,0
773,1715133796,0.501866671141483,0.499079108496254,-0.50755510046542,-0.491363112017466,-0.219425740079375,-0.0534427483854612,-0.0540697600721145,0
774,1715150463,0.501886104521035,0.498951925221466,-0.50741561979104,-0.491616418764232,-0.206936883414004,-0.070726214976504,-0.0281634682337444,0
775,1715167130,0.501848768210311,0.498905720148885,-0.507288276393659,-0.49183279768847,-0.186908283485685,-0.0450648426403955,-0.00171285815747212,0
776,1715183797,0.50167827812979,0.499007802227708,-0.507322698905411,-0.491867662836186,-0.157664269623256,0.00688159220422084,-0.0108550301120785,0
777,1715200464,0.501488870237248,0.499071780849786,-0.507428538827265,-0.491886723312612,-0.149893115063577,0.0193853935089422,-0.0170221497899821,0
778,1715217131,0.501355835354147,0.499074681435235,-0.507463175062945,-0.491983652839908,-0.171949934760826,-0.000627103645047739,-0.0295374847698669,0
779,1715233798,0.501314891392051,0.499027385547806,-0.507399530896689,-0.492138968369422,-0.188134355944479,-0.0600513440366129,-0.000714672508340619,0
780,1715250465,0.501247103538293,0.499036909050569,-0.507369080375722,-0.492229744000114,-0.208868499711293,-0.0789357494859389,-0.00818196336992064,0
781,1715267132,0.501197093883953,0.499086380679255,-0.507370839574278,-0.492228695681645,-0.247502400984433,-0.0483433434347312,-0.0154241226277414,0
782,1715283799,0.50109629385825,0.499193754501171,-0.507400370615868,-0.492191998764131,-0.275480901956406,-0.0726797157826453,-0.0203039265543642,0
783,1715300466,0.501077310867123,0.499237876588723,-0.507357918215939,-0.492210335057022,-0.261055217725172,-0.0591671538255317,-0.0610684472977011,0
784,1715317133,0.501046870644348,0.499269227709873,-0.507299479671872,-0.492269752883661,-0.225086106124703,-0.0233716765576176,-0.0460001278952726,0
785,1715333800,0.501054144493766,0.499242885339354,-0.507223854509641,-0.492366984209988,-0.221576435966815,-0.029504708007128,-0.0331238332021286,0
786,1715350467,0.501053545185908,0.499231802606307,-0.507166429177585,-0.492437981108634,-0.188935591782744,0.00156205533119688,-0.0182971021303141,0
787,1715367134,0.50107392149611,0.499256192618486,-0.507082702050102,-0.492478743307943,-0.228245569832262,-0.0679811985172185,-0.026830736228536,0
788,1715383801,0.501134839375383,0.499263287662481,-0.50694854910484,-0.49254767375063,-0.209495745340483,-0.070254391827383,-0.0518812876408154,0
789,1715400468,0.501153526030322,0.499268475528937,-0.506819314195153,-0.492656386794225,-0.204048603436087,0.031701863871358,0.00019569787127835,0
790,1715417135,0.501186814164897,0.499283349238744,-0.506697211694008,-0.492733041455211,-0.204673858422545,-0.017020605792511,-0.0453706578304068,0
791,1715433802,0.501269678995618,0.499266824218968,-0.506558009794875,-0.492808613831568,-0.239944183964062,-0.0573899417592284,-0.0510974576949419,0
792,1715450469,0.50133665705214,0.499287655306905,-0.506407880629679,-0.492873667373369,-0.239519764533556,-0.0428820365471541,-0.0390400547826288,0
793,1715467136,0.501353928670198,0.499346465367462,-0.506276983161284,-0.492930991167211,-0.221368390158972,-0.0393485396351556,-0.0408720422558424,0
794,1715483803,0.501390553291441,0.499372313548451,-0.506143564733761,-0.493004561246618,-0.210169345306277,0.000504086135407712,-0.0420066401142318,0
795,1715500470,0.50140285925468,0.499406792839202,-0.506023683377537,-0.493080175892648,-0.189142085442079,-0.0040470979752981,-0.00695427159336288,0
796,1715517137,0.501406182523524,0.499448910933696,-0.505905881587997,-0.493155010588966,-0.187360623857208,-0.000695314171926005,-0.0321614592838815,0
797,1715533804,0.501380926448475,0.499515807698073,-0.505821509038176,-0.493199478353084,-0.198403338629866,-0.0305169434462359,-0.0521900539562358,0
798,1715550471,0.501374196372756,0.499564595588593,-0.505738295050101,-0.493242239640722,-0.19053506641967,-0.0260458503900865,-0.0212438924570905,0
799,1715567138,0.501353166759768,0.499612862641435,-0.505670108404741,-0.493284635002064,-0.201852266031189,-0.0430164927672099,-0.024299785180538,0
800,1715583805,0.501317387430598,0.49970534119349,-0.505620444158244,-0.49327823334471,-0.190232893993751,-0.0380758522548276,-0.0319968740455523,0
801,1715600472,0.501270615030836,0.499778876411799,-0.505604412200963,-0.493267699694685,-0.157932386476869,-0.0156837779692439,-0.0535400040789909,0
802,1715617139,0.501243350902861,0.499760114950798,-0.505605596594278,-0.493313198052293,-0.171391146976635,0.0154836821927824,-0.0728265630801506,0
803,1715633806,0.501272104842057,0.49965463652332,-0.505580471725512,-0.493416566116067,-0.174073200577372,-0.00162126430653627,-0.0527971068962355,0
