"sep=,",,,,,,,,,
"DeviceTag:,Xsens_3,,,,,,,,,,,,,,,,,",,,,,,,,,
"FirmwareVersion:,2.4.0,,,,,,,,,,,,,,,,,",,,,,,,,,
"AppVersion:,2022.0.1,,,,,,,,,,,,,,,,,",,,,,,,,,
"SyncStatus:,Synced,,,,,,,,,,,,,,,,,",,,,,,,,,
"OutputRate:,60Hz,,,,,,,,,,,,,,,,,",,,,,,,,,
"FilterProfile:,General,,,,,,,,,,,,,,,,,",,,,,,,,,
"Measurement Mode:,Sensor fusion Mode - Extended (Quaternion),,,,,,,,,,,,,,,,,",,,,,,,,,
"StartTime:,2020-11-25 11:08:09.690 +0100,,,,,,,,,,,,,,,,,",,,,,,,,,
"© Xsens Technologies B. V. 2005-2020,,,,,,,,,,,,,,,,,,,",,,,,,,,,
PacketCounter,SampleTimeFine,Quat_W,Quat_X,Quat_Y,Quat_Z,FreeAcc_X,FreeAcc_Y,FreeAcc_Z,Status
1,2054157243,0,1.37996407501504e-18,-0.707106781186548,-0.707106781186547,-0.022775726,0.06315231,-0.06155969,0
2,2054173910,0.00114728023664445,0.00093901138920919,0.706762551253546,0.707449290162375,0.0528078481948473,0.111287875465154,0.0406344582069381,0
3,2054190577,0.0021363395164745,0.00180073878431851,0.706559251631183,0.7076483712464,-0.0288815499688783,0.143932758892916,0.0542503771692668,0
4,2054207244,0.00299235038084826,0.00260050018220433,0.706266593246248,0.707934871652993,-0.00695876451242034,0.0796105957569484,-0.0675251101086093,0
5,2054223911,0.0037289424828826,0.00333082204251116,0.705683390909741,0.708509669945731,0.00177355767792711,0.089464063258452,-0.0462594710721814,0
6,2054240578,0.0043146301031351,0.00401027041928141,0.705039855731554,0.709143217924465,-0.0375610519320638,0.110697690001375,0.0574448401618325,0
7,2054257245,0.00479868201342563,0.00455000815395206,0.704565341398391,0.709608307291355,0.00841967675514161,0.125708166308866,0.0959291352533513,0
8,2054273912,0.00516351125315817,0.00497632577021823,0.704246391496614,0.709919428102489,-0.0155257900033539,0.120409042797662,0.00480609578004223,0
9,2054290579,0.00543247273389677,0.00526116365317208,0.703936189948484,0.710222957160512,-0.049758960036609,0.121658500781923,-0.0054242115410233,0
10,2054307246,0.00573662463110789,0.00554757900076144,0.703558069305994,0.710592962686441,-0.128482727581226,0.097064467904931,-0.00726329377740935,0
11,2054323913,0.00612567719351128,0.00584841550207581,0.703245924816818,0.710896224032435,-0.196215871705709,0.146724822052663,0.0700081461334981,0
12,2054340580,0.00647188865171888,0.00606764697035814,0.703267165820668,0.710870305889961,-0.196724837016448,0.173382126589309,0.0932691886616953,0
13,2054357247,0.00680686711021647,0.00618306861553724,0.703446983250299,0.710688242465493,-0.158214804440668,0.140964162355472,0.0407418477195265,0
14,2054373914,0.00703569165523463,0.00623781083975077,0.70351323260769,0.710619954901872,-0.143114207769337,0.192445494792151,-0.0288193355718826,0
15,2054390581,0.00714968669160845,0.00634408966764418,0.703133182086403,0.710993925962487,-0.032467269525375,0.261181721758191,-0.113707990450703,0
16,2054407248,0.00718740198389791,0.00651950887798692,0.70221588087164,0.711897951892249,-0.0669119798728032,0.296347745220457,-0.0550669563240704,0
18,2054440582,0.0073395425630542,0.00693901082337356,0.700821117640852,0.7132655482444,-0.168586562360846,0.208574634709199,0.0828092363840612,0
20,2054473916,0.00754931790668303,0.00719645733532082,0.700314227050032,0.713758504112056,-0.120763640638428,0.0658444583296501,0.0342226971410426,0
23,2054523917,0.00763631627352467,0.007157993320003,0.699888734890874,0.714175194597413,-0.0936488054359803,0.129864021108416,-0.00160717922091179,0
27,2054590585,0.0079360501695776,0.00731456315424679,0.699314553343194,0.714732587585019,-0.189371143408964,0.0244981943198135,0.0317496155462723,0
30,2054640586,0.00782140406487914,0.00736830692791806,0.698942761530772,0.715096881405037,-0.0123205551868425,0.134329960578184,0.0121236357614488,0
33,2054690587,0.00709359519364952,0.00703615165824799,0.698609481587803,0.715433411096163,0.0141784788208178,0.0586460889584605,0.0450476354607366,0
35,2054723921,0.00655137368260469,0.00677681859752593,0.698407581383334,0.715638179877827,-0.00195349005892072,0.181363228685541,0.0913957172515152,0
38,2054773922,0.00530568363410271,0.00613266444368678,0.69871245343179,0.715356657596282,0.0114437128195292,0.111272332785187,0.097968962907052,0
41,2054823923,0.00407415679451191,0.00559128639037599,0.699098742959509,0.714991668731426,-0.0279273839766088,0.0982764338904497,0.0289295690371981,0
43,2054857257,0.00302234312350449,0.00527988046384257,0.698975328736987,0.715119904716232,-0.052300121819352,0.0106442187084553,0.0365914150070443,0
46,2054907258,0.00195332883406178,0.0051533180353482,0.698793201769458,0.7153025157096,0.0274722650865324,0.202511976775486,0.0866206341696572,0
49,2054957259,0.001121582572004,0.00487880237438453,0.698888543264319,0.715213075547283,0.0545987873789034,0.103893802156823,0.082999177666745,0
51,2054990593,0.000667679936577803,0.00470813790895123,0.699248340313789,0.714863026187076,0.0542569598542099,0.0770117346874711,0.0783493623623204,0
56,2055073928,0.000322256144777757,-0.00473760900068572,-0.698656861873045,-0.715441151017778,0.00405198140137377,0.0507056218737178,0.108888872900442,0
58,2055107262,0.000334950610658856,-0.00475987333128183,-0.699058810514612,-0.715048257711222,-0.00251709221106421,0.0811473345168744,0.196238385971883,0
61,2055157263,0.000256873289011494,-0.00446069719086995,-0.700725475898384,-0.713417019437908,-0.0166096002372314,0.164978718286948,0.149519945635347,0
64,2055207264,0.000418851827367998,-0.00434805464706574,-0.702933232918535,-0.711242426351683,0.0740441500477242,0.194860637321209,0.0893833808673696,0
66,2055240598,0.000819027900785655,-0.00462716404596404,-0.703993135833266,-0.710191230054156,-0.00095479466204001,0.168374738840619,0.0532271731807647,0
69,2055290599,0.00179613396131731,-0.00554334514580006,-0.704950468847779,-0.709232600561116,-0.0316434259959423,0.125513729012569,0.00529271086100312,0
72,2055340600,0.00276246378519411,-0.00690575982943297,-0.705140363742243,-0.709028734746674,-0.198098591551017,0.0546194103812302,-0.0948367006478637,0
74,2055373934,0.00254066807761897,-0.00820300862965142,-0.705414953040599,-0.708742548237278,-0.202283062437082,0.112733901281604,-0.0903240450744283,0
77,2055423935,0.00161778615621296,-0.00985911765080156,-0.706559988318056,-0.70758261954,-0.100277064307231,0.0684900195754181,-0.194300012042791,0
80,2055473936,0.00109825872084038,-0.0107335310299184,-0.706925022003757,-0.707206192283692,-0.206482832099787,0.0792133740749578,-0.157036179349042,0
84,2055540604,0.000652684079556256,-0.0109584002786273,-0.707489200694223,-0.706638888236329,-0.0966469263620485,0.158710600942513,-0.0292712307311685,0
87,2055590605,0.000580017290876668,-0.0109218818854908,-0.70827964568605,-0.705847235301567,-0.0576383964160187,0.132501849535301,-0.0245534990144717,0
89,2055623939,0.000812378931314492,-0.0109635958279811,-0.708346121646334,-0.705779648017417,-0.0973977549499971,0.105174117582859,0.183156171730644,0
92,2055673940,0.00115912584888183,-0.0112178847226206,-0.709435053977863,-0.704680579892083,-0.096166392895282,0.133822116823722,0.0891132434598674,0
95,2055723941,0.00127407451390398,-0.0117947593006448,-0.711274449386082,-0.702814284173066,-0.090422048340969,0.122937101580848,0.0930204165295253,0
97,2055757275,0.00132159764300653,-0.0120974511679927,-0.712843359520719,-0.701217690765231,-0.0869569297523552,0.0385056261561425,0.0572046010262324,0
100,2055807276,0.00161963800641568,-0.0125961370465292,-0.714791317425979,-0.699222487221818,-0.0232884393186298,0.110434687896779,0.00114117339244283,0
103,2055857277,0.00219406755541883,-0.0132280251007426,-0.715652920455412,-0.698327360815211,-0.0823615111925211,0.079587457668537,0.00312981819211787,0
106,2055907278,0.00228440240780014,-0.0136877514653076,-0.717032908178612,-0.696901166274232,-0.0818529743977507,0.0948250576244127,-0.0490442151391863,0
108,2055940612,0.00238115838159145,-0.0137844240270975,-0.717871473212352,-0.696035105211605,-0.019306500268715,0.0704510989710568,-0.0684346478183038,0
111,2055990613,0.00257678338500203,-0.0132271805556493,-0.720132325389676,-0.693705871252934,-0.0881778767246363,0.0917300519221426,0.0940990583308414,0
114,2056040614,0.00240661140503286,-0.0128453105491649,-0.722984672850386,-0.690740449837608,-0.0443385692774714,0.115610968396866,0.0512322584801129,0
116,2056073948,0.00230606616099063,-0.0129495688254949,-0.724671100274385,-0.688969365903309,0.0194479467430859,0.123906565001259,-0.021494037038294,0
119,2056123949,0.00203626860072077,-0.0135960034127429,-0.726398702728111,-0.687136032366448,-0.0453277065622613,0.129821018123785,-0.0181949863948868,0
122,2056173950,0.00181177634150773,-0.0147388265033342,-0.727277013096766,-0.686183379776019,-0.0412586817966922,0.0393214020402457,-0.0290709417481806,0
124,2056207284,0.00178610762661086,-0.0155105916263746,-0.727207477589853,-0.686240129913975,-0.0750040219181762,0.0783565117921056,-0.0605008888748884,0
127,2056257285,0.00157514496018996,-0.0164843589039083,-0.726914857738801,-0.686527912344764,-0.102453693041842,0.175674816547715,-0.0990119513325622,0
130,2056307286,0.000915910646915901,-0.0171951448291152,-0.72672529401297,-0.686712337987133,-0.118520068223674,0.220640978733009,-0.125065210403218,0
132,2056340620,0.000518989617037272,-0.0173255229502506,-0.726736058985124,-0.686698083203272,-0.127893881721424,0.192087653714059,-0.0701229767006072,0
135,2056390621,3.43459123261456e-05,-0.0170950124831112,-0.726876420816422,-0.686555480809577,-0.1820739732673,0.138165672007962,-0.0214009735985679,0
138,2056440622,0.000120106722191797,0.0166564426965735,0.726585844046537,0.686873758213438,-0.0948847159084693,0.137936879153356,0.0634252287657534,0
141,2056490623,0.000189389099892408,-0.0160488595211134,-0.725852691554048,-0.687662903175374,-0.073432089499837,0.126366662014759,0.0644595576429146,0
143,2056523957,0.000575030080641033,-0.0157846432501995,-0.725148246081881,-0.688411603317551,-0.0645548169057487,0.0952537301750322,0.0971476218458475,0
146,2056573958,0.000972510310661157,-0.0157247360847435,-0.724463093530215,-0.689133523354793,0.024617724070399,0.126709451844222,0.108003900691229,0
149,2056623959,0.00154928437762637,-0.0158534237531769,-0.723979599169917,-0.68963744725688,-0.0586393122571378,0.0811805648305271,0.0796353148351881,0
151,2056657293,0.00172336315530885,-0.0160130900438904,-0.723818235813935,-0.689802705467211,-0.0512384712451334,0.147870869494593,0.120739590613717,0
154,2056707294,0.00196617555161207,-0.0161706019276594,-0.723967356393775,-0.689641872759482,-0.0626375992630864,0.149887270057636,-0.0606380713207993,0
157,2056757295,0.00231724732803873,-0.0160122595182596,-0.724355389334196,-0.689236902561409,-0.0308372387180936,0.131830524737939,-0.0982311938753096,0
159,2056790629,0.00273002709117288,-0.0155709821118616,-0.724728197840155,-0.688853490027825,-0.0324082225016886,0.158179919827829,-0.0432348248947512,0
164,2056873964,0.00353343096766064,-0.0138338112060235,-0.725643236818616,-0.687922985073558,0.0716950639838484,0.182937945117658,-0.00247050089830223,0
166,2056907298,0.00387093649451428,-0.0130320908679762,-0.726144124415888,-0.68740809642784,0.0456157144718367,0.0972607019121013,-0.0278451974060382,0
169,2056957299,0.00433324958517581,-0.0120736959299625,-0.726332922663485,-0.687223351080086,-0.015909735804553,0.0100893222845266,0.150369120493506,0
172,2057007300,0.00427369365079975,-0.0115920039564249,-0.726744458431911,-0.686796806286518,0.0249671610850897,0.0826106494155318,0.0764826836410801,0
174,2057040634,0.00427202282152246,-0.0112938025003368,-0.727064823700922,-0.686462629705975,0.0433246582474431,0.0503102170962558,0.0361508920956103,0
177,2057090635,0.004239616685945,-0.0108963513961304,-0.727445606996576,-0.686065728657241,-0.0414732394034335,0.143551153016363,0.0352213603525063,0
180,2057140636,0.00411611023151418,-0.0105335959752198,-0.727598793566188,-0.685909685449491,-0.113491140172259,0.127551812452995,0.0429637303368154,0
182,2057173970,0.00387657939802868,-0.0103424826830537,-0.727901909111116,-0.685592310266469,-0.0951101670629909,0.137644850454958,-0.0296119225852185,0
185,2057223971,0.00357130894918654,-0.0100337004320886,-0.728435833159004,-0.685031245694659,-0.0444791254160828,0.133461356488434,0.0118031759400245,0
188,2057273972,0.00380020682859941,-0.00964478624951572,-0.72866038535066,-0.684796743090159,-0.11037902915143,0.131092227174124,-0.00979956830331976,0
192,2057340640,0.00436631637934399,-0.00911484785337033,-0.728620354143919,-0.684843218815135,-0.0988839881498473,0.0810395802926852,-0.0196973808127139,0
195,2057390641,0.00488553353615818,-0.0088293402785646,-0.728177861958042,-0.685313924903417,-0.0792584923504887,0.10378406847536,-0.0314147505425708,0
197,2057423975,0.00508343585336983,-0.00863486433843838,-0.727902623455349,-0.685607299089356,-0.0915881419829019,0.0964463811069432,-0.0237043654617054,0
200,2057473976,0.00519368278094524,-0.00823483494174662,-0.72784735475015,-0.6856700674055,0.0217370423369728,0.0856089226571418,-0.0779924501384794,0
203,2057523977,0.00528418901737814,-0.00787002130142009,-0.727604195647401,-0.685931683615389,0.0544490206259404,0.142167458455694,0.0422295508991618,0
205,2057557311,0.00542697476109888,-0.00768915772217418,-0.727258215739255,-0.686299433511512,0.0681060581704614,0.11483938177483,-0.0280010160381628,0
208,2057607312,0.0058006842631979,-0.00769566090522232,-0.726210088100349,-0.68740529297249,-0.00215677526901771,0.0628671620544364,0.0696588246845167,0
211,2057657313,0.00565442083647073,-0.00804236997042145,-0.725863012400685,-0.687769027391367,0.0351627574867453,0.102405058717501,0.0471721779141086,0
214,2057707314,0.00559899082765788,-0.0087148949572492,-0.725251682947492,-0.688405910992509,-0.0279962450732706,0.0986277505031271,-0.01111408127775,0
216,2057740648,0.00569243418214715,-0.00932725726079548,-0.724189495625565,-0.689514447195027,-0.0141081742186877,0.136719123978153,-0.0135873253681956,0
220,2057807316,0.00524227257731505,-0.0108295390342046,-0.722937166354423,-0.690809013523976,-0.140314852247064,0.119041158596038,-0.0661597194077346,0
223,2057857317,0.00446000233457685,-0.0120406567742807,-0.721776224751928,-0.692007378823719,-0.136719769838832,0.0637944735222051,-0.0699422991851564,0
226,2057907318,0.0037081519136796,-0.0126574201798404,-0.721450353244532,-0.692340542744042,-0.0636842925561706,0.1310001703095,-0.055829450103394,0
228,2057940652,0.00347837030250728,-0.0126671446256972,-0.721461825642381,-0.692329602521684,-0.0591038981177422,0.160087247057619,-0.117180220638977,0
231,2057990653,0.00324287426945883,-0.0122690013215845,-0.721732456644249,-0.692055789947097,-0.0420614324653402,0.20178678530003,-0.0510477578687932,0
234,2058040654,0.0033191656912059,-0.0114032089544725,-0.721898014349322,-0.691897540711889,-0.059508108843829,0.141950740093398,0.0264987963262861,0
236,2058073988,0.00355490403776099,-0.010541734771642,-0.722376222493812,-0.691410751768337,-0.0597455074326125,0.0828749047281854,-0.0354589869334212,0
239,2058123989,0.00407639241643064,-0.00935125635575849,-0.722190375598582,-0.691619113690632,-0.119460466594595,0.113799657070108,0.0598512687536274,0
242,2058173990,0.00419068219081184,-0.00878473445884204,-0.722129980949525,-0.691688916520354,-0.113229537948565,0.148992042358042,0.0239015521042866,0
245,2058223991,0.00440433444117971,-0.00864923012539334,-0.721535062263112,-0.692309863125851,-0.063824803214999,0.147955573797902,0.0656036968459802,0
247,2058257325,0.00470531272220134,-0.00858277399096308,-0.721248592245561,-0.692607149982299,-0.128421487008693,0.119677803125633,0.0641750235965432,0
250,2058307326,0.0052321594159182,-0.00845796307771677,-0.720918529310925,-0.692948455128227,-0.0828160209311542,0.102719923063764,0.0943422898410506,0
253,2058357327,0.00597191382615155,-0.00821009036035555,-0.720756554284666,-0.693113930113386,-0.0762595010663181,0.0614188495216178,0.0209461230110855,0
255,2058390661,0.0066173651130768,-0.00802949558175298,-0.72058776367242,-0.693285664445215,-0.0482264501881457,0.0568320927879511,0.00769129308738442,0
258,2058440662,0.0074624572712074,-0.00778971154475175,-0.720156412050676,-0.693727882031435,-0.0845709312705458,0.10747554993249,0.0112605866016712,0
261,2058490663,0.00786174640684268,-0.00758710797739117,-0.720354175634617,-0.693520360466616,-0.0196596582135182,0.172514773857249,0.0721285253236833,0
263,2058523997,0.00820791846087649,-0.00722139504917885,-0.720727080344989,-0.693132712534528,0.0758152077292677,0.0744353990825843,-0.0342610584892483,0
266,2058573998,0.00879590605182127,-0.00647080206308303,-0.720811555221215,-0.693045065357918,0.0234832936167881,0.0959926620117137,0.0620766672237293,0
269,2058623999,0.00898848403848799,-0.00605345532037082,-0.721406767393871,-0.692426775039571,0.00994409234853629,0.0876284950931095,0.0532508766196783,0
272,2058674000,0.00918846032305097,-0.00610704262975082,-0.721367953279738,-0.692464116188132,0.000833295798205613,0.109223843871321,-0.0141459765810988,0
274,2058707334,0.00919946738876969,-0.00638986701037496,-0.721339418230635,-0.692491142980213,-0.0306829220200475,0.116366785177716,0.0321656823885253,0
277,2058757335,0.00877501448305808,-0.00697906076261358,-0.721678837965337,-0.692137231092718,-0.0258307860722135,0.108720962178066,0.0364376838256684,0
280,2058807336,0.00847620366437537,-0.00730634716107903,-0.72173676814013,-0.692077169669136,-0.107496343726469,0.0700653506784662,0.00139504666756546,0
282,2058840670,0.00819157824060968,-0.00749214508668231,-0.722012369640979,-0.691791083993821,-0.0764129692254851,0.121374758359387,0.0374085795365891,0
285,2058890671,0.00753651875948595,-0.00779785053537282,-0.722509048061377,-0.691276406281495,-0.134485235251248,0.126854492567977,0.0047996020201968,0
288,2058940672,0.0065698107949434,-0.00826328855626416,-0.722532773767403,-0.691256064335306,-0.134956702872438,0.185542824302823,0.0476734257133647,0
290,2058974006,0.00579358506151829,-0.00856318371104943,-0.723304619596222,-0.690451688047491,-0.0179271978301553,0.102519984394631,-0.0270719739186516,0
293,2059024007,0.0054618430524204,-0.00863813754110729,-0.723393698942962,-0.69036012861398,-0.0904452173814157,0.0815567031915306,-0.0183096013686097,0
296,2059074008,0.00545976521815866,-0.00852551308740542,-0.723760922891186,-0.689976545315896,-0.085389987539303,0.145017853892083,-0.00144668371518404,0
300,2059140676,0.00579947288203589,-0.00827014823608786,-0.724163460279388,-0.689554387672667,-0.0605612617906783,0.135032790275921,0.0371985582880327,0
303,2059190677,0.00618831250582666,-0.00813492945542831,-0.724711667415425,-0.688976434156525,-0.0503489666237547,0.136048796415522,0.0345370235071,0
305,2059224011,0.00660589591659625,-0.00795414971050559,-0.724980010326339,-0.688692295781464,-0.0517323786465938,0.0942659155810867,-0.0133445553857815,0
308,2059274012,0.00701718651933307,-0.00784925775053325,-0.725309668786099,-0.68834223509205,-0.05440736470798,0.11915365796569,-0.00379337326453188,0
311,2059324013,0.00734838426191967,-0.00775028346138851,-0.725548823544229,-0.688087813442872,-0.0175469563216197,0.110109140654365,-0.0056952872561299,0
313,2059357347,0.00763781157407474,-0.00773987741774815,-0.725360781015806,-0.688283005380823,-0.0481541678766359,0.123753536386717,-0.0159364116582868,0
316,2059407348,0.00781046804008897,-0.00771997653444188,-0.725319700905656,-0.68832458188665,-0.0485938266696157,0.0712565057696676,-0.0465490390391941,0
319,2059457349,0.0080907450268739,-0.00757350688789588,-0.725372782333854,-0.688267032835057,-0.0693385123850821,0.121741242770548,0.00922966904352577,0
322,2059507350,0.00852218322359152,-0.00723915324303287,-0.724726979168558,-0.688945406196053,-0.0682982519347473,0.15539972487619,0.0425658126163807,0
324,2059540684,0.00852984876111165,-0.00703695959440707,-0.724848535537273,-0.688819514393466,-0.0248867381406757,0.0935774833869422,-0.0159373344733951,0
328,2059607352,0.00880767103862938,-0.00672132541551056,-0.723970395968014,-0.689742063729225,-0.113920555369274,0.167156230927121,0.021294020515083,0
331,2059657353,0.00872145947310796,-0.00633313703019123,-0.723849900534012,-0.689873284753742,-0.0419021287318679,0.11829682348989,0.0129176156559949,0
334,2059707354,0.00915762057527882,-0.00549778176153515,-0.723833519172075,-0.689891983504716,-0.0584545054549422,0.0950593061934303,0.118991818322977,0
336,2059740688,0.00957557063138022,-0.00478071463799008,-0.724097515367204,-0.689614560065024,-0.0276073934196328,0.104450348737875,0.0444107874599623,0
339,2059790689,0.010042643723361,-0.00405858503331312,-0.724345081780493,-0.689352504670132,0.0112943576383183,0.0966165847248635,0.093005028786844,0
342,2059840690,0.0104454099815609,-0.00360080470786122,-0.724610946565835,-0.689069592808113,0.00268789491216051,0.0750510092758209,0.0653604712505931,0
344,2059874024,0.0107759818599007,-0.00338330366637964,-0.724371891377431,-0.689316904227322,-0.0219256771483813,0.0489853720627874,0.108894319176602,0
347,2059924025,0.0109885835710082,-0.00340403738576116,-0.724633326348908,-0.689038609879807,0.013060760625354,0.0711534565596824,0.01335496202863,0
350,2059974026,0.0109991686038861,-0.00373249686808468,-0.724559737516616,-0.689114122280922,0.031694451985447,0.0688377894667817,-0.0043600782701258,0
353,2060024027,0.0107957470095036,-0.00426545431463937,-0.724431955111079,-0.689248576465658,-0.0393218998872996,0.102196876740476,0.0122276880644303,0
357,2060090695,0.0101120648253302,-0.00498430182644193,-0.724447052319194,-0.689238254354982,-0.00505369785423396,0.184985477971066,-0.0479746542032429,0
359,2060124029,0.00975198280537738,-0.00515445268262336,-0.724410052066806,-0.689281079758812,-0.0639274644535442,0.131404475176042,-0.0292987033055838,0
362,2060174030,0.00912613346562875,-0.0052237788137447,-0.724580032420121,-0.689110442847101,-0.109820907833245,0.117506558826337,0.00633205898274882,0
365,2060224031,0.00875843673105214,-0.00510651351453284,-0.724680842476684,-0.689010079645455,-0.135590723971872,0.109400377181281,-0.00430775112684798,0
367,2060257365,0.00861623443089456,-0.00494148090212037,-0.72464614488275,-0.689049567866706,-0.0998945059936418,0.124853121642288,0.00789227144694558,0
370,2060307366,0.00863746795373085,-0.00461305208062414,-0.724686449177244,-0.68900919027015,-0.0839347869791237,0.176749949191802,-0.00363081352127704,0
373,2060357367,0.00889750765525178,-0.00420968648925336,-0.724555844336799,-0.689145805569892,-0.0746525875081825,0.121038667930401,0.00765665037304282,0
375,2060390701,0.00923287719181694,-0.00381243661494503,-0.724548123347956,-0.689151823808638,-0.0876061232534092,0.128437166488188,-0.0134785125602176,0
378,2060440702,0.00981509401955497,-0.00308126006485381,-0.724505133341341,-0.689192630204245,-0.0501027265040558,0.144106387293396,0.0124825756184527,0
381,2060490703,0.0105539027749989,-0.00221113775910745,-0.724426939874816,-0.689267244825717,-0.0369324943331339,0.123509951649396,0.0200851331031245,0
384,2060540704,0.0112618308117291,-0.00133821512377292,-0.724297863911871,-0.689393925618547,-0.023605916648139,0.127436308017626,0.0108283164418355,0
386,2060574038,0.0114828302337831,-0.000967052122354122,-0.724246466587966,-0.689444896315043,-0.0381960081216647,0.124079446404383,0.0207482572486966,0
389,2060624039,0.0113311395802014,-0.000745334727661237,-0.724465189714191,-0.689217845564332,0.0199330049190672,0.0847909388431315,0.00920343436957795,0
392,2060674040,0.0113080741051426,-0.000610928859779454,-0.724244037348684,-0.689450744136838,-0.0793331987243052,0.103613582815457,0.0276278325416092,0
394,2060707374,0.0112221316772772,-0.000566124557488575,-0.724131966006724,-0.689569894260793,-0.0386171819117329,0.116050327741537,0.0176492344642016,0
397,2060757375,0.011226630959798,-0.000422857899687369,-0.724232853211998,-0.689463964451295,-0.0715860815061309,0.115645233702075,-0.0149599226886991,0
400,2060807376,0.0112914477029386,-0.000347754078185383,-0.724129257810573,-0.689571751349039,-0.0822118067733491,0.0919115814969019,-0.0144439294909822,0
402,2060840710,0.0112930003596916,-0.000365970563517293,-0.724018592042314,-0.689687909554377,-0.0612173473504667,0.11141464969,0.0391543274631107,0
405,2060890711,0.0114034756812321,-0.000378698739444921,-0.723963606175017,-0.689743803352895,-0.056551119365545,0.0855935978431619,-0.0195984834408056,0
408,2060940712,0.0114403801788742,-0.000471496917307937,-0.723604009907024,-0.690120375179936,-0.0675309944296904,0.143618600442304,0.0426346234265787,0
411,2060990713,0.0114510150902546,-0.000484200082651601,-0.723394286460774,-0.690340022104753,-0.071771175342662,0.0929758403300995,0.0147860393935183,0
413,2061024047,0.0114386643161892,-0.000471332266583741,-0.723335677886783,-0.690401645349012,-0.0547683368575603,0.0667843123042953,-0.01341275199387,0
416,2061074048,0.0115471879347102,-0.000496793353627307,-0.723044348049976,-0.690704919918882,-0.0792256030233707,0.103292385066595,0.0246561484934333,0
419,2061124049,0.0117200769084121,-0.000496782091583649,-0.722483108785065,-0.691289049909719,-0.0602964762266003,0.181999063134874,-0.0170842691660848,0
421,2061157383,0.0118249747883961,-0.000455393921171785,-0.72221293497922,-0.691569547577343,-0.0472717194097742,0.120308435173982,-0.0467924166481066,0
424,2061207384,0.0120595125714571,-0.000352829059288032,-0.721564632192385,-0.692241955704263,-0.0268024308083295,0.108174951483549,-0.0410690839433315,0
427,2061257385,0.0123040194965605,-6.05543005735535e-05,-0.72111526844852,-0.69270583731323,-0.0541723926786672,0.102738905138807,-0.013926181961802,0
430,2061307386,0.0123838518240933,0.000271008884942561,-0.720851160417041,-0.692979199755367,-0.0645851228311379,0.138857406919736,-0.0123020351474278,0
432,2061340720,0.0123198156020267,0.000492883566188813,-0.720675302815594,-0.693163102827159,-0.0324039456154618,0.141851053418983,0.015190890971369,0
436,2061407388,0.0121297364412625,0.000892882956899478,-0.720255869524639,-0.69360187043375,-0.0284913119131855,0.143532736884225,0.0624344504785344,0
439,2061457389,0.0121376271552954,0.00109520847411794,-0.719806915015241,-0.694067348044611,-0.0572699475678457,0.127373979925758,0.0375201726088229,0
442,2061507390,0.0123260478778597,0.00119185040532325,-0.719280495094024,-0.694609399168785,-0.0428870983873098,0.114157512835326,0.0572495157420342,0
444,2061540724,0.0124319159076578,0.00117080450940148,-0.71898913437037,-0.694909131715085,-0.0718365561746866,0.114619794139019,0.0322116723088679,0
447,2061590725,0.012721929518121,0.00106416833111392,-0.718670388472899,-0.695233696527513,-0.0467683751031173,0.115975594989804,-0.000271476327846978,0
450,2061640726,0.0130498619391687,0.000888753733120824,-0.718352849204139,-0.695555961271605,-0.0675271225521576,0.118693748044766,0.00195265934926876,0
452,2061674060,0.0132348330876277,0.000751380065222568,-0.718227545116847,-0.695682016482076,-0.0381700140485916,0.124755601526301,-0.00886206642389248,0
455,2061724061,0.0134159887327379,0.000511507947360208,-0.718094743937516,-0.695815843693757,-0.0441438904025682,0.0960372329360581,-0.00463897828652824,0
458,2061774062,0.01346725013616,0.000176866299890193,-0.718083212288909,-0.695826919658132,-0.0543750124191393,0.0982152681529415,0.0163315545359914,0
461,2061824063,0.0129252413814955,-0.000413850110623921,-0.718564754774768,-0.695339816247274,-0.0900429478561474,0.0866246293171957,-0.0692460414621373,0
465,2061890731,0.0105397730688183,-0.00195072004812671,-0.719097085176531,-0.694826949654062,-0.150715999569467,0.0323107062860566,-0.0335670805149718,0
467,2061924065,0.00807086855184627,-0.00320498287969797,-0.719605098840233,-0.694329238105884,-0.101605690475747,0.0443311432610009,-0.00242810378569847,0
470,2061974066,0.00315864785071603,-0.005419855049699,-0.720979315236372,-0.692928189003946,0.065771242606047,0.13783685536406,-0.0438406679896309,0
473,2062024067,2.80189122244636e-05,-0.00705559199205628,-0.721427050274756,-0.692454495955111,0.270342556711682,0.185919583720426,-0.0322512390908728,0
475,2062057401,0.000320335288477265,-0.00683724431328274,-0.721155678330876,-0.692739227333517,0.118087189501255,0.039291283067015,-0.0354771009497469,0
478,2062107402,0.00166455925914197,-0.00587801761405139,-0.720661277377067,-0.693260413871047,-0.246896851503827,0.137499070079618,-0.0683609178000648,0
481,2062157403,0.00129363683049493,-0.00562259525182521,-0.720381967595727,-0.693553555026066,-0.234090255965761,0.229688042745971,0.00883260947841815,0
483,2062190737,0.000310260901817928,-0.0055408281778185,-0.720809775816495,-0.693110719906027,-0.0561393446815172,0.133461377308979,-0.166710773165979,0
486,2062240738,0.00103987350667704,0.00538817225502205,0.721203247200166,0.692701784674168,-0.0755627392361871,-0.0197750784145723,-0.181653968089281,0
489,2062290739,0.00243072639810403,0.00552151159474201,0.720706502122391,0.693214066704791,-0.0550027117775292,0.0158208951550748,-0.0943153268414385,0
493,2062357407,0.00352802203337286,0.00553791074803883,0.719545921190411,0.69441381891731,0.0241655823419453,0.131452980180478,-0.0807222233240764,0
496,2062407408,0.00384902033949228,0.00511982507855136,0.718518952039499,0.695477884618664,-0.0520398182385507,0.147835223831424,0.0550782385774553,0
498,2062440742,0.00409650704195265,0.00473395236532463,0.718359324639161,0.695644082149073,-0.0375335527865998,0.129802997754721,0.0938270130844009,0
501,2062490743,0.00443406210547105,0.00429442879736426,0.717594194800161,0.696434109276433,-0.0659974574335709,0.120818039558101,0.111470752697127,0
504,2062540744,0.00537550434559154,0.00420906318192362,0.717330281840157,0.696699830985542,0.0860118669638491,0.16420602230253,0.0937257208707619,0
506,2062574078,0.00576448624788368,0.00413698888465435,0.717091780735868,0.696942633236286,0.139200785136339,0.130718529468422,0.0790604035601327,0
509,2062624079,0.00632074110701644,0.00418943923194259,0.716961131099236,0.697071899680144,0.0804200913198966,0.0525837474074038,0.0378042951843112,0
512,2062674080,0.00729500869787416,0.00484200853110487,0.716604582241105,0.69742469881166,0.0861057931612323,0.0420076716035701,0.116742924714453,0
515,2062724081,0.00854471242682027,0.00586413530069369,0.716495819148584,0.697514401965521,0.0589087804470197,0.0914084867680264,0.060775240938461,0
517,2062757415,0.00954980017089602,0.00667138130282754,0.716273263204951,0.697722657225591,0.0170075716610917,0.104370680234015,0.0200370691526382,0
520,2062807416,0.0108056857730808,0.00768178485899014,0.71624066775907,0.69772740607231,0.0345634629647992,0.130973863103979,0.017326185771588,0
523,2062857417,0.011615420349679,0.0085059377087513,0.715745362111475,0.698212938615226,-0.179119290404937,0.197821652622065,0.0350357415073616,0
525,2062890751,0.012347752757846,0.00910390218073726,0.715617019808301,0.698324375149257,-0.141244398305502,0.187574579400914,0.0264544025109882,0
528,2062940752,0.0138965799865965,0.0102811728937528,0.715291457968485,0.698612419518809,-0.1743902189771,0.21293596929542,0.0169166465811422,0
531,2062990753,0.0151995247928739,0.0115369447139047,0.714633592216357,0.699238658991825,-0.201125826136258,0.20374204342474,0.127876777085491,0
533,2063024087,0.015740587213557,0.0121825912258245,0.714978336868085,0.698863217085106,-0.149776860353023,0.0413051054279544,-0.00024148931329618,0
536,2063074088,0.0160002903702096,0.0128115436527454,0.715470103226715,0.698342599621458,-0.10967702688041,0.0637153166255141,0.0373728989545811,0
539,2063124089,0.0156206745791176,0.0131451018003888,0.715877436678032,0.697927429235763,-0.0509117635300861,0.110739803335095,0.0959495318849217,0
542,2063174090,0.0151413649341941,0.0132032917955736,0.716316767077795,0.697485986495002,0.0163356570729542,0.107976180656564,0.015836283938721,0
544,2063207424,0.0148678833273975,0.0131878764302764,0.716472438700035,0.697332252619831,0.118507413077587,0.0707006013765234,-0.107838504182079,0
547,2063257425,0.0146416929223662,0.0131720312899683,0.716304607372087,0.69750973317767,0.0921747986558297,0.102424971733114,-0.136061579240563,0
550,2063307426,0.0150752448779679,0.0133436817287109,0.715540591046235,0.698280993379453,0.0671999902346694,0.111608904168601,-0.00965911630044701,0
552,2063340760,0.0156058885189175,0.0134387537217765,0.715054253888119,0.698765533021231,0.0107050686656342,0.108878422276774,0.0195183266323182,0
555,2063390761,0.0161865237043613,0.0134638365833777,0.714799511284057,0.699012432094664,-0.0556656344574222,0.145827361211153,0.0538676505627777,0
558,2063440762,0.0165177526336419,0.0135338181206788,0.714992983663921,0.698805432811148,-0.133147962089397,0.122147637459339,0.0549400819877557,0
560,2063474096,0.0166451020831034,0.0135646780237921,0.71495485611425,0.698840821507592,-0.0585059042150056,0.136509045234023,0.0615384194347922,0
563,2063524097,0.0165638510137667,0.0136898397002772,0.714170939967833,0.699641405031203,-0.212224048604993,0.150811594866461,0.103996218292162,0
566,2063574098,0.0161503092072796,0.0136098455997237,0.714148769023154,0.69967526418902,-0.145114358514286,0.142633710295066,0.0161159676859737,0
569,2063624099,0.0156372430828057,0.0133721040250693,0.714125605937066,0.699715143760466,-0.143111078062273,0.163946515870122,-0.0242147230661637,0
573,2063690767,0.0145174069524279,0.0118902101275861,0.714748397998778,0.699129884468315,-0.138764592223344,-0.14565213738277,0.0778813669365865,0
575,2063724101,0.0143439023347647,0.00978398690720185,0.715968750531023,0.697916380613792,-0.0868931221905895,-0.121333902460084,0.0498318174269674,0
578,2063774102,0.0141504598020993,0.00456847171286894,0.718765347573647,0.695093712157528,0.0707047751366037,0.0676381276654462,-0.178160949610873,0
581,2063824103,0.0131781495230772,-0.00131867257944989,0.719397937613504,0.694471889161262,0.0967368554109732,0.156863858764542,-0.228753592991894,0
583,2063857437,0.0127021681243154,-0.00429996288572921,0.718101850323433,0.695808808370651,-0.0375744020528678,0.22827264401032,-0.0999232345049675,0
586,2063907438,0.0123784792300575,-0.00689284344391808,0.714647372614359,0.699341400731146,0.194890663160613,0.312519233922151,-0.0247560380270475,0
589,2063957439,0.0124955587807235,-0.00876610224069086,0.711861343050836,0.702154145990838,0.137530136497903,0.263982611612862,0.0389355096070095,0
591,2063990773,0.0123748617849453,-0.00946404823074146,0.710141587852539,0.703886510589004,0.0962996253003583,0.221381495277099,0.0422124133065066,0
594,2064040774,0.0120752779934792,-0.00986088114252778,0.707983101801206,0.706057276889358,0.00178966172177865,0.190654364179338,0.153973967808642,0
597,2064090775,0.0111320042496957,-0.00925021927229598,0.705630537909701,0.708432110998693,-0.179183110016779,0.158911174694268,0.194477932992109,0
601,2064157443,0.00929908343942607,-0.00685178250935141,0.703116554161849,0.710980795371576,-0.14512405193897,0.116189407673149,0.113150900079022,0
604,2064207444,0.00701701347211006,-0.00439253248899467,0.701516049436242,0.712605570819955,-0.116919401007279,0.113041556033433,0.191878922964337,0
606,2064240778,0.00525186271879691,-0.00265837445861108,0.701000484215101,0.71313650314187,-0.0608641342409605,0.137724211721312,0.0745332561692719,0
609,2064290779,0.00266653671050478,-3.39688129208127e-05,0.700859066876934,0.713294789553719,-0.0739924922087459,0.136010714679442,0.0329964018239415,0
612,2064340780,0.000432120449221035,0.00264602667068818,0.701013830433424,0.713142637454693,-0.0641333046180072,0.0368711764016789,-0.0828030852086761,0
614,2064374114,0.000661597976418574,-0.00439685553958782,-0.701324564148765,-0.712828230130531,-0.0232611531383302,-0.010812393189937,-0.166787401692508,0
617,2064424115,0.00201697721162024,-0.00665390138076536,-0.701306294336579,-0.712826163186536,0.0367388415621081,0.0892419851054403,-0.269077684364981,0
620,2064474116,0.00258645377781364,-0.00836441571896486,-0.701239688624702,-0.712871829927418,0.0699147548253829,0.129377638944093,-0.346688380411705,0
623,2064524117,0.00210125843724433,-0.00925676706575608,-0.702083630375482,-0.712031230308934,0.0642762677713265,-0.0174372067971607,-0.193936658371917,0
625,2064557451,0.00209597805996834,-0.00908004144081706,-0.702743485754805,-0.711382283271512,0.0370975207978397,0.0624167101006766,-0.202588388904662,0
629,2064624119,0.00304060692338607,-0.00747998855194598,-0.703336358599871,-0.710811347090263,-0.0961852174547244,0.221020891416743,-0.0526106854316355,0
632,2064674120,0.00408266522444946,-0.00545491944987473,-0.703619981513569,-0.71054380393703,-0.123422076756117,0.180803850534612,0.0164393942413609,0
635,2064724121,0.00523866298916998,-0.00303067723594785,-0.70516927056899,-0.709013167191398,-0.0104119339460273,0.0209050868078414,0.0147076210279191,0
637,2064757455,0.00627657344493758,-0.00129533568458589,-0.705990672949012,-0.708192132433181,0.0287628812681321,0.0424432171194493,0.0594233309582081,0
640,2064807456,0.00705989783160262,0.00105433988085967,-0.707924952685291,-0.70625158943223,-0.0519242518845553,0.076557447491346,-0.0382218157249443,0
643,2064857457,0.00702613679878213,0.00292204525840489,-0.709702453244411,-0.704460448082117,0.0200462320910239,0.0608322512479553,0.00892643346652913,0
645,2064890791,0.00712760362769202,0.00413785517849415,-0.710505312203915,-0.703643572237439,-0.0249024989768171,0.0850437092889291,0.0584648360035324,0
648,2064940792,0.00716000250040837,0.00562541872059306,-0.711274851101705,-0.702855017210989,-0.0241354323330004,0.130219615312474,0.19784638420753,0
651,2064990793,0.00698424421316397,0.00664209971606645,-0.712802540477251,-0.701298539235118,0.0038287502080839,0.0789711988771864,0.0553910333077439,0
654,2065040794,0.00641082498834297,0.00678630361118663,-0.713786511809904,-0.700301123063868,0.0418270210644104,0.0362912422219324,0.0361636172176243,0
656,2065074128,0.00583469931059817,0.00631136346087824,-0.714387030152458,-0.699698002087451,0.0742053137356118,0.0234001681922423,0.0380534742981267,0
659,2065124129,0.004293798298262,0.00439163061545414,-0.714369839777024,-0.699741387152182,-0.066245928484486,0.0861158931487754,-0.0205610062635786,0
662,2065174130,0.0011454815167358,0.00084263021443857,-0.713915566345545,-0.700230349225122,0.00539888849672231,0.22138337066951,0.075050675261414,0
664,2065207464,0.00087742838628774,0.00135111072835509,0.714301805273193,0.699835934775204,0.0066082683423211,0.111261317278733,0.0962514780611193,0
667,2065257465,0.0028809839564663,0.00401417158861832,0.715782245433348,0.698306067194245,0.0102084855901279,0.0674705381975486,-0.0688934309104703,0
670,2065307466,0.00351893439369599,0.00646180480450477,0.716783685598706,0.697256774968114,-0.130643141261446,0.172278372080955,0.0244829861088038,0
673,2065357467,0.00340578660015952,0.00849106097838953,0.717232903567988,0.696773467161695,-0.320312773482002,0.194303513882519,0.0274259052639463,0
675,2065390801,0.00360287515639888,0.00994153223447435,0.717634744870686,0.696339398699961,-0.217474014006809,0.234896814992721,-0.0499685450938352,0
678,2065440802,0.00340660980743058,0.0120029782961343,0.716691017067815,0.697279219234263,-0.273473707798896,0.199505139183423,0.00821449008476478,0
681,2065490803,0.00321570175880038,0.0132735987377483,0.717128045085828,0.696807604572544,-0.151159285832986,0.120500138649192,-0.154350231014108,0
683,2065524137,0.00282624266497479,0.0135000406867462,0.71746060637361,0.696462518414212,-0.0979072347968526,0.0771422514355023,-0.080524411042491,0
686,2065574138,0.0023221064754029,0.0131216586694042,0.718357834025043,0.69554615388925,-0.0454763773037792,0.126244773463757,-0.270442201557066,0
689,2065624139,0.00186939915655848,0.0121815268532732,0.718420715768494,0.695499669953194,0.0731476045165455,0.0455977524193497,-0.17911876003087,0
691,2065657473,0.00166675340864603,0.0112296271478899,0.718217336551333,0.695726221213707,0.0414921774985779,0.0875366491269108,-0.167702096127828,0
694,2065707474,0.00167402180663677,0.00984233510834729,0.717169539893583,0.696827221870266,0.0527910694609105,0.140679078060029,-0.0573261850132275,0
697,2065757475,0.00177824457111134,0.00873207218672636,0.715560741540249,0.698493674937676,-0.0410266891149167,0.154664430921418,0.0427060207775522,0
699,2065790809,0.00185873562726147,0.00818797352946844,0.714626498076396,0.699455838805007,-0.0182669690917337,0.127663317754989,0.0902911448060666,0
702,2065840810,0.00169541835807102,0.00761997434502515,0.713623187872739,0.700486264874567,-0.0969885214032618,0.103422067848568,0.203917286576485,0
705,2065890811,0.00118869536249358,0.00702360961482797,0.713415452261508,0.700705108006087,-0.0269652363994258,0.11703179822507,0.0816710701374822,0
709,2065957479,0.000684601675231213,-0.00625322168691453,-0.71227574989772,-0.701871558511044,0.00629688665414224,0.123243079227635,0.100997578486498,0
712,2066007480,0.00211124187414653,-0.00610161134710043,-0.711371816840353,-0.702786205899044,0.0439888911113324,0.171584899441889,0.0784699416174068,0
714,2066040814,0.00270738995088691,-0.00624453228614658,-0.711099209003151,-0.703058739232559,0.0349658932848541,0.149298606092049,0.129609801390171,0
717,2066090815,0.00350464066816845,-0.00656609276256593,-0.711012162068581,-0.703140319787012,0.065377768364544,0.0537755246606642,0.0332386068273733,0
720,2066140816,0.00416700324494803,-0.00716564752912843,-0.710506626540618,-0.703641686671075,0.0633176258784988,0.04409538306874,0.0122505974655599,0
722,2066174150,0.00438690504911782,-0.0077587768243114,-0.710180201431969,-0.70396352031929,0.0220431228704891,0.093381721273441,-0.0128059646115851,0
725,2066224151,0.00431423872220006,-0.00890985179005225,-0.709731863280839,-0.704402359542638,-0.014863894257482,0.123508601433513,0.0325801681591446,0
728,2066274152,0.00407696619136734,-0.0100687666248223,-0.709607614886881,-0.704513329313138,-0.00884247650979591,0.121589601140851,0.012843063100471,0
731,2066324153,0.00385557627865335,-0.0110917031411879,-0.709584138747881,-0.704522858884235,-0.108427350781123,0.103774644485969,0.00581791035513933,0
733,2066357487,0.00372075991198857,-0.0117544171574403,-0.709835231262123,-0.704259848409673,-0.0897617463766903,0.116279220627939,-0.0463472312292776,0
737,2066424155,0.00427138629981685,-0.0127655308751957,-0.709801032961196,-0.704273590366535,-0.091665446271056,0.149410909033286,-0.0542499276728028,0
740,2066474156,0.00458572262183428,-0.0135182341986387,-0.709968587027805,-0.704088654876592,-0.0951444112525197,0.158258193779874,-0.0149374539257139,0
743,2066524157,0.00506630933598869,-0.0141522161369752,-0.71038450890051,-0.703653250402715,-0.0562018425890528,0.13954213539285,-0.0302745487464336,0
745,2066557491,0.00569036044183933,-0.0144157972167147,-0.710478567339563,-0.703548157512882,-0.0580636285297991,0.0969052060077345,-0.0202536285423414,0
748,2066607492,0.00648423689255997,-0.0148529727070935,-0.710449758478913,-0.703561286989938,-0.090710751396081,0.0736090494636968,-0.0206685584518308,0
751,2066657493,0.00698149719111136,-0.0152544499147957,-0.71058590720785,-0.703410427085329,-0.0810714865123892,0.0590665060476381,-0.0291344557512585,0
753,2066690827,0.00718193260523039,-0.015424855840723,-0.710596039882204,-0.703394456738234,-0.0811342175264786,0.0428121533602993,-0.0525448208721205,0
756,2066740828,0.00745566344271462,-0.0154530139020424,-0.710741561922183,-0.703243947432459,-0.0118001187813643,0.126954232063913,-0.0490448052406548,0
759,2066790829,0.00790291280580823,-0.0152233772608417,-0.710336778147278,-0.703652936016971,-0.0422394997393805,0.116928133851361,-0.0247463627804666,0
762,2066840830,0.00802640632916346,-0.0148430806456014,-0.710330181953269,-0.703666321749609,-0.0560441588231028,0.0678785322392857,-0.0497966793747856,0
766,2066907498,0.0081510797594477,-0.0142165328375921,-0.710064026268658,-0.703946396177988,-0.0423077233466795,0.135823773698297,-0.0440076811700356,0
768,2066940832,0.0083028278704335,-0.0138591194802938,-0.709768183491667,-0.704250036250992,-0.125971883766998,0.118956244657614,-0.00296339173516359,0
771,2066990833,0.00829365547720155,-0.0133261469716527,-0.709560604035938,-0.704469572292423,-0.0405329303970802,0.0981619826373428,-0.00818844222811942,0
774,2067040834,0.0086321152948715,-0.0127143217899712,-0.708855979416304,-0.705185814557205,-0.0671546384622976,0.100599621769152,0.0914858498671882,0
776,2067074168,0.00875168661651423,-0.0122192082334723,-0.708824413569042,-0.705224822067415,-0.0601287671079521,0.129823488132551,0.102707129658125,0
779,2067124169,0.00910121993484674,-0.0115071075127865,-0.708934676913477,-0.705121534305945,-0.00108912031845297,0.141346449597985,0.115614705756687,0
782,2067174170,0.0100055991120204,-0.0107811250451743,-0.708556554828997,-0.705500718594979,-0.046704569222755,0.101013927476256,0.0829240421590896,0
785,2067224171,0.0107213402815205,-0.0104705799365589,-0.708155389003328,-0.705897559737887,-0.0121752284882362,0.14990264772394,0.0453739613963247,0
787,2067257505,0.0111332702366925,-0.0104277926312581,-0.70790780941913,-0.70614010281111,-0.00558913959256355,0.134561553623944,0.0489712887954377,0
790,2067307506,0.0115628432815535,-0.0104766960298367,-0.707618579196228,-0.706422314109525,-0.0187366560255274,0.066016387346371,0.050158504309111,0
793,2067357507,0.0117644820639675,-0.0106289432506947,-0.707535166474065,-0.706500255293412,0.013636683132518,0.125304452530839,0.0103718283725932,0
795,2067390841,0.0118657911369258,-0.0107424108022608,-0.70738743883852,-0.706644758690199,-0.0284878984447966,0.104091556183098,-0.00403634587558643,0
798,2067440842,0.0116871097892804,-0.0111172278879432,-0.707379656349673,-0.706649729704527,-0.0224283081575625,0.0624054296571043,0.0291233907519985,0
801,2067490843,0.0115291729706646,-0.0115488546186232,-0.707196901353107,-0.706828299408119,0.0417290085887562,0.0583511574941439,0.0191231392554676,0
803,2067524177,0.0115360117714104,-0.0116707275386918,-0.707178194981051,-0.70684490172489,-0.0195394342165515,0.0789378625455019,0.00320689332257795,0
806,2067574178,0.01140989774109,-0.0117919101631244,-0.707212076932269,-0.706811037922717,0.0588777031855077,0.200102064728208,0.00319428870376611,0
809,2067624179,0.0114144108099318,-0.0117988099027351,-0.707246732001541,-0.706776173469283,0.0466660720465638,0.102794163360249,0.00921093960443916,0
812,2067674180,0.0114783523166635,-0.0119220217077803,-0.706788996901584,-0.707230815706829,-0.0366916159554418,0.0912018381595875,0.0287384212049276,0
814,2067707514,0.0113250686384558,-0.0120935158379205,-0.706958323865698,-0.707061113350193,0.0134523783292905,0.0941058625301369,-0.0407984025190344,0
817,2067757515,0.0110628491259079,-0.012514506662516,-0.70681609523164,-0.707200118787962,0.00713952710924756,0.15602616739334,0.00494250772597767,0
820,2067807516,0.0108098544161385,-0.0128164948984148,-0.706858440370952,-0.707156297986779,-0.0359776435955871,0.0850157136976708,-0.0300107659106049,0
822,2067840850,0.0105143242149619,-0.0130698050278828,-0.706924164203574,-0.707090415186002,-0.044259806656457,0.128730520989938,-0.0107027821087904,0
825,2067890851,0.0102486076055908,-0.0133341823181339,-0.706671476725807,-0.707341918456852,-0.0607377074283422,0.124044252632719,-0.0279467050914315,0
828,2067940852,0.0100122217401538,-0.0134035044207524,-0.706660440091344,-0.707355019700134,-0.0727607425652735,0.130238832791895,-0.0365302770062901,0
830,2067974186,0.00983079289847984,-0.0134042128161845,-0.706977311461163,-0.70704085007085,-0.113261743364843,0.13870189541153,-0.0481840781216304,0
833,2068024187,0.00974215614106273,-0.0132339647898708,-0.707306378454895,-0.706716095449003,-0.0850028797884539,0.150225289024489,-0.0377565190231652,0
836,2068074188,0.0101013102598514,-0.0128446465343704,-0.707144867716829,-0.706879844562136,-0.0799243874321385,0.132722941269902,-0.0230048804276389,0
839,2068124189,0.0105672639811596,-0.0124259355465795,-0.706951841023491,-0.707073563026678,-0.0885512835049746,0.185294281002678,-0.0233343765294111,0
841,2068157523,0.0107097414293942,-0.0121384694123059,-0.707211463177191,-0.70681674099417,-0.0363543486372598,0.116080637309781,-0.0428833631055623,0
845,2068224191,0.0113226677277903,-0.0114356074674719,-0.706795231128219,-0.707235127331627,-0.00126794441662101,0.0756043447504454,-0.0133309994666667,0
848,2068274192,0.0119279202516854,-0.0107951467398127,-0.706631090358359,-0.7073992448853,0.0053355180960213,0.0860732115258786,0.0263530815579301,0
851,2068324193,0.0124743735329461,-0.0101025264926089,-0.706574977209591,-0.707456097962758,0.0335841783606482,0.149757421117304,0.0296321049906221,0
853,2068357527,0.0127934328062588,-0.00968746164501709,-0.706421659934651,-0.707609298652215,0.0483735765335831,0.136373346039079,0.0202747210193602,0
857,2068424195,0.0129809913206539,-0.00923628923370362,-0.706135311250149,-0.707897667061546,0.078843578940083,0.0903571598003845,0.0284433157751324,0
860,2068474196,0.0130342825330553,-0.00900988700447167,-0.706014091518863,-0.708020502522215,0.00345249568695577,0.0956956269445058,0.0825730738308084,0
863,2068524197,0.0131266406830678,-0.0087962559252378,-0.706031701188286,-0.708003922378436,0.00432347813168739,0.124197661072068,0.0879099236007219,0
866,2068574198,0.0130544069334248,-0.00875333082544647,-0.706342567613031,-0.707695654103449,-0.0133708464278338,0.0914121840898491,0.0206559938411523,0
868,2068607532,0.0130353411050573,-0.0087646918415206,-0.706537984841955,-0.70750076751525,-0.00406312704904086,0.100519907887543,0.0613822418920504,0
871,2068657533,0.0132244283848636,-0.00879363153428112,-0.706708453584713,-0.707326620572304,-0.00622171349499161,0.123092730574613,0.0193489904155105,0
875,2068724201,0.0135502171465354,-0.00885651497582565,-0.707037865716406,-0.706990389044261,-0.00367278467474196,0.111471949950294,-0.0200897766198938,0
878,2068774202,0.0137371718929046,-0.00903431602544446,-0.707233738405605,-0.706788589680938,0.0645053845816275,0.142266779921672,-0.00964045107716234,0
880,2068807536,0.0139049610040956,-0.00908637320218926,-0.707346927084227,-0.706671362534245,0.0354201950397976,0.105917978659961,-0.0228273716350584,0
883,2068857537,0.0141275756828466,-0.00910328279764775,-0.707467020714846,-0.70654649984873,-0.0335729460097897,0.0864726873217392,-0.0388929367743951,0
886,2068907538,0.0140747850952681,-0.00918689995998523,-0.707706905177478,-0.706306192566484,0.0184048296960157,0.114688868185073,-0.0833306918321255,0
888,2068940872,0.0141794943023711,-0.00916807281686632,-0.707540390894184,-0.706471148480573,-0.0235579468298229,0.137518903517927,-0.0110062418007976,0
891,2068990873,0.0142539582086782,-0.00906346136605674,-0.707398786587627,-0.706612790061009,-0.0560731113781488,0.0918685494805153,-0.072110149733124,0
894,2069040874,0.0140826820738323,-0.00912725239205268,-0.707322693530887,-0.706691572431418,-0.0543284700305425,0.0608381835142033,-0.0271413352120124,0
897,2069090875,0.0141523532463492,-0.00902536653681874,-0.707080928248,-0.706933387643004,-0.0546821539572559,0.106248167566375,-0.00818624433920315,0
899,2069124209,0.0142513532542205,-0.00885212259731069,-0.706995552330577,-0.707018972758672,-0.0434696168332019,0.123491329890349,-0.0497856056966453,0
903,2069190877,0.0143910721306962,-0.00856258961835079,-0.706588240750315,-0.707426771570975,-0.0308390240795918,0.122301370467193,-0.0409956137092569,0
906,2069240878,0.0144735067553407,-0.00841741065372828,-0.706055635500336,-0.707958405825021,-0.035370016364757,0.123896542370878,-0.0447292894095052,0
909,2069290879,0.0144377857060069,-0.00819377412334216,-0.705837018243776,-0.708179720188498,-0.0312616248417797,0.0936655742632662,-0.0104327792181221,0
911,2069324213,0.0144472630967417,-0.00794312204365949,-0.705829673358384,-0.708189703121988,0.0218635483726284,0.134206382462699,-0.000334270963201318,0
914,2069374214,0.0143681281123687,-0.00745273218676085,-0.706221642624249,-0.707805767966472,-0.0228430160699649,0.129226040219967,0.0275636475337591,0
917,2069424215,0.0142885599902037,-0.00704571158442116,-0.70647130767129,-0.707562355159524,0.00129706660993001,0.123880250150436,0.00450116234066844,0
921,2069490883,0.0146116872857881,-0.00665886965692273,-0.706365816718302,-0.707664815446862,-0.00764906693078474,0.143244566231594,0.0123424983887922,0
924,2069540884,0.014808167293456,-0.00659431340154923,-0.706372065481775,-0.707655098419549,-0.0211704427131085,0.128827278103819,0.0129044937717012,0
926,2069574218,0.0148879403130406,-0.00669172143500456,-0.706421033190262,-0.707603627720968,-0.0480723072398938,0.100705937720125,0.00541004816594842,0
929,2069624219,0.0151443561428737,-0.0068577601247469,-0.706244908631011,-0.707772384764949,0.0175771390964819,0.122587742181239,0.0113624445839703,0
932,2069674220,0.0153722465631511,-0.0069402102057234,-0.706467867142843,-0.707544118915947,0.0154332189066261,0.13126657379436,-0.00974233696224453,0
934,2069707554,0.0154531503339426,-0.00699956488580106,-0.706673192577507,-0.707336698559095,-0.0579577535161515,0.107953409769694,-0.011630606478974,0
937,2069757555,0.0154577239001705,-0.00717915299147801,-0.706939200278445,-0.707068939809849,0.0284419484102074,0.0871750648437063,-0.0395732494469114,0
940,2069807556,0.0155621397830837,-0.00743797125509521,-0.707005181174472,-0.706997998711051,-0.0300226347116083,0.0523170395078677,-0.0508286014352668,0
942,2069840890,0.0154965755687172,-0.00760707043347887,-0.706855995336428,-0.707146795567943,-0.0403522783197049,0.138455587537631,-0.0335955088773066,0
945,2069890891,0.0152668239030721,-0.00774774340911595,-0.706862782949946,-0.707143480943038,-0.00780157791282923,0.095744212228145,-0.0975824696881313,0
948,2069940892,0.0153571013622368,-0.00747268242461723,-0.706726744497254,-0.707280444426003,-0.0524672208102568,0.083427204359493,-0.0920588894480739,0
951,2069990893,0.0151417838908196,-0.00692109662206076,-0.706892870272273,-0.707124667056934,-0.087560417553591,0.111615333109165,-0.0618809000054077,0
953,2070024227,0.0148183127879406,-0.00634805475646307,-0.707351925056856,-0.706677701590539,-0.0467021572144539,0.267378377448776,-0.00426291443627517,0
956,2070074228,0.0128253841649493,-0.00606610506689189,-0.710556890962559,-0.703496706883522,-1.81784404238337,1.27606882935301,0.908065889431981,0
959,2070124229,0.00738580866650328,-0.00917076755325827,-0.723531657215374,-0.690190761934699,-4.00126969425196,1.84158786208809,2.39787287428406,0
961,2070157563,0.0118505698232327,-0.00931370368688985,-0.737495519552966,-0.675183810201191,-3.83778859127877,2.38520480631472,2.61458502345319,0
964,2070207564,0.0418884709259482,-0.00458999914128569,-0.757327942178608,-0.651673749591683,-3.87160294313141,2.71549125217077,2.19121479975703,0
967,2070257565,0.0905405743666642,0.00333296528186769,-0.776869538725742,-0.623109152184301,-2.31190081414533,3.18274546674971,1.05003964858703,0
969,2070290899,0.12771793066358,0.00879590495408289,-0.788020289547085,-0.602191651806283,-1.05460707813594,3.79786960675207,0.036699743052557,0
972,2070340900,0.187740942917747,0.0144759417249036,-0.798004957955183,-0.572478709248195,0.316862489411786,2.93132464532001,-0.695717371462589,0
976,2070407568,0.27281013217688,0.0162501939223413,-0.799580862660471,-0.534771920585082,0.910706901509939,1.72549591096563,-1.17042555159299,0
979,2070457569,0.333772774395881,0.0129841800120988,-0.79600026663751,-0.504787798638698,1.47814089015575,1.25969932137146,-2.15206599874718,0
982,2070507570,0.389810516443447,0.00962099759187224,-0.791010395348873,-0.471442204438094,1.5319559149765,0.0583793073755742,-2.48565305817337,0
986,2070574238,0.456146644059006,0.00775369261328565,-0.78082468556798,-0.426828923307958,1.61761126132615,-0.738853510641354,-2.30408459710665,0
988,2070607572,0.484570395593767,0.00835628068183182,-0.775522929355495,-0.404581129479784,1.68817798569075,-1.21186029877027,-1.66565087888181,0
991,2070657573,0.52083753654973,0.0118103888958623,-0.768620126969899,-0.371230219205971,1.90484112426903,-1.35652637009013,-1.25080977864115,0
994,2070707574,0.548804236964326,0.0170214314522883,-0.763982071314539,-0.33890348931704,1.88730075748799,-1.67834867232389,-0.308521205295651,0
996,2070740908,0.56268952057169,0.020621224409808,-0.762150998765014,-0.319501367170992,1.45126832100933,-1.44702879628721,-0.51211948076626,0
999,2070790909,0.576786870264074,0.0263223933040095,-0.761719353984782,-0.293951805006756,1.19603778402298,-1.18127940514005,0.0856238580155084,0
1002,2070840910,0.586604091621397,0.0323053181159562,-0.761671500173628,-0.273328615292504,1.10475696943044,-1.09541896606421,-0.0030019142172778,0
1005,2070890911,0.597098408242808,0.0349948826970535,-0.758132020574275,-0.259778152350987,1.08307221110044,-0.903605204445969,0.246168085821958,0
1007,2070924245,0.604424513902207,0.0342615823186994,-0.754190239137693,-0.254350612660024,0.784951349791087,-0.991408901327629,0.320757389829361,0
1010,2070974246,0.613228993356605,0.0322427990883635,-0.748948172112494,-0.248972366143609,0.330926463542883,-0.425568982026907,0.271580913017348,0
1014,2071040914,0.622582819987961,0.0332555012792472,-0.744060623399382,-0.240121828655846,0.215039550166457,-0.399321611630062,0.286343852636772,0
1017,2071090915,0.630142014733611,0.0341912222768047,-0.739605617430622,-0.233956261407452,0.128182218536643,-0.50967712905362,0.253514481107482,0
1019,2071124249,0.634923949674193,0.0351662969910148,-0.736505417365219,-0.230639718777464,0.318743311644032,-0.649013539703558,0.246732081706426,0
1022,2071174250,0.640575642827449,0.0369455560701808,-0.732398646901408,-0.227793972088492,0.608613880155241,-0.629889247929948,0.264722979253568,0
1025,2071224251,0.644092470184727,0.0392819585411136,-0.729475271420472,-0.226864818714889,0.974530327739556,-0.607663231445624,0.249116707215126,0
1028,2071274252,0.645237530090065,0.04096491734971,-0.727906803953799,-0.228346425563373,0.81064868248163,-0.328099190540472,0.276191377278817,0
1030,2071307586,0.644687764695666,0.0429110172972523,-0.728056051221322,-0.229064874928994,0.595315560906265,-0.0439615220873664,0.104310773739649,0
1033,2071357587,0.642917467797178,0.0458545795697615,-0.729181122478957,-0.229889925299205,0.338255449598973,0.134184055341783,0.0295051454028295,0
1036,2071407588,0.640622651876916,0.0481918946047565,-0.730979550324451,-0.230106619209562,-0.0693837767439877,0.345949788553486,0.024874009982252,0
1038,2071440922,0.639213121605672,0.0492030815703504,-0.732219883950179,-0.229868839730616,0.0380068158738693,0.209418211569556,0.129714287332387,0
1042,2071507590,0.637700178593978,0.0460759822877759,-0.733119457631961,-0.231843367209083,-0.15168155357245,0.153437729022676,0.0804133809949136,0
1045,2071557591,0.637552688117352,0.0419953193890015,-0.733024520347544,-0.233319556816414,-0.0968544185264131,-0.0362317858471664,-0.00176934469162258,0
1048,2071607592,0.63814251959617,0.0374801190698059,-0.731951590050955,-0.235830946187826,-0.10683118647211,-0.183066650270903,0.123273889517392,0
1050,2071640926,0.638420537992275,0.0357247549897953,-0.731395538088707,-0.237072827237759,0.0326400821492654,-0.306309668828327,0.0859421088917774,0
1053,2071690927,0.638348650309784,0.0339290427961852,-0.730940607346611,-0.238926032977531,-0.136819548429857,-0.161173488254638,0.0896991983551175,0
1056,2071740928,0.637740149549313,0.0337194850753882,-0.731264075846464,-0.239589960882103,-0.124567636952081,-0.155035687529265,0.111028813856978,0
1059,2071790929,0.637064404851085,0.0338179086359039,-0.731621449179122,-0.240281810023705,0.0290375953744724,-0.171559188065346,0.115363030661558,0
1061,2071824263,0.636945452091994,0.0332977985430924,-0.731461075808273,-0.24115646839534,0.0542221244848023,-0.106632156930576,0.111870007791807,0
1064,2071874264,0.636699744423797,0.0314925596180732,-0.731076235874964,-0.243206067930606,0.0310294904919153,0.0516765340671523,0.0624738980819126,0
1067,2071924265,0.636104497454199,0.0305106861600282,-0.731304152491696,-0.244201562028149,-0.0365330700206061,0.000605721271625309,0.107471105045406,0
1069,2071957599,0.635620346368284,0.0294547109999587,-0.73144608110009,-0.24516489497049,-0.0968009383483468,0.111866159959554,0.0493774608235509,0
1072,2072007600,0.635249228363871,0.0287721964275673,-0.731683295341147,-0.245499763532597,-0.0634103908257789,0.0430383980091918,0.0543579809198436,0
1075,2072057601,0.635368584557659,0.0279987674080246,-0.731591644362334,-0.245553449741689,-0.076146699270729,-0.0311449009090162,0.0940365826571194,0
1077,2072090935,0.635496375062388,0.0273743357837052,-0.731522985709129,-0.245497707529353,-0.122035765694826,0.0277941478772358,0.0814299059624386,0
1080,2072140936,0.635734248811579,0.0265271480808747,-0.731371304941289,-0.245426749991009,-0.0180546302334949,-0.0651879053152641,0.0898810581735572,0
1083,2072190937,0.6360915416926,0.0262890886702091,-0.731181571680069,-0.245091704550531,-0.12346388962829,-0.130406238482733,0.238870664918214,0
1086,2072240938,0.636490436311774,0.0255656389768021,-0.730846080323912,-0.245133289176582,-0.00482865003567242,-0.0779551277933695,0.13630112789081,0
1088,2072274272,0.636670885361301,0.0254727889745086,-0.730687219096783,-0.245147932081279,-0.0645515291198971,-0.0270110311769647,0.0889199575369369,0
1091,2072324273,0.637010476883646,0.0252737944453333,-0.730331830618019,-0.24534527678547,-0.0151114944705854,-0.105530225207224,0.12516204922875,0
1094,2072374274,0.637433124113227,0.0250516880253535,-0.729777869019263,-0.245918049561305,-0.0115005430305855,-0.095631105911078,0.109393349975029,0
1096,2072407608,0.637562446643269,0.0253047775960932,-0.729585049108417,-0.246128931616194,-0.0355902934497205,-0.0706922387953623,0.09629696908773,0
1099,2072457609,0.637719809396864,0.0260060071132551,-0.729339549211386,-0.246375636484181,0.0397414024753343,-0.0818222702723498,0.0775439821962891,0
1102,2072507610,0.637857694390807,0.0263126960675223,-0.728934061852858,-0.247184823973472,0.0252888515373537,-0.0936195438167818,0.0961603595382365,0
1104,2072540944,0.637859597420609,0.0264846977807677,-0.728711318739641,-0.247817490711639,0.106768923475008,-0.0769123319789663,0.0747528063359165,0
1107,2072590945,0.637640339646306,0.0267058878343705,-0.728565847878498,-0.248783838132236,0.0848452013818034,-0.0765739564699473,0.105088516000887,0
1110,2072640946,0.637406292866229,0.0264521087802018,-0.728355843459168,-0.250022537093149,-0.0104226286372565,-0.0466093572937606,0.0449161064579742,0
1113,2072690947,0.636802197183144,0.0265887436686629,-0.728610114090255,-0.250805306997737,-0.044735263402696,-0.0472048315625231,0.0351590430469736,0
1115,2072724281,0.636470643235958,0.0266815567866085,-0.728764412700306,-0.251188466311307,-0.0995732737860559,-0.0731965171701929,0.0765245782688363,0
1118,2072774282,0.636037574593323,0.0276298498441853,-0.729185701183969,-0.250960172720443,-0.166408372414896,-0.111282995606746,0.122131747840757,0
1122,2072840950,0.635623765021501,0.0284490816207285,-0.729482669386976,-0.25105400645853,-0.124485902290917,-0.134601950217889,0.108137442117457,0
1125,2072890951,0.635509672493206,0.0283969052496594,-0.729305414389765,-0.251862431659812,-0.0911407848667437,-0.139654942975219,0.041775467102647,0
1129,2072957619,0.636098249148338,0.0273785467389555,-0.728036359508214,-0.254150529889095,-0.115320210412866,0.0279493713196627,-0.00425870123893595,0
1133,2073024287,0.636416887672626,0.0277244759679552,-0.727427030524243,-0.255058451693081,0.165616475100232,-0.110974870427853,0.0298065244751609,0
1136,2073074288,0.63607133437222,0.0276176733158568,-0.727453304173988,-0.255855842139493,0.113681624256161,-0.136617223667215,0.254580182557315,0
1140,2073140956,0.634030516331722,0.0256147698869256,-0.728621057408742,-0.257799423242832,0.143149378773982,0.0665511392660203,0.0663078018318429,0
1142,2073174290,0.632943613776102,0.0243471266702737,-0.729291887525649,-0.258694688759215,-0.00190113768207903,0.00217675707731707,0.130690346855301,0
1145,2073224291,0.631584336401332,0.0222465946809885,-0.730111895508366,-0.25989023658993,-0.127886301770474,0.0766529347428707,0.0638361795453264,0
1148,2073274292,0.630736752869466,0.0206934181732834,-0.730644388170853,-0.260579563777415,-0.187373567339756,-0.159864483564813,0.136630470006683,0
1150,2073307626,0.630694717116225,0.0188734432574616,-0.730174750572192,-0.262131265911051,-0.148433116437852,-0.266822255624977,0.140409286422215,0
1154,2073374294,0.630961479713918,0.016102282596371,-0.728555512852734,-0.266148816086601,-0.115692298610593,-0.200462397961456,0.111894806395195,0
1157,2073424295,0.630858568890012,0.0162090085115309,-0.728045023319456,-0.267778225628769,-0.116077643230542,0.0248021627891786,0.0376439731659997,0
1160,2073474296,0.630335308292735,0.0183888279953618,-0.728747156089687,-0.266958484816747,-0.127516893179833,0.0318103620840816,0.0546304780213525,0
1163,2073524297,0.629832448307731,0.0203679765831455,-0.729545870641813,-0.265817710504919,-0.104049917532034,-0.065891446469099,0.129059497591787,0
1165,2073557631,0.630027093985039,0.0202484360223284,-0.72927142357594,-0.266118493229873,-0.0476083117707531,-0.112725358815469,0.0375003923331609,0
1168,2073607632,0.630874644337342,0.01790260551445,-0.727729657673866,-0.268488780379932,-0.0969421611444704,0.0164545530177722,-0.0259177507934126,0
1171,2073657633,0.631474648615532,0.0173149406652242,-0.727115500117914,-0.268780599139756,-0.0172011146895881,0.0166764261207576,0.0468122522166438,0
1173,2073690967,0.631692954130779,0.0172500002082542,-0.726986841172824,-0.268619772086688,0.010739641455683,-0.0387547069081545,0.0727749023621369,0
1176,2073740968,0.631699368544014,0.0178881639207883,-0.727293776074558,-0.267730619570956,0.0107214427514723,-0.116192285705227,0.0431625514122653,0
1179,2073790969,0.631603913366206,0.0184100560415047,-0.727604084970067,-0.267076509622082,-0.0588145827233873,-0.110190281521551,0.0549955877832486,0
1183,2073857637,0.631309405257765,0.0196267609143102,-0.72833570228385,-0.265688407477238,-0.102315202735677,-0.0922858492385722,0.0314626497538572,0
1185,2073890971,0.631254890818499,0.0203009571040105,-0.728605557513888,-0.265026556250996,-0.0189562785632845,-0.140359549409651,0.113369678808474,0
1188,2073940972,0.631214966493816,0.0204813845885641,-0.728697575915686,-0.264854718315815,-0.0318602804656328,-0.116281018038286,0.0635967436782175,0
1191,2073990973,0.631280049793731,0.0205769499884838,-0.728629444647831,-0.26487963352019,-0.0639920991285532,-0.0866956077749571,0.041750620439379,0
1194,2074040974,0.631350126274634,0.0201154812139464,-0.728408414444661,-0.265355548716716,-0.0220626082618265,0.0138377738674589,0.0136456963046797,0
1196,2074074308,0.631454909205595,0.0193520064447085,-0.728226353882568,-0.265662520874922,-0.0279979964786518,-0.000115651348813455,0.0151655841026084,0
1199,2074124309,0.631703206742173,0.018092763977052,-0.728013884620454,-0.265743286431025,-0.0207311256708021,-0.0744356004718817,0.0565957890771476,0
1202,2074174310,0.631809827356824,0.0173917520261345,-0.728113541023065,-0.265263153105846,-0.115021570623706,-0.15507350132826,0.0570674232120206,0
1204,2074207644,0.631908455862894,0.0167841616092525,-0.728034538759219,-0.265284197987175,-0.138302159465055,-0.168260385528698,0.0541238410292663,0
1207,2074257645,0.632359356122853,0.0158473348738016,-0.727483988827222,-0.265777261445223,-0.110696758908442,-0.212290279209221,0.0895284351710438,0
1210,2074307646,0.632928376194242,0.0153423805283795,-0.726779606522996,-0.266378838330156,-0.12031125036441,-0.242326338866286,0.151262959676523,0
1212,2074340980,0.633249419630111,0.0151743310470862,-0.726264730292776,-0.267028938035118,-0.0236919398881397,-0.198227001318214,0.112380227517943,0
1215,2074390981,0.633743846445505,0.0156848967301212,-0.725539109582013,-0.267797911817778,-0.00161501491880186,-0.160446229327333,0.0559235812811325,0
1218,2074440982,0.634114715326595,0.0164131616585189,-0.724790883899681,-0.268900186958955,-0.033156115602177,-0.126113090037153,0.0439223363186192,0
1221,2074490983,0.634433101721498,0.0170679031160482,-0.724117396517316,-0.269920955437413,-0.0239369136403059,-0.102100852590598,0.0528321419129834,0
1223,2074524317,0.634655845218474,0.0171616832658649,-0.723657887608388,-0.270622793680932,0.0053897397416988,-0.0242901765025777,0.0549340798914364,0
1226,2074574318,0.634820325546201,0.0171663453347413,-0.723109595875496,-0.271700171538482,-0.000320005947105156,-0.245195089693134,0.157975915220332,0
1229,2074624319,0.635070103871243,0.0166696744429081,-0.722285001527084,-0.273335803896886,-0.072839259797473,-0.15709009179118,0.0998245872710706,0
1231,2074657653,0.635123100307511,0.0163470171647112,-0.721779335191936,-0.27456513576104,-0.129383403999702,-0.125208354603915,0.0885682971131767,0
1234,2074707654,0.635429543725691,0.0154172300003391,-0.720695604393789,-0.276747989671375,-0.0128598393770908,-0.0554842216209475,0.0981747405511296,0
1237,2074757655,0.636024770578076,0.0155542438659217,-0.719714139589184,-0.277924655229194,-0.0255805616990618,-0.190696484755872,0.13532614990913,0
1239,2074790989,0.636417942352791,0.0150639484122734,-0.718831802984904,-0.279331557700065,0.00143222741956753,-0.0707871736840355,0.0085134396394688,0
1242,2074840990,0.636893749332084,0.015527452466967,-0.717960476545615,-0.280460343720817,0.120097325043444,-0.147413146061401,0.104511784439126,0
1245,2074890991,0.637203585998141,0.0148787750060315,-0.716926871410056,-0.282428881482789,0.0854192278943076,-0.0935944808169181,0.134567309010632,0
1248,2074940992,0.636793079245395,0.0150118211229345,-0.716914035254276,-0.28337869628321,0.13542287005231,-0.0939475406642379,0.0823953223950464,0
1250,2074974326,0.636014408415665,0.0152344481221435,-0.717422436843827,-0.28382852392096,0.0462235513376846,-0.107251788000951,0.110251763956762,0
1253,2075024327,0.634594036914473,0.0157212931257793,-0.718474617628723,-0.284319315345098,0.0291380297991111,-0.0438885754552166,0.0171653642126389,0
1256,2075074328,0.633288078493887,0.0158666661459351,-0.719342990507101,-0.285026526048425,-0.107532422837033,-0.0239492746106401,0.0529718281510727,0
1258,2075107662,0.63259009097486,0.015378231032121,-0.719614674294156,-0.28591608445706,-0.158739177419125,0.0182975929224148,0.0770776570471274,0
1262,2075174330,0.631815881762844,0.0150367894452255,-0.719916464551414,-0.286884768824022,-0.156533680336942,-0.0503015104188676,0.0733207489323274,0
1265,2075224331,0.631792976809566,0.0142213512730659,-0.719673325031505,-0.287585974727859,-0.151427849959595,0.0675762377951321,0.0372224157416224,0
1268,2075274332,0.632044915355115,0.0133735172414664,-0.71934917528409,-0.287883896785557,-0.149717081161318,0.0029870113708304,-0.0367763150079406,0
1271,2075324333,0.632568661298859,0.0123587713080121,-0.718805047815706,-0.288137905782954,-0.113174094655382,0.0594701423963607,0.0309491390122046,0
1273,2075357667,0.633021306886634,0.0117401082965028,-0.718494189931294,-0.287944949460306,-0.0614398627728452,0.0212587393842712,0.0192838297241138,0
1276,2075407668,0.633771607149969,0.010919826566869,-0.718141897232615,-0.287204670570371,0.0157051112781275,-0.0298861564811443,0.0505187191592005,0
1279,2075457669,0.63449394244347,0.0102200843422388,-0.717835541125026,-0.286400284176397,0.0679195912057224,-0.167539334496021,0.0962791289307008,0
1281,2075491003,0.634708000638552,0.00952666422303674,-0.717712161349917,-0.286259061069907,0.0279504391332054,-0.159078164888564,0.0367787377907348,0
1284,2075541004,0.634744699280011,0.00853204890884874,-0.717673260895525,-0.286306586499384,-0.025821750260176,-0.189660230101885,0.0898660904120528,0
1287,2075591005,0.634072673561736,0.00731329672180499,-0.717937074906852,-0.287166705604122,-0.101539264144504,-0.0102942534029307,0.0370823443351124,0
1291,2075657673,0.633873860750735,0.00817533622236947,-0.718415465103179,-0.286384901898111,-0.0746705689347448,-0.119058595565868,0.0873085019605296,0
1295,2075724341,0.634631478975564,0.00860197629322208,-0.717913988000671,-0.285951740211722,-0.0256519855835624,-0.0337912307541568,0.0693452720722026,0
1299,2075791009,0.635171057076075,0.00887855258741743,-0.717663447996736,-0.285373570896555,0.00991093328227338,-0.0800504161394776,0.0176237301064592,0
1302,2075841010,0.635419788221928,0.0100070217895189,-0.717801161921857,-0.284434604425228,-0.00750398162951494,-0.0826286727153697,0.0587622403248134,0
1304,2075874344,0.635563315295281,0.0107074212620544,-0.717879643746535,-0.283889838626072,-0.0746951697442686,-0.166976588838534,0.0815007156555957,0
1307,2075924345,0.635731023656856,0.0108381372881904,-0.717793035941916,-0.283728317045753,-0.0302600736301078,-0.0317002029660853,-0.0028204406864787,0
1310,2075974346,0.63565798153518,0.0110435414031112,-0.718035065119836,-0.283271276274619,-0.0557233316600009,-0.0670566684452355,0.0307174133002418,0
1312,2076007680,0.635564287133845,0.0107617292202222,-0.71811823176175,-0.283281533665038,-0.0410871822876773,-0.0357580062674921,0.0181117416049752,0
1315,2076057681,0.635686986688207,0.0104163200204186,-0.718042629926929,-0.283210763990563,-0.0617413163509095,-0.070563262115148,0.0496850007910742,0
1318,2076107682,0.635981898873512,0.0101413995758449,-0.717819443878897,-0.283124393702268,-0.0706259104440946,-0.0865704801132067,0.0470963148298979,0
1322,2076174350,0.636366318263335,0.0102084872974538,-0.71768329448163,-0.282602874346776,-0.0807729661400134,-0.0860779945069282,0.0490930506706471,0
1324,2076207684,0.636613504351711,0.0103775660234185,-0.717600659662671,-0.282249615504015,-0.0455594627032576,-0.0852313178515244,0.0224177204626646,0
1327,2076257685,0.637004344207943,0.0104317810332378,-0.717404980476598,-0.281862976270482,-0.103257864718848,-0.0527776026098636,0.0312043970690707,0
1330,2076307686,0.637524214466068,0.010550136311146,-0.717149371490566,-0.281333164706767,-0.0678056314477507,-0.111155818802165,0.113905613985692,0
1333,2076357687,0.638188289416736,0.0101851252646256,-0.71667451841683,-0.281050894193006,-0.0315428674085511,-0.103031296589967,0.0448293726913574,0
1335,2076391021,0.638588666518112,0.010041582904166,-0.716380518388075,-0.280896127565745,-0.00211213402748148,-0.133803277067901,0.063855997343048,0
1339,2076457689,0.63923303858589,0.00976724615540267,-0.715799298765919,-0.280921852423425,0.0358767517442881,-0.17308998862153,0.11484064866017,0
1343,2076524357,0.639562951146023,0.00874524076396331,-0.715094633346171,-0.28199719439185,0.000434686916843494,-0.152346437938853,0.0821111370262594,0
1346,2076574358,0.639457655346949,0.00829081382610557,-0.714913694816212,-0.282707584596727,0.00252612488120037,-0.147507544710998,0.0819781850694043,0
1349,2076624359,0.639275240626147,0.00803207360157063,-0.714859554043948,-0.283263959070208,-0.000971305938938932,-0.140135322468107,0.0764397345450939,0
1352,2076674360,0.639139535675019,0.00738053780172735,-0.714595992810539,-0.284251206959617,-0.0636713448355531,-0.0872086778149936,0.0785262351976223,0
1354,2076707694,0.639052739967821,0.00709340735844887,-0.71446315776198,-0.284787070128627,-0.0695090861020069,-0.0160739211107653,0.0760797458830482,0
1357,2076757695,0.639077114496455,0.00675347626585711,-0.714136855646917,-0.285558021585712,-0.0420313843111225,-0.00928815061450779,0.0676385866786585,0
1360,2076807696,0.6391287083549,0.00680481526979338,-0.713982207240324,-0.285827913944695,-0.0274893763057806,-0.0798579782759152,0.0900523063251132,0
1362,2076841030,0.639182080720945,0.0067108237213601,-0.713843672170181,-0.286056715063318,-0.0105130072699232,-0.0567921206785116,0.0673945447798614,0
1365,2076891031,0.639188828572564,0.00661891550384613,-0.713708706717564,-0.286380364796765,0.0127393161841427,-0.083543296154437,0.0539710803751175,0
1368,2076941032,0.639058581201101,0.00682965672698021,-0.713720513258392,-0.286636554780448,-0.00646967387686544,-0.117753471563207,0.0688123765951389,0
1370,2076974366,0.639034068921546,0.00658822670736135,-0.713551627154744,-0.287116926375377,0.0280440092812993,-0.0741795492076259,0.0459216585149771,0
1373,2077024367,0.638973023380594,0.00629391887853925,-0.713348328630069,-0.287763833755565,0.0723016769067776,-0.143359042170793,0.0640785033760818,0
1376,2077074368,0.638645697804647,0.00499820202331503,-0.713003436979468,-0.289366185840044,0.147222501855698,-0.197202918614987,0.0694297956222376,0
1379,2077124369,0.637686476570283,0.00423889538126107,-0.713292311640448,-0.290778382139989,0.10719691951089,-0.120240217942903,0.0278410966743293,0
1381,2077157703,0.636603806239704,0.00433486391168263,-0.714019448310793,-0.291364085415378,-0.0649812803010174,-0.0737877339816449,0.0316835000275359,0
1384,2077207704,0.634815632582989,0.00489063508314136,-0.715422880229595,-0.291813804952289,-0.13923738300364,-0.000642326967358858,-0.0155768143229327,0
1387,2077257705,0.633623027510978,0.00518045691779746,-0.716320517940469,-0.292198455593872,-0.267936153323998,0.0553146048472152,-0.0312033695299926,0
1389,2077291039,0.633310629970706,0.0050562943831271,-0.716493118853089,-0.292454595603134,-0.301708608204614,0.0934235388786845,-0.0246076333276631,0
1392,2077341040,0.633495437623654,0.00488580472849623,-0.716401716305383,-0.292281098083457,-0.218524278870118,0.0677074862507438,-0.00763222619239981,0
1395,2077391041,0.634234376629974,0.00428938970160868,-0.715835233264138,-0.2920758042948,-0.10525676636775,-0.0751985310640309,0.0468727921624986,0
1397,2077424375,0.634865684977152,0.00373824720670054,-0.715346704652606,-0.29190868381905,-0.0358683656826099,-0.132968065158989,0.0890463588017338,0
1400,2077474376,0.635508894348639,0.00300961709877962,-0.714829903696878,-0.29178347483948,-0.00768123886887755,-0.207657463919459,0.107531511224974,0
1404,2077541044,0.63552854821733,0.00248576825732464,-0.71478686346401,-0.291851032508412,0.0181208431649831,-0.198716389547533,0.0652990191820833,0
1407,2077591045,0.635286530799184,0.00221516205725584,-0.714855288405061,-0.292212308915137,-0.0978813041518366,-0.0815466011757717,0.0168256848048034,0
1410,2077641046,0.635115714403898,0.0034907941166054,-0.715396124810058,-0.291245992728508,-0.221552020545964,-0.0227933296797164,-0.0114772861370372,0
1412,2077674380,0.635728577512306,0.0064408274549429,-0.715822176180905,-0.288801495085308,-0.404509848205143,-0.142534570033562,0.0445654823544008,0
1415,2077724381,0.638454317689906,0.00981589047308303,-0.714433791234635,-0.286119014501733,-0.254101268342038,0.21382866809191,-0.100976363780391,0
1418,2077774382,0.643458219259626,0.0122756090839308,-0.710647642616343,-0.284237150162825,-0.280911643121436,-0.0885046430977831,0.0144618038766525,0
1420,2077807716,0.64776965036802,0.0151361275786516,-0.707550303213591,-0.28202472609041,-0.0793378876551029,-0.143423488157462,-0.018905670856058,0
1423,2077857717,0.6541836531518,0.0202512968904347,-0.702893141261955,-0.278522646996834,-0.083059648137507,-0.243563963852428,0.0682076716664662,0
1426,2077907718,0.659701370112724,0.0242136775407358,-0.698535834780331,-0.276143961764684,0.156628804750544,-0.10567587664804,0.0114362754283936,0
1428,2077941052,0.662692053268087,0.0276034321051029,-0.696502159526227,-0.273791955408934,0.265386050095556,-0.22960537928669,0.151391363411884,0
1432,2078007720,0.666979537338236,0.0314838733976912,-0.6931674265174,-0.271414777238075,0.264332087908371,0.178075150585736,-0.0516551560902915,0
1435,2078057721,0.669984410837545,0.0368754992611915,-0.691754290526949,-0.266902769424493,0.16454359496727,-0.0575958277626609,0.0223591663422796,0
1438,2078107722,0.674359874457698,0.0410509376833884,-0.688642743266683,-0.263295940688136,0.0366991856183953,0.136931978049145,-0.119204563505685,0
1441,2078157723,0.680890982122712,0.0477478239982409,-0.684123603093778,-0.257065189120169,-0.149501718840385,-0.0117451926302762,-0.297002889889892,0
1443,2078191057,0.688128417956288,0.0533839659118005,-0.678369623503061,-0.251881095941754,-0.337314797133633,0.0112181182480767,-0.280388941007576,0
1446,2078241058,0.703646772360978,0.0636143474548775,-0.665092312458317,-0.241840134081828,-0.752136000246988,0.151477284030342,-0.549581364224589,0
1449,2078291059,0.72501326199961,0.0756531840166629,-0.644694283964879,-0.230220863294007,-0.909470254797225,-0.149304858750346,-0.489296531457181,0
1451,2078324393,0.741942256248237,0.0825160533719806,-0.626802380732393,-0.22322984755044,-0.496133639241197,-0.315760644836607,-0.451890343817297,0
1454,2078374394,0.769075286109147,0.0933015084526251,-0.595192853248245,-0.213456085082651,-0.0884886148183828,-0.397260704759875,-0.626274261912699,0
1457,2078424395,0.795591846454219,0.108503110155691,-0.560901654145185,-0.201618509366832,0.104054450370878,-0.336407789397598,-0.420979861569334,0
1461,2078491063,0.827252050809717,0.130121429226455,-0.514498115972006,-0.184429245914088,0.254063702632822,-0.141764570940222,-0.282064575567445,0
1464,2078541064,0.848491261170574,0.143367683122057,-0.479193397482713,-0.172864036058276,0.332205674324594,-0.0167737420327776,-0.42271777502763,0
1466,2078574398,0.861578321144494,0.152494419337995,-0.455432572402929,-0.164345430721558,0.333725279010861,-0.0175961165089236,-0.652803414554291,0
1469,2078624399,0.879765425350902,0.167617948223109,-0.418838604244643,-0.149970808442911,0.200746512963442,0.0351586277858146,-0.421110864475479,0
1472,2078674400,0.896289892245775,0.180742590963422,-0.381651846597264,-0.135419396169032,0.091668356821666,0.120150952663694,-0.00527368268722751,0
1474,2078707734,0.906385836896194,0.188922992119863,-0.356068089681687,-0.126444981050648,0.198036858112869,0.161931654954268,-0.0353596740506968,0
1477,2078757735,0.919693639412054,0.199530146674195,-0.31827430727208,-0.114248831607427,0.498923756056376,0.168665072100939,-0.251194915886969,0
1480,2078807736,0.93030863941189,0.211679036742124,-0.281621214287082,-0.102016236467503,0.951898066279339,0.134445751670468,-0.622617245654871,0
1482,2078841070,0.936190709310431,0.217872513668526,-0.25906459491484,-0.0946787159302477,1.03855252193671,0.240918494379039,-0.533468594199133,0
1485,2078891071,0.943984145470245,0.222160659851337,-0.228472597421361,-0.0856670680178031,0.882261993912942,0.329412143139747,-0.183044747197245,0
1488,2078941072,0.950019271340593,0.225753772807571,-0.200963065225631,-0.0781822522044149,0.371842775636268,0.464053575959434,0.273106765636203,0
1492,2079007740,0.955791106794858,0.230437811607389,-0.168588116394215,-0.0702838684486545,0.0985220138779362,0.155247800443805,0.655907696505492,0
1495,2079057741,0.958036606946749,0.237820741116951,-0.145980282299951,-0.0655508354193148,0.23879565606173,-0.00837480775401198,0.551178310186513,0
1499,2079124409,0.960919194703901,0.242152532560567,-0.120980093888706,-0.0579678282048727,0.0400615956611585,0.23857274388955,0.32482990107811,0
1501,2079157743,0.961368050745815,0.246401537408745,-0.1105205137651,-0.0533195030443633,0.384452468968128,0.117161010895825,0.278266742409368,0
1505,2079224411,0.961582281169533,0.253551339689537,-0.0960824509143436,-0.0428881954473584,0.426864925993448,0.248657319905498,0.266983130003827,0
1511,2079324413,0.959802992500475,0.26425742787673,-0.0894101793066666,-0.0308552626865635,0.520395263399725,0.299017170212401,0.0726927827285019,0
1516,2079407748,0.958693202477676,0.268209596981272,-0.0902314467597101,-0.0287965557991057,0.275044622266191,0.233113218072577,-0.131410354986799,0
1519,2079457749,0.958585255737946,0.268151530029435,-0.0913685740924322,-0.0293402128997916,0.131880631062183,0.274699766908121,-0.144772052177688,0
1522,2079507750,0.958239962333086,0.269119738313668,-0.0919056350906421,-0.030068177138885,0.210504939585264,0.0846627262440895,-0.111746045966131,0
1524,2079541084,0.95814328844213,0.269407854463369,-0.0919655848533727,-0.0303838438865581,0.0951857781638359,0.137490398195192,-0.0759559074322504,0
1527,2079591085,0.957742363408214,0.27076475600561,-0.0919482708425285,-0.0310085105662824,0.24362822632187,-0.0107744400220302,-0.171021077495966,0
1530,2079641086,0.957746172678571,0.270780368905499,-0.0916721096699722,-0.0315671481703339,0.183067724848239,0.0822291806170161,-0.154532374999748,0
1532,2079674420,0.957578876436904,0.271477890075121,-0.0912047556249512,-0.0320022366966729,0.205210276461355,0.0286567038208796,-0.13257678911346,0
1536,2079741088,0.957535091472585,0.271782680614154,-0.0905236744618592,-0.0326525263753929,0.165052325002344,0.108314762649138,-0.0818782369603888,0
1539,2079791089,0.957747422912952,0.271026015160059,-0.0903249938249453,-0.0332591115422818,0.0997324526793848,0.338305578693985,0.040866435401839,0
1543,2079857757,0.95767050918276,0.271017120917653,-0.090532300939698,-0.0349402131891581,0.208974817197776,0.199265772374953,-0.0526550226634574,0
1547,2079924425,0.958101956052391,0.26845723867879,-0.093102568441506,-0.0361007556588009,0.245591213908655,0.178335583111693,-0.0175106077364959,0
1550,2079974426,0.957845827323163,0.26853617463777,-0.0954544965517534,-0.0361681224086788,0.0649747835082988,0.223026856920848,0.0204394370898144,0
1555,2080057761,0.957501603671193,0.268409773158868,-0.0997047516036174,-0.0347251371136091,0.125258815114076,0.1372158403141,-0.125466502369308,0
1559,2080124429,0.957498974066444,0.267465362368239,-0.102685089952425,-0.0333731463364619,0.103652989254466,0.151761343049529,-0.306673667807487,0
1563,2080191097,0.957602152392841,0.266754639346405,-0.103727799177826,-0.0328728428568515,-0.0146992266177409,0.299316309491531,-0.325691905612213,0
1566,2080241098,0.95738643614383,0.267744113896682,-0.103240731363737,-0.0326443371655353,0.138438649777998,0.111567416732992,-0.281940179303195,0
1570,2080307766,0.957384720287243,0.268272866506629,-0.102125122230674,-0.0318531924020687,0.210179815744815,0.0563545917985528,-0.106468578695656,0
1576,2080407768,0.957759683357757,0.266843649361239,-0.102015764244009,-0.0329186812575512,0.254611874355243,-0.00523476943105485,-0.0379339422426977,0
1581,2080491103,0.957523464715844,0.266169174139558,-0.105469529559996,-0.0343360392419398,0.213006283915885,0.103824039728572,-0.148844226657173,0
1585,2080557771,0.957249010570181,0.265542618875297,-0.109529904897096,-0.0341269579144034,0.0951307580148717,0.162727769343981,0.0711160667628041,0
1588,2080607772,0.957023575878208,0.265429650232506,-0.111964661554083,-0.0334199125345416,0.157148834920723,-0.0223867936145311,-0.101442461258962,0
1590,2080641106,0.95702972566806,0.264812744027187,-0.113595419806173,-0.0326250729894816,0.0276000692469232,0.114252320102596,-0.145288493047776,0
1595,2080724441,0.956808938330581,0.264326372185363,-0.116934854738174,-0.0312164098735346,0.00201670047494834,0.149185040478933,-0.314740566103481,0
1597,2080757775,0.956787323135969,0.26399365699856,-0.117724453419017,-0.0317225537753107,0.0356070064482677,0.133305515461424,-0.273712522806708,0
1600,2080807776,0.956796952470079,0.263513658614223,-0.118302652348241,-0.0332359130322575,0.0237628682712813,0.206270649253463,-0.124244893654917,0
1603,2080857777,0.956866233698054,0.263265232483595,-0.117892911255097,-0.0346365363403644,0.132210295535994,-0.0292194861429393,-0.0652039399724291,0
1605,2080891111,0.957063358980897,0.262715435799637,-0.117340333507384,-0.0352359592062647,0.125056571460067,-0.0283053865935172,0.0532089035229957,0
1608,2080941112,0.957194047622615,0.262492982010028,-0.116711146195219,-0.0354330064363234,0.166645092404589,-0.0197846097656487,-0.011863552325179,0
1611,2080991113,0.957147064347239,0.262781883112992,-0.116636834192954,-0.0347998279952237,0.141788112494859,-0.030627185437943,-0.0985997983713976,0
1613,2081024447,0.957160203425522,0.262624202163586,-0.117052402072951,-0.0342287683872188,0.139087715324351,0.0441251139663326,-0.158683045472672,0
1616,2081074448,0.957117924144489,0.262499040839622,-0.117815339125716,-0.0337502400926943,0.09941484111726,0.203650646962511,-0.232711132402382,0
1619,2081124449,0.957038040430608,0.262468036545708,-0.118583126558574,-0.0335672616722973,0.101969750909473,0.260222075527466,-0.25432397945253,0
1623,2081191117,0.957269597347325,0.2613441339789,-0.119347979251679,-0.0330185020533826,0.171303227335913,0.206061163391527,-0.205781059983218,0
1627,2081257785,0.957592153920397,0.260017944435681,-0.120058401268815,-0.0315264271098683,0.151821262458987,0.0493629803334148,-0.0717990920023368,0
1630,2081307786,0.957863701460791,0.258943814687158,-0.120526454533003,-0.0303084809385076,0.100771273466181,0.0314132202474548,0.123597315042102,0
1632,2081341120,0.957944376143282,0.258698900001283,-0.120525544177101,-0.0298503694181082,0.133213476111414,-0.0786469567515155,0.184532065947718,0
1636,2081407788,0.958194130314263,0.258075761272989,-0.119913338855641,-0.0296934544833033,0.17406899469733,0.0242065544195896,-0.151093659037022,0
1639,2081457789,0.958414738067159,0.257647995349716,-0.1190930468639,-0.0295896356281263,0.164951104569153,0.186227207336165,-0.323909522464204,0
1642,2081507790,0.958591985522094,0.257458101108172,-0.118183566183475,-0.0291440585838585,0.216443253057231,0.09041937418445,-0.227407124890601,0
1644,2081541124,0.95875646668566,0.25708452097842,-0.117743294226626,-0.0288115137816029,0.266704874397268,0.0313775229098863,-0.101796220796333,0
1647,2081591125,0.958871576953987,0.256774636637947,-0.117577921553913,-0.0284168480357397,0.229056347768408,0.0134628588985371,-0.0470188070672241,0
1651,2081657793,0.958585131823804,0.257576537897836,-0.118237593477726,-0.0280845804580069,0.224144803614573,0.118203579876322,-0.140672329050771,0
1654,2081707794,0.958273854611253,0.25827516966329,-0.119290422688139,-0.0278379481782618,0.189927522859197,0.210106870087171,-0.103908111028958,0
1657,2081757795,0.958011956150069,0.258829769993577,-0.120102524602265,-0.0282068364541808,0.162817579616893,0.124338668576769,-0.112239296040931,0
1659,2081791129,0.957967447904943,0.258858921764494,-0.120235189515352,-0.0288777869585089,0.0812727409077968,0.163770985702808,-0.117229201749898,0
1662,2081841130,0.957954876573203,0.258797408795203,-0.12013210971591,-0.0302428812402514,0.145228165888157,0.0767918452466618,-0.2134383133965,0
1665,2081891131,0.957892251481773,0.259059783832885,-0.119828339846062,-0.0311710109135795,0.143352437490341,0.0971640738715543,-0.189907941114352,0
1667,2081924465,0.957791743124605,0.259425365271194,-0.119814421554957,-0.0312723686932994,0.149688123365032,0.180998383376832,-0.186384407830495,0
1670,2081974466,0.957624558661372,0.260081137418429,-0.119881621273028,-0.0306822992733375,0.165565639339138,0.164227945486065,-0.0992060303932222,0
1673,2082024467,0.957378812303313,0.261061071695055,-0.119861757752412,-0.0301012562300894,0.163230939392713,0.0858410500689277,-0.00767038116251335,0
1675,2082057801,0.957346509065824,0.261158092312328,-0.119915487402822,-0.0300730490674029,0.168263895069139,0.153969637439334,0.0022490135844274,0
1678,2082107802,0.957369645025204,0.261011271439725,-0.119924241876441,-0.0305721307090923,0.169277104114139,0.177137150423111,-0.0779483760813103,0
1681,2082157803,0.957563427725165,0.260229560818782,-0.11984342416378,-0.031470799862681,0.0443856517286694,0.270922736065763,-0.309682306142082,0
1684,2082207804,0.957587425776377,0.260033769321767,-0.119847330707854,-0.0323323078280596,0.127151121993947,0.100609712550545,-0.296308446774435,0
1686,2082241138,0.95752636555603,0.260043987077509,-0.120258001559622,-0.0325330157037298,0.0577183268508762,0.0856627067326723,-0.122242812111604,0
1690,2082307806,0.957336620624783,0.260016476916944,-0.121692050408771,-0.0330010819478673,0.0287343155622276,0.0133223839471739,0.0655129303167328,0
1693,2082357807,0.957345819269403,0.259549889527249,-0.122354071158981,-0.0339458163049915,0.0633679024905348,0.0113660201407607,-0.040899465640555,0
1696,2082407808,0.957450624881555,0.258932184975394,-0.122692229424255,-0.0344824786912758,0.0520755721692487,0.0650720019335178,-0.136605451085096,0
1698,2082441142,0.957426640184494,0.258914741382416,-0.122937062864645,-0.0344073238442513,0.0808615046878443,0.0904705784160831,-0.164149442100859,0
1701,2082491143,0.957354581613811,0.259067247604904,-0.123353167048851,-0.0337692531821816,0.111745531461062,0.147243198938024,-0.209697826755721,0
1707,2082591145,0.957113945434276,0.259794121985266,-0.123668920739789,-0.033851258177414,0.163162928850311,0.110118417677087,-0.0916408783568053,0
1711,2082657813,0.957100146407229,0.259765026949895,-0.123570617133125,-0.0348101005789966,0.115622920659378,0.0899547789764698,-0.0857478326118534,0
1713,2082691147,0.957075627892047,0.259853223371426,-0.123463437215987,-0.0352040405257361,0.122069090831655,0.0634238345736651,-0.0516539886257773,0
1716,2082741148,0.957094769351358,0.259769802201369,-0.123423330935682,-0.0354391552562178,0.0668295894096386,0.0629048457901106,-0.00346147528714388,0
1719,2082791149,0.95723300490976,0.259375216233365,-0.12322168956135,-0.0352971208028907,0.0917697695379817,0.0371874316287526,0.0303754842708214,0
1721,2082824483,0.957323151997914,0.259151141902329,-0.123006203676115,-0.0352497114412013,0.0672754880945854,0.0679938427732595,-0.0529488906931277,0
1724,2082874484,0.95750729155281,0.258829176478435,-0.12208557842746,-0.0358099925541606,0.0859641543468017,0.0742933022695967,-0.15026807858403,0
1727,2082924485,0.957824944748715,0.258137027727986,-0.120685996012296,-0.0370343151604425,0.169740713814936,0.078195673616406,-0.155383974411567,0
1730,2082974486,0.9580297447955,0.25779238478554,-0.119517585715865,-0.0379162384514229,0.195895922317867,0.121902741626371,-0.152047703796115,0
1732,2083007820,0.958074936909927,0.257796147345093,-0.119091334607294,-0.0380895746959702,0.161798952013768,0.0937031571655192,-0.14950843327733,0
1735,2083057821,0.958052175497518,0.257970724276372,-0.11896117202527,-0.0378863298720194,0.23675440162204,0.112691947161635,-0.0647607778086301,0
1739,2083124489,0.957932756864817,0.258461775097882,-0.118985229677553,-0.0374814521757432,0.181806875053166,0.121315733956621,-0.0985890946577062,0
1742,2083174490,0.958023251087974,0.258190634397407,-0.11884243020727,-0.0374903116381081,0.112101505445125,0.162110735192526,-0.166987585949715,0
1744,2083207824,0.958109189196789,0.257902062073876,-0.11872513464242,-0.0376516979544678,0.115298615252548,0.143942892034051,-0.177987653254412,0
1747,2083257825,0.958209524462144,0.257469266053009,-0.118755297986175,-0.0379639759294554,0.0893811178394148,0.166358719197373,-0.186871349255236,0
1751,2083324493,0.958281491289354,0.257007443064571,-0.119016123088123,-0.0384567303177946,0.0856700143952482,0.152698130614494,-0.120486448773459,0
1754,2083374494,0.958338040300404,0.256472935039652,-0.119527078389874,-0.0390270628783209,0.0976636637407516,0.179186373310763,-0.127627531527402,0
1759,2083457829,0.958412819859568,0.255638100937854,-0.12022085791393,-0.0405089298816638,0.109088668947057,0.107004428625539,-0.0873637968377722,0
1763,2083524497,0.958349529771515,0.255466914792295,-0.120664930456368,-0.0417469614604628,0.126754988449089,0.0929693480621567,-0.129890716224186,0
1766,2083574498,0.95822954080695,0.255622248304361,-0.121083943058677,-0.0423331079663288,0.15331103660136,0.102919022028887,-0.142634351546593,0
1769,2083624499,0.958132245806503,0.255640181683901,-0.121681029568104,-0.0427132777676288,0.0896487948980498,0.0783809655038751,-0.157677177092612,0
1773,2083691167,0.95803584867696,0.255600364697422,-0.122425810333031,-0.0429847319482477,0.0432314466110138,0.0643714276362889,-0.0676174531420487,0
1775,2083724501,0.957967435983901,0.255699368577806,-0.122763205208187,-0.0429583513458665,0.085951784459276,0.0639379635038356,-0.0541893731502193,0
1778,2083774502,0.957923199260741,0.255631604419469,-0.12332207634646,-0.0427468434576342,0.0758776404223402,0.10841922615851,-0.0939123530055651,0
1781,2083824503,0.957850279202116,0.255713993542093,-0.123664070222502,-0.0428998120647098,0.0788890941751713,0.107479341838062,-0.0916736521857329,0
1783,2083857837,0.957974476614642,0.255310575383159,-0.123385655181685,-0.0433288858362279,0.154674701291469,0.0884800870454392,-0.170747063605509,0
1786,2083907838,0.958149030060724,0.254751036176886,-0.122889672127489,-0.0441641737712181,0.105691303000004,0.174667027011654,-0.204583425005895,0
1789,2083957839,0.958243371381872,0.254333106675079,-0.122772574064329,-0.0448464838011401,0.0974507565259067,0.133800265637338,-0.189057088999553,0
1792,2084007840,0.958104848721168,0.25460167645774,-0.123218036593964,-0.0450599673748665,0.126880199586518,0.112310894993338,-0.0883228015636494,0
1794,2084041174,0.958045747496946,0.254493234576484,-0.123936321154339,-0.0449591765554562,0.0827531582263293,0.132565854513914,-0.0378866708493189,0
1797,2084091175,0.957964381703605,0.25425231647656,-0.125131303721726,-0.0447455001361492,0.03985192490595,0.134898652247086,0.0160801808033915,0
1800,2084141176,0.957894187554557,0.254098078985276,-0.126051865400505,-0.0445400823331038,0.100864994741585,0.0844375133335175,-0.105653869287404,0
1802,2084174510,0.95798864696953,0.253514609355479,-0.126529314421736,-0.0444795201502089,0.0626916125847624,0.156618739151202,-0.132153675542467,0
1805,2084224511,0.95807534289019,0.252842582276973,-0.12719156818983,-0.0445485231491319,0.0904708600619552,0.121822106436184,-0.203538879365561,0
1808,2084274512,0.958051084818599,0.25262794591399,-0.127799206393977,-0.0445488795173769,0.0916017060543063,0.0961277364464317,-0.212460980798482,0
1812,2084341180,0.958015434606255,0.252392375427166,-0.12860844727466,-0.0443213624793076,0.104436490284388,0.137474944802985,-0.143599493107645,0
1817,2084424515,0.957907462082021,0.251715819473626,-0.130867202403013,-0.0438886733623932,0.0939425291269955,0.126496559579863,-0.0560184107990323,0
1820,2084474516,0.957799890028122,0.251147470351012,-0.132779201724083,-0.0437493129994216,0.0695416866334301,0.0957522765370923,-0.0647029089798805,0
1824,2084541184,0.957611655135892,0.250693096898323,-0.134921438269372,-0.0439214595698924,0.0467222175126778,0.0679390564834494,-0.121390138443158,0
1827,2084591185,0.957601758973795,0.250064753931522,-0.136128441966696,-0.0439947421765395,0.0025984376334154,0.125437461000841,-0.147543458161149,0
1829,2084624519,0.957577852042719,0.249807760118309,-0.136790881854813,-0.043920324490018,0.0651582044314326,0.0722437057429495,-0.25590813339907,0
1832,2084674520,0.957662084525719,0.249187329920599,-0.137431678014856,-0.0436066548466808,0.0178816593453975,0.118441261237323,-0.0765564372309394,0
1835,2084724521,0.957779151332916,0.248616534729943,-0.137724616854557,-0.0433687196391513,0.06883213094579,0.0225411398931985,-0.0610610206448723,0
1838,2084774522,0.957791720475623,0.24838760229243,-0.138010598754626,-0.0434936069687702,0.121021746060572,-0.0286533100934755,-0.122009618114985,0
1840,2084807856,0.957703989084548,0.248685135556471,-0.137969304979013,-0.043854800517306,0.13286594925725,-0.0318938196288734,-0.259984615631022,0
1843,2084857857,0.957802124987314,0.248536658715115,-0.137272329948777,-0.0447317121843716,0.174687618479374,0.071950951421355,-0.286372168770569,0
1846,2084907858,0.957707558264068,0.249036455225626,-0.136659528836591,-0.0458393934372388,0.199454720273592,0.0664750944789267,-0.138548916388618,0
1848,2084941192,0.957546538504652,0.249479925187216,-0.136739604056543,-0.0465475478279911,0.217979828814101,0.101312956653398,-0.0817733194704939,0
1851,2084991193,0.957435541915953,0.249180152891562,-0.137845876234455,-0.0471693638519635,0.0888762516365056,0.16653463642596,-0.133848250686202,0
1854,2085041194,0.957202684292107,0.249819628903631,-0.137843349044805,-0.0485013950577711,0.0836983072195914,0.0315469137189349,0.036086948915396,0
1858,2085107862,0.957185627702498,0.249120603524803,-0.138373834420438,-0.0508653218509309,-0.0205859937128855,0.00166120711216267,-0.130209380377703,0
1860,2085141196,0.957456949787473,0.248210179794392,-0.138006460326668,-0.0512065704593478,-0.099567191701837,0.0338056926551681,-0.140436517024475,0
1863,2085191197,0.957710885429084,0.247723919922547,-0.137478200407422,-0.0502241360461745,-0.0106073316008616,-0.168027757603217,-0.101025430602031,0
1866,2085241198,0.957919368390736,0.247719451820693,-0.136397532481301,-0.0492064018656266,0.260644883272244,-0.26877278762216,-0.112388148755508,0
1869,2085291199,0.957866496329272,0.24882561944413,-0.135195377460259,-0.0479561907526843,0.00989500690219649,-0.0626526937378414,-0.198190855832059,0
1871,2085324533,0.957386098741875,0.250590130052624,-0.136108444478578,-0.0457267536311578,0.209752211793021,0.0630313596635928,0.233844243085196,0
1874,2085374534,0.954603377614002,0.259783972985692,-0.139541833844494,-0.0421041023538553,0.315360360080426,-0.590014780718954,-0.204080253495153,0
1878,2085441202,0.951675991286178,0.269067022521565,-0.142579265482611,-0.0398358890360037,-0.106787509632062,0.233856125090965,-0.36756528325451,0
1881,2085491203,0.949713210469847,0.276438932352597,-0.141141257923409,-0.0412974557401462,0.271459077740248,0.196014625814809,-0.30041305657734,0
1883,2085524537,0.948846824272385,0.279969389874313,-0.139332809990071,-0.0435110659704638,-0.190699512074564,0.23281059145157,-0.192912688927955,0
1887,2085591205,0.94613282999551,0.290800710917842,-0.134421182985438,-0.0468888056913397,0.364099997539659,-0.287818145570129,-0.695158810595021,0
1890,2085641206,0.94338935271255,0.301433263747975,-0.131505500059663,-0.0431372246313725,0.0881396527466469,-1.17879206453846,-0.776288166375466,0
1893,2085691207,0.937054704699047,0.322335299515597,-0.129802628055466,-0.0343469480080453,-0.278385544674338,-0.754272110730094,-0.584402781835616,0
1896,2085741208,0.926732244127089,0.352890072379104,-0.126958687684235,-0.0227472225323843,-0.913185065762917,-0.949455205705448,-0.683727500025493,0
1901,2085824543,0.903930444958784,0.411060645137582,-0.117831710736301,-0.00738814189398632,-0.144063194593702,-0.090579981984161,-0.663392873154907,0
1904,2085874544,0.889141444652729,0.444226932039555,-0.109952853372774,-0.000542482044394759,-0.665928971865406,0.00817311124920467,-0.605194719135688,0
1906,2085907878,0.877030306901533,0.468896368241836,-0.104626376250312,0.00271256678219423,-0.0898786521449351,-0.492239893305494,-0.563332992422903,0
1909,2085957879,0.855766669928988,0.50776148434947,-0.0989009681808668,0.00776402877128344,-0.484696600380529,-0.177181332819343,-1.10002418661568,0
1912,2086007880,0.830547890293087,0.548323401108493,-0.0967137292165542,0.0133455725820901,-0.712762805464655,0.125122799796657,-0.829709819480593,0
1914,2086041214,0.810298556292884,0.577937004317942,-0.0955297112651635,0.0167075723929611,-1.00392105720442,-0.0650061072060548,-0.989164153208632,0
1920,2086141216,0.748996448567268,0.655911914897087,-0.0921741136468072,0.0169650435626457,-0.538098558228711,-0.244661254602389,0.703789430101108,0
1924,2086207884,0.708671110881548,0.699326837034291,-0.0909864034987619,0.0211826812251807,-1.14470641884241,0.0557371224177759,0.374854413800434,0
1927,2086257885,0.672488778124764,0.733913608573897,-0.0907926869297961,0.0297715711102154,-0.473756902500987,0.221376259514027,1.06508350592122,0
1929,2086291219,0.649517236350394,0.754418710558321,-0.087847118994145,0.0355338223062906,-0.207582616356241,0.0833148984825401,1.13681170486274,0
1932,2086341220,0.620158801705382,0.779168756058423,-0.0816696238059165,0.040363136611436,0.753865682513985,-0.0723464525245513,0.940679027839442,0
1935,2086391221,0.599053354613087,0.796126880530244,-0.074149506817478,0.0426487873533737,1.58890023219834,0.0147087689891128,1.74776904367404,0
1937,2086424555,0.588845918439789,0.804225010111674,-0.0675964957757036,0.0437416415618343,1.24017964652374,0.0561904879618225,1.64447714345523,0
1941,2086491223,0.57810689357977,0.81274748894112,-0.0560890412036758,0.0456941820400049,1.25268171618123,0.509019903541496,1.56239680340946,0
1947,2086591225,0.577188850705378,0.813691415944776,-0.0452040993328992,0.0521142940342899,0.576128584479499,0.363949068327451,0.197537278696674,0
1952,2086674560,0.581868778030385,0.810077718048955,-0.0467083449141836,0.0549649560120121,0.0278306745923901,0.178790268854872,-0.0077160926411586,0
1955,2086724561,0.584169391311986,0.808410121340819,-0.0487045978181394,0.0533578496500685,-0.124228987094942,0.0247192540094402,-0.00813744712034097,0
1959,2086791229,0.586578120363548,0.806430490655918,-0.0535911924384503,0.0521915370941329,-0.0348576207930347,-0.206118896706343,0.000458761623858717,0
1962,2086841230,0.587202123744573,0.805600192097208,-0.057487568457323,0.0538254199767125,0.126362344833255,-0.218110058431903,-0.0340822079944002,0
1964,2086874564,0.58862025851371,0.804323240822998,-0.0593291810736796,0.055410863667422,-0.0420904625111956,-0.13500612218729,-0.0657312692713088,0
1967,2086924565,0.589665747009296,0.803249753103512,-0.0614596169340228,0.0575052730576813,-0.0939674626571965,0.121138217659078,-0.343649275452077,0
1970,2086974566,0.59191848975632,0.801268246434598,-0.0639504014254752,0.0592625083652563,-0.0840801416768917,0.286313530292707,-0.0217544132558286,0
1973,2087024567,0.592714149374961,0.800313698283496,-0.066696822474589,0.0611510861906936,-0.00644485898411298,0.345677796106311,-0.0808264852840453,0
1975,2087057901,0.592922215813857,0.799874399794866,-0.0687236763436005,0.0626198599248565,-0.0155184890304571,0.271540825857775,0.166413129964621,0
1978,2087107902,0.593156281496496,0.799292556534811,-0.0714808697786713,0.0647110504085667,-0.156398969085648,0.216659939368585,0.184466155062619,0
1982,2087174570,0.593345476546465,0.798678526860286,-0.0748228166701806,0.0667480509054238,-0.0989926192628989,0.126456771273548,0.0996540507826359,0
1985,2087224571,0.594105736650445,0.797823864520587,-0.0766895384849058,0.0680747351624637,-0.10217072851406,0.222687107391856,0.0306279424155434,0
1987,2087257905,0.594388885319881,0.797453554844962,-0.0776023694997488,0.0689024899502678,-0.0124930587023443,0.224914484317134,-0.000387149454318669,0
1991,2087324573,0.595846790235343,0.796161881563479,-0.0792161548700848,0.0694093777463661,0.0279851810795003,0.402716191407689,0.0594547039664226,0
1994,2087374574,0.597685760779051,0.794870707169662,-0.0791529640877009,0.0684623876424076,0.0592458694403516,0.415390109197618,0.0788191860156701,0
1998,2087441242,0.60077676907409,0.792815786057195,-0.0785100568533234,0.065928552936479,0.0323859630141549,0.317847021384409,-0.0282596321353866,0
2002,2087507910,0.603398931957225,0.790886682729207,-0.0797601256656698,0.0636105836183557,0.0177020223018631,0.110840469879399,-0.036584059590741,0
2005,2087557911,0.603543824200513,0.790662559631066,-0.0817934151738661,0.0624292103206953,0.00103174714271386,0.0192775686604242,-0.0713304440761563,0
2009,2087624579,0.603232874937812,0.790629611148378,-0.0849510355061855,0.0616298477691811,0.0113560835352511,-0.0058406289550413,0.0360531275365819,0
2012,2087674580,0.603873073185351,0.790002467727808,-0.0866876600948437,0.0609808334883569,0.0598982187752897,0.051830881505886,0.0513357787624981,0
2016,2087741248,0.605472416631343,0.788659789449674,-0.088359506266676,0.0600956475637485,-0.0155685594346341,0.17542705268452,-0.0360827958990904,0
2018,2087774582,0.606475675576437,0.78780200617216,-0.0892826488703767,0.0598653707573351,-0.0469985673723624,0.186754421617629,0.015637339069113,0
2021,2087824583,0.607279962974569,0.787026915023076,-0.0908350384217827,0.0595707763402524,-0.062438327841196,0.172228755063324,-0.0375888588045595,0
2024,2087874584,0.608265984948174,0.786106352070357,-0.0923543532591284,0.059329320101885,-0.0676410557977082,0.136116292016288,0.111248418412982,0
2026,2087907918,0.608816186219739,0.785599690573503,-0.0932415370397021,0.0590084175193892,0.00254413154119557,0.106751606614025,0.00813705067036006,0
2029,2087957919,0.609771528947171,0.784760924267959,-0.0940749984334934,0.0589819370423413,0.0753460791446226,0.0981528921399679,-0.00675999572643574,0
2032,2088007920,0.61075113846712,0.783870674555113,-0.094789512136345,0.0595378940052628,0.0202436070513545,0.211362793432165,-0.13501299565507,0
2035,2088057921,0.611023687350448,0.783574767920223,-0.0951154604146772,0.0601139398603533,-0.0579449210240026,0.322442916522201,-0.257925770432129,0
2037,2088091255,0.61067864127557,0.783857276202233,-0.0950444894459892,0.0600492519569603,-0.0388318413138608,0.302816427205528,-0.209804144265925,0
2040,2088141256,0.610131409003212,0.784395761978914,-0.094632142426315,0.0592259230158605,-0.0342335317574246,0.278886354769205,-0.154853050768428,0
2044,2088207924,0.609096829347444,0.785338624727419,-0.0944958373024207,0.0575745926833282,-0.0470356956879784,0.165249186943644,-0.0557682527563169,0
2048,2088274592,0.607712774311147,0.786358234360605,-0.0955851369841221,0.05647470920728,-0.0111025262508709,0.105699897691755,0.147894894753967,0
2051,2088324593,0.607214857573875,0.786663830367572,-0.0966350344959448,0.0557835534985555,-0.000109696563050029,0.0595753188475413,0.159436525955144,0
2054,2088374594,0.607511903346065,0.786428239826615,-0.0971531013803511,0.0549653144103853,-0.000166752884786663,0.0636298668526763,0.161351348137502,0
2058,2088441262,0.608757836532206,0.785518531026995,-0.0970795608221148,0.0543147562307476,-0.0707720807148458,0.191207025653281,0.0836564639882569,0
2060,2088474596,0.60928397218124,0.78510084990113,-0.0971124265992704,0.0543955267239397,-0.0193882264447197,0.207964957278247,0.0485956681682912,0
2063,2088524597,0.609908143491022,0.784585083544042,-0.0972063050021868,0.0546739192974611,-0.0475627306518888,0.236680019924373,-0.00461017895113193,0
2066,2088574598,0.610559364982702,0.784127979201684,-0.0968728329236942,0.0545548192769559,-0.0795561343903585,0.248141945623978,-0.0798000264765822,0
2070,2088641266,0.611309878653082,0.783723102078397,-0.0958614456104385,0.0537486257986755,-0.0176116195109982,0.167478921487845,-0.130735634495729,0
2072,2088674600,0.611763932387988,0.783443793096917,-0.0956231224240758,0.0530747825711105,0.045390269213922,0.157110437477251,0.00204897715537846,0
2076,2088741268,0.611236548204574,0.783825497657255,-0.0963276873601457,0.0522345480420717,0.0424615183138922,0.136853408880217,0.0147648614807425,0
2079,2088791269,0.610819531081826,0.784046111710025,-0.0973738350243958,0.051860692378821,0.0797577851123698,0.165284830448229,0.0635718416230103,0
2082,2088841270,0.610700189429881,0.784086745161098,-0.0980930556431614,0.0512933438914977,-0.0173548061353833,0.10827187575335,-0.0321254432723334,0
2085,2088891271,0.610589968285982,0.78416551332652,-0.0984892634986251,0.0506379631637838,-0.0866913763303547,0.0765888803302905,-0.00224562606287609,0
2087,2088924605,0.610219118581826,0.784469307729711,-0.0985595624135874,0.0502647511097891,-0.132331374841209,0.113543410611489,-0.0652266641660984,0
2090,2088974606,0.610428931623807,0.784374174142241,-0.0983566724508933,0.0495947513319983,-0.0206086255165796,0.194464596248145,0.0794071631610362,0
2093,2089024607,0.611386142670924,0.783829765315477,-0.0972262838171888,0.0486305797883706,0.05306880588005,0.237098892404246,0.122467271819692,0
2095,2089057941,0.612417287427589,0.783201047145309,-0.0961876168015327,0.0478448344585513,0.030637068019599,0.274629460838674,0.153420892376086,0
2098,2089107942,0.614284654409665,0.78194156213568,-0.0950712510633234,0.0467248754184222,0.0717720753245696,0.158456512136515,0.108855938614292,0
2101,2089157943,0.615410552097475,0.781120600013397,-0.0950646364958183,0.0456418173357321,-0.0112087052151591,0.128182206757899,-0.0982805051048388,0
2105,2089224611,0.616696962836253,0.780042208600305,-0.0962748941121474,0.0441605434091845,0.0180497285973296,0.0826772603495529,-0.0250956887529267,0
2107,2089257945,0.618015049597546,0.77905432072875,-0.0963082917537388,0.0430868514083542,0.0111689247585963,0.0837415321848127,0.156052880826919,0
2110,2089307946,0.620601746296733,0.777245122871865,-0.0952134487645463,0.040962063420999,-0.0164956662611408,0.131880773113807,0.0678330071020871,0
2114,2089374614,0.624726255206066,0.774270071466973,-0.0931634872338211,0.0392877478759964,-0.0356459376465262,0.0779536493444579,-0.154442217010929,0
2117,2089424615,0.626219831179914,0.773092698809784,-0.0926033999244136,0.0400126530792824,-0.0770860736442779,0.129278519443433,-0.170418352606345,0
2120,2089474616,0.626487300769196,0.772784438339408,-0.0928670971263542,0.0411530813754704,-0.0356287212358387,0.204842375674953,-0.0956074940046656,0
2122,2089507950,0.626493630798029,0.772739472400874,-0.0929818341910971,0.0416391267149292,-0.0970459336867727,0.271691357794153,-0.0573881684607252,0
2125,2089557951,0.626765240608582,0.772582044936412,-0.0925522139333902,0.0414295148748621,-0.0244151048393668,0.337520464040334,0.0649199746161889,0
2128,2089607952,0.627302997059607,0.772274451146791,-0.0917864396487111,0.0407231074768389,0.0326475933213403,0.375519542535366,0.0585061270005428,0
2130,2089641286,0.627626885225015,0.772058647879354,-0.0916032494546074,0.04023408836802,0.0202773238036513,0.384277400916073,0.0794956345143124,0
2133,2089691287,0.627439507512975,0.772163318037094,-0.0922969379281995,0.0395569202403107,0.0466043749375861,0.233365731107153,0.0454397592701624,0
2136,2089741288,0.627347647633281,0.772139325986436,-0.0935131859787227,0.03861443152904,0.0388709475681403,0.124133807652556,-0.00205997719405291,0
2139,2089791289,0.627562845961729,0.77191844730522,-0.0944542199601909,0.0372180790748937,-0.00578143594547182,0.104326774855192,-0.0129207502099027,0
2141,2089824623,0.627985919677015,0.771556472630364,-0.0949829923079822,0.0362287924422725,-0.0506789296241412,0.112921953633917,0.0253765087751254,0
2144,2089874624,0.62821708406575,0.771343366508602,-0.0956092549953552,0.0350938255300737,-0.0929252890191065,0.0749883570402691,0.00891986722679417,0
2147,2089924625,0.628439606430416,0.771127578250906,-0.0961796259680825,0.0342840878413884,-0.0128280217495779,0.0365489187141952,0.0123542459601587,0
2149,2089957959,0.628574934006044,0.770974135306027,-0.0965756376832404,0.034140609755783,-0.0777446858598064,0.106765547299477,0.0205701234070563,0
2152,2090007960,0.628619150250818,0.77084442746546,-0.0973105181332335,0.0341686353843427,-0.0275166996349232,0.14140470667358,0.00895038761908192,0
2155,2090057961,0.628978791762989,0.770510775740821,-0.097604421814567,0.0342374184466773,-0.0148774129507982,0.157474641589018,0.0718391698973619,0
2160,2090141296,0.630021779803323,0.769748508802279,-0.0968740346506314,0.0342813590837617,-0.014506055660566,0.104048724635962,0.0367931076460728,0
2163,2090191297,0.630844373826482,0.769165064810578,-0.0960587980283594,0.0345425304191763,-0.045874396947161,0.0439118852341549,-0.0607852050561982,0
2166,2090241298,0.631626645032702,0.768578080381313,-0.0953933183025595,0.0351515357464761,-0.0619655470933269,0.102909041592977,-0.00989085132201921,0
2168,2090274632,0.631991910684904,0.768327022080277,-0.0949342385433586,0.0353171675292529,-0.0370159325859718,0.130481925745505,-0.00655101134281775,0
2171,2090324633,0.633027075260041,0.767564093376583,-0.0942217565004484,0.0352752767341878,-0.0207752472649387,0.235092976226715,0.0747055426699875,0
2174,2090374634,0.633793581469513,0.767044775679458,-0.0932537310162278,0.0353800769141546,0.0162226684331423,0.246884011042855,0.0149088403112128,0
2176,2090407968,0.634235831182401,0.766740107145158,-0.0926928187272368,0.0355325188496464,0.0116150224153138,0.242037879225575,0.0314014087751204,0
2179,2090457969,0.634760671061678,0.766380247154173,-0.0920259604991837,0.0356571148501916,0.0855436950387039,0.274273239377335,-0.00525239919345966,0
2182,2090507970,0.635585539149978,0.765823860858291,-0.0912075311499449,0.0350146087378458,0.139878407853354,0.208168880128584,0.105012279548186,0
2184,2090541304,0.636520881293887,0.765165026143867,-0.0905118044117918,0.0342237301478058,-0.00113502262090943,0.207401312831435,-0.000234736384343674,0
2189,2090624639,0.63864673185928,0.763636778689712,-0.0889785885790769,0.0327419133884334,-0.0416427289900321,0.118080924604086,-0.0147294400488695,0
2191,2090657973,0.639020103155843,0.763317763607252,-0.0890024978668341,0.0328307005375076,-0.0428251283166505,0.160188260862662,-0.0434545511302363,0
2195,2090724641,0.638865641515349,0.763317392050641,-0.0898485968042703,0.0335332780457346,0.0179914890932166,0.178792328150729,-0.0400232804941693,0
2198,2090774642,0.638680506055087,0.763431852713369,-0.0900683652787262,0.0338630628247153,0.0233353136755023,0.221242558476105,-0.0300883407348426,0
2201,2090824643,0.638966847588208,0.7632327255684,-0.0897385803507027,0.0338254564087339,0.0323326471886141,0.248775345916348,0.0248343025140079,0
2203,2090857977,0.639118216075612,0.763138960022087,-0.0894777943370071,0.0337721467679829,-0.0105293761180088,0.209001249910284,0.0271733552285918,0
2207,2090924645,0.638992936851973,0.763231935662983,-0.0895060162640848,0.0339663376000482,-0.0244468577574159,0.143170967244036,0.0283035766880265,0
2210,2090974646,0.638883693889645,0.763315572252945,-0.0894690829210282,0.0342380787917588,0.0264790796203924,0.0796507186912324,-0.0541599141552432,0
2214,2091041314,0.639162826718249,0.763053198433297,-0.0895135208975741,0.0347566810667027,0.0179067487590356,0.104863891738669,0.0144486007571411,0
2217,2091091315,0.639212786473976,0.762946730191866,-0.0898971576938917,0.03518240378761,-0.0477554201245015,0.228609170634081,0.0400125074410408,0
2221,2091157983,0.638566202092991,0.763370439324038,-0.0906342563164308,0.0358358688010434,0.00739212485700085,0.241228422886451,0.0512442505741251,0
2225,2091224651,0.638312281656757,0.763503884785688,-0.0911749913686396,0.0361437401528339,0.0169123165374973,0.154092001220618,-0.0181789008061515,0
2228,2091274652,0.638611491552011,0.763213106470276,-0.0916266769938679,0.0358562272523015,-0.0541450715795339,0.118051101750723,0.00512125531785807,0
2230,2091307986,0.638456659001509,0.763292473734135,-0.0921238068004497,0.0356496611211102,-0.04368150667601,0.185042961892652,-0.0303874282353446,0
2234,2091374654,0.637975366816081,0.763553169732484,-0.0932044264717756,0.0358737120107593,-0.0638982173641051,0.193983001123781,-0.0374816455982643,0
2237,2091424655,0.637272312870249,0.764114637809432,-0.0933421549028982,0.0360563677101186,-0.059017515775555,0.146269435236169,-0.0367286716905806,0
2241,2091491323,0.637074953687887,0.764421451901624,-0.0922986718590829,0.0357253751448351,-0.0349459376333779,0.109502248181761,0.0106248499072315,0
2245,2091557991,0.637208321146074,0.76438175939892,-0.0916808949909122,0.0357867972034216,0.0181174226244556,0.0617281872798506,0.0772686523083331,0
2248,2091607992,0.637356621627236,0.7642603583825,-0.0915209865172075,0.036146237700295,-0.0692282922909437,0.0627326044671295,0.0723386961434573,0
2251,2091657993,0.637848979026813,0.763861109627518,-0.0911384455109537,0.0368601261923437,-0.102525983633397,0.0721842645696758,0.0535359352948971,0
2253,2091691327,0.638450229317956,0.763409171994463,-0.0904854157799958,0.0374183154310706,-0.0604540506002426,0.0729318720000432,0.0142793808674585,0
2257,2091757995,0.639460899006363,0.762684271988733,-0.0888237789901352,0.038894680727598,-0.076028971344717,0.228795930309521,-0.0373025941231893,0
2260,2091807996,0.639467817471382,0.762670894093941,-0.0881772846353961,0.0404818995930847,-0.039299966617046,0.312739592734392,-0.00485626130051963,0
2263,2091857997,0.638699963536413,0.76326608156568,-0.0879666747591975,0.0418223557653909,0.047824124079741,0.324562607556033,-0.0332498170120797,0
2265,2091891331,0.638264883129602,0.763624097878058,-0.0878490435076321,0.0421748936960394,0.0960572000839439,0.246752936102883,0.0247137774024318,0
2268,2091941332,0.63819535682437,0.763784586127502,-0.0871071135677556,0.0418586106762907,0.0143388371264139,0.196837363512329,0.0513607460496725,0
2271,2091991333,0.63835711877819,0.763824138784985,-0.0859632809324521,0.0410266772467775,0.00773371408759928,0.114449654934072,-0.0122778636752777,0
2274,2092041334,0.638389183826327,0.763881570700476,-0.0854664052405654,0.0404930795690427,-0.0256934321148585,0.0850686755013787,-0.0265332685588378,0
2276,2092074668,0.637851443735351,0.764310737936017,-0.085571896452204,0.040645813289975,-0.0385198610258925,0.112514147034339,-0.0157294695840016,0
2279,2092124669,0.637189732932242,0.764799457466389,-0.0859383303463978,0.0410565157085764,-0.0192700298212072,0.136487805391218,0.0844636064138148,0
2282,2092174670,0.636601036576844,0.765299098899837,-0.08566858227403,0.0414403603211063,-0.0340354730387958,0.185130976161752,0.072124746119172,0
