DeviceTag:;Xsens_1;;;;;;;;
FirmwareVersion:;2.4.0;;;;;;;;
AppVersion:;2022.0.1;;;;;;;;
SyncStatus:;Synced;;;;;;;;
OutputRate:;60Hz;;;;;;;;
FilterProfile:;General;;;;;;;;
Measurement Mode:;Sensor fusion Mode - Extended (Quaternion);;;;;;;;
StartTime:;2020-11-25 11:02:17.795 +0100;;;;;;;;
© Xsens Technologies B. V. 2005-2020;;;;;;;;;
;;;;;;;;;
PacketCounter;SampleTimeFine;Quat_W;Quat_X;Quat_Y;Quat_Z;FreeAcc_X;FreeAcc_Y;FreeAcc_Z;Status
1;1702266872;-0.23712069;-0.5520378;0.1898042;-0.77649266;-0.058211267;0.0497779;0.09061146;0
2;1702283539;-0.23734456;-0.5515034;0.19004318;-0.77674556;-0.056086775;0.0739696;0.096191406;0
3;1702300206;-0.23758933;-0.5509493;0.19027242;-0.7770077;-0.05416099;0.073407464;0.08752632;0
4;1702316873;-0.23786566;-0.55037546;0.19049944;-0.77727413;-0.03784499;0.07937526;0.10638332;0
5;1702333540;-0.23816453;-0.5497868;0.19074374;-0.7775394;-0.027630895;0.08179099;0.1114645;0
6;1702350207;-0.23849061;-0.5492058;0.19098401;-0.777791;-0.01483679;0.096525185;0.10361004;0
7;1702366874;-0.23880906;-0.54863054;0.19119178;-0.77804804;0.016934905;0.075931825;0.11095142;0
8;1702383541;-0.23910418;-0.548061;0.1913759;-0.77831364;0.005424883;0.048590824;0.10397434;0
9;1702400208;-0.23936076;-0.54748124;0.19156303;-0.77859664;0.027539926;0.05884627;0.06564808;0
10;1702416875;-0.2396026;-0.54690737;0.19175114;-0.77887917;0.024796527;0.04035303;0.09619808;0
11;1702433542;-0.23982929;-0.5463346;0.19190125;-0.7791743;0.01594899;0.04014181;0.10203171;0
12;1702450209;-0.24002111;-0.54577076;0.19200365;-0.77948517;0.002692661;0.036250226;0.11195755;0
13;1702466876;-0.24019884;-0.5452207;0.19204442;-0.7798052;0.010450795;0.05787175;0.12747955;0
14;1702483543;-0.24038048;-0.5446662;0.19210254;-0.78012246;0.003604817;0.04123993;0.11568546;0
15;1702500210;-0.24048783;-0.5441258;0.19214359;-0.7804562;0.013191958;0.029234154;0.09537792;0
16;1702516877;-0.24054419;-0.54360694;0.19219433;-0.7807878;0.0070456;0.010554096;0.082632065;0
17;1702533544;-0.2406427;-0.54305387;0.19229026;-0.7811187;0.011922404;-0.04376853;0.09440422;0
19;1702566878;-0.24077752;-0.5423453;0.1923389;-0.78155744;-0.045379836;0.049772087;-0.028130531;0
23;1702633546;-0.2413129;-0.5420713;0.19310214;-0.7813939;-0.003602582;0.014815556;0.10933781;0
25;1702666880;-0.24143328;-0.54253244;0.19322081;-0.7810073;-0.02731306;0.003357835;0.10734844;0
28;1702716881;-0.24162251;-0.5436587;0.19315024;-0.7801828;-0.041141585;-0.100411184;0.09487629;0
31;1702766882;-0.24190979;-0.54507023;0.19279914;-0.779195;-0.03270397;-0.035541244;0.14274406;0
34;1702816883;-0.24238943;-0.54574573;0.1924139;-0.7786683;-0.06922487;0.036729436;0.11936283;0
36;1702850217;-0.24277289;-0.5457959;0.19217508;-0.7785726;-0.072869025;0.004725734;0.03818798;0
39;1702900218;-0.24324942;-0.5458499;0.19192761;-0.7784469;-0.031946037;0.02920532;0.10186958;0
42;1702950219;-0.24342689;-0.54583204;0.19163708;-0.77847564;-0.049297124;0.07062674;0.12303829;0
44;1702983553;-0.24350682;-0.545454;0.19145879;-0.77875936;-0.04679087;-0.003397174;0.10674858;0
47;1703033554;-0.2437647;-0.5446079;0.19146852;-0.7792682;-0.055937916;7.70E-04;0.10568619;0
51;1703100222;-0.24411982;-0.54367507;0.19175452;-0.77973795;0.045605138;0.034423232;0.095134735;0
54;1703150223;-0.2443646;-0.5429965;0.19193302;-0.78009033;0.03892669;0.011271752;0.09610653;0
57;1703200224;-0.24442354;-0.5422689;0.19186608;-0.7805942;0.026374752;-0.05974345;0.08921337;0
59;1703233558;-0.24455534;-0.5417472;0.1917162;-0.78095186;-0.020436684;-0.082669616;0.09857273;0
62;1703283559;-0.24479495;-0.54111487;0.19146456;-0.78137684;0.016375452;-0.0998752;0.12577152;0
65;1703333560;-0.24486808;-0.540504;0.19155832;-0.7817537;0.06848861;-0.059086096;0.120500565;0
67;1703366894;-0.24468687;-0.54007673;0.19160238;-0.78209484;0.006662698;-0.097883254;0.09190273;0
70;1703416895;-0.24426448;-0.539638;0.19159257;-0.782532;-0.041526023;0.028299646;-0.008511543;0
73;1703466896;-0.24397181;-0.53967285;0.19171718;-0.78256875;-0.077081636;0.029790925;0.04842758;0
75;1703500230;-0.24360494;-0.539931;0.19183554;-0.78247607;-0.020961715;-0.037991837;0.024686813;0
78;1703550231;-0.24279578;-0.54074496;0.19175048;-0.78218615;-0.07167569;-0.013191958;0.09087753;0
81;1703600232;-0.24236389;-0.5417256;0.19190373;-0.7816038;-0.09397066;0.009497289;0.10460663;0
84;1703650233;-0.24238537;-0.5426382;0.19227424;-0.7808727;-0.10033653;-0.02122859;0.12782383;0
86;1703683567;-0.24242847;-0.543215;0.19251382;-0.78039896;-0.07973042;-0.023721207;0.13895607;0
89;1703733568;-0.24247837;-0.5440079;0.19266878;-0.77979267;-0.04271355;-7.43E-04;0.08120918;0
92;1703783569;-0.24236454;-0.54511964;0.19265231;-0.7790555;-0.040835824;0.048256233;0.08976555;0
94;1703816903;-0.24231151;-0.5459308;0.19264969;-0.7785044;-0.047777236;0.07067659;0.08885479;0
97;1703866904;-0.2422091;-0.54742855;0.19292082;-0.77741665;0.027523162;-2.38E-04;-1.15E-04;0
100;1703916905;-0.24222215;-0.54951125;0.19336183;-0.77583194;0.010656651;0.006812898;0.029407501;0
104;1703983573;-0.24223049;-0.5527851;0.19366251;-0.77342504;-0.013689945;0.09814767;0.21347618;0
106;1704016907;-0.24235469;-0.55388033;0.19361943;-0.7726127;-0.012295447;0.11379782;0.12828636;0
109;1704066908;-0.24254207;-0.55511206;0.19346943;-0.7717072;-0.023189468;0.11911408;0.058875084;0
112;1704116909;-0.24277474;-0.55604696;0.1935368;-0.7709435;-0.032733474;0.098350614;0.027262688;0
115;1704166910;-0.24299344;-0.55688465;0.19382422;-0.77019745;0.011807072;0.039000105;0.16904831;0
117;1704200244;-0.2433873;-0.5568404;0.194188;-0.77001345;0.014123336;-0.013364064;0.19045067;0
120;1704250245;-0.24414678;-0.5565531;0.19474348;-0.76984036;0.052911773;0.05220279;0.078066826;0
123;1704300246;-0.24508172;-0.5558559;0.1956947;-0.76980585;0.051855005;0.040272564;0.06389809;0
125;1704333580;-0.24537604;-0.55567104;0.19589904;-0.7697936;0.0606299;0.02034102;0.06584358;0
128;1704383581;-0.24555252;-0.55559117;0.19603504;-0.7697604;-0.004091628;0.09173888;0.12557507;0
132;1704450249;-0.24575247;-0.5555157;0.195483;-0.7698914;-0.069384456;0.05756643;0.10373211;0
135;1704500250;-0.24596305;-0.5552122;0.19498983;-0.7701682;-0.039015975;0.07502145;0.153121;0
138;1704550251;-0.24617139;-0.55452394;0.19431408;-0.77076787;-0.05063999;0.09686671;0.09004021;0
140;1704583585;-0.24620727;-0.5539873;0.19385436;-0.77125806;-0.07090077;0.03797373;0.07009411;0
143;1704633586;-0.24634379;-0.5531394;0.19327638;-0.77196777;-0.05188697;0.023015575;0.12838936;0
146;1704683587;-0.24666172;-0.55230707;0.1928042;-0.7725799;-0.042331118;-0.009174089;0.10143185;0
148;1704716921;-0.2469534;-0.55179554;0.192385;-0.7729567;-0.041034296;0.00987659;0.0899353;0
151;1704766922;-0.24727826;-0.55120575;0.19158445;-0.7734722;-0.0909244;-0.0287612;0.034552574;0
154;1704816923;-0.24737313;-0.55076605;0.19059342;-0.7739998;-0.104186766;-0.07004672;0.09567547;0
156;1704850257;-0.24725959;-0.55053836;0.19000706;-0.7743421;-0.08804667;-0.06243432;0.08260918;0
160;1704916925;-0.24648036;-0.5502468;0.18910006;-0.7750196;-0.08018013;-0.03957118;0.09481239;0
163;1704966926;-0.24572943;-0.5502632;0.18851091;-0.7753898;-0.048009466;-0.050952684;0.07832146;0
166;1705016927;-0.24505822;-0.55048233;0.18804212;-0.7755606;-0.0479252;-0.002261728;0.08211613;0
169;1705066928;-0.24471548;-0.55097854;0.18802796;-0.7753198;-0.060699638;-0.10177953;0.09622669;0
171;1705100262;-0.24443857;-0.5518043;0.18806079;-0.77481174;-0.008617989;-0.05420033;0.12359619;0
174;1705150263;-0.24448554;-0.5526405;0.18891273;-0.77399325;-0.07355208;0.004482105;0.13006496;0
177;1705200264;-0.2446844;-0.5536756;0.1897181;-0.7729931;-0.1011224;0.015330977;0.15113449;0
179;1705233598;-0.24523321;-0.55396;0.19029056;-0.77247447;-0.037137125;0.10316375;0.1271267;0
182;1705283599;-0.24644913;-0.5538542;0.19129069;-0.7719161;-0.003286087;0.03894311;0.026017189;0
185;1705333600;-0.2477726;-0.55353695;0.19257638;-0.7714001;-0.003362529;0.07144033;0.11848068;0
187;1705366934;-0.24860108;-0.55299;0.1933007;-0.77134466;0.023888972;0.08785566;0.11468792;0
190;1705416935;-0.24954344;-0.55220914;0.19400318;-0.77142346;0.05735298;0.014259232;0.086340904;0
193;1705466936;-0.24998997;-0.5517847;0.19440632;-0.77148116;0.04319924;0.010264386;0.10196018;0
196;1705516937;-0.25025755;-0.55150294;0.19478388;-0.77150077;0.030408714;-0.028134245;0.1195097;0
198;1705550271;-0.25040737;-0.5513897;0.19502655;-0.7714716;0.009593846;-0.02074245;0.07721424;0
201;1705600272;-0.25049847;-0.5513884;0.19539209;-0.7713505;0.02364499;-0.011726831;0.11549091;0
204;1705650273;-0.25058633;-0.5514002;0.1955418;-0.7712756;0.03847038;-0.005641467;0.09158611;0
206;1705683607;-0.25061226;-0.5514297;0.1955223;-0.77125096;0.028339295;-0.007592727;0.084280014;0
209;1705733608;-0.25065148;-0.5516327;0.19549981;-0.7710988;-0.008517408;-5.04E-04;0.06388283;0
212;1705783609;-0.25065145;-0.5522462;0.19556992;-0.7706419;0.009315796;0.008286966;0.091516495;0
214;1705816943;-0.25074005;-0.5526069;0.19555001;-0.77035934;0.006723046;0.03031685;0.13779831;0
217;1705866944;-0.2508634;-0.5527034;0.19523399;-0.7703302;-0.004075759;0.049415585;0.12698555;0
220;1705916945;-0.25101185;-0.55232656;0.19461727;-0.77070796;0.02901064;-0.056068897;0.036011696;0
223;1705966946;-0.2513281;-0.55209076;0.19431889;-0.7708491;-0.07789784;0.13562252;0.00353241;0
225;1706000280;-0.25147;-0.5522421;0.19424766;-0.7707124;-0.035363216;0.062877126;0.1280775;0
228;1706050281;-0.25168836;-0.5525689;0.19427267;-0.7704006;-0.061819885;0.010933584;0.100889206;0
232;1706116949;-0.25161207;-0.5533624;0.19390096;-0.7699494;-0.07708492;-0.015791638;0.0701437;0
235;1706166950;-0.25195992;-0.55394197;0.19385597;-0.7694299;-0.09642327;0.008050042;0.106497765;0
237;1706200284;-0.2522216;-0.55431026;0.19398955;-0.76904535;-0.07769556;0.0694571;0.1446886;0
241;1706266952;-0.25266403;-0.5545465;0.19416843;-0.7686846;-0.06398662;0.027942697;0.12425709;0
244;1706316953;-0.2527337;-0.55464756;0.19440068;-0.7685301;-0.055682674;0.018094076;0.05014801;0
247;1706366954;-0.25271317;-0.55480915;0.19485591;-0.7683048;-0.054339353;0.03593686;0.13685894;0
250;1706416955;-0.2530899;-0.5542417;0.19561622;-0.7683971;-0.048797347;0.021291398;0.1134882;0
252;1706450289;-0.25348642;-0.5536669;0.19613947;-0.7685474;-0.02865302;0.017237095;0.07812595;0
255;1706500290;-0.25408018;-0.5528763;0.19688958;-0.7687286;-0.05328437;0.012945646;0.07468796;0
258;1706550291;-0.25463325;-0.5522204;0.19758904;-0.76883775;-0.054195635;0.04010627;0.09625435;0
260;1706583625;-0.25491536;-0.5518004;0.1980105;-0.7689374;-0.022544634;0.043530267;0.07775307;0
263;1706633626;-0.2552731;-0.55117935;0.19872631;-0.76907945;-0.02720727;0.046267312;0.08672142;0
266;1706683627;-0.25556546;-0.5508192;0.19950126;-0.7690398;-0.031423688;0.073623605;0.08065796;0
270;1706750295;-0.2561357;-0.55060685;0.20061879;-0.7687114;-0.086043544;0.108569406;0.025117874;0
273;1706800296;-0.25670302;-0.55086666;0.2016986;-0.768053;-0.018299676;0.04024306;0.018852234;0
275;1706833630;-0.25694543;-0.5511185;0.20244937;-0.7675936;0.035667975;-0.004170081;0.05147457;0
278;1706883631;-0.25700247;-0.5514662;0.2030552;-0.7671647;0.025938679;0.060214836;0.11249161;0
281;1706933632;-0.25713837;-0.55162716;0.20352684;-0.76687837;0.028725214;0.058823694;0.06365013;0
283;1706966966;-0.25727344;-0.55178267;0.20376253;-0.7666586;0.002941207;0.057108007;0.07984829;0
286;1707016967;-0.25743592;-0.5520154;0.20418341;-0.7663245;0.027274169;0.011457497;0.11929321;0
289;1707066968;-0.25756338;-0.5520909;0.20442995;-0.7661615;0.01113318;0.07808068;0.075761795;0
291;1707100302;-0.257627;-0.5521018;0.20446579;-0.7661226;0.022809051;0.033551753;0.08446503;0
294;1707150303;-0.25780112;-0.55201876;0.20443048;-0.76613337;-0.002363873;0.026813509;0.13070488;0
298;1707216971;-0.25827742;-0.55144536;0.20444556;-0.7663819;0.009598093;-0.006177675;0.08872414;0
301;1707266972;-0.25844556;-0.55101305;0.2044348;-0.7666389;-0.012426575;0.03427455;0.07631111;0
304;1707316973;-0.25850958;-0.5506941;0.20444961;-0.7668424;-0.01408154;-0.003833471;0.10001469;0
306;1707350307;-0.2585015;-0.5504668;0.20454039;-0.7669843;-0.016490338;-0.019978259;0.11873436;0
309;1707400308;-0.25846422;-0.5501298;0.20474665;-0.7671835;-0.001800844;0.009534169;0.07354832;0
312;1707450309;-0.25833067;-0.5498034;0.20489773;-0.7674221;-0.026993437;-0.022121524;0.12357044;0
314;1707483643;-0.25825587;-0.549554;0.20496763;-0.76760733;-0.017037274;-0.043933485;0.13439465;0
317;1707533644;-0.25815767;-0.54936886;0.20532629;-0.76767695;-0.017765258;-0.021298997;0.11203003;0
320;1707583645;-0.2580937;-0.5493721;0.20628549;-0.76743895;-0.031012125;-0.012978618;0.102023125;0
322;1707616979;-0.25788665;-0.5496564;0.2066152;-0.7672163;-0.034907136;0.002146395;0.08910084;0
325;1707666980;-0.2577622;-0.5500884;0.20686159;-0.76688194;-0.05317999;0.008764613;0.0908165;0
328;1707716981;-0.2578249;-0.55031234;0.20694152;-0.76667875;-0.042396385;0.026044847;0.095505714;0
331;1707766982;-0.2579497;-0.5503;0.20703341;-0.76662076;-0.032999452;0.021298774;0.11906338;0
333;1707800316;-0.2580878;-0.550094;0.2071395;-0.76669353;-0.020367172;0.015042199;0.08251381;0
336;1707850317;-0.25813878;-0.54976016;0.20707746;-0.76693237;0.012565452;0.015015153;0.0746851;0
339;1707900318;-0.25785536;-0.54955435;0.20665099;-0.76729023;-0.006315203;0.002367754;0.11365032;0
341;1707933652;-0.2576908;-0.5493072;0.20636354;-0.76759976;-0.014382165;-0.026781993;0.13157177;0
344;1707983653;-0.25758123;-0.5488658;0.2058757;-0.7680831;-0.021339228;-0.002226189;0.10685539;0
347;1708033654;-0.25756198;-0.54847753;0.20528556;-0.7685247;-0.024123752;0.029741975;0.08561802;0
349;1708066988;-0.25759512;-0.5482911;0.20482114;-0.76877064;-0.0372909;-0.001470045;0.07723045;0
352;1708116989;-0.257695;-0.5482099;0.20412175;-0.7689811;-0.056536708;0.007553173;0.10513592;0
355;1708166990;-0.25779966;-0.5481114;0.20338176;-0.7692123;-0.027916098;0.013423964;0.0721674;0
358;1708216991;-0.2578506;-0.5479654;0.202762;-0.7694628;-0.033581924;0.019510392;0.08565712;0
360;1708250325;-0.2579983;-0.5478312;0.20251337;-0.7695742;-0.019956801;-0.050825953;0.12395954;0
363;1708300326;-0.2582388;-0.54787517;0.20233119;-0.76951027;-0.026050659;0.022169355;0.087833405;0
366;1708350327;-0.25841835;-0.5478562;0.20236331;-0.7694551;-0.010571268;0.029593786;0.09303379;0
368;1708383661;-0.25826555;-0.548145;0.20203443;-0.7693871;-0.011954591;0.011516952;0.072509766;0
371;1708433662;-0.2580809;-0.54852355;0.20139271;-0.7693474;-0.002593197;0.012317799;0.07829952;0
374;1708483663;-0.25799406;-0.5487134;0.20089711;-0.7693706;-0.023450756;0.017423281;0.08726025;0
378;1708550331;-0.25817895;-0.5486584;0.20065697;-0.7694105;-0.03464406;0.011575513;0.08907604;0
381;1708600332;-0.2585166;-0.5484358;0.20052868;-0.7694894;0.01196733;0.00905831;0.08416748;0
383;1708633666;-0.2586295;-0.5483595;0.20040506;-0.7695379;0.002229989;-0.004569499;0.056473732;0
386;1708683667;-0.25863445;-0.5483196;0.20031801;-0.76958746;0.002166735;0.021549555;0.104782104;0
389;1708733668;-0.2586388;-0.5481502;0.20031051;-0.7697085;-0.007800155;9.43E-05;0.09397411;0
391;1708767002;-0.25861228;-0.5480793;0.2003335;-0.769762;-0.029975547;-0.014211177;0.0990963;0
394;1708817003;-0.25868875;-0.5479797;0.20050512;-0.7697625;-0.048711073;-0.002411928;0.115550995;0
397;1708867004;-0.25878537;-0.5479916;0.20077024;-0.76965255;-0.029609656;-0.001291458;0.08318424;0
399;1708900338;-0.2587464;-0.54817235;0.20097637;-0.7694831;-0.008258804;0.02749701;0.07411003;0
402;1708950339;-0.25853437;-0.5486307;0.20116444;-0.76917845;-0.028537016;0.028354183;0.08848953;0
406;1709017007;-0.25829536;-0.5492214;0.2012751;-0.7688081;-0.040777255;0.011420171;0.12248421;0
409;1709067008;-0.25856584;-0.54936;0.20155326;-0.7685453;-0.0738831;0.015033258;0.10674286;0
412;1709117009;-0.2589829;-0.54962075;0.2021793;-0.76805377;0.028902683;0.035235252;0.04126358;0
414;1709150343;-0.25924587;-0.5498146;0.20265236;-0.7677017;-0.009960184;0.06451277;0.0779438;0
417;1709200344;-0.25944442;-0.55030316;0.20288472;-0.76722306;-0.018364942;0.042857043;0.15578842;0
420;1709250345;-0.259803;-0.55044925;0.20274107;-0.76703477;-0.005731096;0.08436988;0.07642841;0
422;1709283679;-0.26006138;-0.55048615;0.20265318;-0.76694405;-0.038125053;0.048342053;0.068595886;0
425;1709333680;-0.2605052;-0.5504476;0.20279786;-0.7667829;-0.032704417;0.030889044;0.1326685;0
428;1709383681;-0.26101893;-0.5501319;0.20271358;-0.7668568;-0.020636505;0.067173466;0.063591;0
432;1709450349;-0.26166096;-0.5499978;0.20258981;-0.766767;-0.017385509;0.03213781;0.12576008;0
436;1709517017;-0.2624373;-0.54938424;0.2025349;-0.76695615;0.016396016;0.06878947;0.072071075;0
439;1709567018;-0.26280895;-0.54907066;0.20234089;-0.7671045;-0.025454996;0.035737485;0.044661522;0
441;1709600352;-0.26295707;-0.5490855;0.20232709;-0.76704675;-0.0556174;0.006715223;0.075733185;0
444;1709650353;-0.26316413;-0.5493269;0.20239307;-0.7667855;-0.06196025;0.03509891;0.06725693;0
447;1709700354;-0.26333663;-0.5496768;0.2024672;-0.7664558;-0.031243535;-0.007925546;0.10486698;0
449;1709733688;-0.26337183;-0.5498759;0.20246008;-0.76630276;-0.04216013;0.037527155;0.09630203;0
452;1709783689;-0.26326984;-0.5501978;0.20241679;-0.7661182;-0.042446006;0.02509894;0.08653355;0
455;1709833690;-0.26318723;-0.55033666;0.2023728;-0.7660585;-0.059801787;0.11170172;0.020251274;0
457;1709867024;-0.26323867;-0.5503081;0.20259373;-0.7660029;0.014904961;0.003020107;0.056916237;0
460;1709917025;-0.26298183;-0.55048245;0.20272091;-0.76593214;0.007490813;0.01589289;0.080480576;0
463;1709967026;-0.26249802;-0.550719;0.20255484;-0.765972;-0.048466995;0.027332729;0.12512302;0
466;1710017027;-0.26224253;-0.5506564;0.20242952;-0.76613766;-0.05799379;0.019309284;0.04734993;0
468;1710050361;-0.26217368;-0.5505762;0.20245549;-0.7662121;-0.0505897;0.013217439;0.08971405;0
471;1710100362;-0.26226664;-0.55033463;0.20264356;-0.7663041;-0.021814417;0.003521447;0.10274887;0
474;1710150363;-0.26243237;-0.5500678;0.20275213;-0.76641023;0.01795122;0.00833748;0.07891655;0
476;1710183697;-0.26242703;-0.5500199;0.20281507;-0.76642966;0.022246692;-0.003533963;0.08007336;0
479;1710233698;-0.26235628;-0.54989564;0.2029057;-0.766519;0.010861165;0.004394488;0.105493546;0
482;1710283699;-0.2622654;-0.5497799;0.20308779;-0.766585;0.011048022;-0.010511144;0.11276531;0
484;1710317033;-0.26209855;-0.5497862;0.20311467;-0.7666305;-0.009012713;0.001210323;0.09349346;0
487;1710367034;-0.26182026;-0.5499308;0.20294231;-0.7666675;-0.014637863;0.016588237;0.09857178;0
490;1710417035;-0.26167047;-0.5500952;0.20280254;-0.7666375;-0.028938223;0.018802132;0.09943676;0
493;1710467036;-0.2616692;-0.5501494;0.20264882;-0.7666398;-0.005181477;0.026422808;0.11165905;0
495;1710500370;-0.26173806;-0.55005014;0.20261231;-0.76669717;-0.025126433;-0.002143713;0.08643341;0
498;1710550371;-0.26188314;-0.5499054;0.20261954;-0.76674944;7.03E-04;0.010141454;0.08806896;0
501;1710600372;-0.2622238;-0.54961884;0.20282336;-0.76678485;-0.026815744;-0.0298021;0.13056755;0
503;1710633706;-0.26236665;-0.5496046;0.20294373;-0.76671416;2.48E-04;-0.013195087;0.16898823;0
506;1710683707;-0.2625734;-0.54940516;0.20347396;-0.7666458;-0.007159567;0.05389948;0.08523464;0
509;1710733708;-0.2623756;-0.5496453;0.20339806;-0.76656157;-0.011352447;0.031660385;0.12539387;0
511;1710767042;-0.26222688;-0.54975575;0.20312677;-0.7666052;-0.005781386;0.031981353;0.08984852;0
515;1710833710;-0.26195025;-0.5497745;0.20260197;-0.76682514;-0.01779476;0.040809218;0.11375141;0
518;1710883711;-0.26177484;-0.549554;0.20237157;-0.76710397;-0.044923868;0.00674048;0.12589455;0
521;1710933712;-0.26162273;-0.5492605;0.20204194;-0.7674527;0.007844187;0.025846368;0.045363426;0
524;1710983713;-0.26126388;-0.54925394;0.201678;-0.76767546;-0.007917946;-0.004855149;0.10346508;0
526;1711017047;-0.26091838;-0.54925406;0.20146656;-0.7678484;-0.01978559;0.014759902;0.13192081;0
529;1711067048;-0.26038295;-0.54917246;0.20118745;-0.7681617;-0.033257626;-0.00458554;0.08659744;0
532;1711117049;-0.25992733;-0.54921;0.20101325;-0.7683345;-0.04479468;0.006008922;0.09074497;0
534;1711150383;-0.25969538;-0.54923093;0.20092663;-0.76842076;-0.05666031;0.009749412;0.10398579;0
537;1711200384;-0.25954998;-0.5492112;0.20092665;-0.76848394;-0.045064233;0.022175837;0.0811882;0
540;1711250385;-0.25957093;-0.5492436;0.20111519;-0.7684045;-0.036590636;0.003140357;0.0765686;0
544;1711317053;-0.25964653;-0.5493777;0.20128037;-0.7682399;-0.049487557;0.009762152;0.11559963;0
547;1711367054;-0.25961733;-0.54936117;0.20139521;-0.76823133;-0.042766746;0.040275246;0.0849638;0
549;1711400388;-0.25950524;-0.54935837;0.20143625;-0.76826036;-0.046430793;0.023111686;0.0953207;0
552;1711450389;-0.25941256;-0.54925185;0.20160024;-0.7683249;-0.02752942;-0.03567334;0.13759327;0
555;1711500390;-0.25932014;-0.54916334;0.2019043;-0.7683395;-0.005662924;-0.009877037;0.09684944;0
557;1711533724;-0.2593019;-0.5490164;0.20229577;-0.76834774;-0.029269468;0.04392499;0.083714485;0
560;1711583725;-0.25897098;-0.54928935;0.20249932;-0.76821065;-0.009328984;0.047283497;0.11280823;0
563;1711633726;-0.2587019;-0.54939044;0.20245796;-0.76823986;-0.002112868;0.035692338;0.081394196;0
565;1711667060;-0.25862247;-0.54934734;0.20241666;-0.7683083;-0.022831177;0.033195697;0.05657673;0
568;1711717061;-0.25875917;-0.5491946;0.20255339;-0.76833546;-0.021751834;0.011080431;0.12942696;0
572;1711783729;-0.2591756;-0.5487324;0.20258404;-0.7685173;0.032939326;0.05635164;0.05259037;0
575;1711833730;-0.25935876;-0.54854304;0.2025042;-0.76861167;0.005714556;-0.025375202;0.08479595;0
578;1711883731;-0.25942284;-0.5483363;0.20238343;-0.76876926;0.010642793;1.10E-05;0.12501812;0
580;1711917065;-0.25954086;-0.5480989;0.20239489;-0.7688957;0.020266367;-0.037157018;0.09190178;0
583;1711967066;-0.259612;-0.547832;0.20239533;-0.7690618;-0.001503348;0.015598523;0.08968544;0
586;1712017067;-0.25961483;-0.54755706;0.20225383;-0.76929396;0.010664057;-0.004420374;0.1169405;0
588;1712050401;-0.25956303;-0.5474007;0.20205769;-0.7694741;0.023834975;-0.002073977;0.08763313;0
591;1712100402;-0.25941616;-0.5473307;0.20172098;-0.7696618;-0.023620626;0.017779337;0.07659626;0
594;1712150403;-0.25906435;-0.54750466;0.20131141;-0.7697638;-0.026906714;0.025282891;0.08020401;0
596;1712183737;-0.25877535;-0.54765093;0.20096916;-0.7698465;-0.056395672;-0.010871447;0.10198879;0
599;1712233738;-0.25845325;-0.5478058;0.20048365;-0.76997095;-0.07688153;-0.004894263;0.09624004;0
602;1712283739;-0.25840893;-0.54788375;0.20034607;-0.7699663;-0.045229413;0.04237448;0.07606506;0
605;1712333740;-0.25844604;-0.54824275;0.20042768;-0.7696769;-0.061292514;-0.028408356;0.07427502;0
607;1712367074;-0.25869113;-0.5484601;0.20070466;-0.7693676;-0.04947817;-0.008404087;0.08529949;0
610;1712417075;-0.25896037;-0.54912215;0.2012208;-0.7686694;-2.93E-04;-0.013459279;0.07044792;0
613;1712467076;-0.25894535;-0.5498985;0.20167121;-0.76800126;-0.006400741;-0.025413647;0.074952126;0
615;1712500410;-0.2587912;-0.55053085;0.2016306;-0.76761067;-0.030328473;0.025319548;0.15267086;0
618;1712550411;-0.25860617;-0.5511856;0.20122468;-0.7673096;-0.058489095;0.05262188;0.07009792;0
621;1712600412;-0.25849214;-0.5516597;0.20090748;-0.76709044;-0.060993556;0.038792014;0.116371155;0
624;1712650413;-0.25850883;-0.55180585;0.20083581;-0.7669985;-0.059974536;0.022267036;0.13437653;0
626;1712683747;-0.25861686;-0.55171424;0.20080195;-0.7670369;-0.036957644;-0.014727715;0.13174725;0
629;1712733748;-0.25892425;-0.55159575;0.20085368;-0.76700485;0.004676562;-0.0344876;0.08197212;0
632;1712783749;-0.2590469;-0.5514736;0.20092678;-0.7670321;-0.006111738;0.006906103;0.1341734;0
634;1712817083;-0.25912368;-0.5512245;0.20111406;-0.7671361;-0.013744258;0.003023013;0.10927868;0
637;1712867084;-0.25924036;-0.550867;0.2015553;-0.76723784;-0.027522491;0.01570335;0.06868839;0
640;1712917085;-0.2593838;-0.55051494;0.20209205;-0.7673008;-0.002947018;0.055989996;0.09769249;0
642;1712950419;-0.25947225;-0.5502111;0.20243724;-0.76739776;0.013106353;0.012081769;0.11706638;0
645;1713000420;-0.25956485;-0.549782;0.20298676;-0.76752883;0.001966467;0.008289648;0.065838814;0
648;1713050421;-0.25965565;-0.5497367;0.20350301;-0.76739395;0.025854414;0.068349816;0.06968403;0
652;1713117089;-0.25957632;-0.54978377;0.20393012;-0.7672734;0.002223283;0.023119062;0.10361576;0
655;1713167090;-0.25935715;-0.5497966;0.20420924;-0.76726425;-0.007239361;0.04068271;0.0976429;0
657;1713200424;-0.25931036;-0.5497797;0.20439278;-0.7672432;-0.003872362;-0.019882595;0.107917786;0
660;1713250425;-0.25929242;-0.5498782;0.20478748;-0.7670735;0.02640001;-0.032153904;0.16268063;0
663;1713300426;-0.2594454;-0.54982084;0.20557365;-0.7668526;-0.01130305;0.04987401;0.09709072;0
665;1713333760;-0.25937608;-0.54997516;0.20573513;-0.766722;4.94E-05;0.01523576;0.09891319;0
668;1713383761;-0.259329;-0.55012745;0.20579958;-0.76661146;-0.030489849;0.04129715;0.10632324;0
671;1713433762;-0.25941926;-0.55012363;0.20579427;-0.7665851;-0.012103674;0.055944175;0.07289696;0
673;1713467096;-0.25951418;-0.55003643;0.20581926;-0.76660883;-0.012829644;0.024120847;0.12761593;0
676;1713517097;-0.25968972;-0.5497565;0.20571715;-0.7667776;-0.031422794;0.06662854;0.07317734;0
680;1713583765;-0.25982386;-0.54946214;0.20536734;-0.76703686;0.010385082;-0.008769754;0.06854057;0
683;1713633766;-0.2599065;-0.5493103;0.20508198;-0.7671938;-0.035233464;0.02043713;0.13376045;0
686;1713683767;-0.26016438;-0.54896945;0.2048925;-0.7674011;-0.019565877;-0.0091799;0.064787865;0
688;1713717101;-0.26030684;-0.54883873;0.2047976;-0.7674716;-0.05418647;0.002308889;0.07399368;0
691;1713767102;-0.26049063;-0.5487463;0.20460157;-0.76752764;-0.011765499;0.04381882;0.104849815;0
694;1713817103;-0.2605316;-0.5486661;0.20425886;-0.7676623;0.011326742;0.023235513;0.085430145;0
696;1713850437;-0.26048887;-0.54867554;0.20405598;-0.76772404;-0.003987024;0.001221051;0.07647514;0
699;1713900438;-0.26043198;-0.54874927;0.20379505;-0.76775986;-0.013131163;0.017081754;0.1051178;0
702;1713950439;-0.26040855;-0.5486184;0.2035287;-0.76793206;-0.003221939;0.010346862;0.09741783;0
704;1713983773;-0.26047188;-0.54839706;0.20347336;-0.76808333;-0.003740713;-0.008346644;0.07952595;0
709;1714067108;-0.260679;-0.5478101;0.20349944;-0.768425;0.012824726;-0.0190813;0.12335968;0
711;1714100442;-0.26081228;-0.54749274;0.20359798;-0.7685797;-0.037946243;0.081665374;-0.025012016;0
714;1714150443;-0.26094925;-0.5472715;0.20398419;-0.7685883;0.00101609;-0.032001022;0.072092056;0
717;1714200444;-0.26090264;-0.54729617;0.20425661;-0.7685144;-0.00753261;0.019313978;0.056965828;0
719;1714233778;-0.2607506;-0.54748595;0.20422928;-0.76843786;-0.0275861;0.019228559;0.14647293;0
722;1714283779;-0.26060918;-0.5476507;0.20418146;-0.76838136;-0.0335712;0.024181644;0.038446426;0
725;1714333780;-0.26051784;-0.5478796;0.20431598;-0.76821333;-0.025756292;0.004999314;0.1088562;0
727;1714367114;-0.26050997;-0.5479709;0.20441318;-0.7681251;-0.018380588;-0.008861842;0.11838436;0
730;1714417115;-0.26062512;-0.54791224;0.20449786;-0.76810515;-0.01662847;-0.009748741;0.06330776;0
733;1714467116;-0.2607016;-0.54808545;0.20457654;-0.7679348;-0.012692854;-0.014828967;0.059966087;0
736;1714517117;-0.26067984;-0.5483237;0.20467801;-0.76774496;-0.013814889;0.03609131;0.13975048;0
738;1714550451;-0.26075563;-0.5482503;0.20481387;-0.7677354;-0.001081291;0.018105697;0.11970806;0
741;1714600452;-0.2608291;-0.548224;0.20497428;-0.7676863;-0.010591385;0.047279473;0.0766449;0
744;1714650453;-0.2609073;-0.54831225;0.20505042;-0.7675766;-0.009548026;0.015324496;0.1102705;0
746;1714683787;-0.2610035;-0.54838145;0.20507932;-0.7674867;-0.019718314;0.04635279;0.07733345;0
749;1714733788;-0.2612126;-0.5485119;0.20519045;-0.7672925;-0.022375435;0.036188312;0.09576893;0
752;1714783789;-0.2614704;-0.54866624;0.20528583;-0.76706886;-0.015217656;0.0364496;0.09072399;0
754;1714817123;-0.26167583;-0.5487901;0.20538625;-0.76688325;-0.020475576;0.02089578;0.08074474;0
757;1714867124;-0.26186875;-0.5490384;0.20546053;-0.7666196;-0.014194009;0.030902611;0.09990597;0
760;1714917125;-0.26193243;-0.54923785;0.20542698;-0.7664641;-0.007833906;0.004910803;0.08775425;0
763;1714967126;-0.2620329;-0.5493686;0.20533663;-0.7663601;-0.03268944;0.03885147;0.09709072;0
765;1715000460;-0.2621511;-0.54946387;0.20532583;-0.7662543;-0.03023661;0.02364253;0.084840775;0
768;1715050461;-0.26245803;-0.54961455;0.20555186;-0.76598066;0.016995478;-0.0017586;0.14994049;0
771;1715100462;-0.2628601;-0.54958713;0.20595767;-0.7657534;0.005727966;0.08122818;0.107483864;0
773;1715133796;-0.2629389;-0.5497271;0.20597742;-0.76562047;-0.008831444;-0.013733754;0.069680214;0
776;1715183797;-0.26305825;-0.54986024;0.20576477;-0.76554114;-0.019651197;0.02703808;0.13492203;0
779;1715233798;-0.26327205;-0.54970646;0.20530751;-0.76570094;-0.0266946;0.05719853;0.067474365;0
781;1715267132;-0.2633581;-0.54953694;0.20497496;-0.76588196;-0.012911673;0.020197302;0.11470127;0
784;1715317133;-0.2634151;-0.54920566;0.20455262;-0.7662128;0.002769549;0.05335053;0.088012695;0
788;1715383801;-0.26322556;-0.5489304;0.20409073;-0.76659834;0.009565461;0.008609495;0.05905533;0
791;1715433802;-0.2628495;-0.548987;0.20390135;-0.7667372;-0.02107526;0.031150106;0.12271404;0
794;1715483803;-0.26259106;-0.54886633;0.20405488;-0.7668713;-0.022375658;0.00894253;0.09009552;0
796;1715517137;-0.2623139;-0.5488498;0.20421138;-0.76693636;-0.008371455;0.028980466;0.069366455;0
799;1715567138;-0.26173276;-0.54883206;0.2043323;-0.7671155;-0.022595372;0.031326234;0.10394859;0
802;1715617139;-0.2612707;-0.54887515;0.20455395;-0.76718295;-0.03998155;0.044772103;0.056894302;0
804;1715650473;-0.2610859;-0.5489732;0.2047759;-0.7671164;-0.057159193;0.03852626;0.08559227;0
807;1715700474;-0.26091295;-0.54913896;0.20519637;-0.7669443;-0.02199971;0.03233741;0.09012127;0
810;1715750475;-0.2608579;-0.5491967;0.205648;-0.76680076;-0.011110829;0.038688082;0.1001091;0
812;1715783809;-0.2608858;-0.54906505;0.20594898;-0.76680464;-0.019778661;0.03337093;0.1037817;0
817;1715867144;-0.26113528;-0.54856735;0.20643279;-0.76694584;-0.022347718;0.05214982;0.09905243;0
819;1715900478;-0.26145306;-0.5481196;0.20662698;-0.76710546;-0.07493719;0.11603809;0.023161888;0
822;1715950479;-0.26198265;-0.5476344;0.20711109;-0.76714075;-0.012995937;-0.001883991;0.060302734;0
825;1716000480;-0.26222998;-0.54740375;0.20729138;-0.7671722;0.007719914;-0.008409899;0.07510471;0
827;1716033814;-0.2622776;-0.5472567;0.20716813;-0.7672941;-0.016759224;0.03802581;0.13177872;0
830;1716083815;-0.26249897;-0.5468724;0.20686781;-0.76757336;-0.04444533;0.00746578;0.042585373;0
833;1716133816;-0.26270902;-0.5465237;0.20662363;-0.76781565;-0.02309823;0.03745316;0.124708176;0
835;1716167150;-0.26287073;-0.546186;0.20646372;-0.76804346;-0.012917037;0.004689302;0.14495087;0
838;1716217151;-0.26309094;-0.54552996;0.20608929;-0.7685348;0.016671607;0.02866576;0.051404;0
841;1716267152;-0.26299608;-0.5451456;0.20551677;-0.7689929;0.024662197;-0.04573634;0.09000301;0
845;1716333820;-0.26275033;-0.5444687;0.20492887;-0.7697134;-0.008645928;-0.007031941;0.10862255;0
848;1716383821;-0.2625632;-0.5439197;0.20455855;-0.7702637;0.02190114;-0.009791208;0.08205509;0
850;1716417155;-0.26235855;-0.54364306;0.20429133;-0.7705995;-0.01585355;-0.018842142;0.08042717;0
853;1716467156;-0.2620898;-0.5432677;0.20385735;-0.7710705;-0.003385551;0.022124877;0.09615803;0
856;1716517157;-0.2618604;-0.54294896;0.20352323;-0.771461;-0.002224401;0.004620013;0.086610794;0
858;1716550491;-0.26171008;-0.54273397;0.20331378;-0.7717186;-0.007658895;0.04269209;0.09444237;0
861;1716600492;-0.2615204;-0.54240847;0.20301794;-0.7720894;-0.003892925;-0.006961088;0.104824066;0
864;1716650493;-0.26133507;-0.54207385;0.2027784;-0.77245003;-0.013991911;0.018752737;0.08227444;0
866;1716683827;-0.26121247;-0.5419301;0.2026623;-0.77262294;-0.015012471;3.86E-04;0.081624985;0
869;1716733828;-0.2610409;-0.5417844;0.20248666;-0.772829;-0.006208296;-0.0178826;0.09578514;0
872;1716783829;-0.26105875;-0.54148865;0.20243299;-0.77304435;-0.001400532;0.08856299;0.017516136;0
875;1716833830;-0.2611317;-0.54137814;0.20279999;-0.773001;-0.002696907;0.018491898;0.052022934;0
877;1716867164;-0.26090577;-0.5415815;0.20286192;-0.77291864;0.021225238;0.006154429;0.050806046;0
880;1716917165;-0.26053128;-0.54208076;0.20254324;-0.7727784;-0.001726191;-0.008974046;0.13415241;0
883;1716967166;-0.26036787;-0.5424439;0.20216517;-0.7726777;8.89E-04;0.03526744;0.082920074;0
885;1717000500;-0.26031953;-0.5425709;0.20203902;-0.77263767;0.001427354;0.02131509;0.12669086;0
888;1717050501;-0.26033983;-0.5425962;0.20193498;-0.7726403;-0.033226766;-0.00713431;0.12213516;0
891;1717100502;-0.26047945;-0.54255897;0.20174614;-0.7726688;0.015035493;0.031926144;0.07199669;0
893;1717133836;-0.26046628;-0.54264283;0.20158817;-0.77265555;-0.007896042;0.008193314;0.051566124;0
896;1717183837;-0.26032847;-0.54272133;0.20135684;-0.7727072;-0.015937144;0.031345457;0.10369587;0
899;1717233838;-0.26019907;-0.5425604;0.20118727;-0.772908;-0.005538651;0.025616819;0.101026535;0
902;1717283839;-0.2600677;-0.5423668;0.20104787;-0.77312434;-0.051219337;0.014746267;0.0980711;0
904;1717317173;-0.2599891;-0.54230815;0.20090626;-0.7732286;-0.015488777;0.026787804;0.1014595;0
907;1717367174;-0.259852;-0.54234374;0.2007057;-0.7733018;-0.054834656;0.012790529;0.110933304;0
910;1717417175;-0.25975597;-0.54235816;0.20063654;-0.7733419;-0.037558224;0.03585282;0.08743477;0
912;1717450509;-0.25974393;-0.5423655;0.20059137;-0.7733525;-0.032024264;0.0083909;0.09554863;0
915;1717500510;-0.2596894;-0.5423561;0.20054975;-0.7733883;-0.008811775;0.021699755;0.11172867;0
918;1717550511;-0.2596476;-0.54235214;0.20051828;-0.77341306;-0.002704507;8.72E-06;0.08116627;0
921;1717600512;-0.2595887;-0.5423904;0.20054913;-0.77339816;0.006634759;0.013831429;0.10942459;0
925;1717667180;-0.25970012;-0.5425378;0.20070708;-0.7732165;0.034767218;0.016982738;0.09154129;0
927;1717700514;-0.25979424;-0.5426685;0.20098749;-0.7730202;0.03106249;0.001464457;0.045041084;0
930;1717750515;-0.25977224;-0.54322124;0.20126325;-0.7725674;-0.02536738;-0.003349565;0.08390808;0
933;1717800516;-0.25983042;-0.54388356;0.20121953;-0.7720932;-0.009304398;0.032266777;0.12587738;0
935;1717833850;-0.25993356;-0.54419726;0.20108567;-0.7718723;-0.015344835;0.033158593;0.07220936;0
938;1717883851;-0.25996777;-0.54458135;0.20102598;-0.7716054;-0.01124896;0.049150277;0.1491785;0
941;1717933852;-0.25994146;-0.5447327;0.20092048;-0.7715348;-0.035176467;0.058932096;0.06426239;0
943;1717967186;-0.2598806;-0.54469657;0.20075768;-0.77162325;-0.003337719;0.071787894;0.06516743;0
946;1718017187;-0.25968483;-0.5447595;0.20044418;-0.771726;-0.017098071;-0.012414133;0.07862282;0
949;1718067188;-0.25958928;-0.544623;0.20039782;-0.7718668;-0.004345986;0.037221614;0.12938595;0
953;1718133856;-0.25950772;-0.5443988;0.20041643;-0.77204746;-0.016275767;0.028818643;0.054642677;0
956;1718183857;-0.25945222;-0.54439497;0.20048098;-0.77205193;-0.03486668;0.023034798;0.09424782;0
958;1718217191;-0.2594607;-0.54439247;0.20054317;-0.77203476;-0.0408195;0.022534799;0.08962345;0
961;1718267192;-0.25948915;-0.5443616;0.20070826;-0.772004;-0.0305312;0.003925558;0.10834503;0
964;1718317193;-0.25963184;-0.5442354;0.20089427;-0.7719966;-0.019954566;-0.019727701;0.09982872;0
966;1718350527;-0.25985634;-0.5440568;0.20112456;-0.7719871;-0.004636945;-0.036605872;0.1408186;0
969;1718400528;-0.26014936;-0.5437664;0.20146152;-0.7720051;0.003306427;-0.026293617;0.100173;0
972;1718450529;-0.26060337;-0.54349434;0.20184475;-0.7719434;0.029307242;-0.02163136;0.13023281;0
974;1718483863;-0.26079172;-0.5434595;0.20188464;-0.771894;0.07476151;-0.00957753;0.11644745;0
977;1718533864;-0.26107612;-0.5435305;0.20196626;-0.77172667;0.0261347;-0.014477158;0.07889366;0
981;1718600532;-0.2608232;-0.5443259;0.2008602;-0.77154005;-0.004994397;0.051800244;0.15422916;0
984;1718650533;-0.260495;-0.5451288;0.20008205;-0.7712863;0.01684483;0.033205085;0.011025429;0
987;1718700534;-0.26036352;-0.5462411;0.20000519;-0.7705633;-0.045370895;-0.04860401;0.16874409;0
989;1718733868;-0.26046237;-0.5469795;0.2003482;-0.76991665;-0.032175586;-0.039401535;0.1924839;0
992;1718783869;-0.26096135;-0.54819626;0.20083126;-0.7687556;-0.015879925;0.06605121;0.13046455;0
995;1718833870;-0.2614336;-0.5499897;0.20129971;-0.76719004;-0.045886762;0.053359695;0.14094448;0
997;1718867204;-0.26183194;-0.55129576;0.2014981;-0.76606375;0.068941005;0.1006376;0.23646832;0
1000;1718917205;-0.26236784;-0.552825;0.20227052;-0.7645736;0.012553382;0.026992766;0.15708923;0
1003;1718967206;-0.26249886;-0.55353135;0.20353477;-0.76368153;0.099187;-0.06941128;0.21587467;0
1006;1719017207;-0.26243922;-0.55375373;0.20444185;-0.7632983;-0.06449511;0.045012157;0.24727345;0
1008;1719050541;-0.26234388;-0.5537497;0.2046145;-0.76328766;-0.04548712;-0.022313299;0.2193203;0
1011;1719100542;-0.26218936;-0.553287;0.20394404;-0.7638557;-0.009387991;-0.065036684;0.14557457;0
1014;1719150543;-0.262285;-0.55181706;0.20272745;-0.76520866;0.020448083;-0.023072349;0.14297485;0
1016;1719183877;-0.2627002;-0.5499049;0.2017637;-0.76669616;0.008107709;0.0198256;0.14332104;0
1019;1719233878;-0.26363158;-0.5455649;0.19992852;-0.7699507;-0.014614618;0.08143225;0.042769432;0
1022;1719283879;-0.2641306;-0.54061276;0.1976837;-0.7738427;-0.005828994;-0.094509326;0.05444622;0
1024;1719317213;-0.26451147;-0.536914;0.19689053;-0.7764853;-0.07181539;-0.066859655;0.06337166;0
1027;1719367214;-0.26512098;-0.53168887;0.1954761;-0.7802212;-0.11398133;-0.05130293;0.14795017;0
1030;1719417215;-0.2659757;-0.5264294;0.19319697;-0.78405493;-0.026396656;0.01355919;0.10374832;0
1033;1719467216;-0.2665872;-0.5216374;0.19020852;-0.78777206;0.024016915;-0.03706493;-0.003479958;0
1035;1719500550;-0.26694447;-0.5192007;0.18839677;-0.78969383;-0.03365703;-0.09636538;0.03895092;0
1038;1719550551;-0.2673148;-0.5161116;0.18600518;-0.7921566;-0.016098967;0.056517933;0.077282906;0
1041;1719600552;-0.26755697;-0.5138868;0.18427552;-0.79392356;-0.050999846;0.04990575;-0.01167202;0
1043;1719633886;-0.26757485;-0.5129401;0.18335167;-0.7947432;-0.06481965;0.109865785;0.042928696;0
1046;1719683887;-0.26728052;-0.51186514;0.18233962;-0.7957674;-0.04254569;0.047309197;0.04180336;0
1049;1719733888;-0.26695275;-0.5109719;0.18199621;-0.79652965;-0.059234064;0.1180401;0.11598015;0
1051;1719767222;-0.26685786;-0.51005036;0.18211752;-0.7971244;-0.08900398;0.12378661;0.171134;0
1054;1719817223;-0.26722106;-0.50791013;0.18284434;-0.7982021;-0.14297833;0.1494354;0.1135273;0
1057;1719867224;-0.26803273;-0.50510216;0.18366355;-0.79952246;-0.11238768;0.16479588;0.06368542;0
1061;1719933892;-0.26943514;-0.500876;0.18464367;-0.8014818;0.032302164;-0.015061634;-0.017410278;0
1064;1719983893;-0.27000454;-0.49856007;0.18442647;-0.802783;0.060961593;0.05431186;0.036852837;0
1066;1720017227;-0.27036393;-0.49729848;0.18465227;-0.8033924;0.06453154;-0.07923132;0.056965828;0
1069;1720067228;-0.2708423;-0.49615967;0.18486576;-0.8038863;0.066925146;0.024337431;0.06974602;0
1072;1720117229;-0.27145123;-0.49507767;0.1846584;-0.8043953;-0.029182075;-0.06676466;0.032813072;0
1074;1720150563;-0.27215308;-0.49445337;0.18476631;-0.8045175;-0.003993283;-0.034521352;-0.064707756;0
1077;1720200564;-0.27338633;-0.49422354;0.18489979;-0.8042097;0.014775547;-1.64E-04;0.1350069;0
1080;1720250565;-0.27455792;-0.4943051;0.18498738;-0.80374026;0.021788076;0.03094977;0.111296654;0
1083;1720300566;-0.2759842;-0.49464896;0.18513723;-0.80300546;0.0426418;0.027042385;0.11951065;0
1085;1720333900;-0.2768951;-0.49463433;0.18519412;-0.80268776;-0.001503572;0.06598773;0.16137314;0
1089;1720400568;-0.27847177;-0.49385807;0.1849472;-0.80267715;-0.067722194;0.11469344;0.009010315;0
1092;1720450569;-0.27963215;-0.49277753;0.18518145;-0.80288386;-0.021289833;0.036418308;0.047655106;0
1095;1720500570;-0.28040987;-0.4915523;0.1854091;-0.80331093;0.038956966;0.12788942;0.0994997;0
1097;1720533904;-0.28054112;-0.4908018;0.1854182;-0.8037218;-0.029232813;0.06791665;0.09002304;0
1100;1720583905;-0.28030968;-0.49020594;0.18548071;-0.80415165;0.008921743;0.03909733;0.09613037;0
1103;1720633906;-0.27965373;-0.4901083;0.18541811;-0.8044538;0.023413206;0.032172456;0.13934898;0
1105;1720667240;-0.2793069;-0.4898585;0.18588167;-0.80461955;-0.008724605;-0.05217351;0.1638298;0
1108;1720717241;-0.27863923;-0.48951817;0.18627699;-0.8049667;-0.001794809;0.010617983;0.116187096;0
1111;1720767242;-0.27803805;-0.48871845;0.18646282;-0.80561715;-0.020307269;-0.014718998;0.09165859;0
1114;1720817243;-0.277397;-0.48774642;0.18633978;-0.8064553;-0.0313164;0.018263243;0.07524395;0
1118;1720883911;-0.27686602;-0.4865589;0.18581627;-0.8074753;0.012223637;0.07426957;0.10089111;0
1120;1720917245;-0.2766221;-0.48604855;0.18556423;-0.807924;0.035311025;0.030627757;0.12260723;0
1123;1720967246;-0.27616498;-0.4854864;0.18493605;-0.80856216;0.033769008;0.009750529;0.03783512;0
1126;1721017247;-0.27577922;-0.48536956;0.1843107;-0.80890673;0.017847287;0.016098967;0.055171013;0
1128;1721050581;-0.2756831;-0.48552662;0.18368359;-0.80898786;0.008454601;-0.016566109;0.07504177;0
1131;1721100582;-0.2759447;-0.48571798;0.18305738;-0.80892587;-0.001900754;0.001706968;0.10579777;0
1134;1721150583;-0.27645048;-0.4859044;0.18237348;-0.80879563;0.06980332;0.043420073;0.12815094;0
1136;1721183917;-0.27671084;-0.4860376;0.18206276;-0.80869657;-0.010220801;-0.020708252;0.13027287;0
1139;1721233918;-0.27700284;-0.4859463;0.18159874;-0.80875576;-0.0710921;-0.007610393;0.14931679;0
1142;1721283919;-0.27713087;-0.48591205;0.18162276;-0.808727;-0.08218661;0.045855694;0.07415295;0
1145;1721333920;-0.27727884;-0.4861205;0.1823022;-0.8083981;-0.061237186;0.038606722;0.08882904;0
1147;1721367254;-0.27744707;-0.48595488;0.182901;-0.8083047;-0.018415457;0.08840183;0.10694218;0
1150;1721417255;-0.27740273;-0.48551917;0.18372528;-0.80839485;0.01838394;-0.01944831;0.0709095;0
1153;1721467256;-0.27744758;-0.48516208;0.18462378;-0.8083892;0.00611755;-0.035198595;0.10999775;0
1155;1721500590;-0.2775159;-0.48500007;0.18513109;-0.80834687;-0.02464588;0.011516728;0.079956055;0
1158;1721550591;-0.2776352;-0.48491278;0.18584518;-0.8081944;0.008166716;0.010117314;0.09264946;0
1161;1721600592;-0.27785295;-0.48509753;0.18654735;-0.8078469;0.00809698;-0.0061551;0.11300087;0
1163;1721633926;-0.27808583;-0.48510975;0.18703684;-0.8076461;0.05629442;-0.03252717;0.12018204;0
1166;1721683927;-0.27831525;-0.4851331;0.18736687;-0.80747664;0.021021394;-0.021208027;0.13893986;0
1169;1721733928;-0.27866846;-0.48500848;0.1877448;-0.8073418;-0.03584455;-0.040851463;0.1256876;0
1172;1721783929;-0.27916884;-0.48475266;0.18805458;-0.80725044;-0.024504172;-0.016010009;0.12275791;0
1174;1721817263;-0.2795362;-0.4845635;0.18822819;-0.8071965;-0.028450964;0.049689837;0.08117008;0
1177;1721867264;-0.28004795;-0.48442352;0.18837596;-0.8070687;-0.046131734;0.049075622;0.10146046;0
1180;1721917265;-0.28036582;-0.48433354;0.18830858;-0.8070279;-0.006554741;0.05022314;0.07390976;0
1182;1721950599;-0.2805431;-0.48431134;0.18871437;-0.80688506;1.52E-04;-0.06444437;0.10358524;0
1185;1722000600;-0.2806551;-0.48448953;0.18916568;-0.8066332;-0.009160008;0.06138202;0.12176418;0
1188;1722050601;-0.28090686;-0.48440158;0.18930623;-0.80656546;-0.032439105;0.095254295;0.08125687;0
1190;1722083935;-0.28105035;-0.48438668;0.18933862;-0.80651677;-0.014400045;0.06822688;0.06275368;0
1193;1722133936;-0.28116852;-0.48449188;0.18941902;-0.8063935;0.007940074;0.050574947;0.12600136;0
1197;1722200604;-0.28124014;-0.48463005;0.1895173;-0.8062625;0.04445941;-0.032048404;0.14677715;0
1200;1722250605;-0.2811256;-0.48488784;0.18953016;-0.8061445;-0.023277758;-0.0360209;0.124445915;0
1204;1722317273;-0.28116304;-0.48490328;0.18969144;-0.8060841;0.008301271;0.015992353;0.13205719;0
1207;1722367274;-0.28109676;-0.48473954;0.18962467;-0.80622137;-0.006841285;0.04461274;0.11298275;0
1209;1722400608;-0.2810221;-0.48466694;0.18940632;-0.80634236;0.003525693;0.06539721;0.0761261;0
1212;1722450609;-0.28074235;-0.48473775;0.18913887;-0.80646;-0.01705739;0.031347692;0.10912514;0
1215;1722500610;-0.28044283;-0.48507193;0.18873934;-0.806457;0.002731105;0.015548232;0.09751797;0
1217;1722533944;-0.2802607;-0.4852245;0.18840978;-0.80650556;-0.021147901;0.026487626;0.08876705;0
1220;1722583945;-0.27990225;-0.4856035;0.1877517;-0.8065554;-0.02410319;0.026469745;0.06131935;0
1223;1722633946;-0.27958822;-0.48615974;0.18792388;-0.806289;-0.058544524;0.019575264;0.07208824;0
1227;1722700614;-0.27941474;-0.48690414;0.18806607;-0.8058667;-0.037623934;-0.020008434;0.104073524;0
1230;1722750615;-0.27949274;-0.4873301;0.18850638;-0.8054793;-0.006168958;0.013203581;0.061570168;0
1232;1722783949;-0.27955374;-0.487756;0.18890804;-0.80510616;-0.020494461;0.001588635;0.09244537;0
1235;1722833950;-0.27965686;-0.48836446;0.18963355;-0.8045306;0.019337894;0.042325307;0.123708725;0
1238;1722883951;-0.27971092;-0.4889528;0.19037263;-0.80397975;0.015234643;0.0490564;0.08876896;0
1240;1722917285;-0.27959737;-0.48946488;0.19072323;-0.8036245;0.007970025;-0.007726843;0.13020992;0
1243;1722967286;-0.27942556;-0.49004003;0.19119628;-0.8032213;-9.48E-05;0.060007863;0.10545254;0
1246;1723017287;-0.2793727;-0.49029258;0.19160055;-0.8029891;-0.021001054;0.014182568;0.11336136;0
1249;1723067288;-0.27950823;-0.49049878;0.19206972;-0.80270386;-0.018305935;0.04687156;0.08331871;0
1251;1723100622;-0.27966923;-0.49067152;0.19233924;-0.8024777;-0.030298045;0.032207623;0.11056042;0
1255;1723167290;-0.28001308;-0.49096093;0.19266917;-0.80210155;-0.025938902;0.03486042;0.07479954;0
1259;1723233958;-0.28025275;-0.4913169;0.19270045;-0.80179226;-0.04092701;0.052696086;0.1197319;0
1262;1723283959;-0.28037483;-0.49151862;0.19249062;-0.8016764;-0.019472672;0.04161856;0.13303089;0
1265;1723333960;-0.28060126;-0.4915509;0.19275819;-0.8015132;0.01592798;0.042041223;0.090052605;0
1267;1723367294;-0.2806512;-0.49155635;0.1927959;-0.80148304;-0.007588936;0.06554428;0.09887314;0
1270;1723417295;-0.28078246;-0.491339;0.1927229;-0.80158794;-0.040271934;0.08333068;0.031827927;0
1273;1723467296;-0.28077573;-0.49141037;0.19266425;-0.8015608;3.57E-04;0.06888982;0.10064602;0
1276;1723517297;-0.28059155;-0.4913516;0.19263761;-0.8016677;-0.02078894;0.040730096;0.118206024;0
1278;1723550631;-0.28040123;-0.49107215;0.1924574;-0.8019487;-0.03182422;0.050415583;0.1008482;0
1281;1723600632;-0.28012937;-0.4907772;0.19230393;-0.80226105;-0.009293892;-0.045899503;0.08558464;0
1284;1723650633;-0.27985942;-0.49075347;0.19220029;-0.80239457;-0.03926944;-0.02392371;0.1104126;0
1286;1723683967;-0.27979732;-0.49074456;0.19225958;-0.8024074;-0.021779774;-0.009311326;0.086042404;0
1289;1723733968;-0.2798968;-0.49066633;0.19244605;-0.802376;0.005006613;0.04252347;0.0874567;0
1292;1723783969;-0.28010952;-0.49061066;0.19253737;-0.8023139;0.016601201;-0.004998867;0.11043739;0
1294;1723817303;-0.28027123;-0.4905844;0.19265172;-0.802246;0.008972034;0.022942487;0.10732746;0
1297;1723867304;-0.28046948;-0.49067807;0.19272038;-0.8021029;0.015430887;-0.00115355;0.097727776;0
1300;1723917305;-0.2804895;-0.4908365;0.1926954;-0.80200493;-0.006425998;-8.11E-04;0.100203514;0
1303;1723967306;-0.28038415;-0.491161;0.19264784;-0.8018545;-0.051209502;-0.009217227;0.1132288;0
1305;1724000640;-0.28041366;-0.49121976;0.19266707;-0.8018035;-0.06538782;-0.032384567;0.110284805;0
1308;1724050641;-0.28038883;-0.49162856;0.19279975;-0.8015297;0.008751795;-0.056753237;0.09189987;0
1311;1724100642;-0.28039578;-0.49216175;0.19328673;-0.80108285;0.01450085;0.012936036;0.11916447;0
1313;1724133976;-0.2804057;-0.4924485;0.19334209;-0.8008897;-0.004593191;-0.005779374;0.13497734;0
1316;1724183977;-0.28037995;-0.4927682;0.19349168;-0.80066586;0.009910565;0.036678698;0.05579853;0
1319;1724233978;-0.28026503;-0.49313676;0.19365253;-0.8004403;-0.008353797;0.0145384;0.11468315;0
1321;1724267312;-0.28021818;-0.49328312;0.19378807;-0.80033374;-0.018984297;0.005255907;0.11969185;0
1324;1724317313;-0.28013164;-0.49342263;0.19406511;-0.8002109;-0.003293017;0.012946541;0.08758354;0
1327;1724367314;-0.27989227;-0.49370492;0.19427201;-0.8000702;-0.018594269;-0.011706683;0.11962509;0
1330;1724417315;-0.27978092;-0.49379832;0.1945807;-0.7999766;-0.015204916;-0.013733307;0.10943508;0
1332;1724450649;-0.27977094;-0.49378932;0.1947833;-0.7999363;-0.007655319;0.011101218;0.09489536;0
1336;1724517317;-0.27972424;-0.49382898;0.19504245;-0.79986495;-0.016105225;0.020390863;0.09375191;0
1339;1724567318;-0.2797225;-0.49394107;0.19520296;-0.79975724;-0.00866448;-0.005753;0.13797188;0
1342;1724617319;-0.2797325;-0.49407828;0.19534072;-0.79963547;-0.019145673;0.003175672;0.120565414;0
1344;1724650653;-0.2797333;-0.4941371;0.19536544;-0.7995926;0.011052492;0.013461514;0.11215401;0
1347;1724700654;-0.2797845;-0.49424893;0.19527705;-0.79952717;-0.005634314;0.037111644;0.10528755;0
1350;1724750655;-0.2799772;-0.49426508;0.19522923;-0.7994614;-0.0232449;-0.001323867;0.10112476;0
1352;1724783989;-0.28003567;-0.49449426;0.19510704;-0.7993291;0.005645714;0.0321358;0.09536743;0
1355;1724833990;-0.2801407;-0.49489886;0.19530931;-0.79899246;0.017145008;-0.040284857;0.12505817;0
1358;1724883991;-0.27992585;-0.4955758;0.19511291;-0.7986961;-0.013667817;0.029122844;0.1218071;0
1361;1724933992;-0.27983412;-0.4959166;0.19492817;-0.79856163;-0.02938726;0.060651135;0.07705021;0
1365;1725000660;-0.27965194;-0.49645862;0.19494258;-0.79828525;-0.030932784;0.012504352;0.09677696;0
1367;1725033994;-0.27963364;-0.4966939;0.19506012;-0.79811656;-0.03939237;0.048157208;0.12633991;0
1370;1725083995;-0.27960476;-0.4970144;0.19513758;-0.7979082;-0.01028696;0.013532592;0.08683491;0
1373;1725133996;-0.27957267;-0.4973191;0.19521108;-0.79771155;-0.03450794;-0.017343264;0.13027573;0
1375;1725167330;-0.27960694;-0.49738774;0.19529143;-0.7976371;-0.029527627;-1.72E-04;0.115719795;0
1378;1725217331;-0.2797548;-0.49742424;0.19539826;-0.79753625;-0.004817822;0.008425768;0.09121418;0
1381;1725267332;-0.27987188;-0.4976431;0.19540541;-0.7973569;-0.021528767;0.009119776;0.111107826;0
1384;1725317333;-0.28002018;-0.49775127;0.19535105;-0.7972507;-0.01994197;0.01880771;0.11631584;0
1386;1725350667;-0.28008205;-0.49783176;0.19523436;-0.7972072;-0.020032125;-1.91E-04;0.10489273;0
1389;1725400668;-0.28018284;-0.49792057;0.19506635;-0.7971575;-0.023769932;0.011183023;0.104613304;0
1393;1725467336;-0.28029305;-0.49789286;0.1947993;-0.7972014;-0.023559606;0.01280327;0.09124184;0
1396;1725517337;-0.28033328;-0.4978212;0.19467497;-0.7972624;-0.015466873;-0.007448569;0.09606171;0
1398;1725550671;-0.28033036;-0.49777368;0.19456312;-0.79732037;-0.02474646;0.014632052;0.088318825;0
1401;1725600672;-0.2803676;-0.49776572;0.19469874;-0.797279;0.004526137;-0.07096894;0.1484232;0
1404;1725650673;-0.2802654;-0.49792555;0.19487776;-0.7971715;-0.001862981;-0.003261948;0.1113863;0
1406;1725684007;-0.2802375;-0.49794593;0.19490387;-0.7971622;-0.026601842;0.01922055;0.13528061;0
1409;1725734008;-0.28012377;-0.49794382;0.19496937;-0.79718745;-0.040431034;0.0501876;0.047847748;0
1412;1725784009;-0.27996644;-0.49802804;0.1950987;-0.7971586;-0.016404286;0.014731292;0.11036682;0
1415;1725834010;-0.2797614;-0.49806553;0.19528721;-0.7971608;0.006815134;-0.025510205;0.13127232;0
1417;1725867344;-0.2795596;-0.4982134;0.19545169;-0.797099;-0.006216119;-0.01394475;0.07383919;0
1420;1725917345;-0.279244;-0.49840033;0.19569007;-0.79703414;-0.03288099;-0.010143018;0.1177578;0
1423;1725967346;-0.2790781;-0.4984432;0.1960148;-0.79698586;-0.013364287;0.005929128;0.09433365;0
1425;1726000680;-0.2789802;-0.49850005;0.19619179;-0.79694086;-0.017492348;0.011583559;0.10868454;0
1428;1726050681;-0.27884886;-0.49871638;0.19645785;-0.79678595;0.007550268;0.002804641;0.11617565;0
1431;1726100682;-0.27878958;-0.49895588;0.19671832;-0.7965925;-0.008914814;0.029542377;0.07922363;0
1433;1726134016;-0.27876645;-0.49911356;0.1968564;-0.79646766;0.009219462;0.040646054;0.10144997;0
1438;1726217351;-0.2787254;-0.49930817;0.19716814;-0.7962829;-0.006932031;0.021425504;0.10478306;0
1440;1726250685;-0.27869746;-0.49938542;0.19726056;-0.7962214;-0.021316208;-0.017591363;0.09177303;0
1443;1726300686;-0.2787266;-0.49953455;0.19721478;-0.796129;-0.040210206;0.07253443;0.07721996;0
1446;1726350687;-0.2786409;-0.4998861;0.19722334;-0.7959362;-8.83E-04;-0.008037973;0.13130283;0
1448;1726384021;-0.2786197;-0.50009406;0.19752966;-0.7957369;-0.038469262;0.060874425;0.083221436;0
1451;1726434022;-0.27859652;-0.5003545;0.1975222;-0.7955832;-0.018760337;0.069827236;0.13259506;0
1454;1726484023;-0.27858964;-0.5002834;0.19749236;-0.79563767;-0.00927914;0.03847105;0.09299755;0
1456;1726517357;-0.27863607;-0.50019044;0.19742595;-0.79569644;-0.04101105;0.058921814;0.09429455;0
1459;1726567358;-0.27871406;-0.4998843;0.19752415;-0.79583716;-0.046781708;0.056232285;0.100613594;0
1462;1726617359;-0.27880308;-0.49953204;0.19768503;-0.7959871;6.33E-04;0.048236553;0.08493519;0
1465;1726667360;-0.2788673;-0.49920213;0.19751082;-0.79621494;-0.038682047;0.039460767;0.1295309;0
1467;1726700694;-0.2790442;-0.498825;0.19743928;-0.7964069;-0.040401306;0.045257796;0.117464066;0
1470;1726750695;-0.279518;-0.4979505;0.19743699;-0.7967884;-0.017855557;0.07468641;0.11288738;0
1474;1726817363;-0.28002796;-0.4962709;0.19722109;-0.7977104;0.01563473;0.13999778;0.12156296;0
1477;1726867364;-0.2800416;-0.4949472;0.19671655;-0.79865193;-0.046580993;0.09202676;0.10965347;0
1479;1726900698;-0.28004214;-0.4941798;0.19621071;-0.7992512;-0.02855922;0.052426733;0.060199738;0
1482;1726950699;-0.28021443;-0.49322563;0.19512643;-0.80004525;0.017085107;0.041844755;0.14160061;0
1485;1727000700;-0.28054044;-0.4923613;0.1938778;-0.8007665;0.021879012;0.008748744;0.1156435;0
1487;1727034034;-0.28093106;-0.49170065;0.19296314;-0.8012563;0.019403607;-0.027526515;0.1253748;0
1490;1727084035;-0.2816748;-0.49085206;0.19124654;-0.80192685;0.028511088;0.037303418;0.08782101;0
1493;1727134036;-0.28248426;-0.49018186;0.18999782;-0.8023488;0.012144353;0.064266905;0.036417007;0
1496;1727184037;-0.28321037;-0.48970848;0.18834881;-0.80277056;-0.027817752;0.025166664;0.11944103;0
1498;1727217371;-0.28365582;-0.4893474;0.18725383;-0.8030896;0.008654797;0.07082611;0.089318275;0
1502;1727284039;-0.284374;-0.48887905;0.185196;-0.8035978;-0.035169765;0.004499316;0.09816265;0
1505;1727334040;-0.28476673;-0.4883556;0.184488;-0.8039398;-0.06013661;-0.043813456;0.1419735;0
1508;1727384041;-0.285169;-0.48793936;0.18460825;-0.8040223;-0.034569856;0.02682312;0.05699444;0
1510;1727417375;-0.28538668;-0.487696;0.18488477;-0.8040294;-0.01835399;0.03225873;0.104063034;0
1513;1727467376;-0.28572804;-0.48704213;0.18537012;-0.80419254;-0.024788927;0.02292684;0.08340645;0
1516;1727517377;-0.2862569;-0.4863253;0.18585223;-0.804327;0.10525516;-0.00803775;0.07292652;0
1519;1727567378;-0.2864657;-0.48589578;0.18627256;-0.80441505;0.019401148;-0.016651269;0.11400509;0
1521;1727600712;-0.2866906;-0.48575997;0.18644366;-0.8043773;-0.036754917;-0.015198434;0.0672493;0
1524;1727650713;-0.2868535;-0.4857584;0.1867697;-0.8042445;-0.024437565;0.011446099;0.09393406;0
1527;1727700714;-0.28664476;-0.48587343;0.18681999;-0.80423784;0.018320017;0.03582801;0.08572292;0
1531;1727767382;-0.28593895;-0.48649597;0.18638138;-0.80421454;-0.12192453;0.04725064;0.1142683;0
1533;1727800716;-0.28566903;-0.48662877;0.18627357;-0.80425507;-0.10686691;0.09788504;0.12278366;0
1536;1727850717;-0.2854712;-0.48685747;0.1866174;-0.8041072;0.03860083;-0.054264348;0.093844414;0
1539;1727900718;-0.28500614;-0.487678;0.18677478;-0.80373824;-5.79E-04;-0.015041081;0.08576679;0
1541;1727934052;-0.28464818;-0.48824835;0.1866429;-0.8035494;-0.033187427;-0.0453177;0.11292076;0
1544;1727984053;-0.2837544;-0.4892041;0.18670759;-0.8032692;-0.054225136;-0.048591718;0.0650692;0
1547;1728034054;-0.28323734;-0.49011713;0.18698859;-0.8028295;-0.06844213;-0.03110317;0.1530199;0
1550;1728084055;-0.28303617;-0.49064773;0.18730268;-0.8025031;0.003635438;0.016314434;0.15412235;0
1552;1728117389;-0.28306213;-0.49108565;0.18743482;-0.8021953;-0.013843945;0.031361997;0.09897804;0
1555;1728167390;-0.28335875;-0.4915579;0.18757494;-0.80176854;-0.015759846;0.0339393;0.09640598;0
1558;1728217391;-0.2839175;-0.49173063;0.18777597;-0.8014177;0.016087346;0.026782887;0.12248993;0
1560;1728250725;-0.2842093;-0.49176565;0.18774371;-0.8013004;0.041022673;0.010520307;0.104548454;0
1563;1728300726;-0.28473225;-0.49180692;0.18751769;-0.80114233;0.010852895;0.003279606;0.11277962;0
1566;1728350727;-0.28505632;-0.49188474;0.1872587;-0.8010399;-0.007879502;0.013522757;0.08567238;0
1568;1728384061;-0.28528494;-0.49192968;0.1871139;-0.8009647;-0.04350054;5.12E-05;0.10383797;0
1571;1728434062;-0.28563222;-0.49171308;0.18710592;-0.8009758;-0.03997574;0.025841674;0.12046909;0
1574;1728484063;-0.28602445;-0.49135906;0.18733718;-0.8009989;-0.010693336;0.016715083;0.088707924;0
1578;1728550731;-0.28654897;-0.4909565;0.18774283;-0.8009634;0.003737137;0.026731925;0.09335518;0
1581;1728600732;-0.28692263;-0.49079567;0.18852943;-0.8007434;-4.57E-04;0.013193523;0.0560894;0
1583;1728634066;-0.2870642;-0.49075654;0.18878156;-0.8006573;0.013154408;-0.006267974;0.13806152;0
1586;1728684067;-0.28735012;-0.49042547;0.18918216;-0.800663;-0.035722736;0.012379712;0.06800175;0
1589;1728734068;-0.28760785;-0.49029988;0.1896546;-0.8005356;-0.032935526;0.023382137;0.09398079;0
1591;1728767402;-0.2877831;-0.49026805;0.19004194;-0.80040014;-0.056397237;0.028382346;0.118950844;0
1594;1728817403;-0.28788614;-0.49029797;0.1904412;-0.8002498;-0.017847063;0.016259898;0.101145744;0
1597;1728867404;-0.28788865;-0.49052942;0.19086099;-0.8000071;-0.051451564;7.91E-04;0.07651615;0
1599;1728900738;-0.28798002;-0.4906864;0.1911206;-0.79981583;-0.05083199;-0.035305213;0.11315918;0
1602;1728950739;-0.28809214;-0.49088693;0.19156806;-0.7995455;-0.034449827;-0.009086025;0.09506035;0
1605;1729000740;-0.2880613;-0.49118865;0.19208518;-0.79924726;-0.027513104;0.007083125;0.11829662;0
1608;1729050741;-0.2880981;-0.49145433;0.1926846;-0.7989263;-0.05373788;0.003756135;0.0965271;0
1612;1729117409;-0.28822434;-0.4916816;0.19360277;-0.7985188;-0.02033913;-0.015747331;0.16122723;0
1614;1729150743;-0.28821135;-0.49167;0.19387837;-0.7984637;-0.006338604;0.013358699;0.12827301;0
1617;1729200744;-0.28830463;-0.49179715;0.19410977;-0.7982955;0.01004199;0.045944877;0.04833603;0
1620;1729250745;-0.28836116;-0.49212372;0.19417836;-0.7980571;0.047564227;0.044351004;0.11744976;0
1622;1729284079;-0.28848073;-0.4923241;0.1942449;-0.7978741;0.017569013;-0.025442703;0.1096735;0
1625;1729334080;-0.28847817;-0.49300066;0.19429085;-0.797446;0.014666474;0.011304839;0.10563183;0
1628;1729384081;-0.28854197;-0.4936;0.19388184;-0.7971516;-0.001243179;0.051177762;0.11381626;0
1631;1729434082;-0.28854507;-0.4939564;0.1933442;-0.7970604;-0.008175837;0.009888961;0.09271145;0
1633;1729467416;-0.2884521;-0.4942078;0.19297056;-0.7970287;0.028310152;0.008798364;0.10470104;0
1636;1729517417;-0.28825593;-0.49448776;0.1923927;-0.7970656;0.010889105;-0.010420621;0.14890385;0
1640;1729584085;-0.28783667;-0.49483758;0.19196257;-0.7971039;0.013099647;-0.01570715;0.10240173;0
1643;1729634086;-0.2875266;-0.49501354;0.19168967;-0.7971722;-0.01694474;0.04662212;0.09811211;0
1645;1729667420;-0.2873003;-0.49506232;0.19160582;-0.79724354;-0.007438958;0.036420096;0.09730244;0
1648;1729717421;-0.2869892;-0.4949837;0.19150154;-0.7974295;-0.034692116;0.057760887;0.11967468;0
1651;1729767422;-0.28663516;-0.49489704;0.19130896;-0.7976568;-0.03294402;0.028546404;0.06816673;0
1653;1729800756;-0.2864651;-0.4948871;0.19128302;-0.79773027;-0.06818508;0.02215617;0.0925169;0
1656;1729850757;-0.28628343;-0.49469241;0.19143972;-0.7978786;-0.045200355;0.037918974;0.11437416;0
1659;1729900758;-0.2861982;-0.49450046;0.19156387;-0.79799837;-0.007047587;0.035342317;0.0643692;0
1662;1729950759;-0.28622317;-0.49435174;0.19157365;-0.7980792;-0.042478636;0.008033056;0.1420517;0
1664;1729984093;-0.28622288;-0.49441397;0.19160481;-0.79803336;-0.007785403;0.04109375;0.13037777;0
1668;1730050761;-0.28644317;-0.49439746;0.19210066;-0.79784524;-0.02516063;0.039147176;0.073067665;0
1671;1730100762;-0.28660697;-0.49442387;0.19211219;-0.7977674;-0.049433466;0.014873222;0.13114738;0
1674;1730150763;-0.28687823;-0.49429542;0.19231331;-0.79770094;-0.05257807;0.030003708;0.06241989;0
1678;1730217431;-0.28735337;-0.4941679;0.192512;-0.79756105;-0.015871208;0.02951131;0.10865593;0
1681;1730267432;-0.287732;-0.49405906;0.19248532;-0.7974984;0.01954375;0.010581327;0.08269119;0
1683;1730300766;-0.28789556;-0.49410564;0.19254284;-0.7973966;0.008284954;-0.018908748;0.08003235;0
1686;1730350767;-0.288118;-0.49418372;0.19260962;-0.79725176;-0.02706742;0.009664253;0.13129425;0
1689;1730400768;-0.28825694;-0.49413288;0.19272482;-0.7972052;-0.01564993;0.033111434;0.06415558;0
1691;1730434102;-0.28829008;-0.49411964;0.19274133;-0.7971974;-0.038864434;0.053603996;0.09275532;0
1694;1730484103;-0.28830606;-0.49407125;0.19283697;-0.7971984;-0.047313668;0.040297598;0.083848;0
1697;1730534104;-0.2882737;-0.49402428;0.1929942;-0.7972013;-0.043964326;0.017075943;0.10905743;0
1699;1730567438;-0.2882288;-0.49399796;0.193127;-0.79720163;-0.038931485;-5.46E-04;0.102656364;0
1702;1730617439;-0.28814343;-0.49384934;0.19331077;-0.79727995;-0.06134559;0.009696886;0.113633156;0
1705;1730667440;-0.28790087;-0.49371386;0.19347116;-0.7974127;-0.056594152;0.00824651;0.08520222;0
1708;1730717441;-0.28764606;-0.49365252;0.19354834;-0.79752386;-0.049546786;0.014904068;0.12738514;0
1710;1730750775;-0.28751177;-0.49359193;0.1937538;-0.7975599;-0.03448626;-0.05244642;0.10463333;0
1713;1730800776;-0.28725964;-0.49373;0.19410793;-0.7974792;-0.049300253;0.041123256;0.13046837;0
1716;1730850777;-0.28713042;-0.4936465;0.1942212;-0.79754984;-0.044049263;0.05097012;0.06981087;0
1718;1730884111;-0.28710437;-0.493537;0.19435117;-0.79759526;-0.036234803;0.017548896;0.07325745;0
1721;1730934112;-0.28703886;-0.49346384;0.19451033;-0.7976253;-0.035416298;0.010736669;0.13188171;0
1724;1730984113;-0.2870731;-0.49331215;0.19461207;-0.79768205;-0.021806147;-0.003688858;0.11360836;0
1726;1731017447;-0.2871151;-0.49329972;0.1947092;-0.7976509;-0.020375783;0.014955696;0.06415081;0
1729;1731067448;-0.2870894;-0.49355307;0.19472879;-0.7974986;-0.017189935;-0.00569064;0.109760284;0
1732;1731117449;-0.28717375;-0.49370897;0.19480634;-0.7973529;0.010408775;0.008778024;0.11785793;0
1735;1731167450;-0.28731143;-0.49389607;0.19481908;-0.7971842;-0.014770853;0.021260552;0.08850002;0
1737;1731200784;-0.2873936;-0.49403602;0.19478586;-0.797076;-0.025497688;0.025262998;0.11673164;0
1740;1731250785;-0.28753212;-0.49427217;0.19460313;-0.7969243;-0.022016473;-0.023083748;0.09421444;0
1743;1731300786;-0.2876072;-0.49469614;0.19446225;-0.79666847;-0.027920792;-2.07E-04;0.11095905;0
1745;1731334120;-0.28769636;-0.49498296;0.19439693;-0.796474;-0.018231751;0.021981403;0.100943565;0
1749;1731400788;-0.28770578;-0.4955756;0.19407074;-0.79618156;-0.006617101;0.025524285;0.11458683;0
1752;1731450789;-0.2877383;-0.4958731;0.19383569;-0.7960419;-0.041628618;-0.007155767;0.15238762;0
1755;1731500790;-0.28778726;-0.4961047;0.19363144;-0.79592955;0.022818213;0.03269056;0.07415295;0
1757;1731534124;-0.28783718;-0.49632758;0.1938782;-0.7957124;-0.001457975;-0.010847083;0.06830597;0
1760;1731584125;-0.28768075;-0.49675408;0.19390352;-0.79549664;-0.023613473;0.011177212;0.16511822;0
1763;1731634126;-0.28761876;-0.49695414;0.19388866;-0.79539776;-0.026598712;0.03574665;0.053391457;0
1766;1731684127;-0.28758502;-0.49714231;0.19395657;-0.7952757;-0.027299648;-0.012025444;0.11270523;0
1768;1731717461;-0.28755516;-0.49720418;0.19397348;-0.7952436;-0.011369433;0.005422648;0.13917446;0
1771;1731767462;-0.28758815;-0.49720317;0.19393854;-0.79524094;0.018716974;0.025349721;0.10150242;0
1774;1731817463;-0.2875397;-0.49727342;0.1939541;-0.79521066;-0.010524778;-0.011851551;0.1106472;0
1778;1731884131;-0.2875833;-0.4970085;0.1941851;-0.79530424;0.00937458;0.013752305;0.10168171;0
1780;1731917465;-0.28758055;-0.49685907;0.1943584;-0.79535633;0.002875718;0.02621807;0.06991482;0
1783;1731967466;-0.2875936;-0.49679297;0.19467394;-0.79531574;-0.014516966;0.016282836;0.115659714;0
1786;1732017467;-0.28771985;-0.49665773;0.19497211;-0.7952815;-0.028498797;0.02759491;0.11502743;0
1789;1732067468;-0.28792745;-0.49637276;0.19520926;-0.7953261;0.001921317;0.00642935;0.10617542;0
1791;1732100802;-0.28806013;-0.49619943;0.1953317;-0.79535615;-0.004072629;0.020170704;0.07230377;0
1794;1732150803;-0.28815585;-0.4959184;0.19551131;-0.7954525;-0.002738034;0.02725964;0.09651375;0
1797;1732200804;-0.2882175;-0.49574542;0.19562872;-0.7955091;-0.048311207;0.05507337;0.107245445;0
1799;1732234138;-0.2883119;-0.49551985;0.19570258;-0.79559726;-0.057499826;0.08101093;0.045414925;0
1802;1732284139;-0.2884159;-0.49538574;0.19604553;-0.7955587;-0.00803235;-0.035430264;0.08577156;0
1806;1732350807;-0.2884394;-0.49546218;0.19653463;-0.7953819;-0.012748732;0.023330282;0.1597538;0
1809;1732400808;-0.2885836;-0.49529314;0.19670092;-0.7953938;-0.02882043;0.06556149;0.042611122;0
1811;1732434142;-0.28868335;-0.495286;0.19680576;-0.79533607;-0.053463627;0.004854254;0.090512276;0
1814;1732484143;-0.2888761;-0.49527004;0.19701242;-0.79522496;-0.039955176;-4.98E-04;0.1457243;0
1817;1732534144;-0.28909913;-0.49515933;0.19709384;-0.7951926;0.001281847;-0.031446483;0.07965183;0
1820;1732584145;-0.28916037;-0.49528015;0.19711635;-0.7950895;-0.03071448;4.11E-04;0.121702194;0
1822;1732617479;-0.28924376;-0.49535862;0.19700786;-0.7950372;-0.03814137;-0.02211549;0.13362789;0
1825;1732667480;-0.2894107;-0.49530417;0.19708376;-0.7949916;8.79E-04;0.006922196;0.08258343;0
1828;1732717481;-0.2895327;-0.49530777;0.19718422;-0.7949198;-0.020222781;0.028987171;0.12030029;0
1830;1732750815;-0.2895513;-0.4952259;0.19721064;-0.79495764;-0.039640248;0.054547444;0.12291241;0
1833;1732800816;-0.28963554;-0.49502322;0.19723491;-0.79504716;-0.042366434;0.04663553;0.079916;0
1836;1732850817;-0.28972915;-0.4948992;0.1972077;-0.795097;-0.020495243;0.001921541;0.102433205;0
1838;1732884151;-0.2897489;-0.49485317;0.19715883;-0.79513055;-0.020518936;0.012399828;0.09077644;0
1841;1732934152;-0.2897364;-0.49477613;0.19702746;-0.7952156;-0.028817078;0.013921728;0.114946365;0
1844;1732984153;-0.28968042;-0.494705;0.1968459;-0.7953253;-0.03017559;0.035481565;0.11751938;0
1847;1733034154;-0.28969604;-0.4945795;0.19663687;-0.79544926;-0.060595702;0.06858137;0.06492233;0
1849;1733067488;-0.2896164;-0.49465746;0.19654351;-0.79545283;-0.012496162;0.04619409;0.05886841;0
1852;1733117489;-0.28953788;-0.49488497;0.19676676;-0.79528475;-0.038748875;0.02807792;0.040510178;0
1855;1733167490;-0.28938377;-0.49519354;0.19660756;-0.7951881;-0.032783985;0.029332947;0.118442535;0
1857;1733200824;-0.28929472;-0.4953043;0.19651094;-0.79517543;-0.018821802;0.024733497;0.07797623;0
1860;1733250825;-0.28926283;-0.49553376;0.19640157;-0.79507107;-0.054065324;0.006905656;0.12592316;0
1863;1733300826;-0.28933907;-0.49566692;0.19645351;-0.7949474;0.016968433;0.019413665;0.13479137;0
1865;1733334160;-0.2893459;-0.49567664;0.19638425;-0.794956;0.010240246;0.021561624;0.104525566;0
1868;1733384161;-0.2893549;-0.4957691;0.19638523;-0.794895;-0.011028353;0.01756432;0.07606411;0
1871;1733434162;-0.28934872;-0.49593478;0.19630788;-0.7948129;-0.022136277;0.00964436;0.11355209;0
1874;1733484163;-0.28941184;-0.4959216;0.19634722;-0.7947885;0.01012089;0.03999407;0.091031075;0
1876;1733517497;-0.28945;-0.49590182;0.1963493;-0.79478633;-0.024179855;0.028467504;0.10597801;0
1879;1733567498;-0.2895554;-0.4957804;0.19636548;-0.7948198;-0.03314898;0.012329198;0.10823536;0
1882;1733617499;-0.28964925;-0.4956614;0.19639647;-0.79485214;-0.02821337;0.004500657;0.09824562;0
1886;1733684167;-0.2896599;-0.49552044;0.1964487;-0.7949231;-0.027243324;0.020521842;0.11793423;0
1888;1733717501;-0.28966862;-0.49539274;0.19644727;-0.79499996;-0.04989614;0.028138045;0.091555595;0
1891;1733767502;-0.28960487;-0.4952166;0.19647215;-0.7951267;-0.03672005;0.010757902;0.09784031;0
1894;1733817503;-0.289451;-0.49522838;0.19650376;-0.79516757;-0.040487807;0.005187736;0.11345482;0
1896;1733850837;-0.28939953;-0.4951196;0.19651367;-0.7952516;-0.062118344;0.015254291;0.07581043;0
1899;1733900838;-0.2891837;-0.4951827;0.19664629;-0.79525816;0.020586884;-0.01822167;0.09323692;0
1902;1733950839;-0.28888473;-0.4954551;0.19703859;-0.7950999;-0.020024301;0.015778227;0.11408138;0
1905;1734000840;-0.28865364;-0.4955435;0.19722007;-0.79508376;-0.05074504;0.054209713;0.06845474;0
1907;1734034174;-0.28844026;-0.49549532;0.19740205;-0.79514617;-0.0432017;0.025555577;0.07548332;0
1910;1734084175;-0.2882709;-0.4954158;0.19767581;-0.79518914;-0.04577143;-0.004666504;0.15001106;0
1914;1734150843;-0.2881937;-0.49504653;0.1980298;-0.7953589;-0.014796111;-0.006519426;0.08481693;0
1917;1734200844;-0.28808567;-0.4948979;0.19835004;-0.79541075;-0.007072844;0.006242717;0.08817577;0
1919;1734234178;-0.28805536;-0.4948377;0.19849987;-0.7954217;-0.037598234;0.007069044;0.11749077;0
1922;1734284179;-0.28798065;-0.49466914;0.19886549;-0.7954623;-0.035523362;0.04416303;0.08531952;0
1925;1734334180;-0.2879302;-0.4944424;0.19920379;-0.795537;-0.04097998;0.036682274;0.08849239;0
1928;1734384181;-0.28800765;-0.49427092;0.19943736;-0.795557;-0.038545925;0.026996342;0.10223007;0
1930;1734417515;-0.2880621;-0.49417323;0.19958894;-0.79555994;-0.03712595;0.022095596;0.09610367;0
1933;1734467516;-0.28812575;-0.49417835;0.1997152;-0.79550195;-0.0574093;0.002847332;0.09227371;0
1936;1734517517;-0.288202;-0.49426448;0.19978087;-0.7954043;-0.03709935;0.04517845;0.10505009;0
1938;1734550851;-0.2882603;-0.49429256;0.1997612;-0.7953707;-0.042408455;0.025051555;0.1102581;0
1942;1734617519;-0.2883317;-0.49437356;0.19982317;-0.79527897;-0.010048919;0.010518967;0.109773636;0
1945;1734667520;-0.2885114;-0.49439418;0.19982815;-0.7951997;-8.46E-04;-0.005156444;0.120518684;0
1948;1734717521;-0.28862122;-0.49461418;0.19979094;-0.7950324;0.01649749;0.012135413;0.08396053;0
1950;1734750855;-0.2887525;-0.4947613;0.2000265;-0.794834;-0.02604686;0.038479097;0.09025383;0
1953;1734800856;-0.28879094;-0.49506837;0.19987227;-0.7946675;-0.021616206;0.06533026;0.1344862;0
1956;1734850857;-0.2888286;-0.49514252;0.19951257;-0.79469806;-0.0548731;0.07468507;0.06517124;0
1959;1734900858;-0.28897798;-0.49519923;0.19932972;-0.7946543;-0.049955368;0.026192812;0.10247612;0
1961;1734934192;-0.28901047;-0.49529243;0.19928026;-0.7945968;-0.017925069;-0.020347502;0.101771355;0
1964;1734984193;-0.2891469;-0.4952283;0.19905514;-0.7946435;-0.003426454;0.00233951;0.13371658;0
1967;1735034194;-0.28917387;-0.4952189;0.1989036;-0.79467756;-0.003126276;0.014740232;0.103206635;0
1969;1735067528;-0.28925747;-0.49515736;0.19890258;-0.7946858;-0.027703537;0.04160649;0.12744427;0
1972;1735117529;-0.28939223;-0.49481162;0.199051;-0.7948148;0.004556262;0.07192707;0.105285645;0
1975;1735167530;-0.28938022;-0.494408;0.19904707;-0.79507124;0.009288752;0.05964622;0.108174324;0
1978;1735217531;-0.28918278;-0.49398455;0.19892797;-0.79543614;-0.022801451;0.024305468;0.10740852;0
1980;1735250865;-0.28912377;-0.49366626;0.19888839;-0.79566497;-0.04181637;0.042516187;0.11375618;0
1983;1735300866;-0.28910977;-0.49313498;0.19895354;-0.7959832;0.017219437;0.06339677;0.08951187;0
1986;1735350867;-0.28915912;-0.49281663;0.19903673;-0.7961415;-0.008518078;0.02938659;0.08671093;0
1988;1735384201;-0.28909022;-0.49269724;0.19906743;-0.7962328;0.005274906;0.016031466;0.090509415;0
1991;1735434202;-0.28891674;-0.49257654;0.19895643;-0.7963982;0.004486083;0.080919124;0.10706997;0
1994;1735484203;-0.2885397;-0.4923187;0.19866101;-0.79676795;0.02943308;0.09924713;0.15129566;0
1996;1735517537;-0.28820574;-0.4920641;0.19815518;-0.79717195;-0.034137804;0.12141537;0.07068539;0
1999;1735567538;-0.28777432;-0.49165857;0.19792503;-0.797635;-0.026733266;0.03728956;0.09942436;0
2002;1735617539;-0.28713262;-0.49169433;0.19754101;-0.79793936;0.016805045;0.029194145;0.09636688;0
2004;1735650873;-0.28672197;-0.49159777;0.19690228;-0.7983044;-0.003199588;0.1347211;0.16812801;0
2007;1735700874;-0.28593946;-0.49141335;0.19546789;-0.7990507;-0.073981896;0.07264372;0.04650688;0
2010;1735750875;-0.28564766;-0.49133646;0.19443502;-0.79945445;-0.09502329;0.02991072;0.13062763;0
2013;1735800876;-0.2857384;-0.4911126;0.19375978;-0.7997234;-0.03690646;0.010818474;0.06910324;0
2015;1735834210;-0.28581443;-0.49109876;0.19338912;-0.7997944;0.03359109;-0.018551575;0.06495857;0
2018;1735884211;-0.28575957;-0.49125868;0.19245458;-0.79994124;-0.026333403;0.026780652;0.116620064;0
2022;1735950879;-0.28652686;-0.4909858;0.19169204;-0.80001736;-0.0533778;0.11879893;0.10293198;0
2025;1736000880;-0.2872181;-0.49027443;0.19107126;-0.8003542;0.015559183;0.16711505;0.09547806;0
2027;1736034214;-0.28779334;-0.48970446;0.19050276;-0.800632;-0.06867078;0.24011058;0.13782597;0
2030;1736084215;-0.28827763;-0.4887313;0.1894125;-0.8013107;-0.006069047;0.3223164;0.10068226;0
2033;1736134216;-0.2881079;-0.48790336;0.18769187;-0.8022807;-0.06987887;0.21371661;0.001078606;0
2036;1736184217;-0.28754553;-0.48742044;0.18559612;-0.8032628;-0.09747154;0.038061798;0.05584812;0
2038;1736217551;-0.28694123;-0.4873441;0.18407765;-0.8038745;-0.07287551;0.02800528;0.06416416;0
2041;1736267552;-0.28569084;-0.48774332;0.18151018;-0.8046612;-0.09441433;-0.08393984;0.116662025;0
2044;1736317553;-0.28528497;-0.48807245;0.17931275;-0.8050982;-0.19837177;-0.059029326;0.17557526;0
2046;1736350887;-0.2853628;-0.488047;0.17864819;-0.8052338;-0.013334559;-0.2035718;0.10669327;0
2050;1736417555;-0.28463936;-0.48913133;0.17759237;-0.8050654;0.1484506;-0.13134493;0.029042244;0
2053;1736467556;-0.28312498;-0.49114046;0.17551698;-0.8048314;0.02297132;-0.13620478;0.07607174;0
2056;1736517557;-0.2819121;-0.49342012;0.17340857;-0.80431944;-0.0233238;-0.12085144;0.060627937;0
2059;1736567558;-0.28097707;-0.49530143;0.17137681;-0.80392593;0.028561603;-0.14087619;0.1262865;0
2061;1736600892;-0.28034392;-0.49640846;0.16997188;-0.80376226;-0.07936341;-0.13137913;0.1533804;0
2064;1736650893;-0.27925158;-0.49800062;0.16820061;-0.8035302;-0.064189345;-0.071143724;0.005997658;0
2067;1736700894;-0.27748752;-0.50069994;0.16692713;-0.80272907;-0.0327067;-0.26670626;0.037218094;0
2069;1736734228;-0.27653608;-0.50319433;0.16648102;-0.8015894;-0.047947776;-0.103625074;0.161479;0
2072;1736784229;-0.2764382;-0.50627077;0.1658983;-0.7998048;-0.12243861;-0.11300994;0.15339184;0
2075;1736834230;-0.27709982;-0.50841004;0.16659407;-0.7980726;-0.09051827;-0.07725971;0.15023136;0
2079;1736900898;-0.2779895;-0.5101377;0.16838357;-0.79628307;-0.08299595;0.06661022;0.10843086;0
2081;1736934232;-0.27825415;-0.5107039;0.16911422;-0.7956726;0.048564002;-0.08885646;0.05045128;0
2084;1736984233;-0.278454;-0.5111712;0.16978177;-0.79516023;0.15718704;0.07379079;0.11991787;0
2087;1737034234;-0.27848035;-0.5119046;0.16926992;-0.79478836;0.03325761;0.042809885;0.11054039;0
2090;1737084235;-0.27912778;-0.51234996;0.16904403;-0.794322;-0.044152077;0.118074745;0.17531204;0
2092;1737117569;-0.27968752;-0.5123633;0.16896506;-0.79413354;0.004202714;0.07367211;0.13789272;0
2095;1737167570;-0.2808729;-0.51197517;0.16862617;-0.79403734;0.058568887;0.003866104;0.086974144;0
2098;1737217571;-0.28205186;-0.5118161;0.1683328;-0.7937843;-0.007359611;0.13078235;0.07552624;0
2100;1737250905;-0.28250122;-0.51194227;0.16793214;-0.79362786;-0.019958813;0.057951096;0.07024765;0
2103;1737300906;-0.28358465;-0.5119939;0.1675311;-0.7932929;0.04734563;0.07774049;0.12949276;0
2106;1737350907;-0.28480026;-0.5114242;0.16788673;-0.7931498;-0.04633245;0.18220285;0.071110725;0
2108;1737384241;-0.2855127;-0.51087815;0.16849484;-0.7931166;0.0498796;0.07739695;0.06427765;0
2111;1737434242;-0.28683937;-0.50982666;0.1698922;-0.7930165;-0.022889068;0.084291205;0.092149734;0
2114;1737484243;-0.28778207;-0.5092635;0.17143983;-0.7927036;0.044716895;0.07128096;0.11022949;0
2117;1737534244;-0.28856787;-0.5083722;0.17318906;-0.79260963;-0.014733527;-0.003599229;0.02883339;0
2119;1737567578;-0.28924647;-0.50782406;0.17480382;-0.79235935;0.024728356;-0.042299602;0.115026474;0
2122;1737617579;-0.290486;-0.5067739;0.17673577;-0.79214966;-1.40E-04;-0.017771292;0.16088295;0
2126;1737684247;-0.29216915;-0.50592595;0.17774464;-0.7918468;0.02466935;0.05159439;0.08623028;0
2129;1737734248;-0.29330802;-0.5053817;0.17797893;-0.7917205;0.053170156;0.071545154;0.06597996;0
2131;1737767582;-0.29413652;-0.5048296;0.17819692;-0.7917166;-0.020088898;0.03883426;0.07056522;0
2134;1737817583;-0.2950648;-0.5042034;0.17860505;-0.7916781;0.040702827;-1.05E-04;0.12082386;0
2137;1737867584;-0.29581028;-0.50371164;0.17849435;-0.79173803;0.028019361;-0.00765219;0.17458916;0
2139;1737900918;-0.29617417;-0.5034461;0.17829327;-0.7918162;9.59E-04;0.072241396;0.07075691;0
2142;1737950919;-0.2965334;-0.5032973;0.17757678;-0.7919372;-0.030964144;0.026684765;0.14216805;0
2145;1738000920;-0.29703644;-0.5029522;0.17684302;-0.792132;-0.033219837;0.07290345;0.14661026;0
2148;1738050921;-0.297643;-0.5024841;0.17700568;-0.79216516;0.015846174;0.018469322;0.05487728;0
2150;1738084255;-0.2978821;-0.502303;0.1770439;-0.7921817;-0.017339911;0.05143033;0.07661724;0
2153;1738134256;-0.29775858;-0.50241697;0.1766246;-0.79224944;-0.11437516;0.0837816;0.08140087;0
2156;1738184257;-0.29757;-0.5021752;0.17652474;-0.7924957;-0.12831499;-0.024702875;0.091236115;0
2160;1738250925;-0.29753786;-0.50141335;0.17727011;-0.79282385;-0.09681263;0.027094018;0.13027191;0
2162;1738284259;-0.2976438;-0.5010961;0.17759827;-0.79291105;-0.05297721;0.01734647;0.0663929;0
2165;1738334260;-0.2977133;-0.50066626;0.1779417;-0.79307944;-0.012503091;0.067289025;0.12294865;0
2168;1738384261;-0.29796264;-0.5000006;0.17842679;-0.7932968;-0.020737533;0.027693478;0.10207653;0
2171;1738434262;-0.2983034;-0.49923354;0.1790923;-0.7935018;0.007096089;0.074078456;0.09542847;0
2173;1738467596;-0.2981726;-0.4987722;0.17911603;-0.79383576;0.060051225;0.10448851;0.06645393;0
2177;1738534264;-0.2976598;-0.49811903;0.17867948;-0.79453635;0.020265026;0.017897129;0.07922268;0
2180;1738584265;-0.2975257;-0.49786785;0.17838731;-0.7948095;-0.033467714;-0.003768205;0.0795145;0
2183;1738634266;-0.29748958;-0.49784487;0.1780298;-0.79491764;-0.011308191;-0.014822708;0.0889492;0
2185;1738667600;-0.29747182;-0.49783933;0.17785157;-0.7949678;-0.09578066;-0.024213158;0.06406975;0
2189;1738734268;-0.2973923;-0.4975533;0.17759769;-0.79523325;0.005816478;-0.034376293;0.13114166;0
2192;1738784269;-0.29754603;-0.49767765;0.17737895;-0.79514676;-0.01783477;-0.047259133;0.088736534;0
2195;1738834270;-0.29745856;-0.49797708;0.17711936;-0.7950498;0.028718285;-0.017856674;0.08725357;0
2198;1738884271;-0.2973978;-0.49823868;0.1761808;-0.7951172;-0.045068257;-0.006805075;0.07625198;0
2200;1738917605;-0.29745308;-0.49826092;0.17577842;-0.7951717;-0.08503152;0.020678848;0.063399315;0
2203;1738967606;-0.29763514;-0.49806523;0.17579171;-0.79522336;-0.003124264;7.79E-04;0.12679958;0
2206;1739017607;-0.29792112;-0.49762118;0.17600062;-0.7953479;-0.036376733;0.0347813;0.053203583;0
2208;1739050941;-0.29789808;-0.49750096;0.17597243;-0.79543793;-0.00501049;0.016941834;0.059414864;0
2211;1739100942;-0.29787236;-0.4973631;0.17599739;-0.7955283;-0.059689358;-0.014133618;0.1340189;0
2214;1739150943;-0.2979474;-0.49708542;0.17640963;-0.7955824;-0.07187372;0.003689528;0.08270931;0
2218;1739217611;-0.29822463;-0.49670792;0.17744656;-0.79548365;-0.03238099;-2.33E-04;0.11801243;0
2221;1739267612;-0.29852217;-0.496476;0.17821425;-0.7953453;-0.05088563;0.007697563;0.09069538;0
2223;1739300946;-0.29872376;-0.49637544;0.17867422;-0.79522914;-0.03449699;0.011506447;0.113796234;0
2226;1739350947;-0.29888666;-0.49628723;0.17899531;-0.79515076;-0.014780912;-0.005727966;0.12704468;0
2229;1739400948;-0.29899746;-0.49623415;0.1791708;-0.7951026;-0.02662084;0.021660194;0.08102608;0
2231;1739434282;-0.29891467;-0.4963082;0.17924336;-0.7950713;-0.066707216;0.032655913;0.08780861;0
2234;1739484283;-0.2987935;-0.49625352;0.17939073;-0.7951176;-0.06858271;0.03371894;0.083973885;0
2237;1739534284;-0.29869372;-0.49623722;0.17989561;-0.7950512;-0.06827762;0.030949391;0.08213711;0
2239;1739567618;-0.2984407;-0.4963917;0.18000145;-0.7950259;-0.03574352;0.005449693;0.08031654;0
2242;1739617619;-0.29818118;-0.49671918;0.17971769;-0.7949829;-0.05348419;0.055194736;0.077095985;0
2245;1739667620;-0.2978772;-0.4970383;0.17942682;-0.79496324;-0.0379002;0.035085946;0.1119442;0
2247;1739700954;-0.29766607;-0.49717548;0.17923519;-0.7949997;-0.042046588;0.0469033;0.1055851;0
2250;1739750955;-0.2974103;-0.4972383;0.17900851;-0.7951071;-0.056779668;0.07852681;0.076470375;0
2253;1739800956;-0.2970929;-0.49741435;0.17849912;-0.7952303;-0.010271762;0.029516898;0.07224369;0
2256;1739850957;-0.296914;-0.49754176;0.17811997;-0.7953024;-0.07139585;0.038948026;0.13085938;0
2258;1739884291;-0.2969213;-0.4974631;0.1781871;-0.7953338;-0.009133186;0.011881501;0.118328094;0
2261;1739934292;-0.29697925;-0.49741352;0.17837611;-0.7953009;-0.028611222;0.03745004;0.098799706;0
2264;1739984293;-0.2970333;-0.4974109;0.17836794;-0.7952842;-0.057955343;0.052817006;0.09965992;0
2266;1740017627;-0.2969827;-0.49735987;0.17827122;-0.7953565;-0.029101387;0.04815296;0.11345577;0
2269;1740067628;-0.29696196;-0.49732545;0.17823063;-0.7953951;-0.035442673;0.048453808;0.11174202;0
2272;1740117629;-0.29680637;-0.4973446;0.17808042;-0.79547465;-0.043831114;0.06355658;0.075006485;0
2275;1740167630;-0.29647893;-0.49742705;0.17796773;-0.7955705;-0.015347964;0.06986881;0.09422302;0
2277;1740200964;-0.29633772;-0.49722657;0.17807068;-0.7957254;-0.0874756;0.08010503;0.08269596;0
2280;1740250965;-0.29622197;-0.4970708;0.17852779;-0.7957634;-0.08075121;0.08354713;0.06635094;0
2283;1740300966;-0.29590777;-0.4970717;0.17896487;-0.79578143;-0.035395958;0.054036044;0.08182526;0
2285;1740334300;-0.29571703;-0.49719623;0.17898779;-0.7957694;-0.008736675;0.07822998;0.11050224;0
2288;1740384301;-0.29546273;-0.49731335;0.17901354;-0.79578495;-0.014616183;0.05326314;0.08896637;0
2291;1740434302;-0.29538018;-0.49734193;0.17908055;-0.79578257;-0.001963338;0.014429773;0.12319851;0
2293;1740467636;-0.2954228;-0.4972195;0.17922826;-0.79581;0.010884411;0.016181445;0.10842037;0
2297;1740534304;-0.2954197;-0.49727732;0.17911685;-0.79580015;0.005158232;0.003411478;0.10095692;0
2300;1740584305;-0.29530492;-0.49735844;0.17892288;-0.79583573;-0.010222365;0.05621105;0.09342003;0
2303;1740634306;-0.29532075;-0.49716204;0.17905897;-0.795922;-0.004558994;0.019453004;0.1236105;0
2306;1740684307;-0.2952749;-0.49690765;0.17910971;-0.7960864;0.002673662;0.020966185;0.11049938;0
2308;1740717641;-0.29525214;-0.49674878;0.17907248;-0.7962023;-0.047887426;0.016406298;0.07658672;0
2311;1740767642;-0.29528677;-0.49643022;0.17913033;-0.79637516;-0.044964325;0.030044835;0.11564064;0
2314;1740817643;-0.29536283;-0.4960674;0.17920166;-0.79655695;-0.02406442;0.014387336;0.09114361;0
2316;1740850977;-0.29535735;-0.49582815;0.17925191;-0.79669666;-0.001788998;0.01942417;0.08841133;0
2320;1740917645;-0.29519838;-0.49545103;0.17932396;-0.79697394;-0.016231958;0.024242885;0.077521324;0
2323;1740967646;-0.2952674;-0.49507266;0.17938899;-0.79716885;-0.054679763;0.11424619;0.004890442;0
2327;1741034314;-0.29547483;-0.49461344;0.17997216;-0.7972456;-0.015723465;-0.029167099;0.12748814;0
2330;1741084315;-0.2953728;-0.49482083;0.18017225;-0.7971095;-0.064833954;8.26E-04;0.17232704;0
2333;1741134316;-0.29531384;-0.4948638;0.1801847;-0.79710186;-0.035585597;-0.007685479;0.103666306;0
2335;1741167650;-0.29532582;-0.4949392;0.18018873;-0.79704964;-0.053616736;0.017253188;0.08813286;0
2338;1741217651;-0.2954136;-0.49505073;0.18018913;-0.79694784;-0.032313716;0.014494591;0.114580154;0
2341;1741267652;-0.29547256;-0.49520573;0.18016283;-0.79683554;-0.006983216;0.011437829;0.07241535;0
2343;1741300986;-0.29547733;-0.4953415;0.18021506;-0.7967375;-0.013036841;0.01241391;0.08899212;0
2346;1741350987;-0.29548162;-0.49543864;0.1802197;-0.7966746;-0.030270807;-0.00160974;0.12929058;0
2349;1741400988;-0.2956655;-0.49519914;0.1802609;-0.796746;-0.025056472;0.030451853;0.09341526;0
2351;1741434322;-0.29580483;-0.49505058;0.18022348;-0.79679495;-0.043304965;0.05610287;0.07675648;0
2355;1741500990;-0.2960571;-0.49481672;0.18029365;-0.79683065;-0.011138321;0.039718475;0.121234894;0
2358;1741550991;-0.29619485;-0.4946314;0.18036683;-0.796878;-0.045871787;0.017560743;0.101903915;0
2361;1741600992;-0.296287;-0.49443018;0.18040244;-0.7969605;-0.03398291;0.015138532;0.116799355;0
2364;1741650993;-0.29624927;-0.49421704;0.18020003;-0.7971526;-0.050960507;0.054536045;0.07710171;0
2366;1741684327;-0.29620877;-0.49418294;0.18009976;-0.79721135;-0.03979939;0.008047584;0.07770538;0
2369;1741734328;-0.29641777;-0.49396336;0.1801771;-0.7972522;-0.033564493;0.114359066;0.057209015;0
2372;1741784329;-0.29661787;-0.49378237;0.1805393;-0.7972081;-0.046274334;0.03947261;0.07588196;0
2374;1741817663;-0.29650083;-0.49374282;0.18067718;-0.7972449;-0.003722608;0.036146067;0.069646835;0
2377;1741867664;-0.29626754;-0.49377662;0.18040435;-0.7973724;-0.04514671;0.058232278;0.117708206;0
2380;1741917665;-0.29611054;-0.49361786;0.18011421;-0.79759467;-0.06993497;0.07076912;0.095962524;0
2382;1741950999;-0.29610047;-0.49341372;0.1800935;-0.79772925;-0.05795892;0.031379208;0.10778618;0
2385;1742001000;-0.29619622;-0.49309176;0.18018521;-0.7978721;-0.06710105;0.049815673;0.09053898;0
2388;1742051001;-0.29627508;-0.49296433;0.18024257;-0.7979086;-0.025068989;0.02111907;0.07722759;0
2391;1742101002;-0.29630238;-0.49292654;0.1802853;-0.79791206;-0.04724505;0.05240373;0.12733746;0
2393;1742134336;-0.296425;-0.4927753;0.18037146;-0.79794055;-0.03359981;0.043502327;0.081643105;0
2396;1742184337;-0.2967034;-0.49248713;0.18053421;-0.79797816;-0.0692651;0.039755132;0.09915924;0
2399;1742234338;-0.29699767;-0.49223322;0.18058163;-0.79801464;-0.024607658;0.02253927;0.09205723;0
2401;1742267672;-0.29724348;-0.49207878;0.18061769;-0.79801023;-0.034501906;0.017944962;0.074500084;0
2404;1742317673;-0.2975459;-0.49193984;0.18077442;-0.7979477;-0.009935821;-0.016104331;0.104917526;0
2407;1742367674;-0.2977717;-0.49174553;0.18097872;-0.7979369;-0.008558535;0.002583363;0.13224316;0
2410;1742417675;-0.29790038;-0.491777;0.18121189;-0.7978165;-0.036636457;0.014259232;0.08732128;0
2412;1742451009;-0.2979688;-0.49187562;0.18138051;-0.7976919;0.026248468;-0.060951535;0.14557743;0
2415;1742501010;-0.29813963;-0.4919572;0.1818764;-0.79746497;0.013896247;-0.058901474;0.12397289;0
2418;1742551011;-0.29810792;-0.49232632;0.18259802;-0.797084;0.007787191;-0.027059149;0.094242096;0
2420;1742584345;-0.2979663;-0.492724;0.18272656;-0.79686165;0.009986335;0.025184993;0.13187122;0
2423;1742634346;-0.2977738;-0.49314713;0.18272933;-0.79667115;-0.013927762;0.005871015;0.06298828;0
2426;1742684347;-0.29762235;-0.49358317;0.18275698;-0.7964513;-0.00790543;-9.22E-04;0.119662285;0
2428;1742717681;-0.29757363;-0.49375814;0.18272664;-0.7963681;0.006826793;-0.018988745;0.1478653;0
2431;1742767682;-0.2974214;-0.4940055;0.18239914;-0.79634666;0.010889552;-4.68E-04;0.07624149;0
2435;1742834350;-0.2970097;-0.49439865;0.18198012;-0.7963522;-0.05432192;0.022880798;0.12770271;0
2438;1742884351;-0.29678485;-0.49440378;0.18199944;-0.7964285;-0.002511615;0.039094202;0.10548401;0
2441;1742934352;-0.29665536;-0.49434474;0.1818677;-0.7965434;0.009635643;0.056707248;0.10183239;0
2443;1742967686;-0.29648894;-0.49430388;0.1818181;-0.79664207;-0.01695748;0.037633546;0.104289055;0
2446;1743017687;-0.29630482;-0.49424577;0.18160278;-0.7967958;-0.023500375;0.025638724;0.097042084;0
2449;1743067688;-0.29620868;-0.49415368;0.18142925;-0.79692805;-0.043646045;0.016758777;0.11992645;0
2451;1743101022;-0.29624262;-0.49405608;0.18135129;-0.79699373;-0.034249112;0.01518927;0.10991669;0
2454;1743151023;-0.29639614;-0.4939436;0.18136501;-0.79700315;-0.039804753;0.017370757;0.07967472;0
2457;1743201024;-0.2967993;-0.49369216;0.1815215;-0.7969734;-0.020012457;0.069216155;0.06736946;0
2459;1743234358;-0.29715955;-0.49358624;0.18180817;-0.7968394;-0.014039966;-0.008453707;0.08394241;0
2464;1743317693;-0.29755145;-0.49384815;0.1818818;-0.7965139;-0.07749306;0.060016133;0.1450243;0
2466;1743351027;-0.29766613;-0.49394137;0.18173864;-0.79644597;-0.085195564;0.032724354;0.084337234;0
2469;1743401028;-0.29774463;-0.49409592;0.18168187;-0.7963337;-0.04152446;0.022304358;0.080179214;0
2472;1743451029;-0.2980016;-0.49414194;0.18159235;-0.7962295;-0.03015525;0.050068915;0.11196518;0
2476;1743517697;-0.29821318;-0.49419037;0.18139668;-0.79616475;-0.04860133;0.08354333;0.13412952;0
2478;1743551031;-0.2982823;-0.49421006;0.18123893;-0.79616266;-0.06029262;0.01029523;0.11556625;0
2481;1743601032;-0.29842907;-0.49406886;0.18118034;-0.7962084;-0.0683373;0.07876798;0.0816679;0
2484;1743651033;-0.29862106;-0.49378893;0.18118638;-0.7963088;-0.03584969;0.061135933;0.0879488;0
2486;1743684367;-0.29864854;-0.49359304;0.18115804;-0.7964263;-0.052140433;0.08907818;0.10672951;0
2489;1743734368;-0.29860687;-0.49337268;0.18118837;-0.7965717;-0.05380538;0.030564278;0.1296196;0
2493;1743801036;-0.2985267;-0.49297035;0.18118843;-0.79685074;-0.05843411;0.028922576;0.05207157;0
2496;1743851037;-0.2985952;-0.49267006;0.18147196;-0.7969462;-0.052633055;0.05748485;0.11978912;0
2499;1743901038;-0.29876834;-0.49231634;0.18178207;-0.7970292;-0.02484503;0.02773617;0.08244419;0
2501;1743934372;-0.29903102;-0.49196672;0.18211238;-0.7970712;-0.06145891;0.05997568;0.08029175;0
2504;1743984373;-0.29934046;-0.49169517;0.18257228;-0.7970175;-0.05298973;0.057956114;0.076034546;0
2507;1744034374;-0.29947942;-0.49166232;0.18286231;-0.796919;-0.037343204;0.04871152;0.08625984;0
2509;1744067708;-0.299581;-0.49165902;0.1828769;-0.79687953;-0.027385253;0.11964648;0.15284252;0
2512;1744117709;-0.29971248;-0.49148223;0.18278834;-0.7969594;-0.02957881;0.04171534;0.06614971;0
2515;1744167710;-0.29995745;-0.49123883;0.18282163;-0.79700965;-0.0480716;0.054721784;0.14413738;0
2518;1744217711;-0.30018157;-0.49087375;0.18283126;-0.79714805;-0.059830394;0.024225004;0.09793377;0
2520;1744251045;-0.30022115;-0.4907847;0.18286924;-0.7971792;-0.018142324;0.040277034;0.095005035;0
2523;1744301046;-0.30009702;-0.49064982;0.18268904;-0.79735035;-0.06673138;0.03460153;0.12669659;0
2526;1744351047;-0.3001479;-0.49029058;0.18241012;-0.7976159;-0.050642896;0.051196985;0.17139626;0
2528;1744384381;-0.30018342;-0.4899775;0.18237601;-0.79780257;-0.06588402;-0.012336127;0.12368488;0
2531;1744434382;-0.30028936;-0.48953074;0.18226488;-0.7980627;-0.033064496;0.03479538;0.16294289;0
2534;1744484383;-0.30052966;-0.48901367;0.18227616;-0.79828644;-0.04928729;0.009307079;0.13383675;0
2536;1744517717;-0.30064166;-0.48882696;0.18258792;-0.79828733;-0.033630654;-0.010288524;0.1624136;0
2539;1744567718;-0.300803;-0.4891075;0.18313842;-0.7979287;-0.07356862;-0.011728396;0.25134373;0
2542;1744617719;-0.30096567;-0.48900163;0.18384917;-0.7977687;-0.049875934;0.02431608;0.30576134;0
2544;1744651053;-0.3015898;-0.48777997;0.18445161;-0.7981418;-0.043557312;0.094155505;0.30844784;0
2547;1744701054;-0.30263424;-0.48409408;0.18502484;-0.799856;0.037774585;0.05397212;0.18252373;0
2550;1744751055;-0.30365306;-0.47931308;0.18494648;-0.8023633;-0.07365199;-0.07512561;0.19477272;0
2553;1744801056;-0.30485216;-0.47366333;0.18488282;-0.80527306;-0.10782846;-0.001517877;0.169631;0
2555;1744834390;-0.30563527;-0.46962678;0.18457662;-0.807408;-0.04811854;-0.038860634;0.17459297;0
2558;1744884391;-0.30711848;-0.4639768;0.18438494;-0.81015074;0.020835431;0.006074188;0.05733776;0
2561;1744934392;-0.30830902;-0.4584841;0.1842596;-0.8128496;0.02681771;0.015764987;0.1724453;0
2563;1744967726;-0.3084916;-0.45504966;0.18479791;-0.8145862;0.06337397;0.030504378;0.026651382;0
2566;1745017727;-0.30821124;-0.45200062;0.1853225;-0.8162692;-0.06916653;-0.20405348;-0.12496376;0
2569;1745067728;-0.30858436;-0.45028496;0.18716785;-0.8166552;-0.08235044;-0.23972413;-0.42295074;0
2573;1745134396;-0.30962837;-0.4474115;0.19180924;-0.81676245;-0.100668445;0.012722357;-0.12803364;0
2576;1745184397;-0.31016675;-0.4450125;0.19551073;-0.8169909;0.10117761;0.14047901;-0.03470707;0
2578;1745217731;-0.31051397;-0.44413918;0.19725807;-0.81691444;0.10298248;-0.033156134;-0.06606865;0
2581;1745267732;-0.31202337;-0.44346446;0.19755319;-0.8166344;-0.17245567;0.24668075;0.2056303;0
2584;1745317733;-0.31326157;-0.44285214;0.19801815;-0.81638;-0.1375378;0.07922953;0.12342644;0
2586;1745351067;-0.31287935;-0.4453471;0.1996697;-0.8147655;-0.01283702;0.13138404;0.0580101;0
2589;1745401068;-0.3118092;-0.44821125;0.20062727;-0.8133688;-0.09027398;0.43385318;1.2216797;0
2592;1745451069;-0.31070465;-0.4506436;0.20120701;-0.8123035;-0.114822626;-0.014118866;0.057893753;0
2594;1745484403;-0.30962208;-0.4515456;0.20140187;-0.81216776;0.03874597;0.01316849;0.060022354;0
2597;1745534404;-0.30854955;-0.4528033;0.20094165;-0.8119896;-0.24027732;0.05337467;0.13306904;0
2601;1745601072;-0.30773216;-0.45456144;0.19975209;-0.81161094;-0.012510691;0.028956104;0.08756542;0
2604;1745651073;-0.30795288;-0.45681304;0.1986438;-0.8105342;-0.21907063;0.6260319;1.3871918;0
2607;1745701074;-0.30758792;-0.45890003;0.19822043;-0.809597;-9.60E-04;0.16791679;0.08350468;0
2609;1745734408;-0.30779207;-0.4583617;0.19782254;-0.80992186;0.093401596;0.10144515;-0.089764595;0
2612;1745784409;-0.30849922;-0.45679277;0.19731027;-0.8106637;-0.0735076;0.3144025;0.17201328;0
2615;1745834410;-0.3090415;-0.45484024;0.19672237;-0.81169724;-0.036131985;0.070162505;-0.069989204;0
2617;1745867744;-0.3093776;-0.45351633;0.19657432;-0.81234574;-0.03464339;0.24734972;0.41473103;0
2620;1745917745;-0.30948758;-0.45181617;0.19570912;-0.81345916;0.031595122;-0.14922418;-0.020253181;0
2623;1745967746;-0.30918;-0.45076233;0.19470982;-0.8144;-0.10214855;-0.029762985;0.16915226;0
2625;1746001080;-0.30895022;-0.44992897;0.19402537;-0.8151112;-0.09761682;-0.17438771;-0.003709793;0
2630;1746084415;-0.3101117;-0.44805652;0.19572084;-0.81529605;-0.120338485;-0.050942402;0.18860435;0
2632;1746117749;-0.31050366;-0.44738424;0.19703656;-0.81519914;0.040289328;-0.032014877;0.21912575;0
2635;1746167750;-0.31119585;-0.44616026;0.19859499;-0.81522787;0.0830744;0.05970165;0.17523861;0
2638;1746217751;-0.3117392;-0.44524747;0.19880909;-0.81546706;0.08273801;0.07641103;0.04283619;0
2640;1746251085;-0.31194705;-0.4448461;0.19847052;-0.8156891;0.0262098;0.076913044;0.026893616;0
2643;1746301086;-0.31147552;-0.44454408;0.19813064;-0.8161164;-0.025274174;0.003320508;0.06712437;0
2646;1746351087;-0.3105923;-0.44451058;0.19835234;-0.8164174;-0.11180498;-0.05244955;0.10420227;0
2648;1746384421;-0.3101975;-0.4445315;0.19891861;-0.8164185;-0.100915655;-0.049349204;0.1739397;0
2651;1746434422;-0.3097603;-0.44430563;0.19999169;-0.81644523;-0.024245568;-0.014844613;0.09930611;0
2654;1746484423;-0.30956286;-0.44407338;0.20022781;-0.8165886;-0.028759412;0.05276381;0.16123962;0
2657;1746534424;-0.30984542;-0.44359958;0.20024861;-0.8167337;-0.04372517;0.06345488;0.03668499;0
2659;1746567758;-0.31017223;-0.443259;0.20044535;-0.81674635;-0.054763358;0.08394543;0.122057915;0
2662;1746617759;-0.31066844;-0.44288746;0.2005248;-0.8167398;-0.06486189;0.047266062;0.07961941;0
2665;1746667760;-0.3110299;-0.44284564;0.20052882;-0.81662387;-0.077687964;-0.041574527;0.1264267;0
2667;1746701094;-0.31120166;-0.44289178;0.20072004;-0.8164865;-0.06653221;0.005108165;0.12498188;0
2670;1746751095;-0.31142583;-0.44288608;0.20074464;-0.8163981;-0.086236216;0.0151021;0.056035995;0
2673;1746801096;-0.3116297;-0.44298697;0.20093513;-0.8162187;-0.0807758;0.025144314;0.13608742;0
2675;1746834430;-0.3116844;-0.4431631;0.20102282;-0.8160805;-0.014842604;0.034032274;0.08024883;0
2678;1746884431;-0.31174886;-0.44322002;0.20111704;-0.8160017;-0.07081784;0.034307674;0.113842964;0
2681;1746934432;-0.31161234;-0.4431888;0.20105417;-0.8160864;-0.06343588;0.031692795;0.040005684;0
2684;1746984433;-0.31149805;-0.44304883;0.20104001;-0.81620955;-0.10087654;0.034143392;0.1142025;0
2686;1747017767;-0.31164002;-0.44271046;0.20131496;-0.8162712;-0.09189713;0.012152176;0.16008282;0
2689;1747067768;-0.31209713;-0.44202086;0.20177998;-0.81635535;-0.025151242;0.017049344;0.08977413;0
2692;1747117769;-0.31248844;-0.4411062;0.20214628;-0.81660974;-0.07553643;0.002998203;0.1128006;0
2694;1747151103;-0.31280681;-0.44046083;0.20230895;-0.81679595;-0.08665837;-0.015741967;0.08416557;0
2697;1747201104;-0.31326103;-0.4392895;0.20265917;-0.81716573;0.013740012;0.06169762;0.04648304;0
2700;1747251105;-0.31413618;-0.438244;0.20327088;-0.8172393;-0.118733436;-0.07387394;0.16508579;0
2702;1747284439;-0.31523222;-0.43624103;0.20374562;-0.8177704;-0.10011056;-0.037758492;0.25787163;0
2705;1747334440;-0.31685632;-0.4339862;0.20409253;-0.8182558;0.09363449;-0.18558928;-0.09339237;0
2709;1747401108;-0.3182227;-0.43422246;0.20424095;-0.817563;-0.16549323;0.043012384;0.1916933;0
2712;1747451109;-0.31931615;-0.43544775;0.20550884;-0.8161661;7.56E-04;0.030524494;-0.001820564;0
2715;1747501110;-0.32008743;-0.4363798;0.20700474;-0.8149872;0.006454384;0.050169718;0.10210323;0
2717;1747534444;-0.3203926;-0.43673512;0.20785889;-0.8144593;-0.09823506;0.10458283;0.16566753;0
2720;1747584445;-0.3211454;-0.43706936;0.20849791;-0.81382;-0.13491644;0.05567462;0.10195446;0
2723;1747634446;-0.3211;-0.43755466;0.2088308;-0.81349176;0.05107338;-0.020913437;0.055067062;0
2727;1747701114;-0.3202662;-0.4380972;0.20897625;-0.8134911;-0.08719106;-0.030723197;0.21940994;0
2729;1747734448;-0.31980705;-0.4385246;0.20894472;-0.8134494;-0.07529682;0.03570195;0.14482021;0
2732;1747784449;-0.3189692;-0.43990582;0.20846325;-0.8131561;-0.08097031;0.112750605;0.2267971;0
2735;1747834450;-0.31872177;-0.44020727;0.20831352;-0.81312835;-0.12589926;0.10562038;0.14348984;0
2739;1747901118;-0.31898785;-0.4400255;0.20731638;-0.81337714;-0.09407437;-0.026964156;0.11424446;0
2742;1747951119;-0.319013;-0.4399377;0.20591588;-0.8137706;0.021420363;0.013573048;0.122938156;0
2744;1747984453;-0.3188666;-0.44021565;0.20466608;-0.8139929;0.013901835;0.015897136;0.19325542;0
2747;1748034454;-0.3184702;-0.44048023;0.20256732;-0.8145298;-0.034527387;-0.002187745;0.14365673;0
2751;1748101122;-0.31852603;-0.44077027;0.1998147;-0.8150308;-0.053256586;0.016649151;0.025367737;0
2754;1748151123;-0.31869936;-0.44111335;0.19799036;-0.8152226;0.004022116;0.08723219;0.026168823;0
2756;1748184457;-0.31874722;-0.44128573;0.19697255;-0.8153572;-0.054625448;0.001913718;0.07918358;0
2759;1748234458;-0.31853187;-0.44118327;0.19604996;-0.81571895;0.002131196;0.1367944;0.14796448;0
2762;1748284459;-0.3185696;-0.44052798;0.19459254;-0.81640714;-0.024138281;0.07078476;0.03274536;0
2765;1748334460;-0.31883013;-0.43963346;0.19355904;-0.817033;-0.051840253;0.08282764;0.019716263;0
2769;1748401128;-0.31969738;-0.43773246;0.19346927;-0.8177358;-0.14699888;0.018660203;0.028611183;0
2771;1748434462;-0.32024798;-0.43653116;0.19430593;-0.8179641;0.016718546;-0.11088791;0.18587685;0
2774;1748484463;-0.3213359;-0.43314803;0.1953759;-0.8190803;0.002490828;-0.16394652;0.31525135;0
2777;1748534464;-0.32230908;-0.43043664;0.19627355;-0.8199123;-0.065977;0.073449485;0.032170296;0
2779;1748567798;-0.32288766;-0.42976156;0.19713856;-0.8198313;-0.051055945;0.066178836;-0.020151138;0
2782;1748617799;-0.32369715;-0.42888933;0.19844048;-0.81965476;-0.052215308;0.16117072;0.14183807;0
2785;1748667800;-0.32433486;-0.4283539;0.19940089;-0.81944937;-0.010731975;0.03922809;0.02699852;0
2787;1748701134;-0.32461864;-0.4283931;0.20007563;-0.81915224;-0.020578837;-0.008468235;0.11925793;0
2790;1748751135;-0.3249604;-0.42873213;0.20129173;-0.8185411;-0.03477504;-0.08399706;0.11454964;0
2793;1748801136;-0.3256126;-0.4284125;0.20240617;-0.81817436;-0.07037126;-0.08586943;0.17726517;0
2796;1748851137;-0.3261206;-0.4278952;0.20354149;-0.81796104;0.031838972;-0.031161282;0.13901329;0
2798;1748884471;-0.32622725;-0.42795;0.20406869;-0.81775844;-0.059431203;0.10384211;0.16431999;0
2801;1748934472;-0.32572824;-0.42845133;0.20405939;-0.8176971;-0.03162798;0.10754348;0.08122158;0
2804;1748984473;-0.3250485;-0.42943397;0.2036148;-0.81756306;-0.04626897;0.14869379;0.06615639;0
2808;1749051141;-0.32406688;-0.43033504;0.20277922;-0.8176866;8.20E-04;0.0990769;0.1603756;0
2810;1749084475;-0.32374826;-0.43044597;0.20227529;-0.8178792;-0.02334034;1.53E-04;0.12410259;0
2813;1749134476;-0.32325047;-0.43061274;0.2017592;-0.8181158;0.004609508;-0.048817016;0.1625557;0
2816;1749184477;-0.3230417;-0.43096095;0.20124993;-0.81814027;-0.024340114;-0.004577769;0.068198204;0
2819;1749234478;-0.32314116;-0.43141785;0.20069289;-0.8179969;-0.1109192;0.006913927;0.109353065;0
2821;1749267812;-0.32328135;-0.43165076;0.20028713;-0.8179182;-0.08211665;0.035121933;0.12534618;0
2824;1749317813;-0.3236938;-0.4316686;0.19991337;-0.8178371;-0.08126506;0.11840554;0.095124245;0
2827;1749367814;-0.32412684;-0.431632;0.19950141;-0.81778556;-0.06897687;0.059234083;0.115205765;0
2829;1749401148;-0.32451004;-0.4315986;0.1994439;-0.81766516;-0.11414941;0.11458593;0.11895752;0
2832;1749451149;-0.32505393;-0.43144268;0.19909856;-0.8176155;-0.050298907;0.055040065;0.08006954;0
2835;1749501150;-0.3255778;-0.43125135;0.19883215;-0.81757283;-0.039848782;-0.037347674;0.12612915;0
2837;1749534484;-0.32576978;-0.43133152;0.198342;-0.8175732;-0.078077324;0.061957568;0.09196186;0
2840;1749584485;-0.32598156;-0.43146408;0.1978648;-0.8175345;-0.10804571;0.006260598;0.11237717;0
2843;1749634486;-0.32625872;-0.4316506;0.19778232;-0.8173455;-0.07142826;-0.038858846;0.11524773;0
2846;1749684487;-0.3264058;-0.4318468;0.19795014;-0.8171424;-0.0527374;-0.002839785;0.09971237;0
2850;1749751155;-0.32649657;-0.43192375;0.1983422;-0.81697035;0.014629817;-0.008485446;0.07785988;0
2852;1749784489;-0.32643938;-0.43199396;0.19835746;-0.81695247;-0.02958328;-0.026027413;0.13310814;0
2855;1749834490;-0.3262487;-0.43220165;0.19832553;-0.8169265;-0.050830647;0.06968128;0.09748459;0
2858;1749884491;-0.32595593;-0.43240598;0.1981291;-0.81698287;-0.08845503;0.001220828;0.13053799;0
2860;1749917825;-0.32575417;-0.43242264;0.19808303;-0.8170657;-0.05840483;0.05163194;0.11438656;0
2863;1749967826;-0.32561624;-0.4322136;0.19805199;-0.8172388;-0.095471546;0.001253908;0.093387604;0
2866;1750017827;-0.3255571;-0.43194354;0.1980334;-0.81740963;-0.07837124;-0.002299501;0.12040138;0
2868;1750051161;-0.32571805;-0.43171883;0.1981515;-0.8174355;-0.09885464;0.022409856;0.053569794;0
2871;1750101162;-0.32608724;-0.43127042;0.19874308;-0.8173814;-0.07163322;-0.009071721;0.10024166;0
2874;1750151163;-0.32642457;-0.43102956;0.19972439;-0.8171346;-0.005828994;-0.042071175;0.1312685;0
2878;1750217831;-0.326459;-0.43143064;0.20073846;-0.81666064;-0.017880812;0.001569061;0.2189579;0
2881;1750267832;-0.32621384;-0.431556;0.2007876;-0.81668013;-0.016795658;0.05473296;0.07131863;0
2883;1750301166;-0.32598436;-0.43168342;0.20058763;-0.8167536;-0.01648028;0.06002284;0.07036877;0
2886;1750351167;-0.32566243;-0.43180823;0.20037113;-0.81686914;-0.055449765;-0.016506655;0.13181973;0
2889;1750401168;-0.32545483;-0.43184876;0.20025708;-0.8169584;-0.024725674;-0.047426097;0.12196159;0
2891;1750434502;-0.32537642;-0.4319474;0.20026007;-0.8169368;0.00196669;-0.047977056;0.06377506;0
2894;1750484503;-0.3251047;-0.43222398;0.19988161;-0.8169914;-0.039488256;-0.04140041;0.13650131;0
2897;1750534504;-0.32491148;-0.43247592;0.19956152;-0.81701326;-0.020634046;-0.050740793;0.116859436;0
2900;1750584505;-0.32484594;-0.43272078;0.19917114;-0.817005;-0.011641448;0.011216551;0.10806751;0
2902;1750617839;-0.3247625;-0.4328382;0.19889097;-0.8170442;-0.007978071;0.016560968;0.1168623;0
2906;1750684507;-0.32437333;-0.43270275;0.19788782;-0.8175138;-0.040971488;0.033730786;0.078575134;0
2909;1750734508;-0.32392842;-0.43248922;0.19722748;-0.8179629;-0.058107335;0.010836579;0.09282303;0
2912;1750784509;-0.3234774;-0.43254837;0.19647443;-0.81829125;-0.05540372;0.03015458;0.10774231;0
2914;1750817843;-0.32331666;-0.4326719;0.19614299;-0.8183689;-0.0702946;0.016495703;0.09206772;0
2917;1750867844;-0.3230276;-0.4331795;0.19591212;-0.8182697;-0.048914693;0.029222978;0.14021587;0
2920;1750917845;-0.32297927;-0.4333088;0.19569376;-0.8182727;-0.08727376;0.037398413;0.09973335;0
2922;1750951179;-0.32307073;-0.43336236;0.1956092;-0.8182283;-0.055347428;0.021360299;0.09532642;0
2925;1751001180;-0.3232885;-0.43351632;0.19576257;-0.8180241;-0.055018384;0.01705672;0.15754128;0
2928;1751051181;-0.323513;-0.43370357;0.19591352;-0.8177999;-0.07210975;0.051896133;0.10971165;0
2931;1751101182;-0.32380497;-0.43397602;0.19629127;-0.8174491;-0.017045991;0.002713671;0.12683964;0
2933;1751134516;-0.3238525;-0.43423456;0.19641727;-0.8172629;-0.045760702;0.006257916;0.1262083;0
2936;1751184517;-0.32386985;-0.43460652;0.1966001;-0.8170142;-0.06587865;6.60E-04;0.11456013;0
2939;1751234518;-0.32392424;-0.43492335;0.19693056;-0.81674445;-0.09147491;0.013980735;0.12348175;0
2941;1751267852;-0.32408613;-0.4351445;0.1971983;-0.8164978;-0.107273296;0.050314218;0.12400246;0
2944;1751317853;-0.3243457;-0.43541527;0.19775033;-0.8161168;-0.07450782;0.044688288;0.10942078;0
2947;1751367854;-0.32440805;-0.4358083;0.19798009;-0.8158265;-0.06783663;0.048335124;0.0877161;0
2949;1751401188;-0.32436556;-0.43617204;0.19814055;-0.81560993;-0.056612257;0.057816543;0.12211609;0
2952;1751451189;-0.3243056;-0.43669564;0.19833282;-0.8153069;-0.09729206;0.05873004;0.06528854;0
2955;1751501190;-0.32429588;-0.43726924;0.19896512;-0.814849;-0.06954382;-0.02514543;0.102469444;0
2958;1751551191;-0.3242494;-0.43767405;0.19984116;-0.8144357;-0.05704654;0.024950529;0.15298462;0
2960;1751584525;-0.3243017;-0.4378427;0.20031016;-0.8142088;-0.13787821;0.02617716;0.11452007;0
2963;1751634526;-0.32416275;-0.43814462;0.20110378;-0.8139062;-0.038228538;-0.012666255;0.124824524;0
2966;1751684527;-0.32397175;-0.43848655;0.20150028;-0.8137;-0.09117921;0.008504668;0.14624405;0
2968;1751717861;-0.32388306;-0.43847814;0.2017537;-0.8136771;-0.08865753;0.09038775;0.12129784;0
2971;1751767862;-0.32382834;-0.4383854;0.20211716;-0.81365865;-0.011423747;-0.008485669;0.08008194;0
2974;1751817863;-0.32378834;-0.4382973;0.2022626;-0.8136859;-0.055324376;0.005238473;0.1300602;0
2976;1751851197;-0.32369718;-0.43821976;0.20229706;-0.8137553;-0.003210093;0.04557094;0.09685135;0
2979;1751901198;-0.3234492;-0.43813;0.2022142;-0.8139228;-0.053796787;-0.012215815;0.10598087;0
2982;1751951199;-0.3232134;-0.4381516;0.20207824;-0.81403863;-0.04573075;0.025471313;0.11350441;0
2986;1752017867;-0.32318106;-0.43812865;0.20182396;-0.81412685;-0.038447134;0.024009315;0.11226177;0
2989;1752067868;-0.3232301;-0.43803698;0.20172623;-0.814181;-0.003082691;0.057844482;0.11467552;0
2991;1752101202;-0.3232643;-0.4380111;0.20157012;-0.81422;-0.05028863;0.04842475;0.11481953;0
2994;1752151203;-0.32338035;-0.43788385;0.20124371;-0.81432307;-0.04619409;0.046072055;0.1104126;0
2997;1752201204;-0.3235153;-0.43775362;0.20126352;-0.8143347;-0.03301465;0.003306874;0.11728001;0
2999;1752234538;-0.32345018;-0.43773526;0.20117319;-0.81439275;-0.02353502;0.043500762;0.060746193;0
3002;1752284539;-0.32341892;-0.43766382;0.20077673;-0.81454134;-0.0682955;0.078500435;0.09722614;0
3005;1752334540;-0.32338196;-0.43752646;0.20041698;-0.8147183;-0.02593242;0.048855014;0.10399151;0
3008;1752384541;-0.3233884;-0.43735114;0.20003475;-0.8149038;-0.048084788;0.020211382;0.11410999;0
3010;1752417875;-0.32326317;-0.43738607;0.19958213;-0.81504595;-0.019159978;-0.004853137;0.1211195;0
3014;1752484543;-0.32323205;-0.43752956;0.19898295;-0.8151276;-0.06330289;-0.004856266;0.108911514;0
3017;1752534544;-0.32337052;-0.4375196;0.19867589;-0.81515294;-0.028466467;0.020378018;0.13024998;0
3020;1752584545;-0.3235404;-0.43749434;0.19829674;-0.81519127;-0.057376895;0.052158758;0.09134579;0
3022;1752617879;-0.32357198;-0.43753576;0.19802307;-0.81522316;-0.05173364;0.060488194;0.09441185;0
3025;1752667880;-0.32363194;-0.43755117;0.19764507;-0.8152828;-0.055943504;0.052594386;0.108641624;0
3028;1752717881;-0.32362947;-0.4373107;0.19722053;-0.8155156;-0.021661311;0.024632692;0.101285934;0
3030;1752751215;-0.32357544;-0.43715537;0.19690913;-0.81569546;-0.055345383;0.006951029;0.10453415;0
3033;1752801216;-0.32336116;-0.43703514;0.19646618;-0.8159518;-0.027233712;0.00983904;0.12778187;0
3036;1752851217;-0.3231523;-0.4369669;0.19587718;-0.81621265;-0.09670691;0.026321542;0.08628273;0
3039;1752901218;-0.3230492;-0.43686852;0.19575922;-0.8163343;-0.059752166;-0.06675259;0.11835384;0
3043;1752967886;-0.32292908;-0.43680158;0.19563898;-0.81644654;-0.07635046;0.001320291;0.14305782;0
3045;1753001220;-0.32294622;-0.43676388;0.19552967;-0.816486;-0.102729015;0.01891523;0.07575226;0
3048;1753051221;-0.32291526;-0.4368101;0.19559345;-0.81645834;-0.06397835;-0.001547827;0.09952068;0
3051;1753101222;-0.32282418;-0.43691224;0.1955981;-0.81643856;-0.0371749;0.02354709;0.12166977;0
3053;1753134556;-0.32279426;-0.43699622;0.19548896;-0.8164315;-0.052094612;-0.023562288;0.10464001;0
3056;1753184557;-0.32280037;-0.4372015;0.19551195;-0.8163136;-0.06280312;0.037649862;0.12962914;0
3059;1753234558;-0.32297245;-0.43728352;0.19560999;-0.81617826;-0.06567101;0.0199644;0.086153984;0
3062;1753284559;-0.32324338;-0.4373318;0.19586356;-0.8159843;-0.060280774;-0.014672508;0.12764835;0
3064;1753317893;-0.32336104;-0.4374051;0.19597998;-0.8158704;-0.034707986;0.013419271;0.12248707;0
3067;1753367894;-0.32373595;-0.43759122;0.19610023;-0.815593;-0.11023704;0.016825609;0.11434746;0
3070;1753417895;-0.32431686;-0.43782192;0.19645916;-0.81515193;-0.077433385;0.009410342;0.08892441;0
3072;1753451229;-0.3246979;-0.4379506;0.19662993;-0.8148898;-0.09351044;0.024092238;0.13994789;0
3075;1753501230;-0.32518163;-0.43819684;0.19681047;-0.814521;-0.08176059;0.03415144;0.07773304;0
3078;1753551231;-0.32553115;-0.43847546;0.19680785;-0.81423193;-0.0969179;0.075492844;0.11760044;0
3080;1753584565;-0.3256718;-0.43853703;0.1967124;-0.8141656;-0.11461856;0.0739021;0.006258011;0
3083;1753634566;-0.3255779;-0.43898094;0.19695371;-0.8139056;-0.07191909;-0.09980748;0.16423416;0
3086;1753684567;-0.32480645;-0.43984073;0.19695626;-0.813749;-0.052804265;-0.075020336;0.1714344;0
3088;1753717901;-0.3244699;-0.44038674;0.19644117;-0.8137124;-0.0937125;0.010455042;0.13193798;0
3091;1753767902;-0.32433522;-0.44066793;0.19600219;-0.8137198;-0.011340824;0.088778004;0.031641006;0
3094;1753817903;-0.32458854;-0.44044286;0.19584294;-0.813779;-0.072470725;0.12387982;0.13656712;0
3097;1753867904;-0.32496932;-0.43990082;0.1959489;-0.8138947;-0.05234852;-0.012952799;0.112309456;0
3099;1753901238;-0.32530576;-0.43957156;0.19608597;-0.8139052;-0.03605577;0.033929266;0.0938921;0
3102;1753951239;-0.3256232;-0.43900037;0.1959851;-0.81411076;-0.06322243;-0.026276406;0.097483635;0
3105;1754001240;-0.32559738;-0.43849862;0.19571258;-0.814457;-0.068174355;0.020296093;0.09950161;0
3107;1754034574;-0.32550117;-0.43814683;0.19564801;-0.81470025;-0.06539296;0.002049837;0.09106445;0
3110;1754084575;-0.32549462;-0.4377284;0.19571108;-0.8149127;-0.06554741;0.025962371;0.12578964;0
3113;1754134576;-0.3256633;-0.4371986;0.19575033;-0.8151202;-0.059711933;-0.01429656;0.091243744;0
3116;1754184577;-0.32590377;-0.43675804;0.19588837;-0.81522703;-0.04888966;0.037876952;0.09769249;0
3118;1754217911;-0.32602268;-0.4364558;0.19597165;-0.8153213;-0.05024482;0.009631174;0.116999626;0
3122;1754284579;-0.32629752;-0.43621194;0.19643608;-0.81523025;-0.035811916;0.004317153;0.14656448;0
3125;1754334580;-0.32635832;-0.43611705;0.19670676;-0.8151914;-0.055103768;0.01069733;0.10423851;0
3128;1754384581;-0.32636926;-0.43611172;0.1971177;-0.8150906;-0.028477786;-0.0477037;0.1418848;0
3130;1754417915;-0.3262419;-0.43619505;0.19725677;-0.81506324;-0.02257749;0.03905129;0.11685848;0
3133;1754467916;-0.32603487;-0.43630767;0.19725181;-0.8150871;-0.07156907;0.06084872;0.1043272;0
3136;1754517917;-0.3257873;-0.4364608;0.19726709;-0.81510043;-0.06286727;0.032126635;0.096829414;0
3138;1754551251;-0.32575792;-0.43654704;0.19732474;-0.815052;-0.1087176;-0.006410352;0.15068245;0
3141;1754601252;-0.32582486;-0.43654975;0.19749269;-0.81498307;-0.05915561;-0.053591255;0.10821056;0
3144;1754651253;-0.32598436;-0.43661714;0.19784895;-0.8147967;-0.032658372;-0.024938906;0.11697292;0
3147;1754701254;-0.32611662;-0.43681335;0.19802293;-0.81459635;-0.06180245;0.022185896;0.10056305;0
3151;1754767922;-0.32619014;-0.437009;0.19823878;-0.81440955;-0.07645797;0.04669588;0.07843399;0
3153;1754801256;-0.3261441;-0.43715486;0.19833851;-0.81432533;-0.08286519;0.025549095;0.12856483;0
3156;1754851257;-0.32598686;-0.43731278;0.1984604;-0.8142739;-0.057418466;0.012836349;0.09319019;0
3159;1754901258;-0.32580447;-0.43746936;0.19852135;-0.8142478;-0.06728165;0.014553599;0.122283936;0
3161;1754934592;-0.32564765;-0.43757173;0.1985591;-0.8142464;-0.0931079;0.039478198;0.10161972;0
3164;1754984593;-0.32539552;-0.4377083;0.19857167;-0.81427073;-0.06739452;-0.003953497;0.10717583;0
3167;1755034594;-0.32517356;-0.43784642;0.19873992;-0.8142441;-0.0701634;-0.019813307;0.13573837;0
3170;1755084595;-0.32503763;-0.4379139;0.19873258;-0.81426394;-0.091550015;0.036159255;0.104166985;0
3172;1755117929;-0.32495308;-0.43792564;0.19889362;-0.8142519;-0.04583826;0.002723729;0.109493256;0
3175;1755167930;-0.32466674;-0.43808436;0.19905944;-0.8142402;-0.043509703;0.027317083;0.09599495;0
3179;1755234598;-0.32458743;-0.43808734;0.19915584;-0.8142468;-0.04794286;0.016607683;0.09382343;0
3182;1755284599;-0.3246835;-0.43808597;0.19938709;-0.81415254;-0.058453556;0.004161141;0.10788345;0
3184;1755317933;-0.3247661;-0.4380624;0.19962107;-0.814075;-0.021674946;0.007679905;0.13269329;0
3187;1755367934;-0.32497624;-0.43794447;0.1999109;-0.8139835;-0.017956138;0.012572157;0.11644173;0
3190;1755417935;-0.32516602;-0.4379645;0.19999562;-0.81387615;-0.057866164;-0.006805746;0.118165016;0
3192;1755451269;-0.32535928;-0.43787634;0.20014958;-0.8138083;-0.0509091;0.044774115;0.08824921;0
3195;1755501270;-0.32564375;-0.4376809;0.20042464;-0.813732;-0.014382836;-9.28E-04;0.1281681;0
3198;1755551271;-0.32564938;-0.4375189;0.20051615;-0.8137943;-0.021605656;0.02275183;0.10479927;0
3201;1755601272;-0.32556176;-0.43745595;0.20042653;-0.81388533;-0.07144793;0.03525157;0.13387012;0
3203;1755634606;-0.325457;-0.43741834;0.20042256;-0.8139484;-0.06653489;-9.54E-04;0.09994602;0
3206;1755684607;-0.32530257;-0.4373404;0.20054956;-0.81402063;-0.06835719;-0.002337275;0.116342545;0
3209;1755734608;-0.32525775;-0.43721884;0.20079474;-0.81404364;-0.07221681;-0.021006195;0.09959507;0
3211;1755767942;-0.3251633;-0.43725306;0.20095995;-0.81402206;-0.048129715;0.011543774;0.09293747;0
3214;1755817943;-0.3250479;-0.43728575;0.20114712;-0.8140043;-0.043358833;-0.019048668;0.121356964;0
3217;1755867944;-0.3249219;-0.43745765;0.20131165;-0.8139217;-0.0638733;0.038131535;0.119633675;0
3219;1755901278;-0.32481146;-0.43768877;0.20181172;-0.81371754;-0.023215396;0.008488799;0.07803631;0
3222;1755951279;-0.32453573;-0.43802685;0.20204912;-0.8135868;-0.08861328;0.02972521;0.12747097;0
3225;1756001280;-0.32438946;-0.43825343;0.20228513;-0.8134645;-0.077791005;0.010428444;0.10773754;0
3228;1756051281;-0.32446915;-0.43840152;0.20253031;-0.8132918;-0.084044226;0.012252533;0.111512184;0
3230;1756084615;-0.32459664;-0.43844205;0.20287298;-0.8131337;-0.08653483;-0.021330064;0.11991978;0
3233;1756134616;-0.32477367;-0.43855006;0.20318484;-0.8129269;-0.066851385;0.027905593;0.089793205;0
3236;1756184617;-0.32488593;-0.43863785;0.20349133;-0.812758;-0.090164006;-0.014841484;0.11793327;0
3238;1756217951;-0.32504964;-0.43860292;0.20369303;-0.8126608;-0.08204244;0.023705337;0.10777855;0
3241;1756267952;-0.32516557;-0.438398;0.20397745;-0.8126537;-0.06452685;0.052222013;0.07031727;0
3244;1756317953;-0.32517132;-0.4382223;0.20416653;-0.81269866;-0.029945372;0.029399106;0.10132313;0
3246;1756351287;-0.32521605;-0.43823916;0.2042066;-0.8126616;-0.039946683;-0.005096319;0.08571339;0
3249;1756401288;-0.3252011;-0.4384671;0.20408021;-0.8125764;-0.06651366;0.005583577;0.123729706;0
3252;1756451289;-0.3251565;-0.4385728;0.20409417;-0.81253374;-0.08666983;0.012457495;0.11397743;0
3255;1756501290;-0.32527056;-0.43855998;0.20440443;-0.8124169;-0.099037476;0.043594636;0.11573696;0
3259;1756567958;-0.32547736;-0.43820167;0.2049045;-0.8124016;-0.08887836;0.13557759;0.1048851;0
3261;1756601292;-0.32573766;-0.43760124;0.2053258;-0.8125144;-0.114821285;0.1280651;0.09664726;0
3264;1756651293;-0.32613984;-0.4363588;0.20624605;-0.81278825;-0.022952955;0.15048559;0.14634037;0
3267;1756701294;-0.3257581;-0.434628;0.20741677;-0.81357044;-0.03472721;0.11945203;0.0512228;0
3269;1756734628;-0.3246085;-0.43413848;0.20706782;-0.8143798;-0.005166055;-0.037699707;-0.028752327;0
3272;1756784629;-0.32308742;-0.43365535;0.20577891;-0.8155679;-0.116249315;0.022822013;0.19308662;0
3275;1756834630;-0.32230404;-0.4327388;0.20554136;-0.816424;-0.06943095;-0.047454707;0.111533165;0
3278;1756884631;-0.32285357;-0.43153983;0.20611028;-0.81669813;-0.13116142;-0.06089119;0.18650532;0
3280;1756917965;-0.3234048;-0.43076867;0.2072458;-0.8165999;-0.06349489;-0.08381445;0.040338516;0
3283;1756967966;-0.32441404;-0.43019575;0.20840523;-0.81620634;-0.065598905;-0.051164854;0.08271217;0
3287;1757034634;-0.3259582;-0.42970437;0.20959611;-0.81554484;-0.056551684;0.03414451;0.088451385;0
3290;1757084635;-0.32636815;-0.42936766;0.21000642;-0.81545246;0.04460067;0.097685665;0.17301941;0
3292;1757117969;-0.32604232;-0.4293258;0.20990618;-0.8156308;-0.02061594;0.07834487;0.02030468;0
3295;1757167970;-0.32482165;-0.42963547;0.20921478;-0.8161322;-0.07178074;0.001097225;0.033284187;0
3298;1757217971;-0.32356024;-0.43053222;0.20826355;-0.816404;-0.07056639;-0.07744187;0.08270168;0
3300;1757251305;-0.32298797;-0.43111444;0.20766154;-0.81647676;-0.08362916;-0.03292592;0.17307377;0
3303;1757301306;-0.32256454;-0.43183395;0.20702635;-0.8164251;-0.0920471;-0.011603004;0.10701275;0
3306;1757351307;-0.32250577;-0.43225235;0.20686801;-0.81626713;-0.038243737;0.059829276;0.06348419;0
3309;1757401308;-0.3227757;-0.43212777;0.20658171;-0.81629866;-0.16922344;0.08328316;0.14242077;0
3311;1757434642;-0.32276076;-0.43196714;0.20651186;-0.8164074;-0.009316914;0.082149506;0.045780182;0
3315;1757501310;-0.32244998;-0.43185717;0.20643213;-0.81660855;-0.086807735;0.00961508;-0.027184486;0
3318;1757551311;-0.32166034;-0.4318176;0.20695443;-0.81680864;-0.10700191;0.04142589;0.08148098;0
3321;1757601312;-0.32109937;-0.43149036;0.20706645;-0.81717384;-0.11623339;0.02148814;0.18655872;0
3323;1757634646;-0.32097352;-0.4308197;0.20718077;-0.81754816;-0.110009275;0.13638291;0.12804985;0
3326;1757684647;-0.32095462;-0.43036377;0.20652226;-0.8179621;-0.031685866;0.049228057;-0.009889603;0
3329;1757734648;-0.32143974;-0.4299159;0.20601344;-0.81813544;-0.12109396;0.001605941;0.21107864;0
3332;1757784649;-0.3219037;-0.4295563;0.20557281;-0.8182526;0.049970344;0.007677894;0.16030788;0
3334;1757817983;-0.322348;-0.42905587;0.20515363;-0.81844544;-0.023837881;-0.01594832;0.22767735;0
3337;1757867984;-0.3220634;-0.42873317;0.20430118;-0.8189398;0.057648014;0.014936253;0.02640152;0
3340;1757917985;-0.32183677;-0.4289407;0.20263818;-0.8193332;-0.05811502;-0.001748437;0.07979298;0
3342;1757951319;-0.32191053;-0.42947996;0.20195581;-0.81919026;-0.24304485;0.001354712;-0.01240921;0
3345;1758001320;-0.32138568;-0.4302922;0.20152926;-0.8190752;0.08585781;-0.09391388;0.23744392;0
3348;1758051321;-0.32066423;-0.43172407;0.20150416;-0.81861055;0.007055634;-0.051970337;0.1301117;0
3350;1758084655;-0.32025895;-0.43201715;0.20108798;-0.8187169;-0.122652955;-0.02427172;0.27893734;0
3353;1758134656;-0.31987578;-0.4324366;0.20032965;-0.81883115;-0.02440985;-0.010861388;0.06877518;0
3356;1758184657;-0.3197957;-0.4331422;0.19942361;-0.8187106;0.07960459;-0.08210514;0.030747414;0
3359;1758234658;-0.32027274;-0.43470687;0.19932407;-0.81771857;-0.012111217;-0.14377658;0.05311966;0
3361;1758267992;-0.32057232;-0.43587342;0.20039816;-0.8167172;-0.04127055;-0.152426;0.13123417;0
3364;1758317993;-0.32075912;-0.4371118;0.20108794;-0.8158118;6.89E-04;-0.037381873;0.19441509;0
3367;1758367994;-0.32130358;-0.4382736;0.20104684;-0.81498396;-0.07483638;0.020025866;0.08792305;0
3369;1758401328;-0.32173353;-0.43937445;0.20098512;-0.81423646;-0.113056876;-1.43E-04;0.07232475;0
