"sep=,",,,,,,,,,
"DeviceTag:,Xsens_2,,,,,,,,,,,,,,,,,",,,,,,,,,
"FirmwareVersion:,2.4.0,,,,,,,,,,,,,,,,,",,,,,,,,,
"AppVersion:,2022.0.1,,,,,,,,,,,,,,,,,",,,,,,,,,
"SyncStatus:,Synced,,,,,,,,,,,,,,,,,",,,,,,,,,
"OutputRate:,60Hz,,,,,,,,,,,,,,,,,",,,,,,,,,
"FilterProfile:,General,,,,,,,,,,,,,,,,,",,,,,,,,,
"Measurement Mode:,Sensor fusion Mode - Extended (Quaternion),,,,,,,,,,,,,,,,,",,,,,,,,,
"StartTime:,2020-11-25 11:08:09.693 +0100,,,,,,,,,,,,,,,,,",,,,,,,,,
"© Xsens Technologies B. V. 2005-2020,,,,,,,,,,,,,,,,,,,",,,,,,,,,
PacketCounter,SampleTimeFine,Quat_W,Quat_X,Quat_Y,Quat_Z,FreeAcc_X,FreeAcc_Y,FreeAcc_Z,Status
1,2054157243,0,0,-0.707106781186547,-0.707106781186547,-0.104876846,0.2121973,0.036611646,0
2,2054173910,0.000303321325433606,6.06643626778117e-05,-0.707205922589209,-0.707007558213315,-0.0192341711345467,0.17072775724125,-0.0531316753058793,0
3,2054190577,0.000463796863521587,3.17471120160921e-05,-0.707170221751638,-0.707043182098752,0.0836296681451454,0.0891288635916873,-0.0217747078400057,0
4,2054207244,0.000513629246840956,-8.45764637181628e-05,-0.7070205825041,-0.707192777782254,0.0339778103579878,0.15592504887323,0.0367045477901501,0
5,2054223911,0.00046564118593638,-0.000252812707651461,-0.706727749754636,-0.707485411150484,0.0425667306213354,0.12781658085063,0.0828510039126057,0
6,2054240578,0.000281212060667385,-0.000476193068881318,-0.706362798232618,-0.707849766145984,0.0524854618048722,0.14292720066991,0.0630743831163096,0
7,2054257245,3.13882919181673e-05,-0.000767395984639235,-0.706019170923337,-0.708192304679246,0.0530494170971951,0.116885735787272,0.109272543569053,0
8,2054273912,0.000292655681759051,0.00108376984861468,0.705903440109128,0.708307188328387,0.0681602006773316,0.131511339194732,0.157199148099121,0
9,2054290579,0.000704116562545747,0.0014402958174396,0.705859592299881,0.708349959925227,-0.00461251326725015,0.188232828088928,0.116591998465011,0
10,2054307246,0.00106459603029846,0.00169180020190035,0.705619404073498,0.708588216838476,-0.101003597480417,0.251162442223917,0.0328278647575187,0
11,2054323913,0.00131203008840044,0.00189507677371645,0.705433786063579,0.708772079543963,-0.126130937013013,0.196592895266937,0.15094435348706,0
12,2054340580,0.00156840703067417,0.00200474294484952,0.705464460167429,0.708740725897552,-0.0845349185706429,0.21778561998829,0.221885366436369,0
13,2054357247,0.00175973255086515,0.00206326265507678,0.705570062660188,0.708634978649984,-0.0672892879577824,0.240172790829873,0.121960751001353,0
14,2054373914,0.00196632646744272,0.00212136629356624,0.705601299204394,0.708603161103832,-0.0559689389191537,0.239212704315443,0.022702068473956,0
15,2054390581,0.00226354262187192,0.00224184967115161,0.705313371446312,0.708888495141434,-0.0787727165760795,0.343454580437669,-0.133361565597831,0
16,2054407248,0.00271696721604861,0.00247760385372949,0.704437060258664,0.709756935649397,-0.144773883089282,0.394733423505551,-0.162496424441197,0
17,2054423915,0.00322733057150604,0.00275617676491952,0.703198058102069,0.710981349198769,-0.152404678849646,0.330689191186285,-0.0540216401879595,0
18,2054440582,0.00369111813785459,0.00298055416815247,0.702085871609101,0.712076485239214,-0.134050100520953,0.25059754682026,0.133777416358572,0
19,2054457249,0.00405683346563848,0.00314874319743716,0.70138876326837,0.712760429793472,-0.0524767985791253,0.164317608267657,0.252699681444038,0
20,2054473916,0.00434880945770021,0.00327476467619524,0.701108581943,0.713033744011103,-0.0408843500983266,0.103594851566949,0.217295550512627,0
21,2054490583,0.00464706318168759,0.0034104952875425,0.701080987612104,0.713058358154868,-0.0510981858101522,0.124498371447769,0.110120012154874,0
22,2054507250,0.00489767766102215,0.00355183252400476,0.701121507755257,0.713016148907053,-0.0467251449751229,0.153215192231547,0.0367183099980609,0
23,2054523917,0.00516475008526624,0.00367224286115065,0.701014839808401,0.713118527565599,-0.072396242264855,0.226084371644127,-0.0132572891220229,0
24,2054540584,0.00536357195247893,0.00378041592627448,0.700745088581853,0.713381567872163,-0.134512596415429,0.220613272719642,-0.0353270104146257,0
25,2054557251,0.00555494440231771,0.00386258780614614,0.700461778155589,0.713657845435218,-0.127206769534012,0.190525565506442,-0.0415459164634859,0
26,2054573918,0.00563114952113966,0.00382218927080787,0.700173675291729,0.713940127358535,-0.140984540865072,0.137301579319359,0.0399188223340575,0
27,2054590585,0.00565486423277325,0.00376030125070065,0.699732149343954,0.714373013081754,-0.0638440821917146,0.0719728628613004,0.0907261054179847,0
28,2054607252,0.00566720716191458,0.00368790258666599,0.699331136361647,0.714765866457417,-0.046250536637371,0.0776111890670841,0.112083531300038,0
29,2054623919,0.00569780719848228,0.00358785907773653,0.698923796113549,0.715164449260864,0.00296735135223375,0.14171115129217,0.0125860064519943,0
30,2054640586,0.00571749084833341,0.00351468258665375,0.698577195842185,0.71550322064543,0.0555370555021501,0.182474980698493,0.0616333118635263,0
31,2054657253,0.00574945926309667,0.00346844718819852,0.698285112833978,0.715788247170015,0.0496326781678177,0.210544677612351,0.133551143095465,0
32,2054673920,0.00580586539370064,0.003412191184658,0.698211993411501,0.715859386426334,0.0302356052036491,0.135181532089595,0.156401553374571,0
33,2054690587,0.00586453889719138,0.00339216607417607,0.698282222886369,0.715790498395809,0.0210570345120493,0.122749835111964,0.106905196732403,0
34,2054707254,0.00590511349495184,0.00344538660333276,0.69834952006349,0.715724253307696,-0.0215768038921907,0.183902464225469,0.0841343213738599,0
35,2054723921,0.00590854488252878,0.0034685842368024,0.698400848761537,0.715674026683886,-0.00489547830752492,0.234013461921144,0.0829199274145677,0
36,2054740588,0.00594288767474796,0.00347894837219442,0.698514001709213,0.715563252564363,0.0938748828659198,0.239677114975848,0.070397280175035,0
37,2054757255,0.00596302674216373,0.00351206997752748,0.69867211062161,0.715408547276373,0.0927024472364665,0.231069690922364,0.0929950401367814,0
38,2054773922,0.00599406162974706,0.00362034939058288,0.698824754929383,0.715258642865192,-0.0143822658452628,0.204430078984644,0.151308870867065,0
39,2054790589,0.00599019551737104,0.00369449109013731,0.698964745570234,0.715121495092398,-0.111851539227052,0.234326373773061,0.123645363561184,0
40,2054807256,0.00597246134169785,0.00374289342561964,0.699065975861526,0.715022434506149,-0.0404690238823296,0.181761000324224,0.0473247075086306,0
41,2054823923,0.0059778766581505,0.00380504897234363,0.699110069376168,0.714978948983694,0.0176100956712694,0.163645451689468,0.0174981209182973,0
42,2054840590,0.00593376242063052,0.00388304074129377,0.699055550181343,0.715032202225044,0.0206380478392173,0.10067030754185,0.0614041680021742,0
43,2054857257,0.00589043691821228,0.00400006901131941,0.698896967365596,0.715186920467643,-0.0775914924344347,0.121551286390336,0.107592552526438,0
44,2054873924,0.00569987923395491,0.00406690239979883,0.69866811925226,0.715411651304407,-0.105580280022601,0.215384092446062,0.116780510280973,0
45,2054890591,0.00538039579271609,0.00404683430894027,0.698537221827311,0.715542049215119,-0.0651865646249334,0.250209494241911,0.138308468971129,0
46,2054907258,0.00503963650194981,0.00399692961165771,0.69853019691337,0.715551668726848,0.0209377056004539,0.247114737637407,0.128817467692705,0
47,2054923925,0.00474793066289289,0.00394837717472121,0.69861102102129,0.71547502316971,0.023435589785016,0.265024965187109,0.140342733881152,0
48,2054940592,0.00450557146641725,0.00393988093953192,0.698671702091656,0.715417381575463,0.0499961169130917,0.232035243663459,0.130476522884508,0
49,2054957259,0.00435284904379163,0.00396592256112618,0.698788673949276,0.715303930734099,0.0495232035402672,0.175530194196813,0.11724927332523,0
50,2054973926,0.0042325568366076,0.00402043957272938,0.698933081816962,0.715163246168391,0.0011313424574898,0.136167173715901,0.0766944736474533,0
51,2054990593,0.00417105374370416,0.00412046914360569,0.699144952386464,0.714955914443144,-0.00889456074578012,0.132784660761646,0.0797583653709497,0
52,2055007260,0.0041901726596497,0.00430561313634554,0.699321193045842,0.714782325680723,0.025008082028126,0.16505107824253,0.0215129359376096,0
53,2055023927,0.00428967633006612,0.00454859575790971,0.699327780741728,0.714773785219117,-0.0526209014124085,0.195120483228013,0.024233961139795,0
54,2055040594,0.00445137885866334,0.00483845178555182,0.69926471154392,0.714832594248454,-0.0431871418226615,0.161854484230987,0.0959364761534811,0
55,2055057261,0.00466331903278493,0.0051491171585946,0.699285329171813,0.714808903451233,-0.0721262232589141,0.164625979620489,0.170570206888158,0
56,2055073928,0.00484313223377331,0.00541389732398678,0.699366960988989,0.714725882883052,-0.0669920848783248,0.160714651792606,0.182382412370803,0
57,2055090595,0.00495239377499958,0.00561548273352725,0.69967006429874,0.7144268620886,0.0221790765210396,0.140815197564632,0.228786167717556,0
58,2055107262,0.00500066356499747,0.00575816864160795,0.700253071061506,0.713853957982117,0.0883813317037974,0.110961216012618,0.264737797094109,0
59,2055123929,0.00499407336631097,0.00587262046371132,0.701020180105508,0.713099767665747,0.0455407449442892,0.162531521454576,0.214840886857332,0
60,2055140596,0.00489694948646155,0.00598378980415285,0.701862698006117,0.712270290895865,0.0264770413046028,0.188897899508374,0.165859916626258,0
61,2055157263,0.00477553123420594,0.00608990430904553,0.702822871768483,0.711322794718432,0.0384710283154176,0.212648572241497,0.149412779526622,0
62,2055173930,0.00464193254493856,0.00624569154431721,0.703827365704893,0.710328433250628,-0.0268513714564123,0.256298048706326,0.0412639106030554,0
63,2055190597,0.00452630454242045,0.00644892127660858,0.704809184473025,0.709353182458518,0.0242942431974044,0.257104576112428,0.0118746098360161,0
64,2055207264,0.00449786347739896,0.00677652686074261,0.705657580769936,0.708506334911527,0.0357758578494321,0.238215839045362,-0.0557474795858999,0
65,2055223931,0.00449118726230099,0.00720710339913808,0.706315607282562,0.707846134273991,-0.0034281540586327,0.251730297813511,-0.0568458010571895,0
66,2055240598,0.0044905873039369,0.0077348464052599,0.706822912584104,0.70733399255435,-0.027567305992767,0.252550454866767,-0.0138113404863476,0
67,2055257265,0.00447647258751732,0.00833295483938754,0.707301601141562,0.706848617512548,-0.0608032863958834,0.244791120507353,0.0360912250644114,0
68,2055273932,0.00448314674787622,0.0089791273530021,0.707829604178778,0.706311919845142,-0.0554924224963237,0.209876131482606,0.0195853485524746,0
69,2055290599,0.0045519827127964,0.00970214964700495,0.708285407197075,0.705844834009064,-0.0547874620482373,0.196332168489327,-0.0114009538443499,0
70,2055307266,0.00464698995710029,0.0104417943186303,0.708478254164957,0.705640090833224,-0.120363461471347,0.201997240985361,-0.0554361472338518,0
71,2055323933,0.00477600982565226,0.0112181087238062,0.708305454994161,0.70580076947558,-0.213889043576549,0.248651471744409,-0.101347784872236,0
72,2055340600,0.00478298491398146,0.011911747147985,0.707986819448282,0.70610898367228,-0.330353577900948,0.293302064263927,-0.0273192696154907,0
73,2055357267,0.00473144444693239,0.0124465285843749,0.707696438767849,0.706391143712142,-0.345594334456079,0.276362924800344,0.0952052949167083,0
74,2055373934,0.00467435597063402,0.0128987970895937,0.707616855741246,0.706463132018065,-0.253514669135663,0.259230426985524,0.0624064472424707,0
75,2055390601,0.00454126864072379,0.0132955056482693,0.707878582201547,0.706194391983551,-0.127338112186503,0.183863158606719,0.0957446966306535,0
76,2055407268,0.00438943468101888,0.0135994161896505,0.708424082136423,0.705642337584451,-0.0810977434567273,0.157110125873968,0.00962592030083743,0
77,2055423935,0.00431829632929358,0.0139112451587733,0.708926912211932,0.705131521573529,-0.0565955307710473,0.113317848184121,-0.103842817954158,0
78,2055440602,0.00433405236379981,0.0142387389003716,0.709235256129758,0.704814745707829,-0.0668076247265828,0.144732797832155,-0.0951034246728879,0
79,2055457269,0.00438984542522342,0.0145250859711389,0.709364047476096,0.704678933474674,-0.117130504352492,0.158524706834863,-0.0729039023040615,0
80,2055473936,0.00448284711363149,0.0147450400475223,0.709368905704112,0.704668889263534,-0.140112403148847,0.176520200929772,-0.0653794306522953,0
81,2055490603,0.00455923176609228,0.014900223350705,0.709360422475453,0.704673674671652,-0.10898560314609,0.190979237172576,-0.0146648309665299,0
82,2055507270,0.00461370850438214,0.0149941985551418,0.709437821472426,0.704593404147373,-0.0600370797360698,0.238237200248552,0.0282041607934932,0
83,2055523937,0.0046424027074277,0.0150751871548145,0.709646624280113,0.704381186203316,-0.0239103542687079,0.235544218614093,0.0469268644296147,0
84,2055540604,0.00467969568383003,0.0151666874862524,0.70988156161835,0.704142201911869,-0.108529969097464,0.258560513520885,0.0610475546787256,0
85,2055557271,0.00474852935435894,0.0152488936228739,0.710089647347554,0.703930121135667,-0.109452436917452,0.248085864942606,0.0155144250856644,0
86,2055573938,0.00482147360299692,0.0153527047696962,0.710388072526795,0.703626203505963,-0.0612069056180574,0.219931952037171,-0.0252040693878433,0
87,2055590605,0.00486991029389793,0.0154679170980235,0.710620911787324,0.703388191004747,-0.0196079357939174,0.185235961907507,0.0114868695980298,0
88,2055607272,0.00494508011361788,0.0156608380309341,0.710708244182743,0.703295155667606,-0.0154343877428585,0.185277916215246,0.0535994347172261,0
89,2055623939,0.00502307897707775,0.0159467845568885,0.710736816778864,0.7032593021176,-0.0818208070054277,0.167954439036286,0.11951702557243,0
90,2055640606,0.00502729422546266,0.016240156252739,0.710987444675838,0.702999172937622,-0.111433823453228,0.160503696502329,0.141319118587934,0
91,2055657273,0.00493762505344989,0.0165166689436888,0.711461803335664,0.702513289482982,-0.0839609169667727,0.180679362841285,0.124854347957235,0
92,2055673940,0.0047707509702082,0.0167384591498498,0.712107172067357,0.701854998849977,-0.102200528838728,0.231548913555438,0.0929328594080705,0
93,2055690607,0.00454261377734309,0.0169616730417664,0.712795272759333,0.701152312582396,-0.0448810829517788,0.237094552788817,0.0788297602227209,0
94,2055707274,0.00428310560900171,0.0172285187674434,0.713479805261365,0.700450855257974,-0.0747823437634294,0.232021597721421,0.127317431608969,0
95,2055723941,0.00392005256521678,0.0174676531750152,0.714174898623554,0.699738328560384,-0.0754448468011017,0.223354529361839,0.176825379757209,0
96,2055740608,0.0035641682254774,0.0176254787904845,0.715022732048191,0.698869896230055,-0.0338023330861655,0.126254075624014,0.171274332278916,0
97,2055757275,0.00318444711569039,0.0177468693941986,0.715939438226407,0.697929529906372,-0.0298468743245716,0.125536982511665,0.0654217881406783,0
98,2055773942,0.00272017200246219,0.0178624770265206,0.71678487017206,0.6970602430717,-0.0263275487870322,0.134794845875157,0.00756372075444246,0
99,2055790609,0.00233364255368693,0.0180530928308777,0.71753104213366,0.696288620850761,-0.0453181307688556,0.144372645794669,0.0195950079663067,0
100,2055807276,0.0020519049431782,0.0182963944083366,0.718137595374559,0.695657549191701,-0.0949677941849124,0.180217506255908,-0.0159298599147302,0
101,2055823943,0.00182583618986847,0.0185476422396436,0.718569400089304,0.695205486561244,-0.0696030111108144,0.194054523488539,-0.0549050658068514,0
102,2055840610,0.00161713321722128,0.018833742346068,0.71879514429558,0.694964902399032,-0.0589903336452849,0.17935217224539,-0.0330040108646057,0
103,2055857277,0.00138582475081302,0.01910822423588,0.718933498637195,0.69481478092625,-0.0991095999647728,0.224243879117444,0.0845883392335134,0
104,2055873944,0.00111897822759941,0.0193118436212691,0.719188799923598,0.694545369755013,-0.114112715042955,0.211349971038784,0.174748302909125,0
105,2055890611,0.000832186225695342,0.0194057260349981,0.719740202872442,0.693971732588782,-0.0767172225645642,0.205057997857479,0.175628289719939,0
106,2055907278,0.000498619288255079,0.0194444991569515,0.72043478379364,0.693249872074673,-0.063673666394375,0.164352440918755,0.126828125279043,0
107,2055923945,0.000197343338687092,0.0194572597037232,0.721137018282413,0.692519152777148,-0.00461848286706934,0.148799152819804,0.0145798529548599,0
108,2055940612,4.72814252508828e-05,-0.0195021732096053,-0.721635600617871,-0.691998354712967,0.0730199619693343,0.144654414293757,-0.0129731764019153,0
109,2055957279,0.00032069913562171,-0.0194711251214031,-0.721983694397465,-0.691635971781948,0.0937921307013723,0.226526780874138,0.0948851182221584,0
110,2055973946,0.000657977772226796,-0.0193068157912172,-0.72249897693195,-0.691102049093721,-0.00823468286281848,0.216692202641664,0.319141697350195,0
111,2055990613,0.000996024944269922,-0.0190651245887965,-0.723564923810847,-0.689992268064888,-0.169493021796917,0.163416305515283,0.262485231831293,0
112,2056007280,0.00137870878315793,-0.0189065776185432,-0.72496482330879,-0.688524978086997,-0.229136584107378,0.15106857036217,0.0239184588095307,0
113,2056023947,0.00173414091856605,-0.0188409051829502,-0.726290611179539,-0.687127325289581,-0.150679239877831,0.154672454585249,-0.198149687922227,0
114,2056040614,0.00204599379600746,-0.0188416847367764,-0.727250865059753,-0.686110037891523,-0.0783774409195186,0.15465318026315,-0.226427998188138,0
115,2056057281,0.00231681514639037,-0.0188271848294078,-0.727800554849094,-0.685526455974041,-0.0801282172193897,0.243225362847547,-0.086431230597435,0
116,2056073948,0.00251782671062887,-0.0188635787251816,-0.728200281487586,-0.685100121141235,-0.087770536894838,0.254868424555008,0.0815666491091765,0
117,2056090615,0.00262904889878642,-0.0190288383349299,-0.728774898581765,-0.684483848319775,-0.109563445224809,0.238522789058435,0.0779734212442455,0
118,2056107282,0.00279404070278052,-0.019249856328146,-0.729477623464955,-0.683728040401897,-0.126231866399926,0.21929656174244,-0.030717208017384,0
119,2056123949,0.00293211512496044,-0.0195369476568838,-0.730115714795998,-0.683037885761159,-0.125676446473964,0.205881163297796,-0.086866949350138,0
120,2056140616,0.00302599212453363,-0.0198789408142871,-0.730589497225892,-0.682520811131048,-0.10288773819504,0.144781937205237,-0.0601774715955339,0
121,2056157283,0.00306976615191797,-0.0202210029234193,-0.730863245070754,-0.682217417383338,-0.0369852026069501,0.106648086247688,-0.0701240351044261,0
122,2056173950,0.00305536884141624,-0.0206318996588541,-0.730968431973684,-0.682092472393329,-0.0562442667630585,0.101436071139678,-0.0204652182846591,0
123,2056190617,0.00298657643667815,-0.0210626907500125,-0.731015154183963,-0.682029535850871,-0.0852869613835208,0.128702381771406,0.0282377361116647,0
124,2056207284,0.00286403867736492,-0.0215268856814405,-0.731053235686234,-0.681974748116087,-0.0853888994662487,0.185846806018117,0.0398963147997078,0
125,2056223951,0.00270840789235831,-0.021951273778684,-0.731087035364434,-0.681925621184763,-0.100077326717646,0.211629688758601,-0.0258229208869259,0
126,2056240618,0.00254884284445003,-0.0223457790526915,-0.731027929633319,-0.681976785275501,-0.0971683568573026,0.248380614087075,-0.039955704922551,0
127,2056257285,0.00239364383140238,-0.0226631840814716,-0.730922426868907,-0.682079948727834,-0.120882215314192,0.291689613519199,-0.00201396622647641,0
128,2056273952,0.00223509798901169,-0.0229156162800918,-0.730869512392045,-0.682128752306555,-0.152554454788673,0.31620848193543,0.00758366174396773,0
129,2056290619,0.0020918215664117,-0.0231032709427862,-0.730875822881362,-0.682116115248548,-0.0787910561487056,0.298447650873644,0.0485376444799242,0
130,2056307286,0.00191582093290092,-0.0232285165961899,-0.730945309547581,-0.68203791690586,-0.039335231406335,0.284554065517084,-0.0280872433679621,0
131,2056323953,0.00176202802428597,-0.0233107676307096,-0.73094793609239,-0.682032710426695,-0.0269489246212958,0.279700304297642,-0.0311835843507655,0
132,2056340620,0.00161402651752003,-0.0233482022465047,-0.730913658668771,-0.682068530238486,-0.0487616252193282,0.255700814062805,0.0311702775008846,0
133,2056357287,0.00148340881283151,-0.0233498592238755,-0.730927578327448,-0.68205385330844,-0.0919284524330956,0.264740107975719,0.0699766932595066,0
134,2056373954,0.00133739082161804,-0.0232789878322564,-0.730910144472462,-0.682075260377138,-0.150928919748271,0.259041334455062,0.0756110092297642,0
135,2056390621,0.00119089284688952,-0.0231357110602163,-0.730853868947216,-0.682140706081122,-0.120105866951181,0.222584586581417,0.0210725762504057,0
136,2056407288,0.00107206510066021,-0.0229954716972273,-0.730742232424699,-0.682265233401797,-0.0954209098225703,0.179675474095001,-0.0295901310096944,0
137,2056423955,0.000945902495176554,-0.0228501593656176,-0.730529262062546,-0.682498331687182,-0.0616209786171885,0.176267930900425,0.0377089080508126,0
138,2056440622,0.000813610646631238,-0.0227139993196156,-0.730261291228865,-0.682789761790096,-0.0271012608912716,0.168863134203529,0.131481338584612,0
139,2056457289,0.000643719459305859,-0.0226227546774014,-0.73001511799905,-0.683056164666492,-0.0689570269815977,0.175140478467995,0.11236720262111,0
140,2056473956,0.000486743219601181,-0.0225429759454656,-0.729735519154128,-0.683357629211392,-0.105117842531817,0.213751471587002,0.0973807754354103,0
141,2056490623,0.000327639253361878,-0.0224924807577451,-0.729446903255064,-0.68366746031494,-0.0797834594372451,0.207938472765282,0.038386859976555,0
142,2056507290,0.000194945963825229,-0.0224700787652053,-0.729101688234753,-0.684036392138306,-0.0551452911934454,0.186119165457764,0.000621014098436427,0
143,2056523957,9.08045226375832e-05,-0.0224656533001196,-0.728715463022009,-0.684447996657859,-0.101919428404973,0.211706489316678,0.0369563365933032,0
144,2056540624,4.99922104266396e-05,-0.0224747801238506,-0.728296165532644,-0.684893843620755,-0.0734543422294474,0.23645692146381,0.124246253654293,0
145,2056557291,2.27210193184276e-05,-0.0224757605417899,-0.728008585712633,-0.685199488324762,-0.0523865721904729,0.18991034095478,0.130552290765426,0
146,2056573958,9.60457781094281e-06,-0.0225168965341434,-0.727859285641588,-0.685356731624882,-0.0133302850014925,0.207338854889711,0.0864594590529992,0
147,2056590625,3.19723427105094e-06,-0.0226078502786853,-0.727766206616594,-0.685452575750101,0.00481923795100728,0.169482245292925,0.0386092826855,0
148,2056607292,6.00303211216765e-05,0.0227684851266122,0.727552942393754,0.68567361659582,-0.032742005932863,0.1830433820568,0.016393124193777,0
149,2056623959,8.23101829647696e-05,0.0228985761569442,0.72719679029516,0.686046993011,-0.090699294233001,0.219747379563779,0.0931662941850776,0
150,2056640626,1.09144458380756e-05,0.022937100292699,0.726897570258884,0.686362740584575,-0.0430321855109595,0.229388030425077,0.204508493543017,0
151,2056657293,0.00012462161692564,-0.0229340749878243,-0.726824980495373,-0.686439699028112,0.0138102752346128,0.219307457515676,0.193052020136131,0
152,2056673960,0.000276491245834845,-0.0229093149879032,-0.726990934774773,-0.686264721222561,0.00767152069357733,0.187466908719326,0.0795083555482804,0
153,2056690627,0.000443238720962898,-0.0228832194796541,-0.727166897205973,-0.686079051869039,-0.0350641453851094,0.224713841061879,-0.0495090479636588,0
154,2056707294,0.000652749831572939,-0.0228235244027424,-0.727120822810305,-0.686129703253809,-0.0399239610175873,0.218624331724406,-0.04075762035957,0
155,2056723961,0.000852479923895647,-0.022730095506844,-0.726910918478858,-0.686354961104276,0.018724693680062,0.234720228396607,0.00602998710897676,0
156,2056740628,0.00108153840927887,-0.0225373959045001,-0.726757548850394,-0.686523387256021,-0.00716716606978304,0.213735516811386,0.0909509636664303,0
157,2056757295,0.00135408159488158,-0.0222920979958428,-0.726851694945313,-0.686431236457887,0.051262027522477,0.209710472024329,0.117659098075676,0
158,2056773962,0.00164527476169317,-0.0220545987788502,-0.727165057676392,-0.686106308554404,0.0409680839030462,0.210314914970901,0.0566525899636214,0
159,2056790629,0.00190563594298014,-0.0218031255774912,-0.727473225412325,-0.685786919221192,0.0247773137482315,0.243355167299285,-0.0322973888519137,0
160,2056807296,0.00220763353329347,-0.0214437918894739,-0.7276342210958,-0.68562652401573,-0.0602698417814731,0.221184319304186,-0.042321918454846,0
161,2056823963,0.00252702954307603,-0.0210252848565174,-0.727678002400644,-0.685591916770172,-0.0385160668313663,0.218807036085315,0.0325523836338975,0
162,2056840630,0.00283738319878893,-0.0206163354085681,-0.727786093118146,-0.68548837964967,0.00557024319273725,0.22108932825448,0.0852178169935058,0
163,2056857297,0.00311084218924677,-0.0202106584484555,-0.727905200287414,-0.685372797344988,0.011496203433714,0.247128566600199,0.031788239274495,0
164,2056873964,0.00335611296514269,-0.019783579118907,-0.727978256423913,-0.685306504184084,0.0368363264504687,0.264631033750775,-0.0226724927196217,0
165,2056890631,0.00356332700738825,-0.0193901443756806,-0.727993041360348,-0.685300997177619,0.0351655010898668,0.194046789603273,-0.0350576451348632,0
166,2056907298,0.00370262499827372,-0.0190458930918945,-0.728074371248002,-0.685223506934986,-0.0037586987913376,0.173205804125765,0.0511451843198661,0
167,2056923965,0.00379047963178654,-0.0187570466856818,-0.728136207027806,-0.685165286247744,-0.0376045866848341,0.1197736676206,0.0410073903350576,0
168,2056940632,0.00381330079754277,-0.0185173753945536,-0.728105507339048,-0.685204302181527,-0.0795953320513259,0.0733813846414198,0.0182910139477789,0
169,2056957299,0.00386074344616531,-0.0182784771019514,-0.728043680024651,-0.685276142814734,-0.0896501967134665,0.0918828983291488,0.118487402557221,0
170,2056973966,0.00394760828322595,-0.0180440113064416,-0.728076110401443,-0.685247406056762,-0.0776004179534272,0.12923842631157,0.107284283905455,0
171,2056990633,0.00404306602663141,-0.0178256132802912,-0.728264918197777,-0.685051903180096,-0.034468182597821,0.149935623247313,0.129677382545035,0
172,2057007300,0.00407937828451452,-0.0176538893997658,-0.728440678335622,-0.684869240810106,0.0147557357066946,0.143759879398685,0.0484797220491541,0
173,2057023967,0.0040756431003017,-0.0175308174643526,-0.728578126976154,-0.684726202554181,0.0212785638484461,0.128328651879161,0.0459076126468661,0
174,2057040634,0.00404473722706657,-0.0174526725581914,-0.728663146066306,-0.684637907134927,-0.0231813578848819,0.160404017012676,0.0781128451203438,0
175,2057057301,0.00400287976244606,-0.0173992682661596,-0.728788761371152,-0.684505795239538,-0.0707124748713064,0.215584336169777,0.120638046450751,0
176,2057073968,0.00394267313239095,-0.0173405585050016,-0.728993703816449,-0.684289368728816,-0.0403333362591069,0.245915795388712,0.100231715028946,0
177,2057090635,0.0038691525214087,-0.0172731172331221,-0.729175877268593,-0.684097368135117,-0.0225695256979262,0.225347220312821,0.0614203092566404,0
178,2057107302,0.00378927453919091,-0.0171898616037255,-0.729294605060183,-0.683973339456022,-0.0385748533432933,0.222024293920071,0.0573217323232418,0
179,2057123969,0.00372913320639797,-0.0171105871748457,-0.729346550857893,-0.683920265910988,-0.0711230879756162,0.223908482452545,0.0576499788187248,0
180,2057140636,0.00366925116820435,-0.0170422014391448,-0.729420500434198,-0.683843427629671,-0.0976289936361997,0.215915899480152,0.0436712785824503,0
181,2057157303,0.00368456329370357,-0.016913586142322,-0.729548067268286,-0.683710444663711,-0.111258098349868,0.263798129468063,0.0366034679777516,0
182,2057173970,0.00373218536366605,-0.0167658665968763,-0.729677868592534,-0.683575295483917,-0.114120769531569,0.244018915865317,0.0122588670350618,0
183,2057190637,0.00374677917513173,-0.0166122668702689,-0.729873048863798,-0.683370563294548,-0.0467271565477761,0.219319082952071,0.0434315696178398,0
184,2057207304,0.00378756328061239,-0.0164574252305854,-0.730105182105415,-0.683126072245814,-0.0161916091549563,0.195611447658091,0.0494516747545939,0
185,2057223971,0.00382132721583356,-0.016345876457761,-0.730308498627691,-0.682911199654321,-0.0293427983284316,0.18550768153181,0.0129531565097363,0
186,2057240638,0.00384342885532263,-0.0162709140690352,-0.730469365864601,-0.682740793378687,-0.0162470000630367,0.210723641148222,0.0288837233296148,0
187,2057257305,0.00383837012174213,-0.0162180261671347,-0.730575253926455,-0.682628772388291,-0.0358679534682211,0.211404860453413,-0.00286542119451539,0
188,2057273972,0.00382062014928026,-0.016160214564683,-0.730646042152799,-0.682554475051881,-0.0788454035014163,0.194890086993233,0.000447916707778587,0
189,2057290639,0.00381144939610683,-0.016092906921571,-0.730664150049816,-0.682536732368519,-0.116277824376857,0.169779356435816,0.00786568552907469,0
190,2057307306,0.00384708050404113,-0.0160425967471737,-0.73061063663762,-0.68259499902444,-0.129765489995116,0.169016464211046,0.0603514891922541,0
191,2057323973,0.00389604873615896,-0.0159568719130148,-0.730616545821532,-0.682590405744771,-0.121815085706529,0.166282868039497,0.00774805858036723,0
192,2057340640,0.00395046009372527,-0.015885728863228,-0.730578031704537,-0.682632973913696,-0.100384692016826,0.19543632912444,-0.0538004907503522,0
193,2057357307,0.00403683931392524,-0.0158044226071673,-0.730453543320697,-0.682767563087648,-0.113530790254104,0.228221927310044,-0.019551607030661,0
194,2057373974,0.00409038335616796,-0.0157203348935018,-0.730248970723213,-0.68298797983019,-0.0697494060253512,0.227121562784282,0.0232432732677572,0
195,2057390641,0.00414613013119869,-0.0156375803237363,-0.729956867449584,-0.683301724972024,-0.0891550919169712,0.238225240562207,0.00740282973866643,0
196,2057407308,0.00422048958648381,-0.0155050600194223,-0.729677624761704,-0.683602475495491,-0.0948484928420455,0.210377681423708,0.0588033468508544,0
197,2057423975,0.00433128718740722,-0.0153415131332734,-0.729489966446847,-0.683805722979458,-0.0888150885882481,0.231174408768103,0.0715481449102725,0
198,2057440642,0.00445352587943382,-0.0151402928634877,-0.729408147087195,-0.683896697317712,-0.0915317563315469,0.19337105301972,0.0754899675162822,0
199,2057457309,0.00456556273671485,-0.0149147465975526,-0.729422482465168,-0.683885624973343,-0.0402760351315943,0.170626554295169,0.00358219918554618,0
200,2057473976,0.0046618948362082,-0.0147176266327927,-0.729370898954697,-0.683944259396079,-0.00316069817185667,0.199223676821406,-0.0254901370790319,0
201,2057490643,0.0047110243867935,-0.0145631712815546,-0.729199925694709,-0.68412951161186,0.0321831854434641,0.19546033198104,0.0114694549296095,0
202,2057507310,0.00468773659233081,-0.0144416089328162,-0.72897272627814,-0.684374334264289,-0.00437391028012232,0.228535020290331,0.0166627543024255,0
203,2057523977,0.00468704766934236,-0.0143193660773015,-0.728832647121072,-0.684526084112052,-0.0163815454062446,0.206423932238097,0.0911975327554789,0
204,2057540644,0.00464444119460295,-0.0142669665219501,-0.728798361997969,-0.684563970992725,-0.00240731304318983,0.20349035402144,0.060985605941943,0
205,2057557311,0.00452387033586505,-0.014303446522972,-0.728716379615283,-0.684651286491995,0.0199131301083218,0.175330415608994,-0.0210082593798705,0
206,2057573978,0.00431791584305911,-0.0143999285359633,-0.728421972049256,-0.684963815319323,0.0114340106220293,0.144609123819337,-0.104931016847484,0
207,2057590645,0.00408396126404015,-0.0145452886048969,-0.727956864021154,-0.685456461027453,-0.0293119907269904,0.160501392754953,-0.0145686635633012,0
208,2057607312,0.00388385768961653,-0.0146973107319234,-0.727537782966086,-0.685899175581579,-0.103120760948583,0.177355804647703,0.108583880294334,0
209,2057623979,0.00373149427148266,-0.0148432144262215,-0.727284176744273,-0.686165782587127,-0.0745000486190218,0.180572321302626,0.164066355531778,0
210,2057640646,0.00362053076299597,-0.0149830501575659,-0.727215645657637,-0.686235968654891,-0.0565782939939695,0.180743045061864,0.0971897710737096,0
211,2057657313,0.00353228738573216,-0.0151214937566302,-0.727250886578004,-0.686196044395404,-0.0299500448686422,0.170285361398393,0.0183845316777887,0
212,2057673980,0.00338841275378527,-0.0153195726146429,-0.727261196665329,-0.686181449165473,0.0151509725183305,0.149231428444684,-0.0400884337434074,0
213,2057690647,0.00320291403394149,-0.0156414514085435,-0.727129287942731,-0.686314858469072,0.0193560712453229,0.147302589802666,-0.045705506486194,0
214,2057707314,0.00300280932802739,-0.0160263662107695,-0.726916016544619,-0.686532769511494,-0.0465712095455308,0.171805603797989,-0.0328139179735932,0
215,2057723981,0.00279402543635301,-0.0164440862449391,-0.726652561821171,-0.686802620734778,-0.0989476904093828,0.212913429871522,-0.0344720061753752,0
216,2057740648,0.00259334913923698,-0.0168397484185679,-0.726323297612882,-0.687142026627822,-0.0637748414654215,0.280148192393452,-0.0336281645866748,0
217,2057757315,0.00241899478225808,-0.0171606212657621,-0.726103206734221,-0.687367292437092,-0.0904140892706424,0.29705881362156,0.0312593715859598,0
218,2057773982,0.00229009188484431,-0.017523836388254,-0.726005367413299,-0.687461909580798,-0.0700781284334039,0.228848999178877,0.035065349895969,0
219,2057790649,0.00216770609441275,-0.0178955671807471,-0.725975942298349,-0.687483804121662,-0.131278557437505,0.268038099355643,0.0365192222447012,0
220,2057807316,0.00208120315940537,-0.0182524496761859,-0.725838285452564,-0.687620025919482,-0.104656944238237,0.240160387249231,-0.000971629268417127,0
221,2057823983,0.00197135746410521,-0.0185560921829232,-0.725606511594414,-0.687856798704812,-0.109035669270836,0.197959243920221,-0.057686728908682,0
222,2057840650,0.0019728309350824,-0.018747727067051,-0.725426823833936,-0.688041099012354,-0.107533096584806,0.167156141071103,0.0248035526314339,0
223,2057857317,0.00205763184929926,-0.0188572860857302,-0.725358576459403,-0.688109805532113,-0.102109633663244,0.160218276035624,0.067178243420641,0
224,2057873984,0.00214191649220082,-0.0189080204854697,-0.725372439277484,-0.688093542544685,-0.0157355094404003,0.159981489255834,0.0638485807021879,0
225,2057890651,0.00217177316874795,-0.0189390778242486,-0.725419225881275,-0.688043270045048,0.0602238331836798,0.163758659250608,0.0208735554757773,0
226,2057907318,0.00224471992973398,-0.0188860993291702,-0.725517214044055,-0.687941166532661,-0.00924198096148985,0.212363770081741,0.00251888686508816,0
227,2057923985,0.0023045442366509,-0.0187837316270072,-0.725587316610055,-0.687869832509499,0.00264466770070555,0.200633676779734,-0.0289227749664258,0
228,2057940652,0.002326985542038,-0.0186812799424173,-0.725626116728398,-0.687831617214319,-0.0161828698058455,0.251839619631669,-0.0421748098776574,0
229,2057957319,0.00232895502150206,-0.0185288073178539,-0.725661415247147,-0.68779849497465,-0.0297367623965424,0.276305853226751,0.0384783493232103,0
230,2057973986,0.00233049092725416,-0.0183333778447501,-0.725694846246433,-0.687768453914692,-0.0152054085371162,0.303583648329252,0.0179631848442117,0
231,2057990653,0.00231596282313281,-0.0181083009828716,-0.725725837661328,-0.687741764256381,0.00958340852849019,0.251578387633046,0.030973144845063,0
232,2058007320,0.00227838325077143,-0.0178734192223622,-0.725731675555435,-0.687741873780101,0.00253053428450012,0.227397876086172,0.0176266725636337,0
233,2058023987,0.00225560250013933,-0.0175923289914572,-0.725754363968214,-0.6877252542979,-0.0309787620851019,0.193752639449406,0.0162498136491923,0
234,2058040654,0.0022413273483176,-0.017276650889488,-0.725745745378874,-0.687742398613188,-0.00542390856808307,0.199860397059007,0.0426087499759601,0
235,2058057321,0.00219998625397343,-0.0169487465318714,-0.725795308780421,-0.687698385779562,-0.0413497015032614,0.192465298952049,0.0961283920360394,0
236,2058073988,0.00210625722980812,-0.0166388237770718,-0.725835602478776,-0.687663719704675,-0.0420525628421132,0.157039432773733,0.085026413279607,0
237,2058090655,0.00199118029128307,-0.0163392546436743,-0.725871736856887,-0.687633103908692,-0.0752037400809617,0.148713646604028,0.0258361807461876,0
238,2058107322,0.00195045203351855,-0.0160710394278139,-0.725755158778925,-0.68776258035339,-0.185378439129505,0.205905375210523,-0.0475445846899973,0
239,2058123989,0.00192934027339403,-0.0157838628809697,-0.725537950095241,-0.687998423174254,-0.191293139101616,0.210302402673019,0.0199845307941732,0
240,2058140656,0.00194676131629448,-0.0154970581271788,-0.725407509630233,-0.688142424416518,-0.194959646056567,0.248405797648658,0.0239363684896962,0
241,2058157323,0.00202745345561775,-0.0152154341447408,-0.725373929585297,-0.688183872431094,-0.175632523741989,0.230997488228767,0.0239368375014464,0
242,2058173990,0.00210340440459332,-0.0150229987235905,-0.725340388847641,-0.688223223602353,-0.143236145127224,0.253878134230472,0.015328374263011,0
243,2058190657,0.00219712255643916,-0.0148846603688017,-0.725234707774497,-0.688337299713896,-0.0907508396359629,0.240397879063263,0.0198844114317351,0
244,2058207324,0.00223484373967872,-0.0147929814155822,-0.725030888174861,-0.688553835489041,-0.0282552197094846,0.2196815404021,-0.00767314187495099,0
245,2058223991,0.00223511785286639,-0.0147509234110888,-0.724729335878562,-0.688872124725425,-0.0656349573676572,0.197405928901078,0.0129808923239353,0
246,2058240658,0.0022419680093666,-0.014727781811834,-0.724418123888005,-0.689199860566534,-0.118529666583021,0.194000181399073,0.0755259327231675,0
247,2058257325,0.00226797253669267,-0.0147122867805319,-0.724137597087849,-0.689494847988074,-0.119077948477846,0.181042802625527,0.107999762920667,0
248,2058273992,0.00233475791131697,-0.0146839001214224,-0.723937767014959,-0.689705039471306,-0.0927698200900742,0.184123621929974,0.133651606042705,0
249,2058290659,0.00241913052739037,-0.0146548526872098,-0.723800943233725,-0.689848952796318,-0.103452169417514,0.193949443034318,0.12112337434396,0
250,2058307326,0.00253769895833545,-0.0146163131962746,-0.723633147980547,-0.69002535505321,-0.0618086918957518,0.147230176956733,0.114936284113807,0
251,2058323993,0.00264048969408421,-0.0145944835142496,-0.723533237656742,-0.690130192696334,-0.0307584699208453,0.160284284360672,0.0882807414637398,0
252,2058340660,0.00276771843369928,-0.0145696977954282,-0.723448191375565,-0.690219369502367,-0.0636709891080761,0.164291151071718,0.0813027836665155,0
253,2058357327,0.00291223001897606,-0.0145613073133106,-0.723356485207961,-0.690315060355218,-0.0361779883091689,0.165317396015707,0.0711956033229134,0
254,2058373994,0.00304073940478178,-0.0145501869890697,-0.723281951038185,-0.690392834019047,-0.0886471325656335,0.142683757614994,0.0541705269542252,0
255,2058390661,0.00312357604352588,-0.0145956181696912,-0.723163183724084,-0.690515909236703,-0.066363032277566,0.139121848347818,0.0687926470266714,0
256,2058407328,0.00321536221298381,-0.0146419956840108,-0.72298251823345,-0.690703664198365,-0.100649826707448,0.189020906430466,0.030010382148889,0
257,2058423995,0.00335447697561077,-0.0146376043290183,-0.722789066529332,-0.690905531407431,-0.0986502581696262,0.18657202172968,0.0383248537998081,0
258,2058440662,0.00356358337887718,-0.0145530283218683,-0.722715143717631,-0.690983596969834,-0.106673690188545,0.221804641921397,0.0886262882455772,0
259,2058457329,0.00377611548966753,-0.0144244824947998,-0.722737552218307,-0.69096172532931,-0.0793972468013758,0.254470403158959,0.0682938345013452,0
260,2058473996,0.00402763525085592,-0.0142305617206343,-0.722734362388873,-0.690967662549956,-0.0209808841945188,0.255956348059827,0.0199710771358773,0
261,2058490663,0.00429121798801068,-0.0140207612875791,-0.722793112723881,-0.690908908540061,0.0652856643514962,0.187747635660541,0.0436770210784613,0
262,2058507330,0.00453068814930461,-0.0138246971105556,-0.722831566403284,-0.69087110029706,0.060636187966956,0.166087289296103,0.0937480720214575,0
263,2058523997,0.00470136589456919,-0.0136712657305215,-0.722910064628143,-0.690790874368926,0.0515911688138654,0.14155510966332,0.115229471104872,0
264,2058540664,0.00480704162943583,-0.0134925831069288,-0.72298704648102,-0.690713090343977,0.0163793126607418,0.21061006493656,0.0591081982992307,0
265,2058557331,0.00497619602177765,-0.0133063991992112,-0.723012092927423,-0.690689286650815,-0.0209726104217536,0.200679437761109,0.0521529446996544,0
266,2058573998,0.00512142984580868,-0.0131315484726053,-0.723171479545691,-0.690524687873463,-0.0624786899933095,0.1720072902194,0.0415689909433886,0
267,2058590665,0.0052154856157597,-0.0129792403131524,-0.723416335707461,-0.690270340708823,-0.0699213648486665,0.168342148746098,0.0256577535210161,0
268,2058607332,0.00525720574488279,-0.0128631995915706,-0.72362337474516,-0.690055150988999,-0.000910448448592086,0.166525003374234,-0.00147125420818616,0
269,2058623999,0.00522829233899124,-0.0128390824396738,-0.723726464378651,-0.689947699234734,-0.00457678101744248,0.159821552772684,-0.034184010880145,0
270,2058640666,0.0051908514836255,-0.0128804878371019,-0.723726171783936,-0.689947517111934,-0.0556672096483465,0.154002856079952,-0.0625881073677245,0
271,2058657333,0.00512299950075654,-0.012984128687793,-0.723738472750109,-0.68993317816994,-0.0189384402790655,0.181753123877149,-0.0350602722015349,0
272,2058674000,0.00503177220317928,-0.0131734169484794,-0.72374747892301,-0.689920813649642,-0.0770072415216413,0.217406457491193,-0.0298305340709568,0
273,2058690667,0.00490170213848087,-0.013368236996547,-0.723676419176392,-0.689992539005883,-0.0733675935403007,0.214630520646802,-0.0271794700411466,0
274,2058707334,0.0047957639526679,-0.0135368368447958,-0.723515328473091,-0.69015891225197,-0.114455191357177,0.250699744396023,0.0369962882702186,0
275,2058724001,0.00473002034786499,-0.0137111686349043,-0.723298196935029,-0.690383479721748,-0.100647652419267,0.213777285899493,0.101622078550357,0
276,2058740668,0.00465559609946088,-0.0138776735124447,-0.723342242971841,-0.690334509593216,-0.0447810958740814,0.170917627055922,0.148166238298041,0
277,2058757335,0.00459401702539625,-0.0140052091684109,-0.723573265387862,-0.690090196090095,-0.0374675037669401,0.17252880254479,0.08042489072236,0
278,2058774002,0.00452306085892125,-0.014144652237754,-0.723809888274402,-0.689839630906878,-0.0505595465060346,0.179583642329334,0.0268066607434323,0
279,2058790669,0.00442319665218118,-0.0142883716235508,-0.72391729153501,-0.689724606480252,-0.0484810932663277,0.185080035387004,0.0391973707275289,0
280,2058807336,0.00434934612540343,-0.0144538860931566,-0.723962064876313,-0.689674631246585,-0.088272935547041,0.182347713990522,0.0813670828272509,0
281,2058824003,0.00426372754735582,-0.0145555222726349,-0.724057529838692,-0.689572803177928,-0.105023509290078,0.199213670209902,0.0734496479980263,0
282,2058840670,0.00420786213972948,-0.0146289731397224,-0.724205339201402,-0.689416357300343,-0.109189669301267,0.216335092428221,0.0568435965122018,0
283,2058857337,0.0041813466641319,-0.0146426525408489,-0.724383755024514,-0.689228760661674,-0.131643041185305,0.22669089008473,0.0319186044463696,0
284,2058874004,0.0041367351251873,-0.0146954767168023,-0.724552255965549,-0.689050766461953,-0.0957476900190683,0.203318571912637,0.0530953293857404,0
285,2058890671,0.00410110833181682,-0.0147412970716298,-0.724695159645116,-0.68889970290169,-0.111515964019975,0.223242573521214,0.0204333085635033,0
286,2058907338,0.00410093351917029,-0.0147583389486821,-0.72479937045882,-0.688789696756742,-0.151813231720837,0.243532508086985,0.0102474269980983,0
287,2058924005,0.00415157336030803,-0.0147414810064876,-0.724818676458484,-0.688769438515778,-0.177484529491991,0.298183285402434,0.0229891989533602,0
288,2058940672,0.00425529348947376,-0.0146426721032043,-0.724864707777473,-0.688722469540289,-0.115283188932365,0.235055137796579,0.0836441456163038,0
289,2058957339,0.00435161425992242,-0.0145321110852154,-0.725103050170304,-0.688473273144616,-0.0394253227552453,0.214737497226854,0.0806631610769648,0
290,2058974006,0.0044354774367916,-0.0144266414782622,-0.725381164321523,-0.68818192725697,0.0166567644736147,0.147525217626173,0.0207338804268334,0
291,2058990673,0.00445699954507507,-0.014402674089852,-0.725538425707848,-0.688016490322357,0.0646425931125938,0.127408736156481,-0.0285525759415784,0
292,2059007340,0.00440787233258748,-0.0144457688629192,-0.725560387816095,-0.6879927427347,0.0312375716535957,0.143747644184894,0.00780181596456338,0
293,2059024007,0.00437034776908542,-0.0144698838300395,-0.725601392109088,-0.687949229443334,-0.0618863624402658,0.1885966604138,0.0815956581325608,0
294,2059040674,0.00436487194687309,-0.0144495176078958,-0.725688964701149,-0.687857315033257,-0.108991402275494,0.212554332673203,0.0444952236728819,0
295,2059057341,0.00442502088332318,-0.0144010815601981,-0.725824562372697,-0.68771486293126,-0.090845618608128,0.235354752095246,0.0366141585672711,0
296,2059074008,0.00448983270648195,-0.0143462909874946,-0.726029994934119,-0.687498706757426,-0.026752280558017,0.205794595256303,0.045186954677653,0
297,2059090675,0.00453762153424818,-0.0142818345422723,-0.726193342800334,-0.687327191420066,-0.0380436100661827,0.223075246809573,0.00423067006401724,0
298,2059107342,0.00459842246169336,-0.0142440070422813,-0.726280896173385,-0.687235056314671,-0.0668273566485348,0.242876467365629,-0.0102365238649265,0
299,2059124009,0.00470676452510518,-0.014194043114118,-0.726305361514508,-0.687209500329455,-0.0412063945702327,0.227055712549559,0.056890343614754,0
300,2059140676,0.00481309641271577,-0.0141225008426575,-0.726428081654207,-0.687080512936483,-0.0308667648646942,0.209664259372586,0.070980495841576,0
301,2059157343,0.00492411297713842,-0.0140184111831256,-0.726604825801397,-0.686894944210111,-0.000485788820628772,0.193587516702396,0.0125544566611405,0
302,2059174010,0.00500426525552216,-0.0140131722942751,-0.726640940387343,-0.686856267412988,-0.0312142159093183,0.193591251630515,-0.0279417755550787,0
303,2059190677,0.00510352556879335,-0.0140178737028717,-0.726575617820846,-0.6869245408572,-0.0631109111000475,0.200441289102757,0.000459831176689462,0
304,2059207344,0.00514726041250661,-0.0140337237705298,-0.726540397890085,-0.686961141944066,-0.0361602756177389,0.193150406695643,0.0706664150965499,0
305,2059224011,0.00520312162276151,-0.0140023239275707,-0.726548021409986,-0.686953299020567,-0.0784805946975351,0.225898888892328,-0.00471425408773105,0
306,2059240678,0.00530037028418278,-0.0139695954657062,-0.726648679191069,-0.686846746739947,-0.0694384647429733,0.186088927831557,0.0163639426143167,0
307,2059257345,0.00542607964165286,-0.0139563386602436,-0.726702532957784,-0.686789055579414,-0.133970553688075,0.247008158090417,0.0327857869174312,0
308,2059274012,0.00559356497217154,-0.0139275078140964,-0.726750306739943,-0.686737743400193,-0.0992773025794627,0.192322921787776,0.0605522006394837,0
309,2059290679,0.00569559993850918,-0.0138871629141649,-0.726876015798975,-0.686604663910569,0.00517121570563734,0.218245680541548,0.014922368055234,0
310,2059307346,0.00581414214163402,-0.0138498930691683,-0.726999304896793,-0.686473879250121,-0.00126703179255773,0.204785139446674,-0.0102070068791995,0
311,2059324013,0.00586132318979627,-0.0139147767768456,-0.727006679843765,-0.686464355476859,-0.056584410279392,0.202552625604195,-0.020394519976054,0
312,2059340680,0.00589751417805469,-0.0140028248486709,-0.727022086552616,-0.686445938066107,-0.0857457181591086,0.229406127744097,0.0217290093421521,0
313,2059357347,0.00589040974143508,-0.0140776532022924,-0.726988988217777,-0.686479521736437,-0.103843796083803,0.243660498663667,-0.014945044465044,0
314,2059374014,0.00588982440902858,-0.0141255393205771,-0.726900088956494,-0.686572676256764,-0.092771134067006,0.207759557870846,-0.0132335508341318,0
315,2059390681,0.00590973731917998,-0.0141368877645756,-0.726811207269082,-0.686666361777835,-0.0625500921945641,0.167322564289954,0.064901082330854,0
316,2059407348,0.0059494228102966,-0.0141143466697268,-0.726783936378016,-0.686695346867289,-0.0312703488603157,0.175501581857517,0.0676082570648613,0
317,2059424015,0.0059908204026822,-0.0140722266572119,-0.726820555756182,-0.68665709217781,-0.0678445495744749,0.15326059667159,0.025299888116408,0
318,2059440682,0.00599075334316162,-0.0140456970341632,-0.726841828729517,-0.686635118005435,-0.0273758416888278,0.164138912180807,0.0379346422787893,0
319,2059457349,0.00599353938506775,-0.0140181436145644,-0.726778433458002,-0.686702757964152,-0.0322142817687184,0.175323106380482,0.0360850794201657,0
320,2059474016,0.0059541631646316,-0.0140266468451374,-0.726661963205523,-0.686826173314316,-0.0444883735443338,0.199286349812297,0.036555287973055,0
321,2059490683,0.00594936199074531,-0.0140095000718733,-0.726552357686446,-0.686942508904425,-0.0758378531333877,0.236234703526177,0.0596702342425359,0
322,2059507350,0.00597103085142856,-0.0139480176627782,-0.726458249387644,-0.687043092891916,-0.102737860727704,0.253669173469236,0.0538033427479118,0
323,2059524017,0.00599956043713419,-0.0138426874799935,-0.726450124199422,-0.687053565836418,-0.0801371740756903,0.230753258874597,0.0429166343232396,0
324,2059540684,0.00600442417496315,-0.0137522619239354,-0.726467958529206,-0.687036481864472,-0.049137653897475,0.21040846457152,0.0429291745966008,0
325,2059557351,0.00597973418536506,-0.0136836309269645,-0.726463636450798,-0.687042637642242,-0.0059024039795221,0.198215529951438,0.00525916361770433,0
326,2059574018,0.00590697033972651,-0.0136597294330463,-0.726357089007648,-0.687156385942499,-0.0131268527584637,0.219215907378433,-0.0840485437861813,0
327,2059590685,0.00585860299515664,-0.0136376684643364,-0.726096881312388,-0.6874321855414,-0.0460034927748109,0.259122468303142,0.00368736415540359,0
328,2059607352,0.00582951134460191,-0.0135828700524502,-0.725748495221929,-0.68780131151498,-0.101784908218746,0.29899256596874,0.100330596323639,0
329,2059624019,0.00586927792796045,-0.0134186696782666,-0.725496766069232,-0.6880697154386,-0.0922067033431107,0.259801698708373,0.198544831448063,0
330,2059640686,0.0060249128914069,-0.0131620383079295,-0.725453259514152,-0.688119197110882,-0.00566868571115719,0.214377873628113,0.169317703009502,0
331,2059657353,0.00615898111626107,-0.0128602758233987,-0.725529276606251,-0.688043566240224,0.0897961782494732,0.16757888055887,0.0331833560247722,0
332,2059674020,0.00627775920500032,-0.0125518406998148,-0.725547468683164,-0.688029005000417,0.0948967074335078,0.151313731500297,-0.00899644073994196,0
333,2059690687,0.00636122112500037,-0.0122827566530104,-0.725401250454095,-0.688187252566071,0.0408486754757275,0.155120998292474,0.0916306453954845,0
334,2059707354,0.00644474221306271,-0.0119945526351643,-0.72531648510091,-0.688280896470149,-0.064010614319486,0.157193087320846,0.150116859083561,0
335,2059724021,0.00652588255773541,-0.011748932165907,-0.7253356593111,-0.688264162063909,-0.0751724350020484,0.184254475133531,0.143132881758776,0
336,2059740688,0.00661588002446323,-0.0114610511004856,-0.725419648026044,-0.688179634032383,-0.070594744092367,0.195909982942642,0.0528585372562268,0
337,2059757355,0.00673042756768344,-0.0112085878172192,-0.725497313973218,-0.688100803895437,-0.0680273724931554,0.206395287832184,0.0150126038595251,0
338,2059774022,0.00680230096577139,-0.0110093322722871,-0.725491876882459,-0.688109046505027,-0.0868158577464341,0.226451180438931,0.0798248697198538,0
339,2059790689,0.00688843296758188,-0.0108357164891693,-0.725491657480087,-0.688111176821169,-0.0657484128338302,0.194947376067816,0.0990659574643168,0
340,2059807356,0.00696206711839162,-0.0106918186604851,-0.72554107703299,-0.688060578854056,-0.0317037274738568,0.185915029490417,0.0407042996036938,0
341,2059824023,0.00703648433754718,-0.0105648823494235,-0.725616098592621,-0.687982665924319,-0.00474161210902311,0.183627487421079,0.0711893894237778,0
342,2059840690,0.00708275439580019,-0.010507350580747,-0.725674318811804,-0.687921662103299,-0.0191796895894917,0.164230908551444,0.0838613021459399,0
343,2059857357,0.007135368237926,-0.0104814658544543,-0.72572298715458,-0.687870170387613,-0.0610486403583643,0.129973310339012,0.105929170373096,0
344,2059874024,0.00715594908256966,-0.0105053874354366,-0.725826890646406,-0.687759953793567,-0.055531200237523,0.152027285184244,0.0927794800686599,0
345,2059890691,0.00718767565773305,-0.0105660439583044,-0.725886810634978,-0.687695451620766,-0.0675403354507745,0.171381937316864,0.0335726214585148,0
346,2059907358,0.0072166037532426,-0.0106265304501241,-0.726015712554259,-0.687558130346223,-0.0416200443014739,0.188790615811052,0.0415092122072511,0
347,2059924025,0.00723664312703889,-0.0107292604515853,-0.72614709752784,-0.687417563580032,-0.04668133476359,0.202043680619471,0.0664704540922171,0
348,2059940692,0.00725391762773968,-0.0108543219267347,-0.726282986245936,-0.68727184451587,-0.0471362989341036,0.194610587810866,0.051599326483502,0
349,2059957359,0.0072211337626409,-0.0110289341431033,-0.72647286900748,-0.687068692660996,-0.0156274802072537,0.164522359258089,0.0474951743618293,0
350,2059974026,0.00714252329405882,-0.0112608797185556,-0.726649525234264,-0.686878915403419,-0.0389992803147624,0.180195262303584,0.0358349279006061,0
351,2059990693,0.00704737126720631,-0.0115029847461577,-0.726822440660415,-0.686692912190441,-0.0602740394310159,0.189552765503654,-0.0257117518876602,0
352,2060007360,0.00691507899556227,-0.0117627205743967,-0.726890190757937,-0.686618140356824,-0.0750552227537712,0.202989165042218,-0.0324616850278385,0
353,2060024027,0.00681385041721392,-0.0119767953740693,-0.726939337525004,-0.686563418318926,-0.0750543222870201,0.220148154390014,0.0395185552799164,0
354,2060040694,0.00671289877507335,-0.0121702407861322,-0.727081683208476,-0.686410262286319,-0.0169220258041393,0.198684446778718,0.0862017828044426,0
355,2060057361,0.00657130565657423,-0.0123622815392773,-0.72729689504331,-0.686180164677959,-0.00876552993816026,0.21804823826607,0.0033881265671642,0
356,2060074028,0.00640216623229911,-0.0125874722327029,-0.727453962091853,-0.686011152130335,0.0124737514989988,0.220523572302222,-0.049981876179587,0
357,2060090695,0.0061999802867242,-0.0127906028177294,-0.727509295357808,-0.685950571026798,0.0228911151084713,0.253715249890516,-0.00119339642801493,0
358,2060107362,0.0059530670150523,-0.012983259524552,-0.727465322322243,-0.685995773153034,-0.0377012801825976,0.249959853783124,0.0316776284630258,0
359,2060124029,0.00574926200329115,-0.0130981717317193,-0.727554765460592,-0.685900464454783,-0.116424686659863,0.201400557396639,0.0811826176241854,0
360,2060140696,0.00554910834387076,-0.013164703679821,-0.727766179108079,-0.685676517404554,-0.0808710685356587,0.231677523699343,0.0712935267429012,0
361,2060157363,0.0053463031227068,-0.013233876030881,-0.72794203796268,-0.685490095431625,-0.0831559543527548,0.204928495148535,-0.0146318349480919,0
362,2060174030,0.00515837554003678,-0.013291343144005,-0.728024722493298,-0.685402607813665,-0.0508896065121246,0.168614183649401,0.0320472924974031,0
363,2060190697,0.00496613505086316,-0.013298600199577,-0.728097731839227,-0.685326329295731,-0.0402661058105396,0.174132460345758,0.00302334130476272,0
364,2060207364,0.00482916297586765,-0.0132689568154635,-0.728140236856735,-0.685282722268845,-0.0815657506924007,0.184762087374975,0.0141730711716122,0
365,2060224031,0.004693132552981,-0.0132669664910061,-0.728248015203011,-0.685169169227455,-0.0731235417084858,0.180557515599134,0.0858826689374604,0
366,2060240698,0.00457180981223016,-0.0132262169444,-0.72833555829048,-0.685077718416002,-0.0915608137170643,0.206521206493207,0.0132911690438198,0
367,2060257365,0.00449048066975745,-0.0131580611387162,-0.728371926239514,-0.685040902484344,-0.0621528516576566,0.210686602576587,-0.0127998901815583,0
368,2060274032,0.00439878348745794,-0.013107454084992,-0.728393167287019,-0.685019882339794,-0.059548082679545,0.222314058259331,-0.000747972467053607,0
369,2060290699,0.00435535518734946,-0.0130535675702867,-0.72840670270896,-0.685006796100258,-0.0536848713729397,0.242712639811507,0.0193466973535279,0
370,2060307366,0.00433161142986818,-0.0129707319861195,-0.728471356802071,-0.684939763463265,-0.049035622095017,0.234568733936276,0.0532144840531076,0
371,2060324033,0.0043141587272447,-0.0128766370858567,-0.728488327600057,-0.684923599244695,-0.0562869737551394,0.252573011838034,-0.00279897831497458,0
372,2060340700,0.00432884786352074,-0.0127733735690524,-0.72846013538363,-0.684955424214381,-0.0414539703113249,0.216978857444573,-0.00520646412722206,0
373,2060357367,0.00435718013521743,-0.012679045765704,-0.728380409847018,-0.685041776339831,-0.0587250179297599,0.226748069839455,-0.000439324969958214,0
374,2060374034,0.00442847305120368,-0.0125345136752935,-0.728337547336987,-0.685089550155672,-0.0204200295007468,0.205991212605785,0.0513318449847803,0
375,2060390701,0.00448113550758117,-0.0124029543698645,-0.728310607355601,-0.685120241534854,-0.032882841923995,0.224958126102098,0.0366930247762964,0
376,2060407368,0.00454421114914381,-0.0122394312591217,-0.728264342566548,-0.685171944707019,-0.0618049830195736,0.203068249154005,0.0461303440314358,0
377,2060424035,0.00461084356940305,-0.0120583589996946,-0.728218638486478,-0.685223285258691,-0.031234082360505,0.206878592120337,0.0334608431982373,0
378,2060440702,0.00469703889841135,-0.0118759315355272,-0.728199229207727,-0.685246512327515,-0.0238885432028632,0.206931751317243,0.031854180188511,0
379,2060457369,0.00478756524179339,-0.0116938067114865,-0.728164598989146,-0.685285816927963,-0.0247878554336287,0.220181954394058,0.0527506715237471,0
380,2060474036,0.00490286315432506,-0.0114979394784471,-0.728201877134239,-0.685248703361641,-0.0521525972888343,0.193994976067159,0.0384646775641155,0
381,2060490703,0.00498814703962561,-0.0113000716763551,-0.728264351519587,-0.685184983106735,-0.0440408651789261,0.18202272270253,0.0324010226635008,0
382,2060507370,0.00505989422446421,-0.0111118437429981,-0.728337782620169,-0.685109479431575,-0.0543407310255527,0.171629556525756,0.0344725776908995,0
383,2060524037,0.0051190264876934,-0.0109634094499073,-0.728340967930531,-0.685108045241821,-0.0564847451071936,0.179816591715495,-0.00864186281621337,0
384,2060540704,0.00513024428992108,-0.0108208839285324,-0.728299337247828,-0.685154482163625,-0.0891387367281606,0.231350555821453,-0.0311719654705982,0
385,2060557371,0.00516520207488977,-0.0106705352318921,-0.728189885978342,-0.685272902079339,-0.136211181880266,0.249988862741293,-0.025460067235454,0
386,2060574038,0.00521891631851828,-0.01049773896386,-0.728099406312721,-0.685371297120159,-0.152405760107698,0.265027113313461,0.0237775754275161,0
387,2060590705,0.00532309448922026,-0.010309839879815,-0.728127581687884,-0.685343415122714,-0.114185222359845,0.23598126823164,0.0798401797963401,0
388,2060607372,0.00539882324423032,-0.0101517123807603,-0.728270325242869,-0.685193497352362,-0.034386239621915,0.174533053333071,0.0530540389756759,0
389,2060624039,0.00542924504366687,-0.0100423945500161,-0.728365613999695,-0.685093574596059,-0.0226138678691579,0.159659721149681,-0.0171693435784503,0
390,2060640706,0.00543033085698132,-0.00998519998278984,-0.728364255546899,-0.68509584623591,-0.050701286664548,0.167576038625489,-0.0303449062200545,0
391,2060657373,0.00541654643395988,-0.00996379557075317,-0.728282086164803,-0.685183615371818,-0.111305190816555,0.181739574453876,0.0416110220877757,0
392,2060674040,0.00541353695795856,-0.00994651001871365,-0.728184559674622,-0.685287536445491,-0.0849137734583012,0.198914822851037,0.0754002447519366,0
393,2060690707,0.00542203720855815,-0.00989002933942176,-0.72821745508753,-0.68525333048298,-0.0868252489263169,0.206165973116414,0.0741369096874323,0
394,2060707374,0.00544175815656445,-0.0098457348839151,-0.728276238745148,-0.685191337402905,-0.0361288277876831,0.210678393562827,0.0229958063479364,0
395,2060724041,0.00543784126999482,-0.0098119803323024,-0.728364173534839,-0.68509837661112,-0.0144663319346871,0.187097936735245,0.0192012780353073,0
396,2060740708,0.00542745278504885,-0.0098085654355247,-0.728466558770917,-0.684989640471169,-0.0475143085796434,0.219289323864674,0.0467066136348427,0
397,2060757375,0.00539293508859687,-0.00981584696080967,-0.728550378554193,-0.684900657984874,-0.0593199701205883,0.210169636670812,0.0453038377596921,0
398,2060774042,0.00532846067788161,-0.00984439740716955,-0.728551602607165,-0.684899450784585,-0.0804069080565216,0.19308437549613,-0.0125771225193846,0
399,2060790709,0.00531382562207296,-0.00984017324090752,-0.728482681255112,-0.684972931844179,-0.111806975477718,0.187925744504162,0.0112546732913169,0
400,2060807376,0.0053528653852642,-0.00983897065709346,-0.728381588131112,-0.685080143895716,-0.0973532497619944,0.210227455322458,0.062639501903403,0
401,2060824043,0.00535055563820428,-0.00985821322494772,-0.7284316341201,-0.685026672181087,-0.0954024626128182,0.19715655974761,0.0750835365866648,0
402,2060840710,0.00535567592255998,-0.0098948056338541,-0.728533267176157,-0.684918015659185,-0.0771104652539191,0.19105907590899,0.0311170921789389,0
403,2060857377,0.00533792545820841,-0.0099462480227313,-0.728600464194548,-0.68484592594069,-0.0799274746674305,0.180621150230721,-0.00710800022627684,0
404,2060874044,0.00534544448342509,-0.00997138754232479,-0.728602443795221,-0.684843395638293,-0.0742799337320893,0.178522465518785,-0.03477838993407,0
405,2060890711,0.00535228536429069,-0.0100119351563773,-0.728565932536128,-0.68488159279073,-0.0867051945857441,0.18378132494002,0.000647555243366269,0
406,2060907378,0.0053567690262961,-0.0100673225993023,-0.728497521505521,-0.684953513168298,-0.0949428373525837,0.214655364586881,0.0366443060960215,0
407,2060924045,0.00534101129068685,-0.0101183115194158,-0.728428169825252,-0.685026638004263,-0.0558845202382916,0.252908429157958,0.0489373729579753,0
408,2060940712,0.00533543095780042,-0.0101524153226155,-0.728345744190662,-0.685113814310413,-0.0893692406714048,0.227655200224324,0.0298472251119137,0
409,2060957379,0.00532088355640112,-0.0101749801656913,-0.728380534317907,-0.685076605354152,-0.0664206516153264,0.180587474736498,0.0484439155073738,0
410,2060974046,0.00529860525548753,-0.0101853166195605,-0.728443748817749,-0.685009407903315,-0.0679110403558158,0.217211413974387,0.0300925351180712,0
411,2060990713,0.00526246554361889,-0.0102202529738061,-0.728368961328609,-0.685088687002374,-0.0830565050313695,0.187752791952995,-0.0257133044537597,0
412,2061007380,0.00521240292698807,-0.0102501011051076,-0.728234016841525,-0.685232065068411,-0.0655166416575157,0.146686862436453,0.0140167558740329,0
413,2061024047,0.0051484745890502,-0.0102508969740989,-0.728154238261042,-0.685317311632439,-0.0558912139730603,0.152506015687043,0.0220776758578525,0
414,2061040714,0.00511740432931665,-0.0102707746229763,-0.728180321605207,-0.685289531941435,-0.0771237715494028,0.151981200376682,0.00093863851765638,0
415,2061057381,0.00508753555168545,-0.0103175201328275,-0.728219352636372,-0.685247575848454,-0.0861580558262205,0.161969283516515,-0.0102110829622133,0
416,2061074048,0.00504413601089462,-0.0103588419194555,-0.728133601064518,-0.685338390933128,-0.0905230858915848,0.178710346612509,-0.0313726205794384,0
417,2061090715,0.00501671661750979,-0.0104025920465223,-0.727983913551756,-0.685496929419062,-0.044708862289195,0.218903105674316,-0.00835163504677617,0
418,2061107382,0.00495625398875776,-0.0104530641933023,-0.727813413384462,-0.685677624174093,-0.029013011590269,0.245370169077741,0.0104104715151275,0
419,2061124049,0.004917048085478,-0.0104683894207094,-0.727733368477287,-0.68576262647199,-0.0411714129682417,0.2352708671587,-0.0219059334402048,0
420,2061140716,0.00486305418438276,-0.0105113416347841,-0.727627234094008,-0.685874967181147,-0.0490862982876947,0.232174872208801,-0.00193732773057756,0
421,2061157383,0.00481160715244517,-0.0105484800513955,-0.727453756107529,-0.686058751660719,-0.0680340563393125,0.211933722405944,-0.00489263272305204,0
422,2061174050,0.00473282971212116,-0.0105794179214449,-0.727284458259695,-0.686238291713062,-0.0411656942360841,0.188565728021382,-0.00461153910733669,0
423,2061190717,0.00464916685594832,-0.0105939812727288,-0.727092636068316,-0.686441877644106,-0.0229426695806809,0.149420664099191,-0.0344964887309236,0
424,2061207384,0.00456768349347056,-0.0105810334600772,-0.726895573289876,-0.686651296896759,-0.00918748392689911,0.189428205522695,-0.00252791830718922,0
425,2061224051,0.00448871395537908,-0.0105736945167331,-0.726638575424009,-0.686923888896769,-0.047009791209341,0.207588796591386,-0.00137831935850768,0
426,2061240718,0.00438159196430291,-0.0105582713831631,-0.726418223111841,-0.687157834626291,-0.0592094686399548,0.219446636637229,0.0572369709804388,0
427,2061257385,0.00428819503557206,-0.0105049515222307,-0.726227804836194,-0.687360482468738,-0.0647846910526999,0.227421275703413,-0.00614972656360282,0
428,2061274052,0.00422281301937609,-0.0104316418817639,-0.726072132710635,-0.687526440799832,-0.0726856069634021,0.208845147338857,-0.0175726217890296,0
429,2061290719,0.00414645820908929,-0.0103356787943465,-0.725968308000771,-0.687637983539797,-0.0598869303370854,0.231223824589224,0.0352783818221137,0
430,2061307386,0.00409309718389872,-0.0102060871219001,-0.72588638110923,-0.687726721933392,-0.0691649416967142,0.230624098973468,0.0130010731329067,0
431,2061324053,0.00403088211192051,-0.0100678181966785,-0.725720568192904,-0.687904097914765,-0.0689840973046892,0.214935124728575,-0.0121372916236198,0
432,2061340720,0.0039544141170254,-0.0099427530502368,-0.725495875093519,-0.688143327725455,-0.0382890412174552,0.216159617131527,0.0316360591417057,0
433,2061357387,0.00390206392056679,-0.00980518134686149,-0.725317492482272,-0.688333616362839,-0.0689597812820307,0.203419060224841,0.0756990757462966,0
434,2061374054,0.00386397088235968,-0.00967128198684229,-0.725235998035547,-0.688421588263424,-0.0904074479116593,0.210924849379893,0.0624755565735765,0
435,2061390721,0.00381525046100466,-0.00954881655218326,-0.725160464454578,-0.688503133441231,-0.0503381703234968,0.195647997041548,0.0103531247939997,0
436,2061407388,0.0037380532538674,-0.00941710540352629,-0.725035695872301,-0.688636758236633,-0.0437909941988345,0.182701182963675,-0.0120955922630386,0
437,2061424055,0.00364483296786293,-0.00935289687895327,-0.724832354555767,-0.688852158522968,-0.0278464810161538,0.18218395144593,0.0141578240558824,0
438,2061440722,0.00354272900891448,-0.0093312298073254,-0.724620839821327,-0.689075478970255,-0.0597058286424373,0.197582337415699,0.0606548147451299,0
439,2061457389,0.00343377880686749,-0.00931091178288778,-0.724516346143415,-0.689186172420683,-0.0624541031654865,0.181781700323317,0.0506528248573148,0
440,2061474056,0.00332701493940031,-0.00931574403735099,-0.724443467718544,-0.689263237061541,-0.0424791251801525,0.195538004520874,0.0225932770752219,0
441,2061490723,0.00324451624994915,-0.0093668217023547,-0.724314730099699,-0.689398221296009,-0.0663187558410542,0.195012793486444,0.0210356390189635,0
442,2061507390,0.00315251486038138,-0.00944243860272101,-0.724212750121132,-0.689504745861314,-0.0616836859290004,0.188093654630792,0.0417243965809665,0
443,2061524057,0.00304915072010296,-0.00953692346942452,-0.724111870956398,-0.689609852098017,-0.0876062477397083,0.213852239867787,0.00595927096139997,0
444,2061540724,0.00296598666254771,-0.00963991441618582,-0.724006809053864,-0.689719084422642,-0.0739315840080093,0.198180906054912,0.0212358396403147,0
445,2061557391,0.00287872263543333,-0.00974839939971886,-0.723925005177596,-0.689803789887929,-0.0686892297028275,0.220474460726534,0.0233596348706395,0
446,2061574058,0.00283569291010947,-0.00987948073351101,-0.723873381173486,-0.689856276868321,-0.0657883085870519,0.198472701172165,0.0334210263813001,0
447,2061590725,0.00279118979288763,-0.0100201301437024,-0.723852500540779,-0.68987633943505,-0.0389013437925928,0.202738622407623,0.0260033869179017,0
448,2061607392,0.00273615893432406,-0.0101533439035093,-0.72383340089158,-0.689894651954624,-0.0797376705863731,0.201134496940816,0.0228543173470998,0
449,2061624059,0.0027079117293502,-0.0102867917480587,-0.723737906383686,-0.689992965176427,-0.0774459150614425,0.204832535723484,0.0014577965782681,0
450,2061640726,0.00268197167610105,-0.0104212529399735,-0.723654279452987,-0.690078755175427,-0.0831491627724597,0.193243552709833,0.0154854338432998,0
451,2061657393,0.00265108145438919,-0.0105409276543102,-0.723578346208388,-0.690156676059605,-0.0711062687075128,0.219059906853893,-0.0163270124605036,0
452,2061674060,0.00263613886210733,-0.010674596994089,-0.723535744989295,-0.690199340389209,-0.0445646615696919,0.224086714644925,-0.00162875139848714,0
453,2061690727,0.00261786690895232,-0.0108216631318978,-0.72348686307532,-0.690248359170335,-0.0354448778173521,0.216861530971419,0.0301448078754064,0
454,2061707394,0.00261090324563372,-0.0109493289465043,-0.723414019962886,-0.690322715185442,-0.0596473918086953,0.214737675433856,0.00134856059392121,0
455,2061724061,0.00261645429312849,-0.0110418282543307,-0.723357372048123,-0.690380579462782,-0.0585678208506869,0.168179605825597,-0.0144072269256797,0
456,2061740728,0.00260473409694629,-0.0111287406886312,-0.723338898301026,-0.690398583932229,-0.052454629700273,0.172987809086595,-0.00508800259785645,0
457,2061757395,0.00259223943009211,-0.0112534289352677,-0.723326770127788,-0.690409316455418,-0.0720427444586996,0.176598213088113,-0.0317531638501659,0
458,2061774062,0.00259472656200742,-0.0113729106875001,-0.723331856795527,-0.690402020015366,-0.0660258387212121,0.215381365238738,0.00318921225468587,0
459,2061790729,0.0026091997270652,-0.011454411358947,-0.72327388272576,-0.690461352360875,-0.129290950306013,0.247602020336159,-0.00440908474451939,0
460,2061807396,0.00264441292744903,-0.0115295556420192,-0.723253392757675,-0.690481430808591,-0.133517067056291,0.204969981083885,0.00657367703679589,0
461,2061824063,0.00270555299970141,-0.0115663406600856,-0.723374833351201,-0.690353351712602,-0.170420355159441,0.218552025877041,-0.00594433243228654,0
462,2061840730,0.00280092016486162,-0.011583843798731,-0.723418148196304,-0.690307288292183,-0.139477188931217,0.231142437513286,-0.010510853329951,0
463,2061857397,0.00293806142209961,-0.0115496948541235,-0.723348533968313,-0.690380236355118,-0.175148607595545,0.222344299168368,-0.0190193173787746,0
464,2061874064,0.00316100704072927,-0.0114181312289153,-0.72315243930657,-0.690586840186435,-0.261007727379911,0.257307278323086,0.036647242184473,0
465,2061890731,0.00349526711064937,-0.0111817323477446,-0.723071373266369,-0.690673976006202,-0.241507917676356,0.238165432277285,0.0736988722681016,0
466,2061907398,0.0039997385634861,-0.0108515630961732,-0.723135489226185,-0.690609375762738,-0.293657111343771,0.269208022124188,0.0213798864404247,0
467,2061924065,0.00467411883155972,-0.0105036371281484,-0.723384736828549,-0.690349439591081,-0.178825397698289,0.220562770684579,0.093249241352074,0
468,2061940732,0.00545779356269801,-0.0100900834308414,-0.723893077609795,-0.689816798066273,-0.179136975261564,0.199859405860918,0.0264945179064295,0
469,2061957399,0.00625234132555769,-0.00954000172770732,-0.724345289890388,-0.689343018829228,-0.0924002332997593,0.184019390929486,-0.0593166946846281,0
470,2061974066,0.00698341487449248,-0.0090335014377728,-0.724614651935075,-0.689059673736226,0.121572026093371,0.131043894241997,-0.0753890019506325,0
471,2061990733,0.00751706793632181,-0.00864076456379174,-0.724874179987281,-0.688786072786871,0.269500789879663,0.120873793161441,-0.0724255109237327,0
472,2062007400,0.00780705582827185,-0.008423398814189,-0.725048644653254,-0.688601887245592,0.378431719289816,0.0893877159006569,-0.0591218044122113,0
473,2062024067,0.00776053514995993,-0.00843700144625117,-0.7251575713109,-0.688487536467625,0.459509569847078,-0.0160138733795693,-0.00602559399140874,0
474,2062040734,0.00730713965133667,-0.00868676444868137,-0.725244390952336,-0.688397936680307,0.484506935117799,-0.0308515279851605,-0.0424727502859871,0
475,2062057401,0.00660173498992119,-0.00913015644430445,-0.725137816080107,-0.688511586706424,0.214097831511624,0.0692833954965159,-0.0498946569862669,0
476,2062074068,0.0058575571908643,-0.00962391110672374,-0.72472790281774,-0.68894305732489,-0.0416014928140353,0.185933651130632,-0.0042360400133706,0
477,2062090735,0.00512920958820454,-0.0099234207310029,-0.724242582504993,-0.689454783590987,-0.12075212693386,0.280181548377545,0.00115207962072312,0
478,2062107402,0.00453192028241989,-0.0100419208630086,-0.723737740358459,-0.689987177203147,-0.309310021629026,0.363639390519739,0.0196883552638477,0
479,2062124069,0.00408401223198296,-0.0100698863926177,-0.723376633583253,-0.690368136734228,-0.400760590019692,0.364766362820204,0.0853294163202416,0
480,2062140736,0.0038946592035606,-0.00997434264488793,-0.723160284781541,-0.690597239085975,-0.34259552886422,0.375664105711181,0.0678365317672806,0
481,2062157403,0.0038399117154742,-0.00972546297290939,-0.723111776732212,-0.690651886842541,-0.209965489304374,0.324611953926573,0.0177762393953266,0
482,2062174070,0.00382364484861993,-0.00936370796670151,-0.723142063322895,-0.690625265224414,-0.154343751598956,0.301906709674732,-0.047586117337477,0
483,2062190737,0.00391050736086836,-0.00897270625315621,-0.723193100834567,-0.690576525361208,-0.101638404691488,0.252860056127739,-0.0771949165811857,0
484,2062207404,0.00396658165658962,-0.00862062885078834,-0.723327939970009,-0.690439455888003,-0.0567593880400677,0.165915815316258,-0.0934428871787087,0
485,2062224071,0.00392922952340837,-0.00835007324215755,-0.723498247307219,-0.690264531593204,-0.0356487006202746,0.110637071044135,-0.11025891051472,0
486,2062240738,0.00385777218501105,-0.00809538434946342,-0.723573210761559,-0.690189387787303,-0.12645967858915,0.0968553418743257,-0.148202487089003,0
487,2062257405,0.00382202453301385,-0.00782670145124478,-0.723332899786926,-0.690444531413421,-0.18059054224442,0.0951420808073355,-0.21634076925062,0
488,2062274072,0.00372909619244375,-0.00759439950934506,-0.722956163669587,-0.690842097986098,-0.146107566298173,0.0817736696344778,-0.111938193810705,0
489,2062290739,0.00366729287944748,-0.00734971539617712,-0.722695482037447,-0.691117770636231,-0.117228078104862,0.102329527803145,-0.0307401294203025,0
490,2062307406,0.00357015233403997,-0.00716735144128605,-0.72263745748308,-0.691180864989778,-0.0154630038795671,0.117651003068812,-0.0731366099060705,0
491,2062324073,0.00338007648810692,-0.00708420979923606,-0.722620932329936,-0.691199954581211,0.0984787411736731,0.112671321519044,-0.093946368660438,0
492,2062340740,0.00304152475095609,-0.00707528736106869,-0.722498135423894,-0.691329974574331,0.103672537403987,0.149936972165836,-0.115466222692374,0
493,2062357407,0.00266952853094821,-0.00713756827472189,-0.722137214007394,-0.691707866719894,0.0378336857757126,0.234888143641116,-0.0383792785961919,0
494,2062374074,0.00230546915544662,-0.00714914315765028,-0.721771501674373,-0.692090654419495,-0.0552979105907101,0.250503297960802,0.0445701564545752,0
495,2062390741,0.00200860772475261,-0.00708632777118338,-0.721556362748802,-0.692316520697323,-0.0256387698444886,0.264953400342382,0.113443474281649,0
496,2062407408,0.00175331317140266,-0.00693067682280793,-0.721526658113141,-0.692349747774767,-0.046657612922186,0.260916246035356,0.0887810797668547,0
497,2062424075,0.00155388326683099,-0.00676187189781181,-0.721583970638025,-0.692292160762703,0.0291727388034089,0.208892296183418,0.085948405044765,0
498,2062440742,0.00131431166274213,-0.00664294840836195,-0.721596627538868,-0.692280615751899,0.0587130652169641,0.203461290443346,0.0454106629273032,0
499,2062457409,0.0011437743760271,-0.00647983830173555,-0.72136297414603,-0.692525929483477,-0.0141241213042011,0.19572440470911,0.00483512900945871,0
500,2062474076,0.00104272363817838,-0.00628939418317946,-0.720958321082964,-0.69294910022992,-0.0845174566749621,0.227426191153948,0.0478934909329555,0
501,2062490743,0.00102256043337077,-0.00606804308592017,-0.720537355953868,-0.693388817257876,-0.0812446616878907,0.257338386780324,0.118936923271029,0
502,2062507410,0.00108597027843991,-0.00578170876762672,-0.720274638397418,-0.69366406696163,-0.0835656220676191,0.270318131401918,0.181688294972453,0
503,2062524077,0.00122720203464314,-0.00545059694223657,-0.720266729581322,-0.693674724367528,-0.000798704530690519,0.255835404004123,0.168278843152349,0
504,2062540744,0.0013529328297694,-0.0051345193405256,-0.720350998027077,-0.693589392886954,0.125606815018789,0.193566608456372,0.0832027395243181,0
505,2062557411,0.00143782028466099,-0.00490434019028326,-0.720395794456814,-0.693544360116254,0.161745481843496,0.163556249616305,0.0288163217535782,0
506,2062574078,0.00148051896298128,-0.00472489272681514,-0.720324625212322,-0.693619432949401,0.139669032244037,0.20663860562005,0.0511937783422574,0
507,2062590745,0.00148718234724397,-0.00461045642391274,-0.720122751895524,-0.693829773202798,0.0741988196847429,0.195171506094165,0.0682460341322001,0
508,2062607412,0.0014997648534418,-0.00452104223097011,-0.71994662647257,-0.69401308771038,-0.0537673004727577,0.202834553948727,0.0784110547320689,0
509,2062624079,0.00153511446749734,-0.0044207417476386,-0.72000098878107,-0.6939572584967,-0.0664813903422308,0.199366771323095,0.110584673139169,0
510,2062640746,0.00158536691691874,-0.00435457610627456,-0.72013271129729,-0.693820871982306,0.0264836376738822,0.184207942796274,0.0707750444703907,0
511,2062657413,0.00159094933031512,-0.00436680143965737,-0.720168107771839,-0.693784041668402,0.0751508621828502,0.176673011998569,0.00287719263294876,0
512,2062674080,0.00158629907191756,-0.00440077379956466,-0.720102288110497,-0.693852153922754,-0.00332846638579462,0.134912942057091,0.0220749392769684,0
513,2062690747,0.00161465153221437,-0.00448645962982324,-0.720111686200585,-0.693841785984219,0.00965913395168848,0.11359787332581,0.0789723476586527,0
514,2062707414,0.00155947390724101,-0.00462908006686933,-0.720310876482012,-0.693634183760131,0.0530121021963056,0.144719894272922,0.0516147184459122,0
515,2062724081,0.0015060016505185,-0.00478136077970068,-0.72054813103475,-0.693386805044956,-0.000174144069290451,0.189009484611049,0.0162977677333655,0
516,2062740748,0.0014188687612284,-0.00498927361570565,-0.720646078257192,-0.693283725362679,-0.0294380088969955,0.20698347934438,0.0159447478915113,0
517,2062757415,0.00134319286632528,-0.00520923109909255,-0.720758608931551,-0.693165267014538,-0.0371443030236019,0.2043876448493,0.051121265900255,0
518,2062774082,0.00122958992819009,-0.00539695107883692,-0.720997009415282,-0.692916065221382,0.0515201070222167,0.172919841965428,0.0602648117063832,0
519,2062790749,0.00105703746613874,-0.00562383462352677,-0.721323705226512,-0.692574449019179,0.102838568038539,0.159251064380972,0.024637606327333,0
520,2062807416,0.000804979522937584,-0.00592542474243571,-0.721555144650379,-0.692331145174157,0.0994148505924518,0.162327430791297,-0.0287111466452261,0
521,2062824083,0.000494204905822975,-0.00628514102699477,-0.721641118869822,-0.692238649831178,-0.0231315856275716,0.211150128038957,0.00761733138318387,0
522,2062840750,0.000202595808755417,-0.00664546873081728,-0.72160330706886,-0.692274847100175,-0.139063586794892,0.246668251217286,0.0317765731354321,0
523,2062857417,4.55734292966805e-05,0.00696001646309331,0.721646594055352,0.692226660409873,-0.151402000762171,0.30302022583389,0.0753410363049471,0
524,2062874084,0.000242404041539361,0.00721516888555204,0.721741141464631,0.692125427430293,-0.146068695977467,0.307378061112638,0.0581037691696926,0
525,2062890751,0.000370425677807077,0.00740863529858563,0.721859995746832,0.691999365207956,-0.215690064499155,0.344429078907343,0.0573512556681319,0
526,2062907418,0.000429158160309964,0.00757407503637419,0.721864926615342,0.691992396586295,-0.228580644455716,0.338974491934053,0.0274560358845228,0
527,2062924085,0.000475316129464811,0.00773207119619018,0.721792470834321,0.692066194952824,-0.186527348319547,0.326914849098789,0.0249619560056325,0
528,2062940752,0.000518392688818995,0.00788358817022231,0.721697180309305,0.692163824712171,-0.151387405662176,0.289366196119986,0.0395940439662735,0
529,2062957419,0.000561296391846405,0.0080324195438306,0.721580062649628,0.69228417457659,-0.145301585317821,0.316505915096873,-0.00493586711576397,0
530,2062974086,0.00063012511556502,0.00819904812972715,0.721205286596781,0.69267258725675,-0.149362053167771,0.314734109790227,-0.0556285453422082,0
531,2062990753,0.000679857737385067,0.00834634906989887,0.720758834252592,0.693135325241403,-0.122102347395339,0.245178840411298,0.0227819612941284,0
532,2063007420,0.000665772862167485,0.0084398719023559,0.72058972147857,0.693310016232424,-0.060994115357023,0.156144980260607,0.146170148471592,0
533,2063024087,0.00062455172184981,0.008528368812196,0.720545906153562,0.693354508160069,-0.0513232991647711,0.116581304665784,0.117304328922169,0
534,2063040754,0.000513416424261085,0.00864914798203046,0.720462851916177,0.693439404455479,-0.098936546048863,0.11519430739092,0.0586772797183345,0
535,2063057421,0.000342495245941655,0.00871010793526851,0.720451947381502,0.69345007623546,-0.0321973644919187,0.102939484110432,0.119087405522118,0
536,2063074088,0.000166580558862373,0.00877978932785107,0.720561830717288,0.693335081806501,-0.0167358781044002,0.124668342494046,0.122853351033511,0
537,2063090755,4.59204953328994e-05,-0.008803681241606,-0.720619511191596,-0.693274846780042,-0.021338588149968,0.15193856739905,-0.0127237467453072,0
538,2063107422,0.00027036146121839,-0.00882414329035416,-0.720524161124154,-0.693373632781205,0.045024402147504,0.149725620883737,-0.0167896673565169,0
539,2063124089,0.000487407223401826,-0.00881981705201078,-0.720453152632032,-0.69344735065031,0.0168620247263081,0.158842584973543,0.141983940029856,0
540,2063140756,0.000744658112124764,-0.00877284674838649,-0.720498204713661,-0.693400908312512,-0.00234661852461052,0.173570769787585,0.145984735964087,0
541,2063157423,0.00102030183745955,-0.00872771303582159,-0.720591904396155,-0.693303752570291,0.00609000304363855,0.189125712831819,0.0352558835888579,0
542,2063174090,0.00124462493698475,-0.00866943261700221,-0.720652290924683,-0.693241348616679,0.0181543261784955,0.205942242428172,-0.0133214509766848,0
543,2063190757,0.00142308768566774,-0.00860998429772636,-0.720627713459249,-0.693267294473297,0.0497746610346546,0.18312313269875,-0.018580656167772,0
544,2063207424,0.0015281175575897,-0.00857570736813871,-0.720605875146126,-0.693290195231947,0.0196281722643457,0.173275861408376,-0.0564246739973005,0
545,2063224091,0.00155328710852439,-0.00860317694643908,-0.720521584495488,-0.693377400065576,0.0524453833586817,0.181394428598915,-0.0440678513593947,0
546,2063240758,0.00153372998688661,-0.00860204549219734,-0.720373469602348,-0.693531337993283,-0.00105583264672439,0.206112966043263,-0.0244833269133007,0
547,2063257425,0.00144034389022406,-0.0086271349600508,-0.720216588885447,-0.693694142288999,-0.0823170099030196,0.232147135765687,-0.0368533073615429,0
548,2063274092,0.00130656262722058,-0.00864602740340164,-0.720026586766634,-0.693891384478459,-0.0698624750247411,0.249563915569188,-0.0149200514558269,0
549,2063290759,0.00115978714713246,-0.00864701975513383,-0.719772787763149,-0.694154894774064,-0.00945252275415145,0.228797563132094,-0.0424532099930963,0
550,2063307426,0.000974501087215082,-0.00863689843806519,-0.719476729996964,-0.694462158310931,0.0261636308855607,0.170760890401821,0.00570033073655826,0
551,2063324093,0.000753487190445294,-0.0086377617109143,-0.719224649739226,-0.694723487826033,-0.0155874276890671,0.184129441288315,0.0394562769637294,0
552,2063340760,0.00054505397471025,-0.00859044426784155,-0.719070728203548,-0.694883583792469,-0.00180726524937309,0.160931966451851,0.0631538159530191,0
553,2063357427,0.000269713294103066,-0.00859343201521139,-0.718963987182926,-0.69499414768397,0.00881444806432669,0.172124499419322,-0.0113646387060169,0
554,2063374094,3.55538512795514e-05,0.00865355955038773,0.7187989554503,0.695164136220065,0.0388261557469227,0.182852109276712,0.00930101641871533,0
555,2063390761,0.000345944063893556,0.00873568983416223,0.71854607979906,0.695424402254643,0.0164189970721981,0.209719731725053,0.100581452310485,0
556,2063407428,0.000681464787931553,0.00880359246986056,0.71841831028738,0.695555291698074,-0.0787371087041,0.20246883643753,0.0915256741212095,0
557,2063424095,0.000872771027346334,0.00887588893346628,0.718359509748592,0.69561488743423,-0.182986875780004,0.234711399496251,0.12108149314867,0
558,2063440762,0.000974696071823382,0.00895076544067392,0.718365714582399,0.695607384864561,-0.1324539875673,0.265758855414997,0.219553399961399,0
559,2063457429,0.0010827971351736,0.00897193164903953,0.718509938613017,0.6954579786782,0.00856336482818254,0.214808622059689,0.0418762298916135,0
560,2063474096,0.00122807697790059,0.00902392663219243,0.718551254188207,0.695414376957816,-0.00857666977655124,0.177626316802611,-0.0499111149448254,0
561,2063490763,0.00133919962325172,0.00909452232780045,0.718327838652048,0.695644027089629,-0.100924808352819,0.219896402149708,0.00197781172810816,0
562,2063507430,0.00136022592160547,0.00913483040459352,0.718009317100444,0.695972215836147,-0.159311316636713,0.197189336352248,0.120071415997092,0
563,2063524097,0.00135289333607593,0.00906519360233536,0.717886487837306,0.696099836607645,-0.119703721462249,0.18926498572029,0.101833617179754,0
564,2063540764,0.00132033084182719,0.00898363866555378,0.71784734732518,0.696141319633447,-0.0228235588343892,0.169877062004852,-0.0125685661946972,0
565,2063557431,0.00122192845997519,0.00890456532984864,0.717721296870147,0.696272472259359,-0.0777468837603941,0.218333587138153,0.00745445795935496,0
566,2063574098,0.00107541246125846,0.00884615738474842,0.717541523307468,0.696458721904724,-0.0907137480467182,0.227410232646908,0.118557075297585,0
567,2063590765,0.000896779130023231,0.00871922842871029,0.717405483969187,0.69660070514875,-0.0986156589273669,0.296560419295298,0.0787557311537203,0
568,2063607432,0.00068140466796116,0.00853027594959641,0.717322955472502,0.696688271490268,-0.0735312749657252,0.254789780022063,0.0295137388864659,0
569,2063624099,0.000446180207029665,0.00836272415869625,0.717288659011013,0.696725803614342,-0.0384532604747038,0.208543394915995,0.0114030752079234,0
570,2063640766,0.000199292858244803,0.00814960653830764,0.717322037694113,0.696694078081616,-0.0443181499973459,0.155056768083982,0.0625450593374153,0
571,2063657433,6.33150996538998e-05,-0.00783363778594398,-0.717292309533186,-0.69672833500209,-0.0381988972904025,0.0849482578392155,0.16789771745633,0
572,2063674100,0.000349410292832328,-0.00731984430572883,-0.717363350874733,-0.696660692599748,-0.0302992443768642,0.00892373935288344,0.335900369571011,0
573,2063690767,0.000678718448423636,-0.00658682142491564,-0.71759775006939,-0.696426322176391,-0.0655604212832495,-0.0739155663721503,0.513060027911761,0
574,2063707434,0.000984200745254738,-0.00561306539337154,-0.718207260391933,-0.695805903945991,0.00949356721973907,-0.0832207131244437,0.575612343186001,0
575,2063724101,0.00134168625154104,-0.00434750615146928,-0.719136409283494,-0.694854030650401,0.0799015927073318,-0.0421290211423441,0.46757611704034,0
576,2063740768,0.00164220147051859,-0.00284845356838073,-0.72016523978174,-0.693794794515429,0.164812116142196,0.0354092037663118,0.27219073330966,0
577,2063757435,0.00180212803510404,-0.0011450298245196,-0.721039101973214,-0.692891084274366,0.189753612070915,0.121149859984125,0.15942173023127,0
578,2063774102,0.00185892949092723,0.00069317327916007,-0.721669014109139,-0.692235435359023,0.117102500756362,0.157363090708987,-0.0572518416792871,0
579,2063790769,0.00171204326052217,0.00248875505243343,-0.721976059018326,-0.691911443185131,0.0788987938242547,0.115468450905668,-0.245121012637846,0
580,2063807436,0.00133923260411335,0.00410136583944639,-0.721949463997577,-0.691932335339153,0.0194764598573501,0.201794782182431,-0.327915663902595,0
581,2063824103,0.000850409030491043,0.00561908534873638,-0.721517898002918,-0.692372461573809,-0.129091128026725,0.300396156666689,-0.351278850332839,0
582,2063840770,0.000345631740829652,0.00705382296612992,-0.72058049241077,-0.693335328738781,-0.224889416348745,0.337583568234291,-0.433670112439972,0
583,2063857437,0.000147309991113621,-0.00831565800548188,0.719360907338912,0.69458672109697,-0.229731504469521,0.343242397843432,-0.467740610201064,0
584,2063874104,0.000629273657932631,-0.00926349535577251,0.718046488185763,0.69593320977846,-0.130000281616373,0.390574100162088,-0.367523676918286,0
585,2063890771,0.00117996189987311,-0.0100664186983854,0.716781099440103,0.697224591068,-0.0513802168492247,0.43593493076641,-0.164010768983115,0
586,2063907438,0.00179727595167981,-0.010858618148075,0.715614679901084,0.698408540985244,0.0933824761296012,0.387212277160994,-0.0909155539801492,0
587,2063924105,0.0024322597708722,-0.0115504997895884,0.714379526357368,0.69965889002316,0.119106921680506,0.365597409881068,-0.0210324880514063,0
588,2063940772,0.00302983060063903,-0.0121127047130265,0.71320829764531,0.700840942497615,0.046334266125273,0.31449306876109,-0.0214087464749561,0
589,2063957439,0.00359178388188667,-0.0125495583740845,0.71239125400003,0.701661106872418,0.0692040872509804,0.272073581514566,-0.135012267192552,0
590,2063974106,0.00416782459437249,-0.0128359647521426,0.711758629070027,0.702294469002419,0.0367700574437982,0.337516971847616,-0.237356194726144,0
591,2063990773,0.00474103948752264,-0.0130041396619556,0.710920632573951,0.703136024590465,0.0225362479592052,0.332505489048175,-0.110334359011333,0
592,2064007440,0.00533170533653559,-0.0130572536335361,0.70993956928966,0.704121359569902,0.0248241318168632,0.277539009834047,0.0718951967886204,0
593,2064024107,0.00588039768041837,-0.0129881578507257,0.709067989630859,0.704995967903091,-0.0366134332168193,0.213355778956591,0.04947116591086,0
594,2064040774,0.00639370293123832,-0.0127537499987024,0.708473438414257,0.705593260657496,-0.034083487642491,0.227503850017687,-0.0650484684439527,0
595,2064057441,0.00687221027565832,-0.0123423287902251,0.707897844207941,0.706173549357175,-0.00278880777485723,0.296497612116759,-0.0998992243099345,0
596,2064074108,0.0073180059718003,-0.0118506012479929,0.707185797645859,0.706890555635487,-0.0685087274781954,0.293451375417239,-0.0326429139517945,0
597,2064090775,0.00758341920930048,-0.0113246896828886,0.706183393445266,0.707897773678383,-0.197162902529139,0.338682733972908,0.055911012953589,0
598,2064107442,0.00772853948335637,-0.0107360387125082,0.705247677755283,0.708837583774307,-0.143361463900972,0.193795200285177,0.122737128158817,0
599,2064124109,0.00780251053293896,-0.0100976425535733,0.704665313172939,0.709425087556908,-0.0252620569247695,0.20050382008981,0.000733614024502779,0
600,2064140776,0.00775034421575628,-0.00934172793861587,0.704084562820749,0.710012389104002,-0.0251085449427162,0.165691116844775,-0.111525636640987,0
601,2064157443,0.00762549163280512,-0.00846698074962063,0.703371888857602,0.710730714180295,-0.0538363285767271,0.203284663039555,-0.043274938021644,0
602,2064174110,0.00738550858417639,-0.00752605353668588,0.702550694369486,0.711555573811399,-0.111145373909993,0.211383348665739,0.0999729943035708,0
603,2064190777,0.00711384301604698,-0.00657784566210794,0.701885918912277,0.712223477580357,-0.0281849570873523,0.175229485779879,0.185213008335822,0
604,2064207444,0.00675375457988922,-0.00557067440113588,0.70157813229542,0.712538755907818,-0.0434327928206231,0.149133924760554,0.125327046574489,0
605,2064224111,0.00635405748609924,-0.00450609008218928,0.701487594614237,0.71263909218339,-0.0562357351025943,0.183723060863155,0.0606383709864448,0
606,2064240778,0.00588657986260454,-0.00341710450642605,0.701349229422673,0.712785332314391,-0.0573367936591929,0.241530136402492,0.0218777815821512,0
607,2064257445,0.00539044854486704,-0.00230632831694284,0.701187596493215,0.7129527182347,-0.0624984716627628,0.230834457422067,0.11466231909465,0
608,2064274112,0.00486129812723602,-0.00117829460661373,0.701165651472009,0.712980861312679,-0.0839874440077501,0.231395038525196,0.150043611041574,0
609,2064290779,0.00425374483734125,-7.02710740293474e-05,0.701400121826809,0.712755055975174,-0.0722966933786849,0.190304302829839,0.104140723486265,0
610,2064307446,0.00360492200328955,0.00101562268587903,0.701709581993361,0.712453251509607,-0.0959605963421666,0.218049851172741,-0.0113448045753163,0
611,2064324113,0.00292110689401755,0.0020196423642115,0.701941033776479,0.712226209346471,-0.0900542847902246,0.19920697056928,-0.0534568809117763,0
612,2064340780,0.00221233150330828,0.00291934684500576,0.702095678219808,0.712073199627949,-0.0931667235365001,0.159126104513022,-0.00812398954910873,0
613,2064357447,0.00148963602838392,0.00374535151053511,0.702268663189009,0.711900609656494,-0.0900663813491792,0.11050979844864,-0.0279442913197907,0
614,2064374114,0.000772785429154078,0.00453560926725674,0.702406035872185,0.711761611652089,-0.0181222331843634,0.0869173246241818,-0.0788729840878834,0
615,2064390781,6.04211941970798e-05,0.00529022903762707,0.702455652669814,0.711707851479969,0.0322846953627143,0.116635039300009,-0.108436066437416,0
616,2064407448,0.000618691591993905,-0.0059513813957112,-0.702492415407766,-0.711666076594044,0.0194198652333765,0.159252684482921,-0.103456264200952,0
617,2064424115,0.00126737337872027,-0.00645864467339305,-0.702457628302644,-0.711695131438404,0.0174204266019488,0.221040642877103,-0.120264094666199,0
618,2064440782,0.00185299434003346,-0.00684323779141642,-0.702297838327616,-0.711847935158109,0.0113839026975209,0.293290239385131,-0.172404996285132,0
619,2064457449,0.00242349142240231,-0.00712645140588123,-0.702125890102496,-0.712013044000926,-0.0240422409461061,0.283254004129322,-0.132524705023369,0
620,2064474116,0.00300473341085665,-0.00726372647797986,-0.701954234557637,-0.712178673116083,-0.01742493378065,0.269523113592838,-0.065948954854601,0
621,2064490783,0.00352605025560299,-0.00726666015274072,-0.701890362836272,-0.712239202218879,0.0655588096667264,0.172371436636344,-0.0550850199021152,0
622,2064507450,0.00396745619220218,-0.00715305778801791,-0.702060400293328,-0.712070423059135,0.0984733884445644,0.0637954455220396,0.0221772432273718,0
623,2064524117,0.00438260190324088,-0.00698404812848649,-0.702340475449174,-0.711793419763154,0.129850196022574,0.0107745907187852,-0.00403385625358083,0
624,2064540784,0.00467634901110322,-0.00680762799559197,-0.702706591559361,-0.711431819741024,0.166309121552066,0.0401455796626987,-0.115188780837067,0
625,2064557451,0.00486607641198688,-0.00662719159443346,-0.702968236993728,-0.711173719571985,0.17803090520363,0.0821456583568495,-0.140572869713493,0
626,2064574118,0.00496584408949592,-0.00643061633218667,-0.702976824831083,-0.711166345742314,0.0694757846369564,0.162085372191904,-0.0879720924103135,0
627,2064590785,0.00506774079045407,-0.00611934720128986,-0.702875907257036,-0.711268114420089,-0.0815572156582295,0.18464503945755,0.0968234853746776,0
628,2064607452,0.00521060086754286,-0.00575065284268486,-0.70288694301813,-0.711259252990856,-0.0823716332041922,0.235392255359395,0.179842459225794,0
629,2064624119,0.00534563304341943,-0.00533994604294265,-0.703145050712383,-0.71100629170374,-0.0443122016065046,0.25906155397777,0.146656931140479,0
630,2064640786,0.00549774109910384,-0.00487129836829586,-0.703495323310273,-0.710661927624936,0.0150108262628248,0.311693395747575,0.0531769027910141,0
631,2064657453,0.00567870669115304,-0.00437079459079334,-0.703634438226955,-0.710526020484822,-0.0128417580614766,0.308016808414188,-0.06382402658189,0
632,2064674120,0.00590300783210253,-0.00381492821482115,-0.703652998205763,-0.710509013973285,-0.0162101461389614,0.231516980773886,0.0551898939921655,0
633,2064690787,0.00613785297524231,-0.00318871012421352,-0.703803690972939,-0.710360840320936,-0.0516786303864364,0.157180352828776,0.105031398641982,0
634,2064707454,0.00641287060057784,-0.00246575218022309,-0.704282383420002,-0.709886694875377,-0.0270603384797917,0.0908434332438049,0.0564568194281503,0
635,2064724121,0.00668350142199891,-0.00174313294047129,-0.704850549926163,-0.709322207861194,0.0358254325279881,0.0593994480361034,-0.0178336216413838,0
636,2064740788,0.00689349581373687,-0.0011170747842094,-0.705211257704443,-0.70896284378401,0.0311256606796405,0.0931098090790815,-0.0275233601770261,0
637,2064757455,0.00708240342242479,-0.000553380567473983,-0.70533226142695,-0.708841261723705,-0.0144746864051868,0.131627186896411,0.022594005585324,0
638,2064774122,0.00728626955581847,3.11425818576268e-05,-0.705519219381069,-0.708653328779331,-0.192971547038674,0.232061025245648,0.0439087128115216,0
639,2064790789,0.00755418211507868,0.000729846497076052,-0.705989618874527,-0.708181516066371,-0.203436592224912,0.231590317417197,0.0900228175592565,0
640,2064807456,0.0078463058561941,0.0014838874751971,-0.706617604645081,-0.707550559584275,-0.13539912088195,0.259966320939372,0.0415466898125137,0
641,2064824123,0.00814284223456177,0.00223397334436036,-0.707232890120458,-0.706930224714791,-0.0791183522123602,0.166059097629443,0.0140058572416062,0
642,2064840790,0.00840452416658007,0.00295485015502965,-0.707727347399937,-0.706429497243953,-0.0314611100234299,0.15851523087785,-0.0275779701366534,0
643,2064857457,0.00864782260337097,0.00364714098071312,-0.708114878070117,-0.706034866690471,0.00817795582801461,0.141029453260788,0.0804418649258851,0
644,2064874124,0.0088823018362688,0.00429335513004624,-0.70854943811032,-0.705592209118955,-0.0194906950263995,0.156377725405655,0.0821673404383676,0
645,2064890791,0.00908527582713503,0.0048791933237944,-0.709013440481089,-0.70511955897764,-0.0679200429486193,0.174682800867986,0.0077499010150173,0
646,2064907458,0.00926370505183318,0.00540142807643052,-0.709331184039163,-0.704793785225896,-0.107023623622563,0.150437481118136,0.00393357567781945,0
647,2064924125,0.00948715954549246,0.00590280907994976,-0.709542730836809,-0.704573817115969,-0.106152049785078,0.20746609875291,0.0959609157637253,0
648,2064940792,0.00972438304404056,0.00638747666618239,-0.709863745685471,-0.704242926182184,-0.102744522362457,0.189219523930878,0.139273978213288,0
649,2064957459,0.00989074103742931,0.0068607381747155,-0.710536055750677,-0.703557827752417,-0.0620674195129199,0.174898794814463,0.0116913072114543,0
650,2064974126,0.0100393155582765,0.00723740287878152,-0.71127092807942,-0.702809006069026,-0.044969868629634,0.178962463811117,-0.0643845749487418,0
651,2064990793,0.0101471931286271,0.00746718965889574,-0.711676495496789,-0.70239436309499,-0.0680799557954033,0.197871523137413,-0.0806521414029171,0
652,2065007460,0.010170627995897,0.00756955283687657,-0.71178806138879,-0.70227987003787,-0.158240371719142,0.17675631688452,-0.027767377504666,0
653,2065024127,0.0101698733884686,0.00765453124556966,-0.711988296118205,-0.702075956017131,-0.14677242602086,0.164250973348863,0.0463394441703005,0
654,2065040794,0.010173823178281,0.00767487479070505,-0.712371187874527,-0.7016871669805,-0.125411832686309,0.144575643529589,-0.0514403535515041,0
655,2065057461,0.010147459062957,0.00757008405889852,-0.712877219049302,-0.701174581300863,-0.0847072338854067,0.132601786117664,-0.0754535166468914,0
656,2065074128,0.0100369591274213,0.0073240274404211,-0.713320303251464,-0.700728023588871,-0.0981193466694817,0.13677521672602,-0.142011150605897,0
657,2065090795,0.00994085660230076,0.00693056220752285,-0.713545785762088,-0.700503788925274,-0.172609526169122,0.165077123042955,-0.144815548264892,0
658,2065107462,0.00984605364752701,0.00640224731352359,-0.713712311613279,-0.700340490553371,-0.255315841269694,0.218193963190738,-0.0622688184568914,0
659,2065124129,0.0098619091515921,0.00582902652674221,-0.713903765026582,-0.700150112103475,-0.336244422631606,0.294692697747465,-0.0786333873825612,0
660,2065140796,0.00995815115426716,0.00520878051251771,-0.714280013759556,-0.699769794843139,-0.308746016986462,0.323490835502441,-0.0570048303588777,0
661,2065157463,0.0101279248925665,0.00456922438483539,-0.71480809346001,-0.699232391161878,-0.210636513561915,0.292496403396826,-0.0653510351806405,0
662,2065174130,0.0102719889621795,0.00385819184892979,-0.715419763679275,-0.698608733366187,-0.104228707391098,0.228198875467527,-0.0564237519373409,0
663,2065190797,0.0103205388572354,0.00297838616058373,-0.716132423807018,-0.697881771696224,0.048322171912835,0.166815931675819,0.0062825004814708,0
664,2065207464,0.0103157693960698,0.0020405939769531,-0.717024351677478,-0.696968794121718,0.0342095948467388,0.0999335155858037,0.0756376676634818,0
665,2065224131,0.0102128142357063,0.00105231649196549,-0.718010813218633,-0.695956222155176,-0.00394345360944554,0.100721194453333,0.0235264326069638,0
666,2065240798,0.0100915907089812,3.58682122160189e-05,-0.719066451215185,-0.694868043046472,0.0661337575517394,0.135000517801057,0.0688565200042049,0
667,2065257465,0.00993812923897485,-0.000956553426931774,-0.720114820835313,-0.693783080945403,0.0767477810109193,0.142811477815084,0.00376833897504478,0
668,2065274132,0.00967166505001455,-0.00200459263246868,-0.721066126639665,-0.692795844038061,0.14298597127002,0.159544563859595,-0.057647770707282,0
669,2065290799,0.00928161918956639,-0.00314928528181347,-0.721803232252212,-0.692028920969126,0.117184552963587,0.178768516491398,0.0283543674148909,0
670,2065307466,0.00881550591201264,-0.00435795889228311,-0.722280976048117,-0.691529816196516,0.0576451415193278,0.23907931207375,0.0609393668483014,0
671,2065324133,0.00834018906382381,-0.00556556986400949,-0.722595939054373,-0.69119792718193,-0.118981987311151,0.279311733054208,0.141647494258122,0
672,2065340800,0.00800197437012608,-0.00663995559671249,-0.722881146428559,-0.690894150745239,-0.261728909433953,0.354765725266686,0.138096300632061,0
673,2065357467,0.00782208857773441,-0.00759770329093578,-0.723244366783296,-0.690506101168711,-0.270895072266702,0.362248637171577,0.156477454340062,0
674,2065374134,0.00780786456530384,-0.0084220746092463,-0.723815663211731,-0.689897812432803,-0.196263730530488,0.336569199436782,0.111470750238559,0
675,2065390801,0.00781588164440818,-0.00916584925754831,-0.724312775218703,-0.689366305280791,-0.0912678072320969,0.273623561836732,-0.0474012600520875,0
676,2065407468,0.00780194114512772,-0.00990692969138375,-0.724383932736657,-0.689281437767935,-0.0695635863115347,0.279503750534346,-0.147451711640426,0
677,2065424135,0.00788546044136686,-0.0106119926475977,-0.724018895971792,-0.689653422670737,-0.129545055917048,0.30248565640892,-0.0435141195280164,0
678,2065440802,0.00805491879655041,-0.0112139717230096,-0.723638393313228,-0.6900411877884,-0.154949023898329,0.309353489801115,0.111092969480816,0
679,2065457469,0.0083251509538107,-0.0115665630693896,-0.723496113839726,-0.690181338301155,-0.106524013536865,0.279853522408493,0.109057590004928,0
680,2065474136,0.00864686450169723,-0.0118001177959955,-0.723628552608744,-0.690034569281615,-0.051862526364197,0.233877274860739,0.0419298405813128,0
681,2065490803,0.00900279084388219,-0.0120105477282071,-0.723874875735066,-0.689767976046897,0.0123401432287153,0.214097812288139,0.0656492132591383,0
682,2065507470,0.00936521905175057,-0.0121248795485864,-0.724125632453337,-0.68949789585763,0.0780835462782259,0.179085756302696,0.0370478598203038,0
683,2065524137,0.00966926011105845,-0.0120880814567683,-0.724349623934725,-0.689259026782546,-0.0186133817407152,0.145090968195971,-0.0320180779845947,0
684,2065540804,0.0100017489968154,-0.0119442291557976,-0.724436561021539,-0.689165415166899,-0.0566451060570497,0.155882979391251,-0.0346469208988663,0
685,2065557471,0.0102919436791265,-0.0117008831402822,-0.724502553731735,-0.689095940247247,-0.0162531032182053,0.191752909545088,-0.0142557541349082,0
686,2065574138,0.0105800474310057,-0.0113723216879195,-0.724575828923929,-0.689020029487521,-0.0047773231801025,0.258044759975244,-0.0871070277009528,0
687,2065590805,0.0108342544911375,-0.0109362264724775,-0.72454336943625,-0.689057271702527,0.0171532273255827,0.215400558001374,-0.113300609898943,0
688,2065607472,0.0109802964102171,-0.0105080815322119,-0.724326094588503,-0.689290012992662,0.0620525936151302,0.159979768318185,-0.0634101323327467,0
689,2065624139,0.0110110670441446,-0.0100971010354579,-0.724047570406618,-0.689588225495116,0.0311751589946812,0.12543547961939,-0.0419255271783629,0
690,2065640806,0.0110084531087692,-0.00965329377042022,-0.723787999411799,-0.689867059502771,-0.0299437024799197,0.157737995918185,-0.0661695124749661,0
691,2065657473,0.0109573653453539,-0.00915673399917108,-0.723645438718974,-0.690024180292531,-0.0483711333973678,0.18656102500001,-0.0950387127505296,0
692,2065674140,0.0108349594574243,-0.00863432415434376,-0.723503835682615,-0.690181318098727,0.00917992756850125,0.201929046516584,-0.127543262371214,0
693,2065690807,0.0106235666882871,-0.00814545778162702,-0.723119416222064,-0.690593296543638,0.0340494231128502,0.258566478481777,-0.149847634471885,0
694,2065707474,0.0103386676117531,-0.0077268432388027,-0.722517376481663,-0.69123226814699,-0.0239998500142541,0.19226879831187,-0.128109609194887,0
695,2065724141,0.0099723397961061,-0.00736967350709696,-0.721997604327559,-0.691784431522316,-0.0916862339693622,0.174930420263578,-0.109352731588928,0
696,2065740808,0.00962253813117942,-0.00699559885069469,-0.72148808670927,-0.692324641402594,-0.104761534890431,0.233934478000809,-0.0605485386335487,0
697,2065757475,0.00926125723505717,-0.00664040478304853,-0.720878690422235,-0.692967566220719,-0.0628241581257063,0.20940553041721,-0.0674391074310011,0
698,2065774142,0.00890071028842375,-0.00634487924171173,-0.720214017109242,-0.693665834118373,-0.0199820643554574,0.191171495934948,-0.00761864448450818,0
699,2065790809,0.00862712566901433,-0.00608753795238732,-0.719639249133674,-0.694267863069212,0.0129677538622235,0.15688259687235,0.0622594586621262,0
700,2065807476,0.00836641600812194,-0.00590708791257878,-0.719176935574659,-0.694751498546793,-0.0303717579142941,0.185752186068735,0.0414563360674631,0
701,2065824143,0.00816365704075559,-0.00574826031235849,-0.718810155523564,-0.69513471537774,-0.0811918064588078,0.20615085616551,0.101698022291048,0
702,2065840810,0.00806483110246739,-0.00557044792807414,-0.718541212665416,-0.695415310667289,-0.0429286187131927,0.191857733427304,0.134548762037199,0
703,2065857477,0.00800359156201635,-0.00537548684727677,-0.718379149496607,-0.695584965501551,-0.0261014932161685,0.15856380927452,0.131334777451266,0
704,2065874144,0.00802604690776526,-0.0052050823988491,-0.718321709594226,-0.695645319982737,0.00344835672970358,0.157821630043321,0.121286407033743,0
705,2065890811,0.00808683875989903,-0.00508583817701736,-0.718231212708806,-0.695738932631879,0.0508161273915962,0.189851702442637,0.0775377792559228,0
706,2065907478,0.00812115691809498,-0.00502043918648667,-0.717999256416261,-0.695978383131532,0.0156401410775384,0.211514323721479,0.0332604146388735,0
707,2065924145,0.00814413944344407,-0.00500082650632883,-0.717678586194255,-0.696308919693835,0.0579545828912842,0.202655063520181,0.0550844924125672,0
708,2065940812,0.00814358382535701,-0.00503552027894587,-0.717436415347721,-0.696558192480005,0.0287854002468915,0.189925370983001,0.0828941957027893,0
709,2065957479,0.00814411364304168,-0.00508407512737059,-0.71726659981003,-0.696732696512821,-0.0630281878651186,0.21878558645919,0.0153062096842152,0
710,2065974146,0.00819044079077892,-0.00516442080894737,-0.717092149678211,-0.696911109329765,-0.0929243430675687,0.273610990874313,-0.0192562723184568,0
711,2065990813,0.00827581774078687,-0.00528866034156463,-0.716790284924854,-0.69721964139707,-0.0752185456275559,0.311244511643173,0.0122755848005264,0
712,2066007480,0.00830766564013416,-0.005441293977789,-0.716406464392222,-0.697612466050095,-0.0239665621950184,0.283358983944815,0.0497896513800329,0
713,2066024147,0.00834836610843548,-0.00557130495427292,-0.716078437099155,-0.697947660835723,-0.0262620887351908,0.260903831141993,0.0500160741521909,0
714,2066040814,0.00840981246893147,-0.00572186622252489,-0.715919020817566,-0.698109225646522,-0.00171583817362411,0.189969319468847,0.0709196240938735,0
715,2066057481,0.00847525254642647,-0.00589939871892744,-0.715928469543579,-0.698097266636977,0.0109695703477643,0.174766924095928,0.0754581281276261,0
716,2066074148,0.00852175219249139,-0.00611362780774402,-0.715992187273481,-0.698029505864856,0.0306141426843891,0.172303787708823,0.0279182767983032,0
717,2066090815,0.00851746218266539,-0.00639320412907488,-0.715943386281635,-0.698077107072361,0.037377816201682,0.150022360380987,-0.0300200851289667,0
718,2066107482,0.0084950768163324,-0.00666771068507861,-0.715717396965021,-0.698306510771395,0.00266094280367571,0.151900806426258,-0.0365784394977545,0
719,2066124149,0.00847396547343763,-0.0069801989556724,-0.715508300002294,-0.698517960656361,-0.028044292557073,0.152224458291254,0.00207882075490987,0
720,2066140816,0.00843360831253936,-0.00731636548243918,-0.715387825804923,-0.698638392687564,-0.0231370995452768,0.187498437533118,0.00929573516337268,0
721,2066157483,0.00836248646137416,-0.00768240509070193,-0.715299402127813,-0.698725850951429,-0.0417872246110766,0.206207327023376,-0.0142762034486292,0
722,2066174150,0.00828778880238812,-0.00808799550676695,-0.71514692757803,-0.698878221767679,-0.0477425889373106,0.248880358782531,-0.0675266068553522,0
723,2066190817,0.00820271754913552,-0.00848049934961072,-0.714999968292203,-0.699024922229342,-0.0707811001684457,0.238750238117649,-0.0101943145988031,0
724,2066207484,0.00809697863041815,-0.0088775262357978,-0.71487087997203,-0.699153240307879,-0.0255951363682692,0.228493122322163,0.0207391217628937,0
725,2066224151,0.00798772203243798,-0.00927751961893747,-0.714776833355657,-0.699245452201522,-0.0336473006101065,0.219968234265099,0.0119079101853464,0
726,2066240818,0.00787777589508215,-0.00965922410304125,-0.714798981647263,-0.699218889813991,-0.0681511278324668,0.211005957188509,0.00384222379375559,0
727,2066257485,0.00774767706099439,-0.0101002241984234,-0.714821582931778,-0.699191006482641,-0.0263388870379352,0.220859397354839,0.0111903219483338,0
728,2066274152,0.00761530990792276,-0.0105306920524682,-0.714800656346697,-0.699207503725634,0.00048813540799656,0.19888111770787,0.0179263767924666,0
729,2066290819,0.00747459960547964,-0.010950782340334,-0.714772705445203,-0.699231142239401,-0.0373308105393739,0.201114191141078,0.0288540726330419,0
730,2066307486,0.00735374923278368,-0.0113682343864215,-0.714794389830612,-0.699203594016678,-0.0690610421679057,0.198254381469164,0.0356529335741209,0
731,2066324153,0.00726286745069765,-0.0117619506756149,-0.71491224048227,-0.699077531952872,-0.10244580146279,0.219654873249403,0.00824837824182671,0
732,2066340820,0.00721860172116321,-0.0121002673371222,-0.71506119961615,-0.698919849570088,-0.0540425473415633,0.193927629585391,-0.0180788727948928,0
733,2066357487,0.00719753600609359,-0.0124534057519833,-0.715155386785949,-0.698817487554267,-0.0272083265968437,0.207825742377292,-0.0271234894342871,0
734,2066374154,0.00715663277251621,-0.0128103172713741,-0.715130540952156,-0.698836882094987,-0.00789673791862999,0.209255839765758,-0.0348123519153773,0
735,2066390821,0.00709236415133679,-0.0131830427504824,-0.715053140669628,-0.698909802315782,0.0271904920863852,0.22188233822149,-0.0306080822861382,0
736,2066407488,0.00700137000436304,-0.0135541292337016,-0.714995739402363,-0.698962344504514,0.0199712988878154,0.228845394987435,-0.00686122782442188,0
737,2066424155,0.00693780954822799,-0.0139631228226837,-0.714850447974354,-0.69910352239892,-0.112870035152382,0.305119444673697,-0.0248032205199235,0
738,2066440822,0.00698265784952503,-0.0142942240888065,-0.714678099589949,-0.69927257318842,-0.122588760986138,0.299729312251817,0.0393327291395771,0
739,2066457489,0.00706918815184812,-0.0145749421557077,-0.714600098387475,-0.699345620580155,-0.120121734852888,0.297969568176832,0.00453193713709337,0
740,2066474156,0.00722662708529002,-0.014771944882296,-0.714676223751617,-0.699262082991416,-0.0794683567139868,0.249140473853366,-0.0145899838656401,0
741,2066490823,0.00738615787926828,-0.014983919003754,-0.714857811846111,-0.699070265199187,-0.0142691908837558,0.195270815896195,-0.0207339614145514,0
742,2066507490,0.00756860258465426,-0.0152069425034742,-0.7150279458648,-0.69888947751914,0.0162739852842628,0.210170852838803,-0.0129873799427093,0
743,2066524157,0.0077245962965343,-0.0154156615816896,-0.715063879209672,-0.698846432801707,0.00330352473447777,0.214916097489079,-0.0481775001872452,0
744,2066540824,0.00782567111085931,-0.0156551982046744,-0.714932968154923,-0.698973908444392,-0.0143736738543027,0.171032148130397,-0.0805192813192181,0
745,2066557491,0.00788969839810781,-0.0159267218703372,-0.714800360541463,-0.699102665392892,-0.0503808544022468,0.170673524886777,-0.0158925481695282,0
746,2066574158,0.00795506541684272,-0.016221799774204,-0.71463042956525,-0.699268846214163,-0.125187877542856,0.225251389003285,-0.000445350466335964,0
747,2066590825,0.00804938995764322,-0.0164710974204741,-0.714517126150988,-0.699377713905732,-0.1568355935463,0.210615275400819,-0.0305061431367991,0
748,2066607492,0.00811752537930014,-0.016701174304909,-0.714376107984629,-0.699515512979724,-0.114019645500771,0.180753464721805,-0.0115018870248277,0
749,2066624159,0.00821147143348401,-0.0168856074916597,-0.714263960890264,-0.699624500835903,-0.0801909065062426,0.160907520704174,0.025603516039999,0
750,2066640826,0.00827345074887327,-0.0170623153121166,-0.714252701097239,-0.699630978719635,-0.0233500886527813,0.140289079581936,0.0315715473627584,0
751,2066657493,0.00832758872430679,-0.0172197463933295,-0.714278306996258,-0.699600337160258,-0.0581975995009072,0.149359625846591,0.0287032456713691,0
752,2066674160,0.00840500305702545,-0.0173232317825389,-0.714223509313155,-0.699652799829045,-0.0838094425955727,0.138843196454895,0.0158861575291198,0
753,2066690827,0.00847517454211988,-0.0173874021630285,-0.71416750249939,-0.699707530355566,-0.0758613394821832,0.138768600631986,0.0358330579783649,0
754,2066707494,0.00855056837125211,-0.0174118512433065,-0.714175408143639,-0.699697935983576,-0.044166235232175,0.153404196805554,0.00713171010206082,0
755,2066724161,0.00862538497933592,-0.0174287189225547,-0.714213955160603,-0.699657250905417,-0.0364241095162249,0.179062057240979,-0.0601269155439335,0
756,2066740828,0.00863517374567316,-0.0174641441607474,-0.714232801161655,-0.699637008160582,0.00167637221583865,0.210163712781573,-0.0289857324233418,0
757,2066757495,0.00859926194856307,-0.0175094220735669,-0.714182705176405,-0.699687456268513,0.00791068625728386,0.225787683086607,-0.0318231596907117,0
758,2066774162,0.00852297151160135,-0.0175532679651907,-0.714031771454592,-0.699841318509968,-0.0188314986729215,0.223426508596602,-0.0298526722411687,0
759,2066790829,0.008418155280215,-0.0175846050900172,-0.713873807599973,-0.700002930814023,-0.074266506709041,0.220054748362425,0.0069261859293751,0
760,2066807496,0.00833446234764301,-0.0175655895079935,-0.713796585269396,-0.700083153389911,-0.116989390571951,0.239032081056023,0.0238218915731972,0
761,2066824163,0.00824565123311932,-0.0174953380903721,-0.713829128295478,-0.700052782279853,-0.0888263286991774,0.223580545749792,0.0405618160013631,0
762,2066840830,0.00812817982908897,-0.017408858935895,-0.713864397695792,-0.700020346865461,-0.0642975542767044,0.192912417507058,-0.0234295450324493,0
763,2066857497,0.00802978148106609,-0.0173183053516724,-0.713842090583648,-0.70004647604304,-0.0536283176758347,0.157046147653378,-0.0372259760174341,0
764,2066874164,0.00792122782857814,-0.0172399256641479,-0.713773783072506,-0.700119293914362,-0.0513959351576443,0.170403725538516,-0.0291425975936893,0
765,2066890831,0.00782978630895156,-0.0171659889348016,-0.71371398359793,-0.700183099543984,-0.0479470330731543,0.194088168675737,0.0286889568017831,0
766,2066907498,0.00768712653543787,-0.0170939511901473,-0.713647860017935,-0.700253837411948,-0.0417324058654118,0.22635079437952,0.008006119076369,0
767,2066924165,0.00754925580591843,-0.0169709505490701,-0.713547298315994,-0.700360798903096,-0.0577807658522486,0.232679328521697,-0.0224652833118403,0
768,2066940832,0.00746540116560989,-0.0168541822906851,-0.713330092744334,-0.700585742868144,-0.137308348569857,0.256298288182288,0.0248887483713203,0
769,2066957499,0.0074529697454716,-0.0166898406785192,-0.713116982064933,-0.700806729669957,-0.121342495123682,0.239890104345066,0.0962668837388246,0
770,2066974166,0.00740760623216808,-0.0164694243354551,-0.713065306255662,-0.700865004438434,-0.0622603575953981,0.211008159917936,0.0251445408500586,0
771,2066990833,0.00737082491941723,-0.0162394867034069,-0.71298413882263,-0.700953327832153,-0.0259464742568788,0.175465694939975,-0.045546765991851,0
772,2067007500,0.00727959005690909,-0.0160919141031112,-0.712712827857609,-0.70123354374724,0.0163962503618062,0.160509637069869,-0.0333081525427703,0
773,2067024167,0.00715652986228602,-0.0159694436117686,-0.712362299151747,-0.701593697020075,-0.0332843406988711,0.193208513587204,0.0654753074342708,0
774,2067040834,0.00707510860171606,-0.0158115485516187,-0.712034416429105,-0.701930856702523,-0.114212569890082,0.226143430939791,0.10872854169017,0
775,2067057501,0.00705758157275458,-0.0155989483307728,-0.711834250440113,-0.702138777773797,-0.056050317483087,0.218893712093486,0.138322085876068,0
776,2067074168,0.00709167175490697,-0.0153408803277489,-0.711848379034089,-0.702129796297687,-0.0393558292408918,0.210098852366082,0.112334070062071,0
777,2067090835,0.00716374306709277,-0.0150666997501025,-0.711974710658445,-0.702006899344112,-0.0317517427799915,0.199660818644146,0.0485853532972868,0
778,2067107502,0.00718765119939513,-0.0148563800541759,-0.712075904941666,-0.701908492072456,0.0130083069788126,0.173620632513048,-0.00860511941523301,0
779,2067124169,0.00717470720239525,-0.0147095012080785,-0.712071006277344,-0.701916687485018,0.0387351162030095,0.157922756927757,-0.000246639497638874,0
780,2067140836,0.00714835035785667,-0.0146280886645418,-0.712025990074535,-0.701964322147188,0.0349744411508414,0.15822455913274,0.037128261926251,0
781,2067157503,0.0071056774907962,-0.0146073070977189,-0.711959876026773,-0.702032243458014,-0.0533094163202288,0.20590510118003,0.0524394825012856,0
782,2067174170,0.00713037769742418,-0.0145563449801722,-0.711862483129953,-0.702131807887072,-0.118787102386914,0.24047123815345,0.0199356872657985,0
783,2067190837,0.00717680647265341,-0.014508395608694,-0.711760918313744,-0.702235284692312,-0.0546078242298861,0.234518007682807,0.00396396893726643,0
784,2067207504,0.00722546540442208,-0.0144762049800165,-0.711584903883989,-0.70241380731267,-0.0551986186961911,0.265078152249695,-0.0365690707375396,0
785,2067224171,0.00728904159360063,-0.014453949610785,-0.711410896247564,-0.702589844727016,-0.0502537474054197,0.216848820331311,0.00561444148224645,0
786,2067240838,0.00733360975572933,-0.0144700812516923,-0.71125256444185,-0.702749332615416,-0.0141527004663179,0.221625835519465,0.0528469497031494,0
787,2067257505,0.00735687632643226,-0.0145269112171318,-0.711116591500829,-0.702885508823059,-0.0376011440024458,0.212176553422903,0.0632321827459049,0
788,2067274172,0.0073900852089968,-0.0145875784994585,-0.710975750043144,-0.703026366535933,-0.029809373696305,0.209676083344394,0.0191901322260216,0
789,2067290839,0.00743429564602155,-0.0146498812827816,-0.710891546847236,-0.703109750215279,-0.0717480496412798,0.197485487072418,0.0445579022142226,0
790,2067307506,0.00750542755127371,-0.0146895828023639,-0.710855965233311,-0.703144139850843,-0.0741319655127807,0.178545672006866,0.0489223138792816,0
791,2067324173,0.00759252906768496,-0.0147351121378154,-0.710883820844789,-0.70311408977047,-0.0542210621542907,0.168303100310489,0.0210131092463616,0
