sep=,
DeviceTag:,Xsens_1,,,,,,,,,,,,,,,,,
FirmwareVersion:,2.2.1,,,,,,,,,,,,,,,,,
AppVersion:,2023.0.0,,,,,,,,,,,,,,,,,
StartTime:,2023-07-03 16:03:54.000 +0200,,,,,,,,,,,,,,,,,
© Movella Technologies B. V. 2005-2023,,,,,,,,,,,,,,,,,,,

PacketCounter,SampleTimeFine,Quat_W,Quat_X,Quat_Y,Quat_Z,Acc_X,Acc_Y,Acc_Z,Gyr_X,Gyr_Y,Gyr_Z,Mag_X,Mag_Y,Mag_Z,Status,
0, 1169254441, 0.6100704, 0.089350805, -0.7789175, 0.11453461, 0.0, 0.0, 0.0, 0.0, 0.0, 0.0, -0.78759765625, 0.642333984375, -0.025146484375, 0, 
1, 1169271108, 0.6123294, 0.08841671, -0.7773493, 0.1138559, 9.794326782226562, -0.7785953283309937, -2.455512762069702, -14.057876586914062, 17.53363609313965, -6.1265950202941895, -0.7919921875, 0.642822265625, -0.025390625, 0, 
2, 1169287775, 0.61368716, 0.0873359, -0.77656424, 0.112732254, 9.79947280883789, -0.7385369539260864, -2.340789556503296, -14.173429489135742, 18.231225967407227, -6.074216842651367, -0.79150390625, 0.642333984375, -0.0244140625, 0, 
3, 1169304442, 0.61538553, 0.08617595, -0.7755558, 0.11130006, 9.826077461242676, -0.727703332901001, -2.2460074424743652, -14.368242263793945, 19.485382080078125, -5.567789554595947, -0.79248046875, 0.641357421875, -0.022216796875, 0, 
4, 1169321109, 0.61754537, 0.0847966, -0.77422106, 0.10967701, 9.802337646484375, -0.6067092418670654, -2.1869962215423584, -14.600578308105469, 20.60418701171875, -4.991683006286621, -0.7958984375, 0.64306640625, -0.0263671875, 0, 
5, 1169337776, 0.6200058, 0.083795354, -0.7726047, 0.10795085, 9.748583793640137, -0.5861783623695374, -2.148292064666748, -14.786468505859375, 21.78746795654297, -5.081264972686768, -0.793212890625, 0.6396484375, -0.029296875, 0, 
6, 1169354443, 0.62260944, 0.08281714, -0.7709019, 0.10587392, 9.79304313659668, -0.6250274181365967, -2.103679895401001, -16.783010482788086, 22.361221313476562, -5.8723554611206055, -0.7978515625, 0.63818359375, -0.031982421875, 0, 
7, 1169371110, 0.6252634, 0.08173481, -0.76915056, 0.10379148, 9.719476699829102, -0.5616621971130371, -2.0318989753723145, -17.83572769165039, 22.718053817749023, -5.533551216125488, -0.795654296875, 0.635986328125, -0.03369140625, 0, 
8, 1169387777, 0.62802136, 0.08050574, -0.7673039, 0.101750754, 9.639659881591797, -0.4728894531726837, -1.9609483480453491, -17.78521156311035, 23.624561309814453, -4.69251012802124, -0.79736328125, 0.635986328125, -0.0341796875, 0, 
9, 1169404444, 0.63086563, 0.079113245, -0.76538193, 0.099700645, 9.63316822052002, -0.4292474687099457, -1.8824814558029175, -17.66638946533203, 24.376588821411133, -3.7305145263671875, -0.798583984375, 0.6328125, -0.036376953125, 0, 
10, 1169421111, 0.6338134, 0.07766062, -0.7633552, 0.0976653, 9.657529830932617, -0.3875443637371063, -1.802039623260498, -18.077173233032227, 25.274784088134766, -3.131150960922241, -0.799072265625, 0.63134765625, -0.037353515625, 0, 
11, 1169437778, 0.6368775, 0.07610411, -0.7612279, 0.09553673, 9.679678916931152, -0.37637099623680115, -1.6891862154006958, -18.478683471679688, 26.116260528564453, -2.9941868782043457, -0.80078125, 0.634521484375, -0.0390625, 0, 
12, 1169454445, 0.640064, 0.07452541, -0.7589863, 0.0932952, 9.693644523620605, -0.3703489303588867, -1.613520860671997, -18.50931739807129, 26.871492385864258, -3.551880359649658, -0.79833984375, 0.6328125, -0.0439453125, 0, 
13, 1169471112, 0.643273, 0.07321799, -0.7566581, 0.09114629, 9.678669929504395, -0.41474393010139465, -1.525270938873291, -17.38387680053711, 27.047016143798828, -4.554851055145264, -0.79833984375, 0.630859375, -0.045654296875, 0, 
14, 1169487779, 0.6464052, 0.07201816, -0.7543483, 0.0890638, 9.666014671325684, -0.4507765471935272, -1.4247664213180542, -16.221662521362305, 26.336118698120117, -5.0442657470703125, -0.800048828125, 0.628173828125, -0.046142578125, 0, 
15, 1169504446, 0.64943486, 0.070830636, -0.75209117, 0.08704139, 9.602422714233398, -0.5270661115646362, -1.3275532722473145, -15.353778839111328, 25.3972225189209, -5.135803699493408, -0.802490234375, 0.628173828125, -0.050537109375, 0, 
16, 1169521113, 0.6523228, 0.06967531, -0.7499145, 0.085139126, 9.532684326171875, -0.5706905722618103, -1.2448409795761108, -14.947614669799805, 24.207866668701172, -5.019693374633789, -0.80029296875, 0.62646484375, -0.054931640625, 0, 
17, 1169537780, 0.65508497, 0.06854615, -0.74780476, 0.08338662, 9.497618675231934, -0.5919893383979797, -1.1386597156524658, -14.723575592041016, 23.232892990112305, -4.716846942901611, -0.80419921875, 0.627685546875, -0.05419921875, 0, 
18, 1169554447, 0.65776503, 0.0671828, -0.7457694, 0.08160706, 9.453686714172363, -0.6126347780227661, -1.110713005065918, -14.734313011169434, 22.42786979675293, -4.0791335105896, -0.802001953125, 0.6259765625, -0.054931640625, 0, 
19, 1169571114, 0.66035706, 0.06571109, -0.7437971, 0.079852544, 9.435738563537598, -0.6554118394851685, -1.1500442028045654, -14.919323921203613, 21.730545043945312, -3.671826124191284, -0.80615234375, 0.626708984375, -0.061279296875, 0, 
20, 1169587781, 0.66271734, 0.06414306, -0.7420021, 0.078257814, 9.348052978515625, -0.760343074798584, -0.9206815958023071, -15.433897018432617, 20.00845718383789, -2.4448084831237793, -0.801513671875, 0.62646484375, -0.05615234375, 0, 
21, 1169604448, 0.66483575, 0.062357716, -0.7404146, 0.0767534, 9.325090408325195, -0.7903701663017273, -0.899664580821991, -15.71097183227539, 17.885372161865234, -1.0888813734054565, -0.805419921875, 0.625732421875, -0.06201171875, 0, 
22, 1169621115, 0.6669111, 0.06048707, -0.738841, 0.075397946, 9.380583763122559, -0.7586575150489807, -0.8282749652862549, -15.328635215759277, 17.679058074951172, -0.24777133762836456, -0.803955078125, 0.625732421875, -0.06298828125, 0, 
23, 1169637782, 0.6690597, 0.058675226, -0.73716193, 0.07422099, 9.5399808883667, -0.794788122177124, -0.7888791561126709, -14.120077133178711, 18.53016471862793, -0.0020746325608342886, -0.804443359375, 0.626220703125, -0.065185546875, 0, 
24, 1169654449, 0.67133665, 0.05671295, -0.7353605, 0.0730462, 9.74168586730957, -0.8129900693893433, -0.6795737147331238, -14.717944145202637, 19.782073974609375, 0.48597633838653564, -0.802734375, 0.62451171875, -0.063720703125, 0, 
25, 1169671116, 0.6738658, 0.05435293, -0.7333766, 0.071480505, 9.954936027526855, -0.8391574621200562, -0.5851137638092041, -17.043920516967773, 21.817800521850586, 0.2426169067621231, -0.803466796875, 0.62451171875, -0.06689453125, 0, 
26, 1169687783, 0.67659163, 0.05201736, -0.731205, 0.069696866, 10.177693367004395, -0.7830356359481812, -0.49545612931251526, -20.397947311401367, 23.56243896484375, -0.9618625640869141, -0.800048828125, 0.627197265625, -0.067138671875, 0, 
27, 1169704450, 0.67954105, 0.049257718, -0.72887766, 0.06734303, 10.374900817871094, -0.657703697681427, -0.26260367035865784, -23.196786880493164, 25.244779586791992, -1.8234974145889282, -0.80126953125, 0.62451171875, -0.067626953125, 0, 
28, 1169721117, 0.6827048, 0.046298042, -0.72635376, 0.06466054, 10.529853820800781, -0.5506629347801208, 0.07177947461605072, -26.181310653686523, 27.047441482543945, -2.4189844131469727, -0.80419921875, 0.625, -0.0703125, 0, 
29, 1169737784, 0.6861618, 0.043135427, -0.723549, 0.061631046, 10.694125175476074, -0.4522489905357361, 0.3935808539390564, -28.82807731628418, 29.508514404296875, -3.125145673751831, -0.802978515625, 0.62841796875, -0.072509765625, 0, 
30, 1169754451, 0.6899895, 0.039864138, -0.72036225, 0.058341116, 10.686812400817871, -0.4462727904319763, 0.6381641030311584, -30.568965911865234, 32.74623489379883, -3.916574716567993, -0.80419921875, 0.6240234375, -0.073486328125, 0, 
31, 1169771118, 0.6942338, 0.03674347, -0.71670127, 0.055035226, 10.544509887695312, -0.36585742235183716, 0.723251223564148, -30.43813133239746, 36.628318786621094, -4.872752666473389, -0.802978515625, 0.6279296875, -0.073486328125, 0, 
32, 1169787785, 0.6988087, 0.033861756, -0.7126297, 0.051757876, 10.355928421020508, -0.346746027469635, 0.8001872897148132, -28.1700496673584, 39.80975341796875, -6.011748790740967, -0.80322265625, 0.621337890625, -0.07861328125, 0, 
33, 1169804452, 0.70351255, 0.03138256, -0.7083153, 0.048733488, 10.176898956298828, -0.701883852481842, 0.8853563070297241, -26.005701065063477, 41.32490539550781, -6.7188310623168945, -0.804443359375, 0.62255859375, -0.0830078125, 0, 
34, 1169821119, 0.7082353, 0.028979506, -0.70390624, 0.045597073, 9.981575012207031, -0.8881223797798157, 1.0287744998931885, -24.515932083129883, 41.620521545410156, -7.70321798324585, -0.806396484375, 0.620361328125, -0.087890625, 0, 
35, 1169837786, 0.71301067, 0.026845684, -0.69935685, 0.0423716, 9.798741340637207, -0.8056819438934326, 1.0644344091415405, -22.888248443603516, 42.30377960205078, -9.574331283569336, -0.805908203125, 0.62158203125, -0.090087890625, 0, 
36, 1169854453, 0.7178242, 0.024853274, -0.69468564, 0.0390222, 9.694698333740234, -0.8488171100616455, 1.0473827123641968, -21.894390106201172, 42.93055725097656, -10.915054321289062, -0.805908203125, 0.6181640625, -0.093994140625, 0, 
37, 1169871120, 0.722539, 0.023172123, -0.6899993, 0.036074992, 9.487164497375488, -0.9224702715873718, 1.0816065073013306, -20.460481643676758, 42.55108642578125, -10.519370079040527, -0.807861328125, 0.615234375, -0.10107421875, 0, 
38, 1169887787, 0.7271691, 0.021366253, -0.6853107, 0.03343215, 9.229351043701172, -1.090185523033142, 1.1340217590332031, -18.76066017150879, 42.25395965576172, -8.446372032165527, -0.810791015625, 0.615234375, -0.107421875, 0, 
39, 1169904454, 0.7316426, 0.019234698, -0.6807062, 0.031114895, 9.156360626220703, -1.2159920930862427, 1.1821566820144653, -17.597490310668945, 41.249576568603516, -5.2821125984191895, -0.8095703125, 0.613037109375, -0.113525390625, 0, 
40, 1169921121, 0.7357987, 0.016782325, -0.6763552, 0.029370958, 9.294317245483398, -1.1057971715927124, 1.2225654125213623, -17.965620040893555, 38.72196578979492, -1.0437754392623901, -0.80908203125, 0.61474609375, -0.118408203125, 0, 
41, 1169937788, 0.73948765, 0.013881294, -0.67245066, 0.027850842, 9.412691116333008, -0.8157693147659302, 1.2245272397994995, -18.739362716674805, 34.48405838012695, 2.268765926361084, -0.8037109375, 0.615234375, -0.123046875, 0, 
42, 1169954455, 0.7425064, 0.010919322, -0.66922593, 0.026491938, 9.346835136413574, -0.6259535551071167, 1.3445444107055664, -18.766637802124023, 28.072967529296875, 3.530846118927002, -0.8046875, 0.617431640625, -0.12646484375, 0, 
43, 1169971122, 0.7449254, 0.008033959, -0.6666281, 0.02508016, 9.433444023132324, -0.4984181523323059, 1.3461908102035522, -18.38736343383789, 22.179250717163086, 3.1583821773529053, -0.8037109375, 0.617431640625, -0.12744140625, 0, 
44, 1169987789, 0.74698776, 0.0054355823, -0.6643984, 0.023551911, 9.580682754516602, -0.27469685673713684, 1.260841965675354, -18.383373260498047, 18.727333068847656, 1.3257677555084229, -0.8037109375, 0.617919921875, -0.129638671875, 0, 
45, 1170004456, 0.7488684, 0.0029395274, -0.66235936, 0.02162854, 9.658631324768066, -0.12758243083953857, 1.2248281240463257, -19.22245979309082, 17.011585235595703, -0.9352692365646362, -0.802001953125, 0.6171875, -0.129638671875, 0, 
46, 1170021123, 0.75070244, 5.1835505E-4, -0.6603569, 0.019355753, 9.722250938415527, 0.05860479548573494, 1.3762238025665283, -20.398025512695312, 16.739351272583008, -2.8897151947021484, -0.80322265625, 0.618408203125, -0.130126953125, 0, 
47, 1170037790, 0.7526528, -0.0017659345, -0.6582001, 0.016835043, 9.719483375549316, 0.20620377361774445, 1.528732419013977, -21.052141189575195, 18.167381286621094, -4.638248443603516, -0.801025390625, 0.618896484375, -0.13134765625, 0, 
48, 1170054457, 0.75482154, -0.0040260595, -0.6557703, 0.013913216, 9.67998218536377, 0.3243326246738434, 1.5612965822219849, -22.575326919555664, 20.6490478515625, -6.611313343048096, -0.802734375, 0.618408203125, -0.130859375, 0, 
49, 1170071124, 0.7573278, -0.006284357, -0.65291876, 0.0106042735, 9.77767276763916, 0.4022201895713806, 1.5911260843276978, -24.511112213134766, 24.456409454345703, -8.460777282714844, -0.80322265625, 0.618408203125, -0.129638671875, 0, 
50, 1170087791, 0.7601166, -0.008405683, -0.6496949, 0.00699391, 9.889874458312988, 0.4771327078342438, 1.3622041940689087, -24.662532806396484, 27.74186134338379, -10.360006332397461, -0.804443359375, 0.6162109375, -0.13232421875, 0, 
51, 1170104458, 0.7630077, -0.010435019, -0.6462973, 0.0032059026, 10.137019157409668, 0.3496691584587097, 1.5204355716705322, -25.724956512451172, 29.271114349365234, -11.602428436279297, -0.8056640625, 0.613037109375, -0.133544921875, 0, 
52, 1170121125, 0.7659549, -0.012732674, -0.64276767, -9.3892176E-4, 9.887900352478027, 0.25241950154304504, 1.5237475633621216, -27.81516456604004, 30.346912384033203, -11.952082633972168, -0.80615234375, 0.61083984375, -0.13525390625, 0, 
53, 1170137792, 0.76863694, -0.015034048, -0.6394887, -0.00504371, 9.918623924255371, 0.16494262218475342, 1.6664551496505737, -28.23712158203125, 27.984819412231445, -11.710278511047363, -0.80859375, 0.607666015625, -0.13671875, 0, 
54, 1170154459, 0.7712338, -0.017267417, -0.6362578, -0.008747558, 10.258870124816895, 0.04803106188774109, 1.7914056777954102, -26.024778366088867, 27.414535522460938, -9.774033546447754, -0.80908203125, 0.612060546875, -0.13671875, 0, 
55, 1170171126, 0.77390593, -0.01940145, -0.63289374, -0.01178276, 10.405162811279297, -0.13962674140930176, 1.9265952110290527, -22.592933654785156, 28.47309112548828, -6.566826343536377, -0.806396484375, 0.607177734375, -0.138427734375, 0, 
56, 1170187793, 0.7768408, -0.0213215, -0.6291774, -0.014133765, 10.231684684753418, -0.22923728823661804, 2.0034854412078857, -18.503629684448242, 31.5, -3.751157522201538, -0.808349609375, 0.606689453125, -0.143798828125, 0, 
57, 1170204460, 0.7800118, -0.022972897, -0.625141, -0.015897105, 9.879185676574707, -0.21215251088142395, 2.01127552986145, -14.652610778808594, 34.24381637573242, -1.7039059400558472, -0.809814453125, 0.60791015625, -0.14501953125, 0, 
58, 1170221127, 0.78324723, -0.024278976, -0.6209976, -0.017223427, 9.336695671081543, -0.020103376358747482, 2.2235734462738037, -10.756437301635742, 35.12812042236328, -0.7475742101669312, -0.806396484375, 0.606689453125, -0.155029296875, 0, 
59, 1170237794, 0.7863865, -0.025189906, -0.6169499, -0.018295726, 9.094290733337402, 0.25087282061576843, 2.3385062217712402, -7.701682090759277, 34.23896408081055, -1.070910096168518, -0.806396484375, 0.6083984375, -0.155517578125, 0, 
60, 1170254461, 0.78951323, -0.025624618, -0.61289537, -0.01928814, 8.902040481567383, 0.35080188512802124, 2.341320037841797, -4.714107513427734, 34.2831916809082, -2.5367629528045654, -0.80322265625, 0.607177734375, -0.166015625, 0, 
61, 1170271128, 0.79268754, -0.025642019, -0.608753, -0.020214768, 9.090170860290527, 0.3510081470012665, 2.3045427799224854, -2.2357230186462402, 35.028743743896484, -3.8228211402893066, -0.8046875, 0.607421875, -0.171630859375, 0, 
62, 1170287795, 0.795717, -0.02543561, -0.60476464, -0.02114821, 8.682122230529785, 0.4496845602989197, 2.3975374698638916, -0.941398561000824, 33.659610748291016, -4.709105968475342, -0.802978515625, 0.6044921875, -0.1748046875, 0, 
63, 1170304462, 0.79859245, -0.024916599, -0.6009575, -0.021896342, 8.5368070602417, 0.48183831572532654, 2.4380805492401123, 1.402947187423706, 32.072601318359375, -4.975887298583984, -0.80126953125, 0.605224609375, -0.1865234375, 0, 
64, 1170321129, 0.8014194, -0.024096293, -0.5972006, -0.022315286, 8.989572525024414, 0.25376957654953003, 2.502434253692627, 4.377392768859863, 31.616573333740234, -4.334933280944824, -0.805908203125, 0.6025390625, -0.19140625, 0, 
65, 1170337796, 0.8041319, -0.023247272, -0.59357285, -0.022429576, 9.21782398223877, 0.05328717082738876, 2.719851493835449, 5.80658483505249, 30.435773849487305, -2.7371935844421387, -0.8017578125, 0.600830078125, -0.2041015625, 0, 
66, 1170354463, 0.80675197, -0.022598652, -0.59003764, -0.022281058, 9.369745254516602, 0.028100114315748215, 2.852761745452881, 5.737358570098877, 29.509733200073242, -0.468496173620224, -0.798095703125, 0.59912109375, -0.208740234375, 0, 
67, 1170371130, 0.80922514, -0.022168677, -0.58666617, -0.022044268, 9.428105354309082, 0.016240917146205902, 3.0063793659210205, 4.764084815979004, 27.993501663208008, 0.8527196645736694, -0.796630859375, 0.599853515625, -0.217041015625, 0, 
68, 1170387797, 0.81137025, -0.021850895, -0.5837163, -0.021823112, 9.329787254333496, 0.14235864579677582, 3.240389108657837, 4.190951347351074, 24.335140228271484, 1.1650985479354858, -0.7978515625, 0.603515625, -0.22021484375, 0, 
69, 1170404464, 0.8131459, -0.021650517, -0.58125424, -0.021651704, 9.339177131652832, 0.258051335811615, 3.4384708404541016, 3.294220209121704, 20.12433624267578, 1.2509516477584839, -0.7958984375, 0.60302734375, -0.22802734375, 0, 
70, 1170421131, 0.8146396, -0.021688435, -0.5791537, -0.021751612, 9.24799633026123, 0.35663098096847534, 3.470120429992676, 0.8721773624420166, 16.970401763916016, 0.633658766746521, -0.79541015625, 0.599853515625, -0.23193359375, 0, 
71, 1170437798, 0.8158598, -0.021838281, -0.5774128, -0.022148037, 9.139078140258789, 0.36504730582237244, 3.590301275253296, -0.9803075194358826, 13.885063171386719, -0.6351248621940613, -0.796630859375, 0.6015625, -0.234619140625, 0, 
72, 1170454465, 0.81692934, -0.022092678, -0.57586235, -0.022822974, 8.997736930847168, 0.20637226104736328, 3.6085283756256104, -2.65215802192688, 12.221624374389648, -1.7743334770202637, -0.79150390625, 0.60205078125, -0.236328125, 0, 
73, 1170471132, 0.81770563, -0.022331756, -0.5747139, -0.023726286, 9.039782524108887, 0.0032066097483038902, 3.784301280975342, -3.4549880027770996, 8.81579875946045, -3.192239999771118, -0.7939453125, 0.599853515625, -0.239013671875, 0, 
74, 1170487799, 0.8182627, -0.022727031, -0.57385534, -0.0248923, 9.150436401367188, -0.08191240578889847, 3.8641669750213623, -5.287589073181152, 6.2979655265808105, -4.099902153015137, -0.79345703125, 0.599853515625, -0.23974609375, 0, 
75, 1170504466, 0.8186544, -0.023294847, -0.57321876, -0.0261286, 9.219112396240234, -0.18630045652389526, 3.8945000171661377, -6.6028523445129395, 4.343075752258301, -3.9113543033599854, -0.792236328125, 0.59814453125, -0.237548828125, 0, 
76, 1170521133, 0.8189785, -0.024159767, -0.57266784, -0.027248116, 9.272102355957031, -0.2161293476819992, 3.8393900394439697, -7.755167484283447, 3.4874191284179688, -2.1054282188415527, -0.7939453125, 0.598876953125, -0.2412109375, 0, 
77, 1170537800, 0.81927055, -0.025197223, -0.5721639, -0.028097657, 9.315936088562012, -0.1791142374277115, 3.749230146408081, -7.695829391479492, 2.9947783946990967, 0.04573148488998413, -0.79345703125, 0.600830078125, -0.238037109375, 0, 
78, 1170554467, 0.8195107, -0.026338406, -0.5717427, -0.028617267, 9.370026588439941, -0.23598283529281616, 3.7338271141052246, -6.919291019439697, 2.2325825691223145, 2.2958202362060547, -0.796630859375, 0.59765625, -0.23291015625, 0, 
79, 1170571134, 0.819714, -0.027647642, -0.5713761, -0.028879264, 9.34725284576416, -0.2571520209312439, 3.7051124572753906, -6.922231197357178, 1.691584825515747, 4.344728469848633, -0.79541015625, 0.60205078125, -0.235107421875, 0, 
80, 1170587801, 0.81990945, -0.029079169, -0.57101756, -0.02901779, 9.23064136505127, -0.2200809121131897, 3.618654489517212, -7.118788719177246, 1.5589171648025513, 5.500366687774658, -0.79541015625, 0.604248046875, -0.234130859375, 0, 
81, 1170604468, 0.8200998, -0.03050302, -0.57066196, -0.02917065, 9.157275199890137, -0.16916915774345398, 3.532421350479126, -7.085326194763184, 1.5227011442184448, 5.393639087677002, -0.79248046875, 0.60693359375, -0.234619140625, 0, 
82, 1170621135, 0.820283, -0.0318828, -0.5703103, -0.029423164, 9.060365676879883, -0.08167185634374619, 3.4411509037017822, -7.215995788574219, 1.5041254758834839, 4.655743598937988, -0.79248046875, 0.605712890625, -0.23193359375, 0, 
83, 1170637802, 0.8204326, -0.03323465, -0.5699953, -0.02985529, 8.992029190063477, -0.05980873480439186, 3.4230878353118896, -7.800029277801514, 1.2189663648605347, 3.511239528656006, -0.790283203125, 0.605712890625, -0.2314453125, 0, 
84, 1170654469, 0.82052183, -0.03453658, -0.5697562, -0.030481433, 8.961308479309082, -0.02166004478931427, 3.3642830848693848, -8.256974220275879, 0.6161200404167175, 2.2080135345458984, -0.790771484375, 0.606689453125, -0.23193359375, 0, 
85, 1170671136, 0.8205857, -0.035764743, -0.5695464, -0.031256225, 9.00340461730957, -0.09492556750774384, 3.3714561462402344, -8.433399200439453, 0.4139653742313385, 1.076847791671753, -0.787353515625, 0.608154296875, -0.228759765625, 0, 
86, 1170687803, 0.82068217, -0.036865707, -0.5692924, -0.032062184, 9.005756378173828, -0.15985119342803955, 3.3898463249206543, -7.900898456573486, 0.8400198221206665, 0.4053722321987152, -0.7890625, 0.60888671875, -0.2275390625, 0, 
87, 1170704470, 0.8207824, -0.037829693, -0.5690395, -0.032856118, 9.053495407104492, -0.20003342628479004, 3.439863443374634, -6.982363224029541, 0.8831517696380615, -0.023685351014137268, -0.791259765625, 0.609375, -0.230224609375, 0, 
88, 1170721137, 0.82087773, -0.038673006, -0.5688081, -0.03349631, 9.134635925292969, -0.30611860752105713, 3.5314109325408936, -5.766193866729736, 0.741948664188385, 0.33788272738456726, -0.79052734375, 0.609375, -0.224853515625, 0, 
89, 1170737804, 0.8210721, -0.03943027, -0.5684512, -0.033901338, 9.227503776550293, -0.38116300106048584, 3.571057081222534, -4.222369194030762, 1.7905646562576294, 1.4310264587402344, -0.791748046875, 0.610107421875, -0.225341796875, 0, 
90, 1170754471, 0.8214514, -0.0400092, -0.5678539, -0.034038544, 9.277667045593262, -0.39405080676078796, 3.647879123687744, -2.2251930236816406, 3.845202684402466, 2.3197102546691895, -0.790771484375, 0.60986328125, -0.228759765625, 0, 
91, 1170771138, 0.8219752, -0.040315825, -0.5670777, -0.033977788, 9.351591110229492, -0.34287118911743164, 3.6974544525146484, 0.05239718779921532, 5.427811622619629, 2.433699607849121, -0.791259765625, 0.61279296875, -0.22705078125, 0, 
92, 1170787805, 0.8225785, -0.040341176, -0.56621665, -0.033705972, 9.373249053955078, -0.3163510262966156, 3.7349369525909424, 2.450540065765381, 6.222484588623047, 2.5634920597076416, -0.7880859375, 0.60986328125, -0.23046875, 0, 
93, 1170804472, 0.8232348, -0.040147267, -0.5653024, -0.03325574, 9.400911331176758, -0.29456260800361633, 3.7870266437530518, 4.382173538208008, 6.729770183563232, 2.740104913711548, -0.787353515625, 0.60986328125, -0.23095703125, 0, 
94, 1170821139, 0.82391196, -0.03981125, -0.5643732, -0.03266658, 9.447800636291504, -0.18709751963615417, 3.8613228797912598, 5.782017230987549, 6.881942272186279, 3.0074312686920166, -0.786865234375, 0.60986328125, -0.2314453125, 0, 
95, 1170837806, 0.82459444, -0.039370432, -0.563448, -0.031947747, 9.503399848937988, -0.11355393379926682, 3.908867359161377, 6.805117130279541, 6.8654093742370605, 3.318753719329834, -0.785400390625, 0.6103515625, -0.2353515625, 0, 
96, 1170854473, 0.82522255, -0.03891716, -0.5626041, -0.03114276, 9.47166919708252, -0.07594997435808182, 3.871938467025757, 7.189845561981201, 6.168756484985352, 3.7331671714782715, -0.784912109375, 0.611083984375, -0.240478515625, 0, 
97, 1170871140, 0.82580405, -0.038477972, -0.56182355, -0.030359378, 9.457106590270996, -0.04870441183447838, 3.815883159637451, 7.01739501953125, 5.62893009185791, 3.6553430557250977, -0.78564453125, 0.60888671875, -0.241455078125, 0, 
98, 1170887807, 0.8263026, -0.038164806, -0.56114817, -0.029669743, 9.373319625854492, -0.0972309485077858, 3.783592939376831, 6.102661609649658, 4.707320690155029, 3.653754711151123, -0.78564453125, 0.607177734375, -0.244873046875, 0, 
99, 1170904474, 0.8266596, -0.037861105, -0.5606775, -0.029006723, 9.31357192993164, -0.11905299127101898, 3.778485059738159, 5.829989910125732, 3.0112216472625732, 3.4248671531677246, -0.780029296875, 0.60498046875, -0.242919921875, 0, 
100, 1170921141, 0.82688, -0.037565812, -0.5604048, -0.028375858, 9.283846855163574, -0.16943161189556122, 3.7327020168304443, 5.673034191131592, 1.370458960533142, 3.2149829864501953, -0.7822265625, 0.60986328125, -0.244873046875, 0, 
101, 1170937808, 0.826959, -0.037217762, -0.56034184, -0.027764017, 9.279158592224121, -0.24409279227256775, 3.6709911823272705, 5.837071418762207, -0.34294769167900085, 2.804117441177368, -0.78125, 0.607666015625, -0.24609375, 0, 
102, 1170954475, 0.8269058, -0.036926605, -0.560467, -0.027206613, 9.28940200805664, -0.3245953619480133, 3.617827892303467, 5.3309645652771, -1.9087547063827515, 2.6525540351867676, -0.77978515625, 0.6064453125, -0.247802734375, 0, 
103, 1170971142, 0.82664436, -0.036349915, -0.56092083, -0.026567329, 9.211755752563477, -0.27058178186416626, 3.419151544570923, 7.271958827972412, -4.532212734222412, 1.8871567249298096, -0.781982421875, 0.60498046875, -0.248291015625, 0, 
104, 1170987809, 0.82614803, -0.035766397, -0.5617227, -0.025839351, 9.231206893920898, -0.30404341220855713, 3.588887929916382, 7.644549369812012, -7.409007549285889, 2.228177547454834, -0.782958984375, 0.60546875, -0.24609375, 0, 
105, 1171004476, 0.8255654, -0.035306234, -0.56264037, -0.02511975, 9.170591354370117, -0.25309526920318604, 3.546435594558716, 6.918875694274902, -8.40810775756836, 2.6095380783081055, -0.779541015625, 0.6064453125, -0.2451171875, 0, 
106, 1171021143, 0.82479405, -0.03476127, -0.5638367, -0.024384245, 9.244355201721191, -0.11405618488788605, 3.506728410720825, 7.460614204406738, -10.696351051330566, 2.267942190170288, -0.782958984375, 0.60400390625, -0.243408203125, 0, 
107, 1171037810, 0.8239748, -0.034061246, -0.5651054, -0.023692863, 9.376325607299805, -0.04948156699538231, 3.5230672359466553, 8.1902494430542, -11.242164611816406, 1.4074124097824097, -0.7802734375, 0.602783203125, -0.2451171875, 0, 
108, 1171054477, 0.8231871, -0.033356134, -0.56631696, -0.023141496, 9.53289794921875, -0.005494633223861456, 3.526512622833252, 7.6685566902160645, -10.745583534240723, 0.62324059009552, -0.783935546875, 0.603271484375, -0.24267578125, 0, 
109, 1171071144, 0.8224597, -0.032741874, -0.56742257, -0.022799047, 9.553279876708984, 0.05868496745824814, 3.5091471672058105, 6.386773109436035, -9.862449645996094, -0.13657337427139282, -0.782470703125, 0.60107421875, -0.2451171875, 0, 
110, 1171087811, 0.82175076, -0.032172617, -0.5684893, -0.022597725, 9.450223922729492, 0.10335422307252884, 3.461812973022461, 5.55027437210083, -9.527498245239258, -0.7398295998573303, -0.78466796875, 0.5986328125, -0.243408203125, 0, 
111, 1171104478, 0.82102454, -0.031748418, -0.56956303, -0.022556204, 9.393157005310059, 0.05966056510806084, 3.428494930267334, 4.156654357910156, -9.609657287597656, -1.037622094154358, -0.787841796875, 0.601318359375, -0.2421875, 0, 
112, 1171121145, 0.82030684, -0.031605165, -0.5705985, -0.02269398, 9.320266723632812, 0.02385239489376545, 3.3766868114471436, 1.8730573654174805, -9.351884841918945, -0.9194641709327698, -0.786865234375, 0.60009765625, -0.24169921875, 0, 
113, 1171137812, 0.8196039, -0.031682152, -0.57159173, -0.022998365, 9.280081748962402, -0.017217345535755157, 3.3339688777923584, -0.07500680536031723, -9.039772987365723, -0.9884454607963562, -0.787841796875, 0.596923828125, -0.23779296875, 0, 
114, 1171154479, 0.81890756, -0.03199946, -0.572552, -0.023469152, 9.255857467651367, 0.030209491029381752, 3.229161262512207, -2.0846052169799805, -8.819350242614746, -0.9638829231262207, -0.7900390625, 0.59814453125, -0.23486328125, 0, 
115, 1171171146, 0.8182074, -0.032533173, -0.573494, -0.024148326, 9.188713073730469, 0.0577215850353241, 3.197303295135498, -4.060100555419922, -8.7057466506958, -1.2448288202285767, -0.789306640625, 0.597412109375, -0.233154296875, 0, 
116, 1171187813, 0.81750053, -0.033160444, -0.5744283, -0.025006793, 9.194238662719727, 0.08317506313323975, 3.2169876098632812, -5.349841117858887, -8.649168968200684, -1.8899874687194824, -0.7900390625, 0.596435546875, -0.233154296875, 0, 
117, 1171204480, 0.8168308, -0.033755343, -0.5753033, -0.02596673, 9.247218132019043, 0.09320220351219177, 3.1689364910125732, -5.583832740783691, -8.12873649597168, -2.5582034587860107, -0.788818359375, 0.59521484375, -0.2294921875, 0, 
118, 1171221147, 0.81620765, -0.034387406, -0.5761021, -0.027000437, 9.252848625183105, 0.03944750875234604, 3.1897644996643066, -6.101396560668945, -7.490617275238037, -2.788020610809326, -0.7919921875, 0.595947265625, -0.224365234375, 0, 
119, 1171237814, 0.8156186, -0.035095293, -0.5768418, -0.028076043, 9.3594331741333, 0.03847934678196907, 3.1554787158966064, -6.556225776672363, -7.023401260375977, -2.640862226486206, -0.793212890625, 0.592041015625, -0.224853515625, 0, 
120, 1171254481, 0.81507194, -0.0358514, -0.57751745, -0.029088775, 9.406767845153809, 0.07151802629232407, 3.156658411026001, -6.756023406982422, -6.501126289367676, -2.1244523525238037, -0.795166015625, 0.595458984375, -0.2236328125, 0, 
121, 1171271148, 0.81457746, -0.03656897, -0.5781206, -0.030047623, 9.409833908081055, 0.07844643294811249, 3.189971923828125, -6.337049961090088, -5.88056755065918, -1.9355584383010864, -0.796875, 0.596435546875, -0.2197265625, 0, 
122, 1171287815, 0.81417644, -0.037244387, -0.5785917, -0.031003399, 9.39322280883789, 0.029725681990385056, 3.215106725692749, -5.98839807510376, -4.754467010498047, -1.9818406105041504, -0.7978515625, 0.59375, -0.21484375, 0, 
123, 1171304482, 0.81389534, -0.037792977, -0.57890195, -0.03191685, 9.390710830688477, 0.08690802752971649, 3.2153239250183105, -5.06527042388916, -3.355724811553955, -2.153477668762207, -0.796630859375, 0.595458984375, -0.216552734375, 0, 
124, 1171321149, 0.8137942, -0.038285207, -0.57896286, -0.032794133, 9.389782905578613, 0.09957511723041534, 3.279212236404419, -4.706001281738281, -1.2330596446990967, -2.0862700939178467, -0.798828125, 0.5927734375, -0.2158203125, 0, 
125, 1171337816, 0.8138304, -0.038664408, -0.57884264, -0.033566695, 9.349310874938965, 0.10372664034366608, 3.2485463619232178, -3.6885361671447754, 0.32722142338752747, -1.8632854223251343, -0.79833984375, 0.594482421875, -0.21142578125, 0, 
126, 1171354483, 0.81397945, -0.03907405, -0.5785647, -0.034260795, 9.36340618133545, 0.10971356928348541, 3.3234541416168213, -3.4127585887908936, 1.6285836696624756, -1.167420506477356, -0.796142578125, 0.595458984375, -0.216552734375, 0, 
127, 1171371150, 0.81423575, -0.03952094, -0.5781396, -0.03482951, 9.33694839477539, 0.1298186480998993, 3.3189175128936768, -3.3610076904296875, 2.840909719467163, -0.3144279420375824, -0.797607421875, 0.59716796875, -0.212158203125, 0, 
128, 1171387817, 0.8145802, -0.040070992, -0.57758695, -0.03531162, 9.33243465423584, 0.15120671689510345, 3.303480386734009, -3.391563653945923, 3.848257541656494, 0.7314603328704834, -0.797607421875, 0.595458984375, -0.21142578125, 0, 
129, 1171404484, 0.815012, -0.04072655, -0.57691216, -0.035623677, 9.330799102783203, 0.12989260256290436, 3.248137950897217, -3.3210904598236084, 4.805737495422363, 2.178514242172241, -0.800048828125, 0.594970703125, -0.21533203125, 0, 
130, 1171421151, 0.8154762, -0.041484468, -0.5761918, -0.035784412, 9.319357872009277, 0.08885741233825684, 3.2425715923309326, -3.3675012588500977, 5.127394676208496, 3.4485461711883545, -0.7978515625, 0.59716796875, -0.21533203125, 0, 
131, 1171437818, 0.8159414, -0.04231778, -0.5754686, -0.03584372, 9.319679260253906, 0.10148843377828598, 3.2715353965759277, -3.41251540184021, 5.10440731048584, 4.328393936157227, -0.79443359375, 0.596923828125, -0.2177734375, 0, 
132, 1171454485, 0.8164042, -0.04323365, -0.57474273, -0.035858516, 9.325278282165527, 0.06301288306713104, 3.3159234523773193, -3.7606940269470215, 5.0812273025512695, 4.905203819274902, -0.795166015625, 0.596923828125, -0.21826171875, 0, 
133, 1171471152, 0.8168486, -0.044293918, -0.5740308, -0.0358524, 9.316441535949707, 0.05547616258263588, 3.332976818084717, -4.477056503295898, 4.887404441833496, 5.608964920043945, -0.79443359375, 0.59912109375, -0.21875, 0, 
134, 1171487819, 0.8172803, -0.045428447, -0.5733319, -0.03577516, 9.292135238647461, 0.06526489555835724, 3.3019566535949707, -4.571579456329346, 4.722726821899414, 6.328681468963623, -0.789306640625, 0.601806640625, -0.2177734375, 0, 
135, 1171504486, 0.8177138, -0.046549268, -0.57263356, -0.03561187, 9.319433212280273, 0.06179715320467949, 3.2937090396881104, -4.23306941986084, 4.7092671394348145, 6.752623081207275, -0.791748046875, 0.601806640625, -0.2177734375, 0, 
136, 1171521153, 0.81817436, -0.04759992, -0.5718992, -0.035447747, 9.343347549438477, 0.006578376982361078, 3.305142879486084, -3.5148510932922363, 5.024841785430908, 6.635765552520752, -0.788330078125, 0.603271484375, -0.22119140625, 0, 
137, 1171537820, 0.81868917, -0.04846983, -0.5711033, -0.035211325, 9.348156929016113, -0.03103569708764553, 3.3386032581329346, -2.4713633060455322, 5.6212968826293945, 6.290825843811035, -0.793212890625, 0.606201171875, -0.21923828125, 0, 
138, 1171554487, 0.81923777, -0.049199652, -0.57026726, -0.034991942, 9.347517013549805, -0.04789343848824501, 3.346735954284668, -1.8166192770004272, 6.027251243591309, 5.662360668182373, -0.78662109375, 0.607666015625, -0.218994140625, 0, 
139, 1171571154, 0.8198014, -0.04982897, -0.5694132, -0.03481086, 9.323559761047363, -0.1115463599562645, 3.3676066398620605, -1.2085227966308594, 6.221717357635498, 5.149236679077148, -0.787841796875, 0.60498046875, -0.222900390625, 0, 
140, 1171587821, 0.82035947, -0.050372433, -0.5685726, -0.034615763, 9.3350248336792, -0.15561841428279877, 3.3407866954803467, -0.8183002471923828, 6.15192174911499, 4.847184658050537, -0.78515625, 0.608642578125, -0.223876953125, 0, 
141, 1171604488, 0.8208946, -0.05086597, -0.567768, -0.03441919, 9.318161964416504, -0.17608675360679626, 3.309910535812378, -0.44207528233528137, 5.874958515167236, 4.685863494873047, -0.78515625, 0.609375, -0.2255859375, 0, 
142, 1171621155, 0.82143015, -0.0513266, -0.56696516, -0.034184713, 9.343476295471191, -0.22687262296676636, 3.296315908432007, -0.18066559731960297, 5.8762969970703125, 4.7570600509643555, -0.78515625, 0.6103515625, -0.2255859375, 0, 
143, 1171637822, 0.821967, -0.051798947, -0.56615734, -0.0339547, 9.333474159240723, -0.21409107744693756, 3.2936794757843018, -0.22429685294628143, 5.918314456939697, 4.804251194000244, -0.781982421875, 0.608642578125, -0.22900390625, 0, 
144, 1171654489, 0.822496, -0.052213367, -0.5653653, -0.033708125, 9.384421348571777, -0.23463428020477295, 3.336094856262207, 0.07380301505327225, 5.8272624015808105, 4.6394476890563965, -0.78125, 0.611328125, -0.228515625, 0, 
145, 1171671156, 0.8230449, -0.052525125, -0.56455415, -0.033420548, 9.391286849975586, -0.27343475818634033, 3.3721983432769775, 0.822411060333252, 6.035172939300537, 4.495644569396973, -0.778076171875, 0.6123046875, -0.234130859375, 0, 
146, 1171687823, 0.8236225, -0.052756794, -0.5637084, -0.033102103, 9.397625923156738, -0.2699681520462036, 3.366447687149048, 1.2072995901107788, 6.375047206878662, 4.3144659996032715, -0.77978515625, 0.613525390625, -0.236328125, 0, 
147, 1171704490, 0.8242133, -0.052938335, -0.56284237, -0.03284166, 9.324505805969238, -0.2403784990310669, 3.348074436187744, 1.4193215370178223, 6.579794883728027, 3.8692407608032227, -0.7802734375, 0.61572265625, -0.235595703125, 0, 
148, 1171721157, 0.8247682, -0.053081322, -0.5620273, -0.032638833, 9.294561386108398, -0.21661029756069183, 3.3892316818237305, 1.5964012145996094, 6.187209129333496, 3.4479434490203857, -0.778076171875, 0.613525390625, -0.2373046875, 0, 
149, 1171737824, 0.8252856, -0.053152986, -0.56127006, -0.03247369, 9.280580520629883, -0.22184161841869354, 3.396099805831909, 1.7682881355285645, 5.763113975524902, 2.908757448196411, -0.776611328125, 0.61572265625, -0.238525390625, 0, 
150, 1171754491, 0.82577574, -0.05317673, -0.56055236, -0.03236892, 9.291032791137695, -0.21048706769943237, 3.4133126735687256, 1.7654577493667603, 5.483026027679443, 2.357712984085083, -0.775390625, 0.614990234375, -0.239013671875, 0, 
151, 1171771158, 0.8262481, -0.053273175, -0.5598466, -0.032373223, 9.291810035705566, -0.187081977725029, 3.453397274017334, 0.9911474585533142, 5.381497383117676, 2.0478761196136475, -0.773193359375, 0.614990234375, -0.2431640625, 0, 
152, 1171787825, 0.8267387, -0.053504862, -0.5590951, -0.03245276, 9.308404922485352, -0.15830084681510925, 3.4985311031341553, -0.268094539642334, 5.734671115875244, 2.099421977996826, -0.771728515625, 0.614990234375, -0.24365234375, 0, 
153, 1171804492, 0.8271424, -0.0535252, -0.5584939, -0.032483187, 9.292196273803711, -0.19883541762828827, 3.3582730293273926, 1.164737582206726, 4.583879470825195, 1.5243782997131348, -0.775634765625, 0.61572265625, -0.242919921875, 0, 
154, 1171821159, 0.8274363, -0.053705998, -0.5580331, -0.032617833, 9.287001609802246, -0.2363734245300293, 3.5412757396698, 0.028686225414276123, 3.375408172607422, 1.5598646402359009, -0.77392578125, 0.615478515625, -0.245849609375, 0, 
155, 1171837826, 0.8277403, -0.054031488, -0.55753654, -0.032858867, 9.262261390686035, -0.1952141374349594, 3.502716064453125, -1.3751779794692993, 3.6458137035369873, 1.4673131704330444, -0.772216796875, 0.615478515625, -0.246337890625, 0, 
156, 1171854493, 0.82792467, -0.05434746, -0.5572146, -0.033151902, 9.210726737976074, -0.1371445506811142, 3.4314539432525635, -1.5330673456192017, 2.2262558937072754, 1.0539625883102417, -0.775146484375, 0.614990234375, -0.246337890625, 0, 
157, 1171871160, 0.8280479, -0.05456382, -0.5569943, -0.03342267, 9.213359832763672, -0.1990407109260559, 3.484114170074463, -0.862770140171051, 1.4426095485687256, 0.7721972465515137, -0.775146484375, 0.6162109375, -0.247802734375, 0, 
158, 1171887827, 0.8280701, -0.0547657, -0.5569247, -0.03370003, 9.217108726501465, -0.19437555968761444, 3.4948744773864746, -0.8650816679000854, 0.21990422904491425, 0.5879714488983154, -0.776611328125, 0.614501953125, -0.24560546875, 0, 
159, 1171904494, 0.8280233, -0.054891158, -0.5569595, -0.034067217, 9.207779884338379, -0.1867794394493103, 3.5130670070648193, -0.5936191082000732, -0.5865756273269653, -0.18717120587825775, -0.77392578125, 0.614501953125, -0.246337890625, 0, 
160, 1171921161, 0.82793576, -0.05498472, -0.5570577, -0.034438573, 9.24187183380127, -0.19210508465766907, 3.5192530155181885, -0.5704011917114258, -1.0736523866653442, -0.4115128517150879, -0.77685546875, 0.6162109375, -0.248291015625, 0, 
161, 1171937828, 0.8278258, -0.05503436, -0.5571916, -0.034832504, 9.25616455078125, -0.2191409319639206, 3.522066116333008, -0.489849328994751, -1.3277816772460938, -0.7482301592826843, -0.77490234375, 0.61767578125, -0.24560546875, 0, 
162, 1171954495, 0.8277214, -0.055095144, -0.55731493, -0.035243597, 9.294037818908691, -0.23953568935394287, 3.526958465576172, -0.6631128191947937, -1.2278088331222534, -0.8037265539169312, -0.775634765625, 0.614501953125, -0.2490234375, 0, 
163, 1171971162, 0.827622, -0.055154, -0.55743235, -0.035624683, 9.296683311462402, -0.22786609828472137, 3.5768566131591797, -0.6243799924850464, -1.1703275442123413, -0.6656292676925659, -0.776123046875, 0.61572265625, -0.246826171875, 0, 
164, 1171987829, 0.82754755, -0.055248518, -0.55751085, -0.035977017, 9.317361831665039, -0.22500240802764893, 3.5318148136138916, -0.5404471755027771, -0.8744880557060242, -0.2652643322944641, -0.775634765625, 0.614013671875, -0.24560546875, 0, 
165, 1172004496, 0.82752055, -0.055386398, -0.557516, -0.036306027, 9.283050537109375, -0.21996177732944489, 3.467254638671875, -0.6467527151107788, -0.28602343797683716, 0.10072194039821625, -0.77490234375, 0.6162109375, -0.2451171875, 0, 
166, 1172021163, 0.8274763, -0.055556934, -0.55754423, -0.036619414, 9.288761138916016, -0.20251494646072388, 3.4645559787750244, -0.7541082501411438, -0.4868013560771942, 0.31725168228149414, -0.77734375, 0.614013671875, -0.24462890625, 0, 
167, 1172037830, 0.82742673, -0.05575416, -0.55757576, -0.036957003, 9.296462059020996, -0.19537228345870972, 3.4953436851501465, -0.9782705903053284, -0.5101473331451416, 0.29658225178718567, -0.77880859375, 0.615234375, -0.2451171875, 0, 
168, 1172054497, 0.8273594, -0.055964388, -0.5576322, -0.03729397, 9.306425094604492, -0.21370883285999298, 3.4693260192871094, -1.1284892559051514, -0.7077876925468445, 0.3157021403312683, -0.776123046875, 0.61572265625, -0.24462890625, 0, 
169, 1172071164, 0.8272828, -0.056181833, -0.55770206, -0.037621655, 9.298136711120605, -0.23066529631614685, 3.475769519805908, -1.1221755743026733, -0.8118393421173096, 0.3991483151912689, -0.776611328125, 0.61669921875, -0.246826171875, 0, 
170, 1172087831, 0.82720053, -0.056376673, -0.55778533, -0.03790152, 9.29837417602539, -0.2383730113506317, 3.465771436691284, -0.9849172234535217, -0.8989481925964355, 0.5168899297714233, -0.780029296875, 0.615234375, -0.24560546875, 0, 
171, 1172104498, 0.8271056, -0.056592826, -0.55788684, -0.038159676, 9.252304077148438, -0.27702972292900085, 3.448747158050537, -1.0384348630905151, -1.0535463094711304, 0.7135185599327087, -0.775634765625, 0.614013671875, -0.24560546875, 0, 
172, 1172121165, 0.8270176, -0.05683399, -0.5579783, -0.03837076, 9.268882751464844, -0.27888867259025574, 3.417246103286743, -1.034420132637024, -0.9800445437431335, 1.0723590850830078, -0.775634765625, 0.6162109375, -0.2451171875, 0, 
173, 1172137832, 0.8269273, -0.057052482, -0.5580779, -0.038545456, 9.272019386291504, -0.2597063183784485, 3.3891332149505615, -0.7076020836830139, -1.0325249433517456, 1.2138563394546509, -0.77880859375, 0.61572265625, -0.242919921875, 0, 
174, 1172154499, 0.8268589, -0.057283092, -0.55814224, -0.038734175, 9.294511795043945, -0.2797032594680786, 3.4455478191375732, -0.5921592116355896, -0.7465782165527344, 1.2985767126083374, -0.77880859375, 0.615234375, -0.243896484375, 0, 
175, 1172171166, 0.8267939, -0.057419118, -0.55821633, -0.038851973, 9.299424171447754, -0.30722227692604065, 3.409433126449585, -0.04283083975315094, -0.7633160948753357, 1.2369141578674316, -0.7783203125, 0.615234375, -0.2451171875, 0, 
176, 1172187833, 0.82672596, -0.05760434, -0.5582901, -0.038964994, 9.328868865966797, -0.3119250535964966, 3.444674015045166, -0.30751246213912964, -0.7738044261932373, 1.4521759748458862, -0.7783203125, 0.614501953125, -0.243408203125, 0, 
177, 1172204500, 0.8266719, -0.057812717, -0.55834025, -0.039085858, 9.29629135131836, -0.28581029176712036, 3.419304132461548, -0.43675413727760315, -0.5785588622093201, 1.524583101272583, -0.77783203125, 0.6171875, -0.243896484375, 0, 
178, 1172221167, 0.8266235, -0.05804149, -0.5583792, -0.03921036, 9.327839851379395, -0.27033522725105286, 3.464824914932251, -0.6587778925895691, -0.4790407717227936, 1.556983232498169, -0.775634765625, 0.614013671875, -0.24560546875, 0, 
179, 1172237834, 0.8265841, -0.058281947, -0.55840254, -0.03935175, 9.318347930908203, -0.25667208433151245, 3.4408278465270996, -0.958139181137085, -0.33179330825805664, 1.4548269510269165, -0.77734375, 0.61572265625, -0.246826171875, 0, 
180, 1172254501, 0.82656384, -0.058535203, -0.55839366, -0.03952776, 9.338600158691406, -0.2733326852321625, 3.390707015991211, -1.0897241830825806, -0.05785268172621727, 1.3601752519607544, -0.775634765625, 0.61572265625, -0.24462890625, 0, 
181, 1172271168, 0.826562, -0.058799773, -0.55835533, -0.039717037, 9.317303657531738, -0.26033174991607666, 3.4277310371398926, -1.2188186645507812, 0.19648140668869019, 1.3448266983032227, -0.775634765625, 0.614013671875, -0.244140625, 0, 
182, 1172287835, 0.82659334, -0.059065595, -0.55826515, -0.039935082, 9.333108901977539, -0.2541360855102539, 3.416033983230591, -1.2539528608322144, 0.6368341445922852, 1.2537543773651123, -0.7783203125, 0.618408203125, -0.243408203125, 0, 
183, 1172304502, 0.82667255, -0.059325054, -0.558102, -0.04019063, 9.322311401367188, -0.26491010189056396, 3.4045355319976807, -1.2442200183868408, 1.2574554681777954, 1.1105153560638428, -0.775634765625, 0.61572265625, -0.2451171875, 0, 
184, 1172321169, 0.8267873, -0.059517927, -0.5578942, -0.04042909, 9.300082206726074, -0.2745552957057953, 3.389336347579956, -1.0965886116027832, 1.6899389028549194, 0.871817946434021, -0.776123046875, 0.614990234375, -0.24560546875, 0, 
185, 1172337836, 0.82693166, -0.059708636, -0.55764204, -0.040674236, 9.293439865112305, -0.2511841952800751, 3.4052963256835938, -1.0988168716430664, 2.071119785308838, 0.8616880774497986, -0.77392578125, 0.615478515625, -0.242431640625, 0, 
186, 1172354503, 0.8270947, -0.059907336, -0.55735826, -0.04095395, 9.279590606689453, -0.2408795803785324, 3.4260873794555664, -0.9372774958610535, 2.327054500579834, 0.8501623272895813, -0.775146484375, 0.6171875, -0.246337890625, 0, 
187, 1172371170, 0.82728547, -0.06002367, -0.5570467, -0.04116922, 9.279034614562988, -0.25559672713279724, 3.4160497188568115, -0.5805695056915283, 2.62028169631958, 0.7881924510002136, -0.77392578125, 0.614013671875, -0.2451171875, 0, 
188, 1172387837, 0.8275082, -0.0601404, -0.556686, -0.04140108, 9.278684616088867, -0.24168109893798828, 3.4070403575897217, -0.5620259046554565, 3.035437822341919, 0.7648080587387085, -0.7734375, 0.61279296875, -0.24853515625, 0, 
189, 1172404504, 0.82773006, -0.060239993, -0.5563302, -0.04160404, 9.262893676757812, -0.23329868912696838, 3.416874885559082, -0.5144502520561218, 3.0200703144073486, 0.8051352500915527, -0.78076171875, 0.617431640625, -0.248779296875, 0, 
190, 1172421171, 0.827948, -0.060370233, -0.5559742, -0.041837707, 9.2880277633667, -0.23068061470985413, 3.449143171310425, -0.6070080995559692, 3.009626626968384, 0.8320349454879761, -0.7734375, 0.614990234375, -0.24853515625, 0, 
191, 1172437838, 0.8281601, -0.060479756, -0.5556295, -0.04205963, 9.260170936584473, -0.2315347045660019, 3.489583730697632, -0.605516254901886, 2.945012092590332, 0.7585201859474182, -0.771728515625, 0.615966796875, -0.246337890625, 0, 
192, 1172454505, 0.8283789, -0.06060574, -0.5552716, -0.042295404, 9.268937110900879, -0.21878501772880554, 3.474134683609009, -0.7543388605117798, 3.0552878379821777, 0.7571626305580139, -0.77294921875, 0.6171875, -0.250732421875, 0, 
193, 1172471172, 0.82860607, -0.060718562, -0.5549012, -0.042545952, 9.254631042480469, -0.20794659852981567, 3.5013418197631836, -0.760140061378479, 3.1801624298095703, 0.6278696656227112, -0.771728515625, 0.61669921875, -0.250732421875, 0, 
194, 1172487839, 0.8288236, -0.060796905, -0.5545462, -0.042820722, 9.254108428955078, -0.19054697453975677, 3.5140793323516846, -0.7866235971450806, 3.0920803546905518, 0.30737799406051636, -0.773681640625, 0.614013671875, -0.25244140625, 0, 
195, 1172504506, 0.82901156, -0.06085563, -0.55423415, -0.04314153, 9.240890502929688, -0.17474251985549927, 3.4921176433563232, -0.7580141425132751, 2.7611770629882812, -0.011391246691346169, -0.773681640625, 0.611328125, -0.2529296875, 0, 
196, 1172521173, 0.8291517, -0.060844548, -0.5539989, -0.0434841, 9.21511173248291, -0.20354293286800385, 3.530299663543701, -0.6270949244499207, 2.1920502185821533, -0.5091356635093689, -0.773193359375, 0.614501953125, -0.254150390625, 0, 
197, 1172537840, 0.82924986, -0.060825936, -0.5538248, -0.0438532, 9.263298988342285, -0.20324188470840454, 3.5566964149475098, -0.6838333606719971, 1.7046723365783691, -0.7200754284858704, -0.774658203125, 0.613525390625, -0.251220703125, 0, 
198, 1172554507, 0.82932305, -0.06085068, -0.553678, -0.04428459, 9.25024700164795, -0.20670543611049652, 3.5716400146484375, -0.7089851498603821, 1.4467653036117554, -0.742742657661438, -0.773681640625, 0.614013671875, -0.2529296875, 0, 
199, 1172571174, 0.8293889, -0.060847454, -0.5535475, -0.04468509, 9.26931381225586, -0.192055806517601, 3.59537672996521, -0.8094573020935059, 1.3492385149002075, -0.8214441537857056, -0.774658203125, 0.61572265625, -0.251220703125, 0, 
200, 1172587841, 0.82949305, -0.06098032, -0.5533374, -0.045171198, 9.287457466125488, -0.22110001742839813, 3.6971981525421143, -1.9646862745285034, 1.9504777193069458, -0.7551007866859436, -0.774658203125, 0.613037109375, -0.251708984375, 0, 
201, 1172604508, 0.82960224, -0.061066188, -0.5531221, -0.045683548, 9.2271728515625, -0.142710879445076, 3.550043821334839, -1.6998957395553589, 2.0203938484191895, -1.037794589996338, -0.77587890625, 0.613525390625, -0.251220703125, 0, 
202, 1172621175, 0.82958883, -0.061081793, -0.5531079, -0.04607789, 9.249662399291992, -0.1908489167690277, 3.6225297451019287, -0.7324528098106384, 0.3812706470489502, -0.7041122913360596, -0.7763671875, 0.614013671875, -0.25439453125, 0, 
203, 1172637842, 0.8296055, -0.061231215, -0.5530315, -0.04649731, 9.233118057250977, -0.2116919606924057, 3.61118221282959, -1.7993049621582031, 0.834186315536499, -0.37590476870536804, -0.77587890625, 0.613037109375, -0.252197265625, 0, 
204, 1172654509, 0.82957685, -0.061510697, -0.5529995, -0.04701498, 9.184491157531738, -0.17243359982967377, 3.557673692703247, -2.861527681350708, 0.4072099030017853, -0.4450463056564331, -0.774658203125, 0.613525390625, -0.251220703125, 0, 
205, 1172671176, 0.8294725, -0.061713636, -0.5530955, -0.047461238, 9.175942420959473, -0.167494997382164, 3.530569314956665, -2.162275552749634, -0.6090188026428223, -0.40825363993644714, -0.774658203125, 0.614501953125, -0.251708984375, 0, 
206, 1172687843, 0.8293194, -0.061719887, -0.5533036, -0.04770009, 9.20201301574707, -0.2112182080745697, 3.5371453762054443, -0.43580010533332825, -1.440637469291687, -0.10703548043966293, -0.77587890625, 0.613037109375, -0.251220703125, 0, 
207, 1172704510, 0.82907, -0.061591905, -0.55368286, -0.047797825, 9.175163269042969, -0.14878398180007935, 3.580409288406372, 0.998779833316803, -2.7983086109161377, 0.13152121007442474, -0.77685546875, 0.612548828125, -0.251220703125, 0, 
208, 1172721177, 0.8287312, -0.06122755, -0.5542346, -0.04774872, 9.176370620727539, -0.18751965463161469, 3.527721643447876, 2.9221787452697754, -4.101739406585693, -0.027079029008746147, -0.778564453125, 0.61083984375, -0.251220703125, 0, 
209, 1172737844, 0.8283183, -0.06067588, -0.5549258, -0.04759033, 9.221583366394043, -0.23050373792648315, 3.4949874877929688, 4.4281158447265625, -5.156291484832764, -0.1946757435798645, -0.777587890625, 0.611328125, -0.251220703125, 0, 
210, 1172754511, 0.8278626, -0.060116436, -0.55568, -0.0474288, 9.250005722045898, -0.1798039674758911, 3.519590377807617, 4.3461103439331055, -5.660983562469482, -0.2995533347129822, -0.777099609375, 0.613037109375, -0.25439453125, 0, 
211, 1172771178, 0.8274001, -0.059671886, -0.55642694, -0.047306083, 9.320868492126465, -0.12019974738359451, 3.517754316329956, 3.562413454055786, -5.661713600158691, -0.07053738832473755, -0.78076171875, 0.61083984375, -0.248779296875, 0, 
212, 1172787845, 0.8269448, -0.059333663, -0.55715275, -0.047145717, 9.33842945098877, -0.08719368278980255, 3.4934451580047607, 3.203022003173828, -5.563149452209473, 0.6111319065093994, -0.778076171875, 0.608642578125, -0.250732421875, 0, 
213, 1172804512, 0.82651734, -0.059060983, -0.55784076, -0.046850305, 9.344810485839844, -0.06336642056703568, 3.5262229442596436, 2.9943811893463135, -5.293332576751709, 1.5300389528274536, -0.78076171875, 0.60986328125, -0.24951171875, 0, 
214, 1172821179, 0.8261237, -0.058909573, -0.5584647, -0.04654533, 9.326227188110352, -0.029754111543297768, 3.49541974067688, 2.527493715286255, -4.845705986022949, 2.167238235473633, -0.778076171875, 0.608642578125, -0.2490234375, 0, 
215, 1172837846, 0.82576627, -0.058869127, -0.5590229, -0.046237506, 9.304903030395508, -2.0925811259076E-4, 3.518841505050659, 1.8481420278549194, -4.362700939178467, 2.6374101638793945, -0.7802734375, 0.611328125, -0.24951171875, 0, 
216, 1172854513, 0.82544184, -0.05894308, -0.5595176, -0.045952972, 9.289113998413086, -3.213163581676781E-4, 3.4646761417388916, 1.0734347105026245, -3.8978686332702637, 2.983194351196289, -0.778076171875, 0.6103515625, -0.251708984375, 0, 
217, 1172871180, 0.82516044, -0.059143327, -0.559935, -0.045666706, 9.285916328430176, -0.02821294032037258, 3.467700481414795, 0.018108181655406952, -3.313944101333618, 3.412841320037842, -0.7802734375, 0.612060546875, -0.25, 0, 
218, 1172887847, 0.824925, -0.05947465, -0.56026393, -0.04545324, 9.297253608703613, -0.043734222650527954, 3.4356191158294678, -0.9788726568222046, -2.6453630924224854, 3.5798745155334473, -0.78125, 0.61083984375, -0.24609375, 0, 
219, 1172904514, 0.82473105, -0.059945546, -0.56050855, -0.04533919, 9.277253150939941, -0.050405628979206085, 3.4200971126556396, -1.8066495656967163, -2.0225136280059814, 3.741797924041748, -0.78173828125, 0.612060546875, -0.2470703125, 0, 
220, 1172921181, 0.82458556, -0.060498156, -0.56066984, -0.045255598, 9.278600692749023, -0.06866052746772766, 3.4055662155151367, -2.5129964351654053, -1.3665591478347778, 3.8995463848114014, -0.7783203125, 0.61181640625, -0.24462890625, 0, 
221, 1172937848, 0.82447124, -0.061144695, -0.5607685, -0.045247085, 9.268111228942871, -0.06169171258807182, 3.4246370792388916, -3.3085782527923584, -0.8864747881889343, 3.8932459354400635, -0.77783203125, 0.613525390625, -0.246826171875, 0, 
222, 1172954515, 0.8243864, -0.0617531, -0.56082815, -0.045228865, 9.292598724365234, -0.10170052945613861, 3.389915704727173, -3.4325759410858154, -0.5231394171714783, 3.7021431922912598, -0.7783203125, 0.615234375, -0.24560546875, 0, 
223, 1172971182, 0.82438195, -0.062474854, -0.5607445, -0.04535378, 9.298823356628418, -0.11470498889684677, 3.328899621963501, -4.452460765838623, 0.6199618577957153, 3.4882259368896484, -0.7783203125, 0.61572265625, -0.243408203125, 0, 
224, 1172987849, 0.82440364, -0.06314034, -0.56062216, -0.04555153, 9.287092208862305, -0.14505258202552795, 3.407777786254883, -4.321599960327148, 0.9902641177177429, 2.926302909851074, -0.775146484375, 0.61279296875, -0.24365234375, 0, 
225, 1173004516, 0.8244841, -0.06383024, -0.5604036, -0.04582551, 9.29234790802002, -0.16724666953086853, 3.421358346939087, -4.871081352233887, 1.7980245351791382, 2.6152615547180176, -0.77783203125, 0.617919921875, -0.247802734375, 0, 
226, 1173021183, 0.82457966, -0.06454809, -0.5601518, -0.04617075, 9.326362609863281, -0.22267864644527435, 3.4883618354797363, -5.391005992889404, 2.072695016860962, 2.3147988319396973, -0.772705078125, 0.6181640625, -0.242919921875, 0, 
227, 1173037850, 0.8246596, -0.06537035, -0.5599042, -0.046588622, 9.333242416381836, -0.297326922416687, 3.5001142024993896, -6.322541236877441, 1.9901713132858276, 2.284384250640869, -0.77783203125, 0.61669921875, -0.243408203125, 0, 
228, 1173054517, 0.8247278, -0.066233635, -0.5596633, -0.047055967, 9.284123420715332, -0.3111453950405121, 3.4676690101623535, -6.59222936630249, 1.9080564975738525, 2.2127580642700195, -0.776611328125, 0.6171875, -0.24169921875, 0, 
229, 1173071184, 0.82478833, -0.067069635, -0.5594386, -0.04748243, 9.277850151062012, -0.3582715094089508, 3.4510934352874756, -6.2467851638793945, 1.7755815982818604, 2.3416481018066406, -0.773193359375, 0.618896484375, -0.24072265625, 0, 
230, 1173087851, 0.8248554, -0.06783807, -0.5592182, -0.047817647, 9.281739234924316, -0.3973191976547241, 3.4609298706054688, -5.57143497467041, 1.7607836723327637, 2.575382947921753, -0.774169921875, 0.6181640625, -0.240234375, 0, 
231, 1173104518, 0.8249366, -0.0684862, -0.5589989, -0.04805906, 9.28689193725586, -0.4110430181026459, 3.4528768062591553, -4.5165815353393555, 1.8063933849334717, 2.648397922515869, -0.7705078125, 0.61865234375, -0.241943359375, 0, 
232, 1173121185, 0.82506424, -0.06892659, -0.55875206, -0.04810649, 9.296489715576172, -0.4424181580543518, 3.4425888061523438, -2.6997199058532715, 2.1268980503082275, 2.9313292503356934, -0.773193359375, 0.619384765625, -0.242919921875, 0, 
233, 1173137852, 0.82525104, -0.06916631, -0.5584619, -0.047927544, 9.302026748657227, -0.4420982897281647, 3.4269399642944336, -0.8808079957962036, 2.5738778114318848, 3.4077250957489014, -0.769775390625, 0.619873046875, -0.241455078125, 0, 
234, 1173154519, 0.8254741, -0.069273345, -0.55814815, -0.047588196, 9.285426139831543, -0.3941774368286133, 3.4472174644470215, 0.6801579594612122, 2.8080480098724365, 3.892169713973999, -0.772705078125, 0.620361328125, -0.24072265625, 0, 
235, 1173171186, 0.8257431, -0.06919727, -0.55780643, -0.047035784, 9.259202003479004, -0.38520151376724243, 3.474529504776001, 2.7176353931427, 3.0962677001953125, 4.485769271850586, -0.769775390625, 0.6240234375, -0.24365234375, 0, 
236, 1173187853, 0.826051, -0.06891216, -0.55745244, -0.04623813, 9.266834259033203, -0.4032488763332367, 3.4772391319274902, 4.62210750579834, 3.2852776050567627, 5.006502151489258, -0.7705078125, 0.6220703125, -0.245361328125, 0, 
237, 1173204520, 0.8263749, -0.06851103, -0.5571028, -0.04524739, 9.249316215515137, -0.3756565749645233, 3.445587635040283, 6.092250823974609, 3.267194986343384, 5.681512355804443, -0.77001953125, 0.623046875, -0.246337890625, 0, 
238, 1173221187, 0.82669914, -0.06798913, -0.5567775, -0.044105362, 9.2506103515625, -0.3654977083206177, 3.4550747871398926, 7.42484188079834, 3.0992400646209717, 6.087154865264893, -0.767333984375, 0.62353515625, -0.250244140625, 0, 
239, 1173237854, 0.8270064, -0.06737666, -0.5564968, -0.04280692, 9.28183364868164, -0.3536532521247864, 3.4651288986206055, 8.399304389953613, 2.7504465579986572, 6.549771785736084, -0.765869140625, 0.623046875, -0.254150390625, 0, 
240, 1173254521, 0.8272965, -0.06666995, -0.5562583, -0.041380897, 9.258339881896973, -0.3529674708843231, 3.479145050048828, 9.252001762390137, 2.4311840534210205, 6.825313568115234, -0.7646484375, 0.62451171875, -0.252197265625, 0, 
241, 1173271188, 0.82757455, -0.06590548, -0.55604494, -0.039887566, 9.265155792236328, -0.3508669435977936, 3.445326328277588, 10.024046897888184, 2.2224791049957275, 7.040600776672363, -0.76416015625, 0.625732421875, -0.257568359375, 0, 
242, 1173287855, 0.8278434, -0.06507099, -0.5558519, -0.038338922, 9.230530738830566, -0.34692472219467163, 3.4542958736419678, 10.619466781616211, 2.0758848190307617, 7.068610191345215, -0.765869140625, 0.6240234375, -0.258544921875, 0, 
243, 1173304522, 0.8281014, -0.06417327, -0.555676, -0.03680177, 9.245145797729492, -0.33613356947898865, 3.440539598464966, 11.137957572937012, 1.953187346458435, 6.826287269592285, -0.761474609375, 0.62451171875, -0.264404296875, 0, 
244, 1173321189, 0.82834953, -0.063132636, -0.5555281, -0.03521409, 9.268346786499023, -0.33475273847579956, 3.4813592433929443, 11.704620361328125, 1.8080977201461792, 6.390775680541992, -0.76171875, 0.623046875, -0.265869140625, 0, 
245, 1173337856, 0.82857645, -0.062053315, -0.5554083, -0.03365032, 9.254589080810547, -0.34216660261154175, 3.5027787685394287, 11.98685359954834, 1.5833780765533447, 6.148909091949463, -0.757080078125, 0.622802734375, -0.26513671875, 0, 
246, 1173354523, 0.82879555, -0.06092328, -0.5552995, -0.03207383, 9.242342948913574, -0.33205658197402954, 3.514712333679199, 12.397860527038574, 1.4995222091674805, 6.048327445983887, -0.75830078125, 0.62548828125, -0.27001953125, 0, 
247, 1173371190, 0.829006, -0.059791017, -0.5551977, -0.030490795, 9.259406089782715, -0.38203808665275574, 3.5277929306030273, 12.295549392700195, 1.4394344091415405, 6.022675514221191, -0.75732421875, 0.623291015625, -0.271728515625, 0, 
248, 1173387857, 0.8292196, -0.058802843, -0.55506176, -0.029046278, 9.299345016479492, -0.37163984775543213, 3.585153102874756, 11.073285102844238, 1.6700258255004883, 5.8461527824401855, -0.7568359375, 0.62548828125, -0.276611328125, 0, 
249, 1173404524, 0.8293675, -0.057546977, -0.5550512, -0.027500551, 9.293221473693848, -0.3942456543445587, 3.4526336193084717, 12.8966064453125, 0.7258132100105286, 5.305008411407471, -0.757080078125, 0.625, -0.277587890625, 0, 
250, 1173421191, 0.8294904, -0.05635476, -0.55506486, -0.025939811, 9.331997871398926, -0.4578496515750885, 3.576132297515869, 12.632153511047363, 0.48203131556510925, 5.633747577667236, -0.7548828125, 0.6259765625, -0.279296875, 0, 
251, 1173437858, 0.8296737, -0.055232603, -0.55497575, -0.024350364, 9.290569305419922, -0.46112337708473206, 3.4339661598205566, 12.350297927856445, 1.2793039083480835, 6.1125640869140625, -0.752685546875, 0.62451171875, -0.283935546875, 0, 
252, 1173454525, 0.82983774, -0.053947087, -0.5549306, -0.02261229, 9.264060974121094, -0.3784361183643341, 3.3818511962890625, 13.748384475708008, 0.9425992965698242, 6.273887634277344, -0.75390625, 0.6259765625, -0.285400390625, 0, 
253, 1173471192, 0.8300033, -0.052489225, -0.55489606, -0.020729443, 9.27223014831543, -0.405010461807251, 3.5075924396514893, 15.3557767868042, 0.8689757585525513, 6.46352481842041, -0.751708984375, 0.62451171875, -0.288330078125, 0, 
254, 1173487859, 0.83015937, -0.050926846, -0.5548791, -0.018740276, 9.277337074279785, -0.3780387043952942, 3.5734031200408936, 16.30729103088379, 0.7185649871826172, 6.6407904624938965, -0.751220703125, 0.623779296875, -0.292236328125, 0, 
255, 1173504526, 0.8303004, -0.049247738, -0.55488575, -0.01666957, 9.25996208190918, -0.3974369168281555, 3.5700912475585938, 17.267717361450195, 0.5199639797210693, 6.64333963394165, -0.754150390625, 0.621337890625, -0.292724609375, 0, 
256, 1173521193, 0.83045137, -0.04751559, -0.55487084, -0.01453686, 9.298224449157715, -0.38248011469841003, 3.580170154571533, 17.918527603149414, 0.6645735502243042, 6.8418145179748535, -0.7509765625, 0.622802734375, -0.29833984375, 0, 
257, 1173537860, 0.830625, -0.045689903, -0.55481833, -0.012297678, 9.304855346679688, -0.37229984998703003, 3.6117489337921143, 18.734601974487305, 0.9532164335250854, 7.056039810180664, -0.74951171875, 0.621826171875, -0.30224609375, 0, 
258, 1173554527, 0.83082575, -0.043832097, -0.5547139, -0.009992579, 9.279045104980469, -0.3906869888305664, 3.6069552898406982, 19.27312469482422, 1.33505117893219, 7.363034725189209, -0.74462890625, 0.619384765625, -0.30615234375, 0, 
259, 1173571194, 0.83103323, -0.041885957, -0.5545917, -0.0075739985, 9.22188663482666, -0.33652421832084656, 3.5961520671844482, 20.017845153808594, 1.4498733282089233, 7.60368013381958, -0.747314453125, 0.622802734375, -0.308837890625, 0, 
260, 1173587861, 0.83121026, -0.039816163, -0.55450726, -0.005086407, 9.191033363342285, -0.3169858157634735, 3.5573744773864746, 21.174545288085938, 1.0969555377960205, 7.585228443145752, -0.74365234375, 0.6201171875, -0.315185546875, 0, 
261, 1173604528, 0.8313703, -0.037627134, -0.5544382, -0.0024405932, 9.19245719909668, -0.33593541383743286, 3.522763252258301, 22.21584701538086, 0.9256959557533264, 7.93804407119751, -0.743896484375, 0.62158203125, -0.320068359375, 0, 
262, 1173621195, 0.8314981, -0.03540449, -0.5543984, 3.073866E-4, 9.193365097045898, -0.3745916783809662, 3.533506393432617, 22.811243057250977, 0.6159226298332214, 8.390942573547363, -0.742919921875, 0.619384765625, -0.32177734375, 0, 
263, 1173637862, 0.8315845, -0.033154164, -0.5543987, 0.0031766612, 9.202143669128418, -0.37442079186439514, 3.53873610496521, 23.537006378173828, 0.19910074770450592, 9.007442474365234, -0.742431640625, 0.6162109375, -0.326171875, 0, 
264, 1173654529, 0.83164066, -0.030938739, -0.5544177, 0.00613883, 9.221295356750488, -0.3567747175693512, 3.560650587081909, 23.7367000579834, -0.038976214826107025, 9.682160377502441, -0.73974609375, 0.619384765625, -0.330078125, 0, 
265, 1173671196, 0.83164024, -0.028793855, -0.5544922, 0.00916755, 9.232462882995605, -0.3543630540370941, 3.575981378555298, 23.54131507873535, -0.5737194418907166, 10.305242538452148, -0.739501953125, 0.615234375, -0.335205078125, 0, 
266, 1173687863, 0.83157516, -0.02662002, -0.55463797, 0.01229021, 9.262774467468262, -0.3454287052154541, 3.5447938442230225, 24.004241943359375, -1.2400866746902466, 10.700807571411133, -0.73779296875, 0.6162109375, -0.339599609375, 0, 
267, 1173704530, 0.8314893, -0.024363251, -0.55478936, 0.015516314, 9.291707038879395, -0.4027383327484131, 3.5309011936187744, 24.923614501953125, -1.3722999095916748, 10.993766784667969, -0.73583984375, 0.61669921875, -0.34619140625, 0, 
268, 1173721197, 0.83140445, -0.022259964, -0.55490553, 0.01873761, 9.28551959991455, -0.46709316968917847, 3.5291197299957275, 23.792757034301758, -1.1277233362197876, 11.46085262298584, -0.732177734375, 0.61767578125, -0.350830078125, 0, 
269, 1173737864, 0.8312871, -0.02036794, -0.55503374, 0.022014642, 9.248279571533203, -0.372846782207489, 3.4450886249542236, 22.71797752380371, -1.2880719900131226, 12.551801681518555, -0.731201171875, 0.61669921875, -0.354736328125, 0, 
270, 1173754531, 0.8310983, -0.018453667, -0.55524665, 0.025228802, 9.293498039245605, -0.3742190897464752, 3.592092514038086, 22.71476173400879, -2.037385940551758, 12.151358604431152, -0.727783203125, 0.614501953125, -0.35595703125, 0, 
271, 1173771198, 0.8308459, -0.016565293, -0.5555431, 0.028153501, 9.254243850708008, -0.4549071788787842, 3.6097519397735596, 21.49553871154785, -2.7133188247680664, 10.612886428833008, -0.72900390625, 0.614501953125, -0.361328125, 0, 
272, 1173787865, 0.83049256, -0.01506478, -0.5559829, 0.030633714, 9.236818313598633, -0.26938408613204956, 3.53800892829895, 17.506202697753906, -3.7868106365203857, 9.538772583007812, -0.729248046875, 0.61181640625, -0.363037109375, 0, 
273, 1173804532, 0.8301308, -0.013565746, -0.5564446, 0.03268554, 9.282510757446289, -0.11126942187547684, 3.3571767807006836, 15.822964668273926, -3.8924996852874756, 7.088449478149414, -0.729736328125, 0.6123046875, -0.3662109375, 0, 
274, 1173821199, 0.8297346, -0.012094077, -0.5569777, 0.03421249, 9.342910766601562, -0.0497729554772377, 3.352839946746826, 13.68671989440918, -4.370100021362305, 4.224548816680908, -0.724365234375, 0.614990234375, -0.366943359375, 0, 
275, 1173837866, 0.82931215, -0.010452035, -0.55758, 0.035171464, 9.37156867980957, -0.02021109312772751, 3.4773950576782227, 12.248705863952637, -4.835686683654785, 0.26552700996398926, -0.724365234375, 0.6123046875, -0.369873046875, 0, 
276, 1173854533, 0.8288816, -0.0084252665, -0.5582264, 0.03560705, 9.414448738098145, -0.16153274476528168, 3.516425848007202, 12.522825241088867, -5.175939083099365, -4.145322322845459, -0.728515625, 0.608642578125, -0.371337890625, 0, 
277, 1173871200, 0.828541, -0.0061647557, -0.55876255, 0.03558744, 9.43004322052002, -0.3370501697063446, 3.445517063140869, 12.092890739440918, -4.229920864105225, -7.661242961883545, -0.732421875, 0.607177734375, -0.37548828125, 0, 
278, 1173887867, 0.82831043, -0.0038775143, -0.55914396, 0.035283316, 9.375263214111328, -0.3582064211368561, 3.3072967529296875, 11.127791404724121, -2.914733648300171, -9.431825637817383, -0.729736328125, 0.60205078125, -0.3740234375, 0, 
279, 1173904534, 0.8281708, -0.0016043476, -0.5593873, 0.03488033, 9.363560676574707, -0.3880930244922638, 3.2269139289855957, 10.700098037719727, -1.7688847780227661, -9.963532447814941, -0.73583984375, 0.596923828125, -0.37451171875, 0, 
280, 1173921201, 0.8280951, 5.8329303E-4, -0.5595258, 0.034486167, 9.349392890930176, -0.425689160823822, 3.260042667388916, 10.37925910949707, -0.9008824229240417, -9.567264556884766, -0.737548828125, 0.59375, -0.376220703125, 0, 
281, 1173937868, 0.8280232, 0.0025541612, -0.55964357, 0.03420843, 9.298537254333496, -0.41202524304389954, 3.2563650608062744, 9.622119903564453, -0.7126288414001465, -8.072915077209473, -0.73779296875, 0.596923828125, -0.381591796875, 0, 
282, 1173954535, 0.82804906, 0.0044272207, -0.5596038, 0.03404195, 9.397873878479004, -0.30301013588905334, 3.2370777130126953, 9.315406799316406, 0.5984666347503662, -7.177250862121582, -0.740478515625, 0.59326171875, -0.37939453125, 0, 
283, 1173971202, 0.82817614, 0.0064376574, -0.55939716, 0.03402686, 9.378884315490723, -0.23658455908298492, 3.270988702774048, 10.95683765411377, 1.909363865852356, -6.793805122375488, -0.740234375, 0.58740234375, -0.385986328125, 0, 
284, 1173987869, 0.8284031, 0.008515872, -0.559023, 0.034192987, 9.38140869140625, -0.25425198674201965, 3.3437540531158447, 11.88283920288086, 3.2507271766662598, -6.130217552185059, -0.741943359375, 0.585693359375, -0.382080078125, 0, 
285, 1174004536, 0.82870364, 0.010604475, -0.5585308, 0.03437493, 9.378619194030762, -0.10734275728464127, 3.418123245239258, 12.17460823059082, 4.204801082611084, -6.0605387687683105, -0.743896484375, 0.5830078125, -0.390380859375, 0, 
286, 1174021203, 0.82906586, 0.01290059, -0.55792594, 0.034670115, 9.323423385620117, 0.024207385256886482, 3.478332042694092, 13.601508140563965, 5.047486305236816, -6.317307949066162, -0.743896484375, 0.579833984375, -0.3896484375, 0, 
287, 1174037870, 0.8294692, 0.0154912975, -0.5572368, 0.03504625, 9.32223129272461, -0.03580724075436592, 3.5445961952209473, 15.836065292358398, 5.619867324829102, -6.922421455383301, -0.744140625, 0.576171875, -0.395263671875, 0, 
288, 1174054537, 0.82989055, 0.01828148, -0.55650157, 0.03540579, 9.30954360961914, 0.03582410141825676, 3.687514305114746, 16.82383918762207, 5.899316310882568, -7.831919193267822, -0.746337890625, 0.572509765625, -0.399169921875, 0, 
289, 1174071204, 0.830333, 0.021221673, -0.5557118, 0.035794877, 9.293368339538574, 0.11570184677839279, 3.7268431186676025, 17.837953567504883, 6.251044750213623, -8.241545677185059, -0.747314453125, 0.568603515625, -0.40576171875, 0, 
290, 1174087871, 0.8307745, 0.024298033, -0.55489933, 0.036196284, 9.26026439666748, 0.1953316330909729, 3.7697534561157227, 18.59392738342285, 6.336706638336182, -8.72653579711914, -0.74560546875, 0.5654296875, -0.406982421875, 0, 
291, 1174104538, 0.8312533, 0.027448878, -0.55400765, 0.03661103, 9.248931884765625, 0.2738894820213318, 3.794567584991455, 19.163433074951172, 6.906002998352051, -8.929556846618652, -0.750244140625, 0.562255859375, -0.4111328125, 0, 
292, 1174121205, 0.8317745, 0.030826535, -0.5530077, 0.03719593, 9.238567352294922, 0.37728455662727356, 3.8458049297332764, 21.25634002685547, 7.654895305633545, -8.805707931518555, -0.752197265625, 0.55419921875, -0.418212890625, 0, 
293, 1174137872, 0.8323284, 0.034426183, -0.551914, 0.03788723, 9.263108253479004, 0.3932594656944275, 3.8660290241241455, 22.74270248413086, 8.266204833984375, -9.146866798400879, -0.749755859375, 0.551025390625, -0.425048828125, 0, 
294, 1174154539, 0.8328962, 0.038134366, -0.55076563, 0.038559213, 9.219429016113281, 0.37898674607276917, 3.896146059036255, 23.223968505859375, 8.585942268371582, -9.716764450073242, -0.752197265625, 0.545654296875, -0.430419921875, 0, 
295, 1174171206, 0.8334832, 0.041926764, -0.54955286, 0.03924171, 9.133338928222656, 0.5198706388473511, 3.895677089691162, 23.795515060424805, 8.998213768005371, -9.988062858581543, -0.754150390625, 0.5419921875, -0.433837890625, 0, 
296, 1174187873, 0.8340693, 0.04602031, -0.54828095, 0.039982855, 9.10626220703125, 0.5947780609130859, 3.9266605377197266, 25.892738342285156, 9.264616012573242, -10.757181167602539, -0.7509765625, 0.535888671875, -0.441162109375, 0, 
297, 1174204540, 0.83470184, 0.0504244, -0.546859, 0.040931284, 9.140110969543457, 0.6582984924316406, 3.9292304515838623, 28.277124404907227, 10.258011817932129, -10.879526138305664, -0.7529296875, 0.531005859375, -0.445556640625, 0, 
298, 1174221207, 0.83540994, 0.054980975, -0.5452552, 0.041999847, 9.127524375915527, 0.7196577787399292, 3.952768564224243, 29.887924194335938, 11.588435173034668, -10.749725341796875, -0.753173828125, 0.524169921875, -0.45166015625, 0, 
299, 1174237874, 0.83616674, 0.059641592, -0.5435065, 0.04323058, 9.114218711853027, 0.7730588316917419, 3.894129753112793, 31.098073959350586, 12.623823165893555, -10.286059379577637, -0.758056640625, 0.516845703125, -0.46142578125, 0, 
300, 1174254541, 0.836932, 0.06448328, -0.54165876, 0.044638377, 9.106108665466309, 0.7394120097160339, 3.932943820953369, 32.845184326171875, 13.238754272460938, -9.983574867248535, -0.755615234375, 0.51025390625, -0.4677734375, 0, 
301, 1174271208, 0.83770734, 0.06928718, -0.53976077, 0.045870762, 9.080583572387695, 0.7951348423957825, 3.927556037902832, 31.942203521728516, 13.489156723022461, -10.902216911315918, -0.75537109375, 0.503173828125, -0.4765625, 0, 
302, 1174287875, 0.83855003, 0.07396649, -0.5377468, 0.04681333, 8.995741844177246, 1.0158119201660156, 3.856630802154541, 30.005239486694336, 14.288311004638672, -12.252317428588867, -0.755615234375, 0.49951171875, -0.482666015625, 0, 
303, 1174304542, 0.8394932, 0.07845281, -0.5355732, 0.047516074, 8.91842269897461, 1.2339707612991333, 3.8191323280334473, 28.163753509521484, 15.53182315826416, -12.9725980758667, -0.757568359375, 0.48828125, -0.4892578125, 0, 
304, 1174321209, 0.84050596, 0.08251117, -0.53333426, 0.04792309, 8.854418754577637, 1.3366659879684448, 3.7917425632476807, 24.627748489379883, 16.146455764770508, -13.139252662658691, -0.75341796875, 0.483154296875, -0.49609375, 0, 
305, 1174337876, 0.8415364, 0.08597634, -0.5311495, 0.04800968, 8.824275970458984, 1.3905620574951172, 3.7794673442840576, 19.924583435058594, 15.900650024414062, -12.814741134643555, -0.756591796875, 0.480224609375, -0.503662109375, 0, 
306, 1174354543, 0.84254664, 0.08878425, -0.5291039, 0.04776712, 8.746925354003906, 1.3930332660675049, 3.819540023803711, 14.93018627166748, 15.049528121948242, -12.20313835144043, -0.759033203125, 0.47314453125, -0.507568359375, 0, 
307, 1174371210, 0.843535, 0.090735696, -0.52725375, 0.047109626, 8.715544700622559, 1.3688219785690308, 3.828754186630249, 8.550780296325684, 13.884363174438477, -11.2968168258667, -0.75634765625, 0.46826171875, -0.511474609375, 0, 
308, 1174387877, 0.84454846, 0.091771424, -0.52554506, 0.046025373, 8.804699897766113, 1.402716040611267, 3.83947491645813, 1.5373718738555908, 13.16844367980957, -10.405951499938965, -0.756591796875, 0.466552734375, -0.515380859375, 0, 
309, 1174404544, 0.8454569, 0.09240386, -0.524082, 0.044749804, 8.799921989440918, 1.3087222576141357, 3.727900743484497, -1.563816785812378, 11.361163139343262, -9.890769004821777, -0.754638671875, 0.462890625, -0.52001953125, 0, 
310, 1174421211, 0.8461887, 0.09248771, -0.52301484, 0.043200344, 8.913619995117188, 1.156564474105835, 3.957695722579956, -6.039510250091553, 8.377344131469727, -9.32361125946045, -0.754150390625, 0.460205078125, -0.5205078125, 0, 
311, 1174437878, 0.84686387, 0.092048116, -0.5221456, 0.041386783, 8.873950004577637, 1.0763009786605835, 3.8531086444854736, -10.114033699035645, 7.003042697906494, -8.864761352539062, -0.755615234375, 0.46240234375, -0.52099609375, 0, 
312, 1174454545, 0.847424, 0.09124408, -0.52154213, 0.03925541, 8.864205360412598, 1.1935477256774902, 3.9378130435943604, -13.183900833129883, 4.975720405578613, -9.123860359191895, -0.755126953125, 0.461181640625, -0.518310546875, 0, 
313, 1174471212, 0.8478564, 0.0903086, -0.5211737, 0.036903877, 8.885831832885742, 1.2805075645446777, 4.005444526672363, -14.664037704467773, 3.0574939250946045, -9.72745132446289, -0.756591796875, 0.46337890625, -0.518798828125, 0, 
314, 1174487879, 0.84821177, 0.089264214, -0.52094567, 0.034415904, 8.85195541381836, 1.2998254299163818, 3.990060806274414, -15.690465927124023, 1.913360357284546, -9.986933708190918, -0.755615234375, 0.462158203125, -0.51708984375, 0, 
315, 1174504546, 0.8484804, 0.088069536, -0.5208789, 0.03178381, 8.663403511047363, 1.454789400100708, 3.869319200515747, -17.273605346679688, 0.5764273405075073, -10.258328437805176, -0.760009765625, 0.46240234375, -0.514892578125, 0, 
316, 1174521213, 0.84868264, 0.08702663, -0.52088434, 0.029046005, 8.642928123474121, 1.470455527305603, 3.681807041168213, -16.648298263549805, -0.16052143275737762, -11.307042121887207, -0.760986328125, 0.459716796875, -0.51416015625, 0, 
317, 1174537880, 0.84884053, 0.08654445, -0.52085733, 0.026220428, 8.454533576965332, 1.3078800439834595, 3.547335386276245, -13.891456604003906, -0.33038508892059326, -13.933999061584473, -0.7626953125, 0.460205078125, -0.509765625, 0, 
318, 1174554547, 0.84886795, 0.08648347, -0.5209621, 0.023287853, 8.704815864562988, 1.2632752656936646, 3.7241549491882324, -11.561505317687988, -1.662874698638916, -15.868261337280273, -0.761474609375, 0.4619140625, -0.509765625, 0, 
319, 1174571214, 0.8487323, 0.08628494, -0.52130705, 0.021153992, 9.299757957458496, 1.453971028327942, 3.998818874359131, -9.478440284729004, -3.163625478744507, -10.561884880065918, -0.766357421875, 0.459228515625, -0.508544921875, 0, 
320, 1174587881, 0.8484348, 0.08587172, -0.52191055, 0.019847754, 9.147268295288086, 1.4438567161560059, 4.23579216003418, -7.950599193572998, -4.7550177574157715, -4.889189720153809, -0.76904296875, 0.45703125, -0.50244140625, 0, 
321, 1174604548, 0.84792256, 0.08498836, -0.52291703, 0.019034289, 9.282066345214844, 1.5029449462890625, 4.479305267333984, -8.457221031188965, -7.448886394500732, 0.122223861515522, -0.76611328125, 0.4609375, -0.499755859375, 0, 
322, 1174621215, 0.84720516, 0.0839246, -0.52426416, 0.018634928, 9.198320388793945, 1.4515668153762817, 4.525585651397705, -8.21191692352295, -9.959356307983398, 3.29478120803833, -0.771240234375, 0.4599609375, -0.4990234375, 0, 
323, 1174637882, 0.8463507, 0.082805365, -0.525825, 0.018494975, 9.248013496398926, 1.4613652229309082, 4.420541763305664, -7.4474053382873535, -11.541496276855469, 5.193990707397461, -0.7705078125, 0.463134765625, -0.496826171875, 0, 
324, 1174654549, 0.84553, 0.0816716, -0.5273179, 0.018570568, 9.279115676879883, 1.3974859714508057, 4.352695941925049, -6.8138861656188965, -10.921192169189453, 6.437795162200928, -0.7724609375, 0.463623046875, -0.49072265625, 0, 
325, 1174671216, 0.84482944, 0.080646, -0.52860045, 0.018476376, 9.144490242004395, 1.4231303930282593, 4.25831937789917, -6.741835117340088, -9.346430778503418, 4.973796844482422, -0.77197265625, 0.464111328125, -0.4912109375, 0, 
326, 1174687883, 0.844255, 0.07977252, -0.5296607, 0.018153146, 8.934928894042969, 1.5055983066558838, 4.102436542510986, -7.016850471496582, -7.807848930358887, 2.8297815322875977, -0.7734375, 0.462158203125, -0.486328125, 0, 
327, 1174704550, 0.8438448, 0.078868024, -0.5304656, 0.017672334, 8.957069396972656, 1.570881724357605, 3.959474802017212, -8.058667182922363, -5.832231044769287, 1.782740592956543, -0.77392578125, 0.467529296875, -0.48779296875, 0, 
328, 1174721217, 0.8435874, 0.077608965, -0.53108126, 0.017036371, 8.958510398864746, 1.5609029531478882, 3.9355156421661377, -10.658845901489258, -4.222293853759766, 2.0974953174591064, -0.772216796875, 0.47021484375, -0.484619140625, 0, 
329, 1174737884, 0.843525, 0.07593344, -0.53144723, 0.016242437, 8.871969223022461, 1.4686928987503052, 3.9193804264068604, -14.001065254211426, -2.127673864364624, 2.4426465034484863, -0.77490234375, 0.473388671875, -0.481689453125, 0, 
330, 1174754551, 0.8435461, 0.073746584, -0.5317515, 0.01522495, 8.953783988952637, 1.4869173765182495, 3.8411953449249268, -17.322446823120117, -1.4483550786972046, 3.1922168731689453, -0.774658203125, 0.474609375, -0.478759765625, 0, 
331, 1174771218, 0.8435854, 0.071122006, -0.53208077, 0.013982221, 8.862283706665039, 1.4627984762191772, 3.917273759841919, -20.640172958374023, -1.584384799003601, 3.5297939777374268, -0.771728515625, 0.4765625, -0.47119140625, 0, 
332, 1174787885, 0.8436753, 0.0677997, -0.53241456, 0.012252147, 8.840676307678223, 1.4099267721176147, 3.9735801219940186, -26.518234252929688, -1.5853853225708008, 3.2574570178985596, -0.771484375, 0.4814453125, -0.469482421875, 0, 
333, 1174804552, 0.84380734, 0.064052984, -0.5327141, 0.010099244, 8.855095863342285, 1.4112763404846191, 4.048946380615234, -30.740062713623047, -1.4300066232681274, 2.266078472137451, -0.77099609375, 0.485107421875, -0.4677734375, 0, 
334, 1174821219, 0.8440301, 0.059982903, -0.5328768, 0.007589356, 8.975227355957031, 1.3783578872680664, 3.9724063873291016, -34.067405700683594, -0.47289568185806274, 1.2721366882324219, -0.771728515625, 0.49169921875, -0.45849609375, 0, 
335, 1174837886, 0.8442728, 0.05578681, -0.53298116, 0.004738378, 9.021049499511719, 1.2601354122161865, 3.974311590194702, -35.67268753051758, -0.12589338421821594, -0.0935572013258934, -0.770263671875, 0.496337890625, -0.455078125, 0, 
336, 1174854553, 0.84444857, 0.05167568, -0.5331353, 0.0017784104, 9.124728202819824, 1.039685606956482, 4.044070720672607, -35.90284729003906, -0.754841685295105, -1.1552084684371948, -0.7724609375, 0.49853515625, -0.449462890625, 0, 
337, 1174871220, 0.8446406, 0.0470953, -0.5332572, -0.0012261902, 9.29572868347168, 1.0179086923599243, 4.023565292358398, -38.63624572753906, -0.5003787279129028, 0.36388152837753296, -0.772216796875, 0.50244140625, -0.443359375, 0, 
338, 1174887887, 0.84492, 0.04206181, -0.53321934, -0.0042787665, 9.222291946411133, 1.0115715265274048, 4.178804874420166, -41.47874069213867, 0.7305298447608948, 1.698081135749817, -0.77294921875, 0.504638671875, -0.436767578125, 0, 
339, 1174904554, 0.8452377, 0.036866385, -0.5330637, -0.0075923023, 9.072665214538574, 0.8901357650756836, 4.4409871101379395, -43.32505798339844, 1.4813205003738403, 0.7751478552818298, -0.7705078125, 0.511962890625, -0.4306640625, 0, 
340, 1174921221, 0.84566414, 0.031539872, -0.5326656, -0.011175171, 9.087544441223145, 0.8921232223510742, 4.347467422485352, -45.246673583984375, 3.1883301734924316, -0.41928935050964355, -0.7724609375, 0.51953125, -0.425537109375, 0, 
341, 1174937888, 0.84611005, 0.026350785, -0.53215045, -0.014819882, 9.03240966796875, 0.8995112180709839, 4.208503723144531, -44.64345932006836, 3.9323067665100098, -1.2850173711776733, -0.77099609375, 0.521728515625, -0.4189453125, 0, 
342, 1174954555, 0.84652346, 0.021428391, -0.53160465, -0.018312871, 8.946824073791504, 0.8233585357666016, 4.263253211975098, -42.55618667602539, 4.040761947631836, -1.3917198181152344, -0.7685546875, 0.527099609375, -0.411376953125, 0, 
343, 1174971222, 0.8469353, 0.016529143, -0.530993, -0.021775728, 9.010987281799316, 0.6885929703712463, 4.530824661254883, -42.28487777709961, 4.425179481506348, -1.2908883094787598, -0.7705078125, 0.5341796875, -0.407470703125, 0, 
344, 1174987889, 0.8474213, 0.011442912, -0.5301937, -0.025322616, 9.013208389282227, 0.5599997043609619, 4.623342037200928, -43.62702560424805, 5.74294376373291, -1.0694462060928345, -0.76806640625, 0.538818359375, -0.403564453125, 0, 
345, 1175004556, 0.84796673, 0.006631128, -0.52923626, -0.028593956, 9.083561897277832, 0.5199543833732605, 4.503170013427734, -41.22809982299805, 6.915548801422119, -0.5506188273429871, -0.76904296875, 0.53955078125, -0.399169921875, 0, 
346, 1175021223, 0.84862053, 0.0024692952, -0.52806675, -0.03134926, 9.139298439025879, 0.3806540369987488, 4.38425874710083, -35.67137145996094, 8.688444137573242, 0.074289970099926, -0.764892578125, 0.54638671875, -0.392578125, 0, 
347, 1175037890, 0.8494239, -0.0013849494, -0.52661294, -0.034003463, 8.953878402709961, 0.28996211290359497, 4.389151573181152, -33.47117614746094, 10.966765403747559, -0.38505661487579346, -0.769287109375, 0.549072265625, -0.3896484375, 0, 
348, 1175054557, 0.8502272, -0.004948045, -0.52511734, -0.036626656, 8.772716522216797, 0.37607914209365845, 4.324244022369385, -31.422988891601562, 11.295537948608398, -1.1525439023971558, -0.763671875, 0.552734375, -0.3876953125, 0, 
349, 1175071224, 0.85104054, -0.00851471, -0.52356946, -0.039149713, 8.787074089050293, 0.3267723023891449, 4.3356451988220215, -31.42469596862793, 11.603584289550781, -0.7099931836128235, -0.762451171875, 0.555908203125, -0.3876953125, 0, 
350, 1175087891, 0.85188395, -0.011822856, -0.5219469, -0.04154189, 8.706931114196777, 0.34092703461647034, 4.221907615661621, -29.577322006225586, 12.195133209228516, -0.9289566278457642, -0.76123046875, 0.5576171875, -0.381591796875, 0, 
351, 1175104558, 0.8528287, -0.014696296, -0.52014315, -0.043804534, 8.71329116821289, 0.19913922250270844, 4.110991477966309, -26.23023796081543, 13.761240005493164, -1.5101934671401978, -0.760986328125, 0.5595703125, -0.382080078125, 0, 
352, 1175121225, 0.85382897, -0.017174248, -0.51823777, -0.045945086, 8.731934547424316, 0.24186179041862488, 4.148188591003418, -23.878190994262695, 14.649032592773438, -2.368150472640991, -0.760498046875, 0.561279296875, -0.37890625, 0, 
353, 1175137892, 0.8548106, -0.019331243, -0.5163533, -0.048005708, 8.704190254211426, 0.314617395401001, 4.170849800109863, -21.239347457885742, 14.579805374145508, -2.8336992263793945, -0.758056640625, 0.56494140625, -0.37841796875, 0, 
354, 1175154559, 0.8557672, -0.021171736, -0.5145289, -0.04974613, 8.641819953918457, 0.34598636627197266, 4.088691711425781, -18.432907104492188, 14.194925308227539, -2.1944615840911865, -0.757080078125, 0.567138671875, -0.380126953125, 0, 
355, 1175171226, 0.856705, -0.022538966, -0.5127677, -0.051166147, 8.58253002166748, 0.21982529759407043, 4.05247163772583, -14.566807746887207, 13.87135124206543, -2.0432302951812744, -0.758544921875, 0.566650390625, -0.376220703125, 0, 
356, 1175187893, 0.8576319, -0.023619639, -0.5110444, -0.052376844, 8.537908554077148, 0.19028231501579285, 4.1757731437683105, -11.341464042663574, 13.720855712890625, -1.43691885471344, -0.75439453125, 0.566650390625, -0.380126953125, 0, 
357, 1175204560, 0.8584316, -0.024527997, -0.5095689, -0.05322929, 8.515332221984863, 0.23698391020298004, 4.304493427276611, -9.725969314575195, 11.790181159973145, -0.3933473229408264, -0.75390625, 0.56494140625, -0.38232421875, 0, 
358, 1175221227, 0.8591058, -0.02541809, -0.50831586, -0.053908527, 8.594220161437988, 0.2638258635997772, 4.302128314971924, -8.8819580078125, 10.018259048461914, 0.506901204586029, -0.75439453125, 0.567626953125, -0.384521484375, 0, 
359, 1175237894, 0.8596988, -0.026224466, -0.5072172, -0.054415744, 8.740443229675293, 0.20250707864761353, 4.379213809967041, -7.692437648773193, 8.828842163085938, 1.190606951713562, -0.75537109375, 0.567626953125, -0.381103515625, 0, 
360, 1175254561, 0.86017203, -0.02700417, -0.5063156, -0.054950386, 8.825239181518555, 0.20271949470043182, 4.559770107269287, -7.121984958648682, 7.288384914398193, 1.099303960800171, -0.75146484375, 0.569091796875, -0.38037109375, 0, 
361, 1175271228, 0.86050034, -0.027723728, -0.5056664, -0.055428702, 8.760135650634766, 0.2831684350967407, 4.59402322769165, -6.7577595710754395, 5.298404693603516, 0.9863005876541138, -0.75048828125, 0.5703125, -0.383544921875, 0, 
362, 1175287895, 0.8607537, -0.028232628, -0.5051724, -0.055739164, 8.728626251220703, 0.28432387113571167, 4.588816165924072, -5.161304950714111, 4.157626628875732, 1.0321598052978516, -0.749267578125, 0.5703125, -0.383056640625, 0, 
363, 1175304562, 0.8609252, -0.028439783, -0.5048449, -0.055951867, 8.723199844360352, 0.22728708386421204, 4.557719707489014, -3.0474307537078857, 2.985736131668091, 0.46871238946914673, -0.752197265625, 0.572998046875, -0.3857421875, 0, 
364, 1175321229, 0.8610423, -0.028334977, -0.5046236, -0.05619872, 8.742193222045898, 0.1518477499485016, 4.601770401000977, -1.2300946712493896, 2.298509120941162, -0.8377593755722046, -0.75048828125, 0.57080078125, -0.383544921875, 0, 
365, 1175337896, 0.86104375, -0.028171651, -0.50457704, -0.056676347, 8.735699653625488, 0.2002606987953186, 4.771565914154053, -1.6704027652740479, 0.9336597919464111, -2.4965786933898926, -0.7470703125, 0.57177734375, -0.3837890625, 0, 
366, 1175354563, 0.8609474, -0.02794205, -0.50469863, -0.05717015, 8.703886985778809, 0.3007309138774872, 4.7927470207214355, -1.6247478723526, -0.38391512632369995, -3.079216241836548, -0.74755859375, 0.572265625, -0.384765625, 0, 
367, 1175371230, 0.86078703, -0.02772084, -0.5049289, -0.057654824, 8.726038932800293, 0.21885079145431519, 4.843074798583984, -1.5175844430923462, -1.2578846216201782, -3.0035693645477295, -0.75146484375, 0.5703125, -0.3818359375, 0, 
368, 1175387897, 0.86064047, -0.027713949, -0.5051165, -0.05820072, 8.739725112915039, 0.24034403264522552, 4.7672271728515625, -2.6807146072387695, -1.0221259593963623, -2.420297622680664, -0.748779296875, 0.570068359375, -0.383056640625, 0, 
369, 1175404564, 0.8603256, -0.027466046, -0.5056371, -0.058453534, 8.706451416015625, 0.21144019067287445, 4.72670841217041, -0.5969295501708984, -3.5533266067504883, -1.9077106714248657, -0.752197265625, 0.567626953125, -0.383056640625, 0, 
370, 1175421231, 0.85997206, -0.027531317, -0.5061868, -0.058866095, 8.789237022399902, 0.2078528106212616, 4.814922332763672, -2.9122793674468994, -3.953781843185425, -1.738628625869751, -0.75537109375, 0.567626953125, -0.3818359375, 0, 
371, 1175437898, 0.8596043, -0.027718274, -0.50673074, -0.059466977, 8.683672904968262, 0.2731304168701172, 4.762093544006348, -4.118740081787109, -3.9800472259521484, -2.3412697315216064, -0.755859375, 0.568115234375, -0.3818359375, 0, 
372, 1175454565, 0.8591874, -0.02781125, -0.5073618, -0.060063444, 8.667326927185059, 0.35242870450019836, 4.747591972351074, -3.7451021671295166, -4.639472007751465, -2.801017999649048, -0.7548828125, 0.568115234375, -0.37841796875, 0, 
373, 1175471232, 0.85869163, -0.027950523, -0.5081155, -0.06071447, 8.6348295211792, 0.33278894424438477, 4.748587131500244, -3.7046916484832764, -5.6395134925842285, -2.7834925651550293, -0.758544921875, 0.567626953125, -0.37841796875, 0, 
374, 1175487899, 0.8581222, -0.028038835, -0.50899565, -0.061349537, 8.652195930480957, 0.36835572123527527, 4.742374897003174, -3.412982702255249, -6.632024765014648, -2.9732506275177, -0.7568359375, 0.568115234375, -0.375732421875, 0, 
375, 1175504566, 0.85757256, -0.027941853, -0.5098626, -0.061877247, 8.688720703125, 0.384148508310318, 4.701175689697266, -2.6488595008850098, -6.449528217315674, -3.3241000175476074, -0.76025390625, 0.566650390625, -0.373291015625, 0, 
376, 1175521233, 0.8570524, -0.027874509, -0.51067054, -0.06244893, 8.770367622375488, 0.41105836629867554, 4.696959972381592, -2.7814950942993164, -5.9987711906433105, -3.3352162837982178, -0.758544921875, 0.5654296875, -0.373291015625, 0, 
377, 1175537900, 0.85655123, -0.027961275, -0.5114253, -0.06310575, 8.817777633666992, 0.3975546061992645, 4.672972202301025, -3.8467719554901123, -5.672817230224609, -3.219580888748169, -0.763427734375, 0.564697265625, -0.37255859375, 0, 
378, 1175554567, 0.85606426, -0.028123638, -0.5121544, -0.06372506, 8.780054092407227, 0.3807298541069031, 4.558796405792236, -4.295045852661133, -5.515952110290527, -2.772280693054199, -0.762451171875, 0.5634765625, -0.369384765625, 0, 
379, 1175571234, 0.8555955, -0.02829715, -0.51286745, -0.06420667, 8.748086929321289, 0.38465210795402527, 4.37200927734375, -3.9117581844329834, -5.389867305755615, -1.9224835634231567, -0.76513671875, 0.5673828125, -0.36865234375, 0, 
380, 1175587901, 0.85517716, -0.028196828, -0.5135449, -0.06441072, 8.802380561828613, 0.41310521960258484, 4.376870155334473, -1.8664166927337646, -4.945678234100342, -1.4808943271636963, -0.76708984375, 0.565185546875, -0.365966796875, 0, 
381, 1175604568, 0.85482323, -0.028237704, -0.51408815, -0.064757705, 8.854211807250977, 0.40583375096321106, 4.465375900268555, -2.697753667831421, -3.9450151920318604, -1.4892055988311768, -0.765380859375, 0.565673828125, -0.364990234375, 0, 
382, 1175621235, 0.8545597, -0.028469987, -0.51445824, -0.06519284, 8.895268440246582, 0.5128639340400696, 4.498922824859619, -4.26397705078125, -2.6773340702056885, -1.298243761062622, -0.769775390625, 0.563720703125, -0.361328125, 0, 
383, 1175637902, 0.85434866, -0.028771609, -0.5147338, -0.065648854, 8.897825241088867, 0.5629295706748962, 4.435307502746582, -4.376800060272217, -1.9464242458343506, -0.9113510847091675, -0.76708984375, 0.5634765625, -0.358154296875, 0, 
384, 1175654569, 0.8541503, -0.029096477, -0.5149906, -0.06607153, 8.859381675720215, 0.4860605299472809, 4.397754669189453, -4.314728736877441, -1.8041201829910278, -0.5764010548591614, -0.76611328125, 0.56298828125, -0.36328125, 0, 
385, 1175671236, 0.85395986, -0.029522248, -0.5152265, -0.06650515, 8.802943229675293, 0.47395530343055725, 4.398017406463623, -5.13950252532959, -1.7085400819778442, -0.407683789730072, -0.768798828125, 0.565185546875, -0.3603515625, 0, 
386, 1175687903, 0.85376745, -0.029976778, -0.5154633, -0.06693581, 8.79610538482666, 0.4648924469947815, 4.417744159698486, -5.783507347106934, -1.7405812740325928, -0.4926154613494873, -0.769287109375, 0.565185546875, -0.361328125, 0, 
387, 1175704570, 0.8535952, -0.030483527, -0.5156629, -0.06736331, 8.846087455749512, 0.4999547600746155, 4.393555164337158, -6.411301612854004, -1.48357093334198, -0.43145236372947693, -0.771484375, 0.564697265625, -0.35693359375, 0, 
388, 1175721237, 0.85346323, -0.031023115, -0.51578534, -0.06785129, 8.899484634399414, 0.44749531149864197, 4.410586357116699, -6.27479887008667, -0.8696601390838623, -0.3375818431377411, -0.76806640625, 0.5634765625, -0.35595703125, 0, 
389, 1175737904, 0.85337657, -0.031553455, -0.5158337, -0.06832527, 8.884994506835938, 0.43974772095680237, 4.402055263519287, -6.2969794273376465, -0.27563750743865967, -0.30876752734184265, -0.770263671875, 0.5673828125, -0.354736328125, 0, 
390, 1175754571, 0.85329914, -0.03191826, -0.51588714, -0.06871783, 8.870939254760742, 0.42486003041267395, 4.502383708953857, -5.24825382232666, -0.21443596482276917, -0.5073428153991699, -0.771728515625, 0.564208984375, -0.353759765625, 0, 
391, 1175771238, 0.85320145, -0.032255538, -0.51597124, -0.06914172, 8.819543838500977, 0.3976325988769531, 4.489089488983154, -4.920423984527588, -0.4373560845851898, -0.669599175453186, -0.771728515625, 0.565185546875, -0.35302734375, 0, 
392, 1175787905, 0.85310537, -0.032656927, -0.5160462, -0.06957849, 8.868354797363281, 0.4064473807811737, 4.518478870391846, -5.09564733505249, -0.4023115038871765, -0.40206819772720337, -0.770751953125, 0.564208984375, -0.3525390625, 0, 
393, 1175804572, 0.8531111, -0.032968413, -0.5159786, -0.06986169, 8.837149620056152, 0.40974223613739014, 4.465624809265137, -4.301525115966797, 0.7979572415351868, 0.14726662635803223, -0.771240234375, 0.56689453125, -0.355224609375, 0, 
394, 1175821239, 0.8531571, -0.03318931, -0.5158805, -0.06991904, 8.846117973327637, 0.3575688600540161, 4.528287887573242, -3.4490766525268555, 1.0985158681869507, 0.936438798904419, -0.77001953125, 0.566162109375, -0.353759765625, 0, 
395, 1175837906, 0.85318416, -0.033536136, -0.51579666, -0.07004348, 8.838693618774414, 0.36095505952835083, 4.607867240905762, -4.39880895614624, 0.905293881893158, 0.9959244132041931, -0.77001953125, 0.5673828125, -0.35205078125, 0, 
396, 1175854573, 0.85322785, -0.0340182, -0.5156637, -0.07025891, 8.819092750549316, 0.4042462110519409, 4.5982584953308105, -5.158609867095947, 1.2155147790908813, 1.1431204080581665, -0.771240234375, 0.568359375, -0.35205078125, 0, 
397, 1175871240, 0.85330594, -0.034480732, -0.5154772, -0.07045313, 8.828319549560547, 0.3905176818370819, 4.555606365203857, -5.018918037414551, 1.6533256769180298, 1.2140549421310425, -0.76953125, 0.56787109375, -0.350830078125, 0, 
398, 1175887907, 0.853382, -0.03487832, -0.51530254, -0.07061466, 8.79857349395752, 0.34466829895973206, 4.520084857940674, -4.7202606201171875, 1.5967597961425781, 1.0786917209625244, -0.772216796875, 0.56640625, -0.351318359375, 0, 
399, 1175904574, 0.8533861, -0.035315868, -0.5152295, -0.070876956, 8.78003215789795, 0.37969309091567993, 4.514288425445557, -5.056196689605713, 0.7555233836174011, 0.6788005828857422, -0.771728515625, 0.56787109375, -0.350830078125, 0, 
400, 1175921241, 0.85334504, -0.035780583, -0.515226, -0.07116501, 8.779265403747559, 0.4115603566169739, 4.537018775939941, -5.196784973144531, 0.18159404397010803, 0.6238741874694824, -0.771728515625, 0.568359375, -0.3486328125, 0, 
401, 1175937908, 0.8532773, -0.03622065, -0.51526666, -0.07145915, 8.82923698425293, 0.37577831745147705, 4.530009746551514, -5.048833847045898, -0.15779346227645874, 0.4919687807559967, -0.772216796875, 0.568603515625, -0.350830078125, 0, 
402, 1175954575, 0.8532134, -0.036637772, -0.51530975, -0.071697846, 8.867193222045898, 0.3605441749095917, 4.503999710083008, -5.109536170959473, -0.16933198273181915, 0.5410043001174927, -0.7705078125, 0.569580078125, -0.3486328125, 0, 
403, 1175971242, 0.85317874, -0.036995377, -0.5153127, -0.071905784, 8.867478370666504, 0.3928508460521698, 4.488173484802246, -4.712679862976074, 0.19222334027290344, 0.5166082382202148, -0.77001953125, 0.569580078125, -0.349365234375, 0, 
404, 1175987909, 0.8531849, -0.03726639, -0.51526064, -0.07206607, 8.875818252563477, 0.3962770700454712, 4.452401638031006, -3.9252426624298096, 0.6911460161209106, 0.5730458498001099, -0.768310546875, 0.570556640625, -0.34716796875, 0, 
405, 1176004576, 0.8532153, -0.03748336, -0.51517695, -0.07219022, 8.849761962890625, 0.3772661089897156, 4.474442005157471, -3.538029193878174, 0.9830153584480286, 0.5994139909744263, -0.77099609375, 0.571044921875, -0.349853515625, 0, 
406, 1176021243, 0.85319906, -0.037828952, -0.5151452, -0.07242883, 8.804579734802246, 0.4222480356693268, 4.475598335266113, -4.566354274749756, 0.47918808460235596, 0.394448459148407, -0.77099609375, 0.568359375, -0.34765625, 0, 
407, 1176037910, 0.8531358, -0.03822198, -0.5151757, -0.072750896, 8.833157539367676, 0.4033297598361969, 4.454324245452881, -5.040163040161133, -0.0499255508184433, 0.08512380719184875, -0.771484375, 0.570068359375, -0.345458984375, 0, 
408, 1176054577, 0.8530779, -0.03865634, -0.51518786, -0.07311274, 8.827455520629883, 0.39770811796188354, 4.407936096191406, -5.318023204803467, 0.06933358311653137, 0.07016599923372269, -0.77099609375, 0.569580078125, -0.34375, 0, 
409, 1176071244, 0.8530422, -0.03906868, -0.5151678, -0.07345184, 8.817764282226562, 0.43398913741111755, 4.446695804595947, -5.338231086730957, 0.3424417972564697, 0.05094366520643234, -0.770263671875, 0.571044921875, -0.34375, 0, 
410, 1176087911, 0.8530054, -0.03941939, -0.51516247, -0.073728636, 8.841195106506348, 0.40834367275238037, 4.507224082946777, -4.6996941566467285, 0.2678704559803009, 0.21109989285469055, -0.76904296875, 0.572021484375, -0.342041015625, 0, 
411, 1176104578, 0.8529745, -0.039785407, -0.51514155, -0.074034594, 8.845459938049316, 0.3500145971775055, 4.512144565582275, -5.016509532928467, 0.37826114892959595, 0.051814496517181396, -0.771240234375, 0.5732421875, -0.342041015625, 0, 
412, 1176121245, 0.8529266, -0.040323354, -0.5151082, -0.07452476, 8.823141098022461, 0.35536977648735046, 4.468108177185059, -6.337460041046143, 0.35841137170791626, -0.25938624143600464, -0.77197265625, 0.57275390625, -0.343017578125, 0, 
413, 1176137912, 0.85285974, -0.040857974, -0.5151101, -0.07498569, 8.805205345153809, 0.4461990296840668, 4.4382452964782715, -6.7489914894104, 0.07288093864917755, -0.37789618968963623, -0.771240234375, 0.5732421875, -0.341552734375, 0, 
414, 1176154579, 0.8527978, -0.04134208, -0.5151164, -0.07537984, 8.816567420959473, 0.41156572103500366, 4.432650566101074, -6.217514991760254, 0.07314987480640411, -0.15985527634620667, -0.770751953125, 0.57373046875, -0.342529296875, 0, 
415, 1176171246, 0.85274106, -0.041758083, -0.5151283, -0.07570872, 8.81650161743164, 0.3493286669254303, 4.470273971557617, -5.402928829193115, 0.07679969072341919, 0.05373544618487358, -0.76904296875, 0.571044921875, -0.33984375, 0, 
416, 1176187913, 0.85269684, -0.042129528, -0.5151264, -0.07601398, 8.853732109069824, 0.34037286043167114, 4.481569290161133, -5.123417377471924, 0.22042293846607208, 0.026137763634324074, -0.772216796875, 0.574462890625, -0.338134765625, 0, 
417, 1176204580, 0.8526694, -0.042408105, -0.5151046, -0.07631346, 8.87124252319336, 0.3500479757785797, 4.5350565910339355, -4.334802150726318, 0.44691601395606995, -0.1343834400177002, -0.76953125, 0.5732421875, -0.3349609375, 0, 
418, 1176221247, 0.85268074, -0.042590965, -0.5150242, -0.07662721, 8.881089210510254, 0.32459554076194763, 4.554145812988281, -3.878512382507324, 0.9824264645576477, -0.5251820683479309, -0.774169921875, 0.572265625, -0.339599609375, 0, 
419, 1176237914, 0.8527052, -0.042763636, -0.51491445, -0.07699546, 8.837874412536621, 0.32179543375968933, 4.518552780151367, -3.799945592880249, 1.222212553024292, -0.7782227993011475, -0.770751953125, 0.571044921875, -0.338134765625, 0, 
420, 1176254581, 0.8527424, -0.042857528, -0.5148084, -0.07724089, 8.827193260192871, 0.3885188400745392, 4.470162391662598, -3.823546886444092, 1.243355631828308, -0.757911741733551, -0.772216796875, 0.57373046875, -0.3369140625, 0, 
421, 1176271248, 0.8527416, -0.042998202, -0.5147582, -0.077503346, 8.80564022064209, 0.3706287741661072, 4.4853034019470215, -3.556137800216675, 0.7681248784065247, -0.4506874680519104, -0.7734375, 0.574951171875, -0.339599609375, 0, 
422, 1176287915, 0.85270965, -0.043114014, -0.5147749, -0.0776801, 8.804367065429688, 0.3666563630104065, 4.490286827087402, -3.5246469974517822, 0.249288409948349, -0.28756019473075867, -0.7705078125, 0.57421875, -0.33544921875, 0, 
423, 1176304582, 0.8526563, -0.043202378, -0.5148377, -0.077803105, 8.8153657913208, 0.3475712835788727, 4.481873035430908, -2.942713737487793, -0.09472216665744781, 0.017301378771662712, -0.7734375, 0.57177734375, -0.33544921875, 0, 
424, 1176321249, 0.852574, -0.043326765, -0.5149351, -0.077989295, 8.835614204406738, 0.3621295094490051, 4.504589080810547, -2.8218088150024414, -0.3978356719017029, 0.008375353179872036, -0.7734375, 0.57373046875, -0.33642578125, 0, 
425, 1176337916, 0.85250986, -0.043520257, -0.5150019, -0.07814243, 8.865659713745117, 0.34731531143188477, 4.583771705627441, -3.8114073276519775, -0.20460067689418793, 0.14221453666687012, -0.772705078125, 0.574951171875, -0.33544921875, 0, 
426, 1176354583, 0.8524632, -0.043769863, -0.5150333, -0.07830358, 8.807421684265137, 0.4087061285972595, 4.450889587402344, -4.179518699645996, 0.03641485422849655, 0.31711724400520325, -0.77392578125, 0.57373046875, -0.334716796875, 0, 
427, 1176371250, 0.85231143, -0.043854166, -0.515278, -0.07829973, 8.816479682922363, 0.3182496428489685, 4.5079874992370605, -2.4429712295532227, -1.544567346572876, 0.6307383179664612, -0.772705078125, 0.57373046875, -0.334228515625, 0, 
428, 1176387917, 0.8520818, -0.044286344, -0.51559466, -0.07846999, 8.77907943725586, 0.3096679151058197, 4.5419921875, -4.545505046844482, -2.3749568462371826, 1.020192265510559, -0.773193359375, 0.571533203125, -0.33203125, 0, 
429, 1176404584, 0.85173357, -0.04480581, -0.5161025, -0.07861732, 8.667131423950195, 0.354457825422287, 4.546372890472412, -5.1686625480651855, -3.969604015350342, 1.2353005409240723, -0.77490234375, 0.575439453125, -0.33251953125, 0, 
430, 1176421251, 0.85123295, -0.04525652, -0.5168967, -0.07856361, 8.706372261047363, 0.3545242249965668, 4.497987270355225, -4.23542594909668, -6.215940475463867, 1.8632218837738037, -0.774169921875, 0.575439453125, -0.32861328125, 0, 
431, 1176437918, 0.85059476, -0.04569874, -0.5179391, -0.078355104, 8.71955394744873, 0.3039630055427551, 4.579381465911865, -3.2071399688720703, -8.199108123779297, 2.750638008117676, -0.773681640625, 0.575439453125, -0.329833984375, 0, 
432, 1176454585, 0.84982204, -0.046153337, -0.5192318, -0.07791518, 8.709964752197266, 0.25258898735046387, 4.662571430206299, -3.064138412475586, -10.225093841552734, 3.671217441558838, -0.77294921875, 0.575927734375, -0.325439453125, 0, 
433, 1176471252, 0.84897006, -0.046610788, -0.52066237, -0.07738255, 8.74305248260498, 0.29343345761299133, 4.6608171463012695, -2.4279251098632812, -11.348065376281738, 4.2715864181518555, -0.775634765625, 0.579345703125, -0.32080078125, 0, 
434, 1176487919, 0.848082, -0.04702564, -0.5221673, -0.07672649, 8.812788963317871, 0.2608453035354614, 4.60774040222168, -1.639835000038147, -11.929564476013184, 4.846937656402588, -0.771728515625, 0.577392578125, -0.322265625, 0, 
435, 1176504586, 0.84719825, -0.047435418, -0.5236597, -0.07606375, 8.90732479095459, 0.27199938893318176, 4.547609329223633, -1.6503103971481323, -11.843324661254883, 4.82722806930542, -0.776611328125, 0.580810546875, -0.318115234375, 0, 
436, 1176521253, 0.8463777, -0.04779184, -0.5250434, -0.07543401, 8.93422794342041, 0.2652839720249176, 4.548348426818848, -1.6558042764663696, -10.943805694580078, 4.466844081878662, -0.77880859375, 0.580322265625, -0.314208984375, 0, 
437, 1176537920, 0.8455928, -0.048079282, -0.5263644, -0.074846074, 8.921130180358887, 0.3006545901298523, 4.477385520935059, -1.2186591625213623, -10.403005599975586, 4.12129020690918, -0.779052734375, 0.58349609375, -0.311279296875, 0, 
438, 1176554587, 0.84482694, -0.048118684, -0.52767867, -0.074211895, 8.907347679138184, 0.2527947723865509, 4.459550380706787, 0.6856521964073181, -10.185053825378418, 3.6365950107574463, -0.7763671875, 0.5791015625, -0.3125, 0, 
439, 1176571254, 0.8440138, -0.04785328, -0.5291087, -0.073448546, 8.861763000488281, 0.1457151621580124, 4.487912178039551, 2.354205369949341, -10.9159517288208, 2.9507639408111572, -0.77978515625, 0.584716796875, -0.310791015625, 0, 
440, 1176587921, 0.8431623, -0.047572702, -0.5305752, -0.07283134, 8.798415184020996, 0.15472978353500366, 4.408076763153076, 1.8339728116989136, -11.213175773620605, 1.9905303716659546, -0.778564453125, 0.581298828125, -0.30859375, 0, 
441, 1176604588, 0.8422748, -0.047328334, -0.53206503, -0.07239096, 8.831879615783691, 0.27091604471206665, 4.303556442260742, 0.8842148184776306, -11.444546699523926, 1.0409389734268188, -0.780029296875, 0.58349609375, -0.307373046875, 0, 
442, 1176621255, 0.8413699, -0.047054477, -0.53356445, -0.07205277, 8.843483924865723, 0.2795508801937103, 4.245758056640625, 0.8339306712150574, -11.51895809173584, 0.3997311592102051, -0.78125, 0.58154296875, -0.30419921875, 0, 
443, 1176637922, 0.84044015, -0.046886224, -0.53506553, -0.07188157, 8.929728507995605, 0.2590219974517822, 4.23518180847168, -0.37873518466949463, -11.621474266052246, -0.16979946196079254, -0.783935546875, 0.580322265625, -0.299560546875, 0, 
444, 1176654589, 0.8394873, -0.04689369, -0.5365538, -0.07191623, 8.996055603027344, 0.26875147223472595, 4.233303546905518, -1.6250368356704712, -11.65872573852539, -0.4862060546875, -0.784423828125, 0.58203125, -0.299072265625, 0, 
445, 1176671256, 0.83856547, -0.047144417, -0.5379484, -0.07209134, 9.045757293701172, 0.26052775979042053, 4.151445388793945, -3.6201577186584473, -11.081550598144531, -0.370071679353714, -0.78369140625, 0.580322265625, -0.29638671875, 0, 
446, 1176687923, 0.837743, -0.04759444, -0.5391573, -0.07232557, 9.07789134979248, 0.3095177412033081, 4.036557197570801, -5.923482894897461, -9.718914985656738, -0.19726267457008362, -0.786376953125, 0.58251953125, -0.29248046875, 0, 
447, 1176704590, 0.8369027, -0.048077874, -0.5403847, -0.07257467, 9.028690338134766, 0.2651172876358032, 3.984210968017578, -5.560967922210693, -9.906497955322266, 0.07480833679437637, -0.783447265625, 0.58349609375, -0.2880859375, 0, 
448, 1176721257, 0.8360679, -0.04870808, -0.5415955, -0.07275119, 9.032964706420898, 0.1426999270915985, 3.9041035175323486, -6.063348770141602, -9.888453483581543, 1.082105040550232, -0.787841796875, 0.58251953125, -0.287841796875, 0, 
449, 1176737924, 0.83528, -0.049345933, -0.5427391, -0.07284722, 9.10400390625, 0.12802214920520782, 3.815950393676758, -5.9682159423828125, -9.354970932006836, 1.5699694156646729, -0.789306640625, 0.583251953125, -0.283447265625, 0, 
450, 1176754591, 0.8346159, -0.05000574, -0.5436812, -0.07298412, 9.144832611083984, 0.07316286861896515, 3.7768521308898926, -5.995211124420166, -7.733531951904297, 1.6737775802612305, -0.788818359375, 0.58203125, -0.282958984375, 0, 
451, 1176771258, 0.83402807, -0.05048483, -0.5445303, -0.07304364, 9.136146545410156, 0.10344333946704865, 3.7298502922058105, -5.383002758026123, -6.84057092666626, 1.2525508403778076, -0.789306640625, 0.583740234375, -0.278564453125, 0, 
452, 1176787925, 0.8334858, -0.050969858, -0.5452956, -0.07318809, 9.180441856384277, 0.11439729481935501, 3.713870048522949, -5.167932987213135, -6.165956974029541, 1.0681649446487427, -0.7880859375, 0.583740234375, -0.27685546875, 0, 
453, 1176804592, 0.8330443, -0.05143143, -0.54590267, -0.0733652, 9.18867015838623, 0.11098214983940125, 3.676403760910034, -5.129424095153809, -4.854036808013916, 0.9261683225631714, -0.790771484375, 0.58544921875, -0.27783203125, 0, 
454, 1176821259, 0.8327095, -0.05186806, -0.546346, -0.07355915, 9.168368339538574, 0.14070388674736023, 3.5861010551452637, -5.177967071533203, -3.4923818111419678, 0.8176279067993164, -0.791259765625, 0.58642578125, -0.272216796875, 0, 
455, 1176837926, 0.8324473, -0.052204207, -0.5466872, -0.07375304, 9.164949417114258, 0.14560836553573608, 3.634120464324951, -4.4112629890441895, -2.583348035812378, 0.6002912521362305, -0.791259765625, 0.58544921875, -0.270751953125, 0, 
456, 1176854593, 0.83225673, -0.0524826, -0.5469273, -0.07392524, 9.19949722290039, 0.1030101478099823, 3.6714093685150146, -3.585644006729126, -1.7156604528427124, 0.7419615983963013, -0.78955078125, 0.58642578125, -0.274169921875, 0, 
457, 1176871260, 0.8321175, -0.052500486, -0.5471473, -0.07385168, 9.19869613647461, 0.08514238893985748, 3.663494825363159, -2.1221466064453125, -1.3494372367858887, 0.8500983715057373, -0.791259765625, 0.58642578125, -0.271240234375, 0, 
458, 1176887927, 0.8320029, -0.052428514, -0.5473382, -0.07378006, 9.190966606140137, 0.09282061457633972, 3.67733097076416, -1.095038890838623, -1.0474120378494263, 0.7168353796005249, -0.78857421875, 0.587890625, -0.27197265625, 0, 
459, 1176904594, 0.8319313, -0.05224599, -0.5474809, -0.07365862, 9.186976432800293, 0.08326451480388641, 3.6604316234588623, -0.7963051795959473, -0.563011884689331, 0.4392833709716797, -0.790771484375, 0.58642578125, -0.2724609375, 0, 
460, 1176921261, 0.8318264, -0.052161697, -0.54765034, -0.07364248, 9.16085433959961, 0.09847892820835114, 3.7118935585021973, -1.1626436710357666, -0.8568151593208313, 0.3925530016422272, -0.791259765625, 0.585205078125, -0.26904296875, 0, 
461, 1176937928, 0.831696, -0.052078795, -0.5478609, -0.07360914, 9.183500289916992, 0.15679527819156647, 3.731541633605957, -0.9260463714599609, -1.196478009223938, 0.5295810103416443, -0.790771484375, 0.5869140625, -0.271240234375, 0, 
462, 1176954595, 0.8315874, -0.0520061, -0.54804444, -0.073520705, 9.158856391906738, 0.14056885242462158, 3.729238271713257, -1.0714880228042603, -0.9796409010887146, 0.8010627627372742, -0.791748046875, 0.589599609375, -0.271240234375, 0, 
463, 1176971262, 0.8314887, -0.05183649, -0.54823315, -0.07334894, 9.15875244140625, 0.13172537088394165, 3.702932596206665, -0.2878035008907318, -0.949802041053772, 0.8828825354576111, -0.790771484375, 0.5859375, -0.270263671875, 0, 
464, 1176987929, 0.8313767, -0.051491693, -0.5484711, -0.073082484, 9.121403694152832, 0.1120205819606781, 3.725163221359253, 1.1618943214416504, -1.2268800735473633, 0.7643083930015564, -0.791748046875, 0.5869140625, -0.26953125, 0, 
465, 1177004596, 0.8312308, -0.051063128, -0.548781, -0.072714716, 9.131962776184082, 0.1034012883901596, 3.7696948051452637, 2.2732999324798584, -1.7621026039123535, 1.0654051303863525, -0.78955078125, 0.584716796875, -0.27197265625, 0, 
466, 1177021263, 0.83103615, -0.05069443, -0.54914516, -0.07244758, 9.150388717651367, 0.08054444193840027, 3.844541549682617, 1.7968783378601074, -2.252713918685913, 0.7575148344039917, -0.791748046875, 0.58642578125, -0.26953125, 0, 
467, 1177037930, 0.83075863, -0.050431952, -0.54960465, -0.07232825, 9.167192459106445, 0.10283118486404419, 3.80134654045105, 0.6826040744781494, -3.1139345169067383, 0.2492755949497223, -0.791259765625, 0.58251953125, -0.2685546875, 0, 
468, 1177054597, 0.830465, -0.050194517, -0.55008245, -0.07223431, 9.232532501220703, 0.1386546492576599, 3.684741258621216, 0.4286796748638153, -3.283336639404297, 0.17528051137924194, -0.79296875, 0.584716796875, -0.26953125, 0, 
469, 1177071264, 0.83019835, -0.04993392, -0.5505393, -0.07199882, 9.226482391357422, 0.13796770572662354, 3.6627063751220703, 0.743587851524353, -3.0949041843414307, 0.7932124733924866, -0.792724609375, 0.58544921875, -0.266357421875, 0, 
470, 1177087931, 0.82994026, -0.049877577, -0.55095303, -0.07184928, 9.191427230834961, 0.18987730145454407, 3.6902740001678467, -0.32442963123321533, -2.890258550643921, 1.248657464981079, -0.792724609375, 0.58642578125, -0.26904296875, 0, 
471, 1177104598, 0.8296787, -0.04988096, -0.55136794, -0.07168413, 9.212061882019043, 0.25471141934394836, 3.730374336242676, -0.9872477054595947, -2.9394092559814453, 1.432044267654419, -0.79443359375, 0.584228515625, -0.26904296875, 0, 
472, 1177121265, 0.8294348, -0.049962826, -0.55174786, -0.07152665, 9.300163269042969, 0.21291761100292206, 3.6875548362731934, -1.4110355377197266, -2.709906816482544, 1.729868769645691, -0.794921875, 0.587646484375, -0.267333984375, 0, 
473, 1177137932, 0.8292638, -0.049998224, -0.5520294, -0.07131308, 9.346223831176758, 0.18431514501571655, 3.6409404277801514, -0.958484947681427, -1.8674795627593994, 1.9425439834594727, -0.79443359375, 0.58544921875, -0.265625, 0, 
474, 1177154599, 0.8291387, -0.050027072, -0.55223364, -0.071166314, 9.310896873474121, 0.17333784699440002, 3.658515691757202, -0.8775359988212585, -1.2273030281066895, 1.6954197883605957, -0.792236328125, 0.5859375, -0.265625, 0, 
475, 1177171266, 0.82908344, -0.0499545, -0.55233717, -0.071056195, 9.307878494262695, 0.20777836441993713, 3.6668052673339844, -0.8668555021286011, -0.319588840007782, 1.0318716764450073, -0.792236328125, 0.5859375, -0.265625, 0, 
476, 1177187933, 0.8290636, -0.049847487, -0.55238205, -0.07101357, 9.278340339660645, 0.1893240362405777, 3.667672872543335, -0.5899757146835327, 0.18633878231048584, 0.6776671409606934, -0.792236328125, 0.585205078125, -0.265625, 0, 
477, 1177204600, 0.8290679, -0.04962974, -0.5524017, -0.07096391, 9.246214866638184, 0.20242762565612793, 3.642709970474243, -0.10784226655960083, 0.47604402899742126, 0.25796470046043396, -0.792724609375, 0.58544921875, -0.266357421875, 0, 
478, 1177221267, 0.8291274, -0.049410302, -0.55233544, -0.070937574, 9.277711868286133, 0.15245321393013, 3.65934157371521, -0.20599013566970825, 1.185579776763916, 0.17505638301372528, -0.791748046875, 0.58642578125, -0.267822265625, 0, 
479, 1177237934, 0.82920873, -0.0492051, -0.5522317, -0.07093711, 9.245678901672363, 0.14572730660438538, 3.7188122272491455, -0.5461075901985168, 1.4859718084335327, 0.05481117591261864, -0.79052734375, 0.5859375, -0.267333984375, 0, 
480, 1177254601, 0.8292979, -0.049008388, -0.5521068, -0.07100147, 9.22972297668457, 0.14940635859966278, 3.7240445613861084, -0.794089674949646, 1.6537350416183472, -0.254916787147522, -0.792724609375, 0.58544921875, -0.267822265625, 0, 
481, 1177271268, 0.8294343, -0.048864976, -0.55190545, -0.071073554, 9.258790969848633, 0.1633729636669159, 3.7160379886627197, -0.929548978805542, 2.2429232597351074, 0.026156971231102943, -0.790771484375, 0.58154296875, -0.269775390625, 0, 
482, 1177287935, 0.8296462, -0.048658308, -0.5516145, -0.07100211, 9.307636260986328, 0.13064585626125336, 3.747810125350952, -0.27527251839637756, 3.0252761840820312, 0.5923641920089722, -0.79296875, 0.582763671875, -0.267822265625, 0, 
483, 1177304602, 0.82988757, -0.04845905, -0.5512864, -0.07086407, 9.258564949035645, 0.11500344425439835, 3.794938325881958, 0.23824933171272278, 3.3195083141326904, 1.1267025470733643, -0.7939453125, 0.583740234375, -0.267333984375, 0, 
484, 1177321269, 0.8301436, -0.04828527, -0.5509294, -0.0707613, 9.221083641052246, 0.10606768727302551, 3.7391421794891357, 0.04726824164390564, 3.537139654159546, 1.067473292350769, -0.790771484375, 0.584716796875, -0.270263671875, 0, 
485, 1177337936, 0.83040017, -0.048070166, -0.55057704, -0.07063855, 9.205391883850098, 0.10405691713094711, 3.747328281402588, 0.07176678627729416, 3.530390739440918, 0.9243623614311218, -0.79345703125, 0.58544921875, -0.268310546875, 0, 
486, 1177354603, 0.83063763, -0.0478989, -0.55024016, -0.070588075, 9.17128849029541, 0.12830348312854767, 3.760789632797241, -0.10629910230636597, 3.3675191402435303, 0.7753220200538635, -0.790771484375, 0.5869140625, -0.271728515625, 0, 
487, 1177371270, 0.83087003, -0.047694746, -0.54992086, -0.070478424, 9.148530006408691, 0.141767680644989, 3.7752768993377686, -0.11080694943666458, 3.2493679523468018, 0.8359217047691345, -0.79248046875, 0.58544921875, -0.2734375, 0, 
488, 1177387937, 0.8310765, -0.04755977, -0.54963005, -0.070403844, 9.121487617492676, 0.1637669950723648, 3.763587474822998, -0.6105619668960571, 2.9655921459198, 0.8800651431083679, -0.790771484375, 0.58642578125, -0.2734375, 0, 
489, 1177404604, 0.83128136, -0.047659706, -0.54930043, -0.070489615, 9.144950866699219, 0.13975204527378082, 3.853501558303833, -2.2163634300231934, 3.116387128829956, 0.9907505512237549, -0.791259765625, 0.58642578125, -0.2744140625, 0, 
490, 1177421271, 0.83146334, -0.04772203, -0.5490172, -0.070509866, 9.09047794342041, 0.1768975555896759, 3.7076632976531982, -2.288693428039551, 2.765044689178467, 0.9991258382797241, -0.78955078125, 0.5869140625, -0.27197265625, 0, 
491, 1177437938, 0.8315464, -0.04783893, -0.5488778, -0.0705363, 9.13721752166748, 0.10422193259000778, 3.8660311698913574, -2.1496291160583496, 1.54096257686615, 1.2239540815353394, -0.78955078125, 0.5869140625, -0.274658203125, 0, 
492, 1177454605, 0.83163464, -0.048070543, -0.54871106, -0.07063647, 9.08934497833252, 0.12800005078315735, 3.7676424980163574, -3.2367093563079834, 1.6862891912460327, 1.201440691947937, -0.791748046875, 0.588134765625, -0.27294921875, 0, 
493, 1177471272, 0.83168185, -0.04840807, -0.5485805, -0.070861906, 9.065220832824707, 0.14750966429710388, 3.795970916748047, -4.002912998199463, 1.3112934827804565, 0.9560837149620056, -0.789794921875, 0.58642578125, -0.275634765625, 0, 
494, 1177487939, 0.83169454, -0.048576564, -0.54853076, -0.07098268, 9.06704044342041, 0.14094555377960205, 3.8130109310150146, -3.298236846923828, 0.7724214196205139, 0.6333956122398376, -0.790771484375, 0.58740234375, -0.2724609375, 0, 
495, 1177504606, 0.8316532, -0.04880648, -0.548547, -0.07118331, 9.126042366027832, 0.16515152156352997, 3.8423662185668945, -3.4556782245635986, 0.18115220963954926, 0.5243366956710815, -0.790283203125, 0.5869140625, -0.275634765625, 0, 
496, 1177521273, 0.8315978, -0.048947077, -0.54860044, -0.071322665, 9.103989601135254, 0.18364205956459045, 3.822026014328003, -3.2431700229644775, -0.0552850142121315, 0.3325745165348053, -0.790771484375, 0.58740234375, -0.271240234375, 0, 
497, 1177537940, 0.83150005, -0.049042206, -0.5487079, -0.07157098, 9.087231636047363, 0.17061981558799744, 3.8261590003967285, -2.8078370094299316, -0.47309860587120056, -0.30477192997932434, -0.79052734375, 0.585205078125, -0.26904296875, 0, 
498, 1177554607, 0.8313649, -0.04912887, -0.5488702, -0.0718367, 9.123757362365723, 0.1277792602777481, 3.8340046405792236, -2.615485668182373, -0.921167254447937, -0.4066464304924011, -0.791259765625, 0.58740234375, -0.272216796875, 0, 
499, 1177571274, 0.8312354, -0.0491985, -0.5490226, -0.07212283, 9.1173734664917, 0.09333070367574692, 3.8729910850524902, -2.9045445919036865, -0.8254590034484863, -0.6826041340827942, -0.78955078125, 0.584716796875, -0.270751953125, 0, 
500, 1177587941, 0.8311023, -0.04927996, -0.54917353, -0.072449625, 9.123515129089355, 0.09706760942935944, 3.8095781803131104, -3.184279441833496, -0.8243639469146729, -0.8950549364089966, -0.792236328125, 0.58740234375, -0.267822265625, 0, 
501, 1177604608, 0.830969, -0.049383163, -0.5493231, -0.07277643, 9.169120788574219, 0.0952717736363411, 3.8040316104888916, -3.2445077896118164, -0.8304469585418701, -0.797752320766449, -0.791015625, 0.5859375, -0.267333984375, 0, 
502, 1177621275, 0.830841, -0.04947989, -0.5494637, -0.07310968, 9.199006080627441, 0.09924249351024628, 3.839668035507202, -3.0808167457580566, -0.75547856092453, -0.7982773184776306, -0.792236328125, 0.584716796875, -0.26904296875, 0, 
