sep=,
DeviceTag:,Xsens_2,,,,,,,,,,,,,,,,,
FirmwareVersion:,2.2.1,,,,,,,,,,,,,,,,,
AppVersion:,2023.0.0,,,,,,,,,,,,,,,,,
StartTime:,2023-07-03 16:03:54.000 +0200,,,,,,,,,,,,,,,,,
© Movella Technologies B. V. 2005-2023,,,,,,,,,,,,,,,,,,,

PacketCounter,SampleTimeFine,Quat_W,Quat_X,Quat_Y,Quat_Z,Acc_X,Acc_Y,Acc_Z,Gyr_X,Gyr_Y,Gyr_Z,Mag_X,Mag_Y,Mag_Z,Status,
0, 1169067400, 0.5886729, 0.28532934, -0.7083264, 0.26518914, 0.0, 0.0, 0.0, 0.0, 0.0, 0.0, -0.65966796875, 0.54248046875, -0.48095703125, 0, 
1, 1169084067, 0.58897996, 0.2865481, -0.7079637, 0.26415977, 9.820388793945312, -0.2889922559261322, -1.8097025156021118, 3.079575777053833, 8.63288402557373, -3.519134521484375, -0.660888671875, 0.540283203125, -0.4833984375, 0, 
2, 1169100734, 0.5892535, 0.2877869, -0.707613, 0.2631405, 9.814828872680664, -0.28960686922073364, -1.8269683122634888, 1.4143145084381104, 9.219070434570312, -4.139960765838623, -0.65673828125, 0.541259765625, -0.486083984375, 0, 
3, 1169117401, 0.5896661, 0.28863192, -0.70728236, 0.26217788, 9.771150588989258, -0.237637460231781, -1.8513518571853638, 0.2236950397491455, 9.566431045532227, -4.7639007568359375, -0.65625, 0.54052734375, -0.4853515625, 0, 
4, 1169134068, 0.59026223, 0.28935, -0.7068633, 0.26117346, 9.783245086669922, -0.24876682460308075, -1.8807647228240967, -0.1767917424440384, 10.132389068603516, -5.740845680236816, -0.656494140625, 0.53955078125, -0.486572265625, 0, 
5, 1169150735, 0.5910197, 0.28995532, -0.7063108, 0.2602818, 9.825870513916016, -0.27214184403419495, -1.8713897466659546, -0.730410635471344, 11.233551979064941, -6.525722980499268, -0.655029296875, 0.5400390625, -0.49267578125, 0, 
6, 1169167402, 0.5918921, 0.2905388, -0.70556486, 0.25967166, 9.839482307434082, -0.2953399419784546, -1.8356162309646606, -0.8635583519935608, 12.208664894104004, -6.975764274597168, -0.65625, 0.537109375, -0.4931640625, 0, 
7, 1169184069, 0.59287584, 0.2910157, -0.7046875, 0.2592756, 9.784303665161133, -0.2542053461074829, -1.7696125507354736, -0.9053199291229248, 12.793648719787598, -7.089126110076904, -0.651611328125, 0.536865234375, -0.49609375, 0, 
8, 1169200736, 0.59389186, 0.29125875, -0.7038302, 0.25900605, 9.649861335754395, -0.2588290870189667, -1.712921142578125, -1.1785370111465454, 12.403724670410156, -5.905529975891113, -0.65234375, 0.535400390625, -0.498779296875, 0, 
9, 1169217403, 0.5949987, 0.29114547, -0.70307016, 0.2586564, 9.670494079589844, -0.2473801225423813, -1.7478541135787964, -3.9873363971710205, 12.07662582397461, -4.7506208419799805, -0.65234375, 0.53466796875, -0.49755859375, 0, 
10, 1169234070, 0.5962897, 0.2905824, -0.70249265, 0.25788492, 9.742088317871094, -0.21014507114887238, -1.7297755479812622, -8.110754013061523, 11.834453582763672, -4.534911632537842, -0.650634765625, 0.533935546875, -0.502685546875, 0, 
11, 1169250737, 0.5977704, 0.28977478, -0.701974, 0.25677556, 9.859292030334473, -0.07643184810876846, -1.7043161392211914, -12.349855422973633, 11.957756996154785, -4.762289524078369, -0.651123046875, 0.536376953125, -0.50146484375, 0, 
12, 1169267404, 0.5996242, 0.28856003, -0.70154047, 0.25499997, 9.807302474975586, 0.08561950922012329, -1.6156787872314453, -17.4429931640625, 12.437374114990234, -5.671941757202148, -0.65380859375, 0.53369140625, -0.5048828125, 0, 
13, 1169284071, 0.60176104, 0.2870213, -0.7012484, 0.25249383, 9.624999046325684, 0.013791102916002274, -1.619367003440857, -24.4940128326416, 11.900452613830566, -6.393214702606201, -0.654052734375, 0.533935546875, -0.50146484375, 0, 
14, 1169300738, 0.6039825, 0.28524607, -0.70114404, 0.24947362, 9.58509349822998, -0.0875871479511261, -1.7277052402496338, -28.414106369018555, 10.725079536437988, -6.962182998657227, -0.651611328125, 0.53515625, -0.500732421875, 0, 
15, 1169317405, 0.6060707, 0.28365663, -0.70096815, 0.24670036, 9.641044616699219, -0.23834456503391266, -1.7389999628067017, -26.613187789916992, 10.685791015625, -6.849048137664795, -0.656005859375, 0.53466796875, -0.4970703125, 0, 
16, 1169334072, 0.60792357, 0.28257775, -0.7005357, 0.24459875, 9.67123031616211, -0.3800031840801239, -1.5755890607833862, -19.984975814819336, 11.17364501953125, -7.174387454986572, -0.6572265625, 0.534423828125, -0.496337890625, 0, 
17, 1169350739, 0.60942733, 0.28231815, -0.6997004, 0.24354495, 9.668656349182129, -0.4740365147590637, -1.4556934833526611, -10.627782821655273, 11.626709938049316, -7.540756702423096, -0.654052734375, 0.53564453125, -0.496826171875, 0, 
18, 1169367406, 0.6106765, 0.28260052, -0.69854903, 0.2433938, 9.671366691589355, -0.6098768711090088, -1.3275866508483887, -2.763766050338745, 12.2461576461792, -7.259425640106201, -0.654296875, 0.532470703125, -0.499755859375, 0, 
19, 1169384073, 0.61178094, 0.2832042, -0.69714814, 0.24393474, 9.658912658691406, -0.6380481123924255, -1.199718713760376, 2.1894524097442627, 12.999493598937988, -6.7889018058776855, -0.65478515625, 0.530517578125, -0.501708984375, 0, 
20, 1169400740, 0.6128412, 0.28384033, -0.6956495, 0.24481086, 9.639826774597168, -0.5457937121391296, -1.18388831615448, 4.276101589202881, 13.360230445861816, -6.230435848236084, -0.652587890625, 0.5322265625, -0.504638671875, 0, 
21, 1169417407, 0.61392725, 0.28419307, -0.69431466, 0.24546863, 9.60495376586914, -0.391475111246109, -1.1898077726364136, 2.4026455879211426, 12.529337882995605, -5.920225620269775, -0.65283203125, 0.531005859375, -0.5078125, 0, 
22, 1169434074, 0.6150749, 0.2841231, -0.69327873, 0.24560489, 9.599906921386719, -0.32677534222602844, -1.137330412864685, -2.452712059020996, 11.052162170410156, -5.692720890045166, -0.652099609375, 0.52734375, -0.509765625, 0, 
23, 1169450741, 0.61633945, 0.2836435, -0.692521, 0.24512637, 9.670207977294922, -0.4233158528804779, -1.0124677419662476, -8.40796184539795, 9.737088203430176, -5.896430492401123, -0.650390625, 0.52880859375, -0.511474609375, 0, 
24, 1169467408, 0.61779284, 0.28273365, -0.69192016, 0.2442138, 9.820965766906738, -0.49934375286102295, -0.8450672626495361, -12.346487045288086, 9.622336387634277, -5.827765941619873, -0.654052734375, 0.52587890625, -0.512939453125, 0, 
25, 1169484075, 0.61934453, 0.28178334, -0.6912206, 0.24336144, 10.069119453430176, -0.45617759227752686, -0.6849644184112549, -12.968619346618652, 10.372807502746582, -5.756037712097168, -0.652587890625, 0.527587890625, -0.51611328125, 0, 
26, 1169500742, 0.6208672, 0.28107768, -0.69032526, 0.24283831, 10.369873046875, -0.32838594913482666, -0.4605655074119568, -10.719104766845703, 10.917577743530273, -5.8161115646362305, -0.6513671875, 0.52587890625, -0.51123046875, 0, 
27, 1169517409, 0.62237525, 0.28035867, -0.68943167, 0.24234724, 10.573530197143555, -0.13287554681301117, -0.31747299432754517, -8.6915283203125, 10.499626159667969, -5.752200126647949, -0.653564453125, 0.527587890625, -0.513916015625, 0, 
28, 1169534076, 0.62370217, 0.27988496, -0.6885192, 0.24207716, 10.664952278137207, 0.06553180515766144, -0.19226627051830292, -7.130823612213135, 9.277199745178223, -5.437143325805664, -0.654296875, 0.525390625, -0.513916015625, 0, 
29, 1169550743, 0.6248919, 0.27945676, -0.687672, 0.24191178, 10.693644523620605, 0.2402881383895874, -0.17261774837970734, -6.288560390472412, 8.046404838562012, -4.592832565307617, -0.65185546875, 0.525146484375, -0.514892578125, 0, 
30, 1169567410, 0.62601125, 0.27884713, -0.6869797, 0.241688, 10.635810852050781, 0.4040772616863251, -0.14834491908550262, -6.634856224060059, 6.911249160766602, -3.3432774543762207, -0.650634765625, 0.5244140625, -0.51611328125, 0, 
31, 1169584077, 0.6271624, 0.27819827, -0.68632925, 0.24129938, 10.356250762939453, 0.4908106327056885, -0.1955636739730835, -8.910597801208496, 6.337115287780762, -3.3738598823547363, -0.653564453125, 0.526611328125, -0.513916015625, 0, 
32, 1169600744, 0.62853277, 0.27718514, -0.6859262, 0.24004291, 9.967235565185547, 0.43401116132736206, -0.22486646473407745, -14.519877433776855, 5.092225551605225, -5.0390472412109375, -0.65283203125, 0.5234375, -0.515869140625, 0, 
33, 1169617411, 0.6302921, 0.27591467, -0.6855663, 0.23791136, 9.76222038269043, 0.41296958923339844, -0.044246770441532135, -21.613473892211914, 5.377723217010498, -7.817113399505615, -0.654541015625, 0.52490234375, -0.5107421875, 0, 
34, 1169634078, 0.63281846, 0.2740365, -0.68515474, 0.23453759, 9.653121948242188, 0.6659568548202515, 0.25643643736839294, -30.097341537475586, 7.747186660766602, -11.621460914611816, -0.658935546875, 0.52099609375, -0.511962890625, 0, 
35, 1169650745, 0.63625765, 0.2714458, -0.68475163, 0.22936636, 9.4784517288208, 1.105330228805542, 0.5268331170082092, -43.236175537109375, 9.557295799255371, -17.309406280517578, -0.660400390625, 0.521728515625, -0.504638671875, 0, 
36, 1169667412, 0.64030266, 0.26797733, -0.68462425, 0.2224646, 9.418864250183105, 1.0162293910980225, 0.2666569650173187, -57.50985336303711, 9.06163215637207, -20.7778377532959, -0.66552734375, 0.51904296875, -0.50146484375, 0, 
37, 1169684079, 0.6442412, 0.26551318, -0.68384176, 0.21637163, 9.433572769165039, 0.4651852548122406, -0.3095952272415161, -48.131370544433594, 11.266509056091309, -22.74924087524414, -0.672607421875, 0.51513671875, -0.50048828125, 0, 
38, 1169700746, 0.64772177, 0.26536146, -0.68170536, 0.21287975, 9.581502914428711, -0.32585516571998596, -0.49366384744644165, -22.871274948120117, 16.513500213623047, -23.882097244262695, -0.6748046875, 0.512451171875, -0.499267578125, 0, 
39, 1169717413, 0.6509354, 0.266927, -0.6785171, 0.21129994, 9.828408241271973, -0.6324518918991089, -0.34802135825157166, -4.069079399108887, 21.092082977294922, -25.222368240356445, -0.677490234375, 0.505615234375, -0.504638671875, 0, 
40, 1169734080, 0.65428776, 0.26913708, -0.6746861, 0.21040818, 10.114360809326172, 0.04120904207229614, -0.12393082678318024, 2.674125909805298, 25.051456451416016, -26.874853134155273, -0.674560546875, 0.50048828125, -0.514404296875, 0, 
41, 1169750747, 0.6574004, 0.2718358, -0.67074484, 0.20983672, 10.205002784729004, 0.7579234838485718, -0.26005613803863525, 6.963954925537109, 24.367652893066406, -27.68697738647461, -0.67236328125, 0.494384765625, -0.521728515625, 0, 
42, 1169767414, 0.6597322, 0.27457604, -0.6675511, 0.20913404, 10.193324089050293, 1.0698418617248535, -0.5847125053405762, 6.962791919708252, 17.186752319335938, -25.882274627685547, -0.67333984375, 0.488525390625, -0.530517578125, 0, 
43, 1169784081, 0.6617909, 0.27522457, -0.66617197, 0.20615393, 10.207398414611816, 1.291416883468628, -0.3180449306964874, -15.070721626281738, 6.608639240264893, -22.67533302307129, -0.677734375, 0.48486328125, -0.536865234375, 0, 
44, 1169800748, 0.66471124, 0.27217138, -0.6667572, 0.19878806, 9.908132553100586, 1.8559213876724243, 0.26628434658050537, -56.285491943359375, -1.298952341079712, -23.05699348449707, -0.682861328125, 0.48095703125, -0.528076171875, 0, 
45, 1169817415, 0.66835177, 0.26661167, -0.66841227, 0.1882802, 9.28161907196045, 2.0069687366485596, 0.3522268533706665, -84.7699966430664, -5.34568452835083, -24.69415283203125, -0.69140625, 0.474853515625, -0.519287109375, 0, 
46, 1169834082, 0.67193186, 0.26068392, -0.67023665, 0.17701586, 8.988808631896973, 1.5630031824111938, 0.1410183310508728, -89.77667999267578, -7.320374965667725, -25.88092613220215, -0.705078125, 0.473876953125, -0.506591796875, 0, 
47, 1169850749, 0.6754477, 0.25474575, -0.6718588, 0.16577314, 9.187261581420898, 1.6419382095336914, 0.05472135543823242, -89.11193084716797, -6.580987453460693, -25.94266700744629, -0.711181640625, 0.47119140625, -0.495849609375, 0, 
48, 1169867416, 0.67883915, 0.2496391, -0.67278683, 0.15561494, 9.30555248260498, 1.6865688562393188, -0.35637548565864563, -79.06926727294922, -2.921353340148926, -25.754314422607422, -0.72265625, 0.462646484375, -0.4873046875, 0, 
49, 1169884083, 0.681518, 0.24673708, -0.6728859, 0.1479146, 9.375228881835938, 1.4222437143325806, -1.3027263879776, -53.74352264404297, -0.15363968908786774, -25.120107650756836, -0.730712890625, 0.45849609375, -0.481201171875, 0, 
50, 1169900750, 0.68309075, 0.24610852, -0.67255044, 0.14315715, 10.0227689743042, 0.9051859974861145, -2.2072300910949707, -27.189403533935547, -0.23433157801628113, -21.45168685913086, -0.735107421875, 0.451904296875, -0.47705078125, 0, 
51, 1169917417, 0.68412745, 0.24667488, -0.6718308, 0.14058617, 10.687382698059082, 0.42430099844932556, -2.358579635620117, -10.245158195495605, 2.0825138092041016, -16.944564819335938, -0.73974609375, 0.44970703125, -0.47802734375, 0, 
52, 1169934084, 0.6848993, 0.24855101, -0.67055845, 0.13959613, 10.733724594116211, 0.4641559422016144, -2.340329647064209, 4.13374662399292, 5.324136257171631, -16.45518684387207, -0.739990234375, 0.445068359375, -0.4765625, 0, 
53, 1169950751, 0.6849179, 0.25200826, -0.6691092, 0.14025815, 10.701945304870605, 0.6554791331291199, -2.2395377159118652, 20.585763931274414, 4.399049758911133, -15.743997573852539, -0.740478515625, 0.440673828125, -0.48681640625, 0, 
54, 1169967418, 0.6845124, 0.25598967, -0.6676653, 0.14189899, 10.86007308959961, 0.8959699273109436, -2.091636896133423, 28.22831153869629, 3.9677734375, -13.288019180297852, -0.736083984375, 0.438232421875, -0.490234375, 0, 
55, 1169984085, 0.684082, 0.2601147, -0.6660351, 0.14411673, 10.599690437316895, 1.0339510440826416, -1.7467107772827148, 31.7250919342041, 5.902234077453613, -11.655070304870605, -0.739501953125, 0.43505859375, -0.493896484375, 0, 
56, 1170000752, 0.68352705, 0.26436707, -0.66429585, 0.14700982, 9.966232299804688, 0.8712921738624573, -1.5584341287612915, 35.70834732055664, 7.143116474151611, -9.223165512084961, -0.73779296875, 0.43115234375, -0.50244140625, 0, 
57, 1170017419, 0.6826079, 0.26938978, -0.6621862, 0.15160923, 9.500470161437988, 0.4035113751888275, -1.234169602394104, 48.128448486328125, 9.710939407348633, -5.12710428237915, -0.7333984375, 0.429931640625, -0.5107421875, 0, 
58, 1170034086, 0.6815524, 0.27543035, -0.6592764, 0.15804805, 9.236496925354004, 0.7524983882904053, -0.5870707631111145, 62.345619201660156, 15.291572570800781, -2.6270430088043213, -0.723876953125, 0.427978515625, -0.520751953125, 0, 
59, 1170050753, 0.68082327, 0.2812177, -0.655882, 0.16497086, 9.012382507324219, 1.7932440042495728, 0.12376347184181213, 63.262359619140625, 20.22782325744629, -0.576012909412384, -0.7216796875, 0.4248046875, -0.53466796875, 0, 
60, 1170067420, 0.6809175, 0.28573024, -0.6522766, 0.17101169, 9.041426658630371, 3.0584096908569336, 0.8533895611763, 50.47962188720703, 24.31285858154297, -0.19792431592941284, -0.716552734375, 0.427001953125, -0.546630859375, 0, 
61, 1170084087, 0.68201274, 0.2884809, -0.64882153, 0.17512305, 8.989289283752441, 3.538515329360962, 1.1608976125717163, 31.24239158630371, 26.156064987182617, -1.9601001739501953, -0.708251953125, 0.4248046875, -0.557373046875, 0, 
62, 1170100754, 0.6837836, 0.28984046, -0.6456322, 0.17773998, 9.012795448303223, 2.894517660140991, 1.1313081979751587, 16.352657318115234, 26.41861915588379, -2.7485463619232178, -0.700927734375, 0.42578125, -0.566650390625, 0, 
63, 1170117421, 0.686378, 0.29057166, -0.642001, 0.17968853, 9.517606735229492, 2.349067211151123, 1.316760778427124, 9.33310604095459, 31.40592384338379, -4.797968864440918, -0.696044921875, 0.42578125, -0.571533203125, 0, 
64, 1170134088, 0.6901228, 0.29134294, -0.6370837, 0.18158807, 9.945503234863281, 2.4414172172546387, 1.3221088647842407, 8.569957733154297, 42.214359283447266, -9.108205795288086, -0.68798828125, 0.426025390625, -0.58251953125, 0, 
65, 1170150755, 0.69433814, 0.29244068, -0.63139874, 0.18359977, 10.181544303894043, 2.4979541301727295, 0.7452362179756165, 10.558538436889648, 47.559165954589844, -12.055339813232422, -0.6806640625, 0.4248046875, -0.598388671875, 0, 
66, 1170167422, 0.6987521, 0.29312617, -0.6257067, 0.18523967, 10.63800048828125, 2.320256471633911, 0.30424928665161133, 6.560719013214111, 48.159324645996094, -12.240776062011719, -0.6748046875, 0.425048828125, -0.60791015625, 0, 
67, 1170184089, 0.703196, 0.29407045, -0.61959857, 0.18744478, 10.755380630493164, 1.6544603109359741, 0.3372715711593628, 10.646749496459961, 51.10083770751953, -11.494876861572266, -0.66748046875, 0.422119140625, -0.617919921875, 0, 
68, 1170200756, 0.7070814, 0.29582265, -0.6133698, 0.19053169, 10.368947982788086, 1.3994683027267456, 0.49321627616882324, 19.480188369750977, 50.05391311645508, -10.27299690246582, -0.655517578125, 0.422119140625, -0.6328125, 0, 
69, 1170217423, 0.7099521, 0.29854858, -0.60747415, 0.19445351, 9.94497299194336, 1.5357856750488281, 0.47068241238594055, 29.291017532348633, 44.58557891845703, -8.409132957458496, -0.641845703125, 0.419921875, -0.6474609375, 0, 
70, 1170234090, 0.7120975, 0.30086508, -0.60270643, 0.19784488, 9.529633522033691, 2.206040859222412, 0.6143873333930969, 25.06257438659668, 35.54268264770508, -6.064321994781494, -0.634033203125, 0.419677734375, -0.65966796875, 0, 
71, 1170250757, 0.71403515, 0.30093464, -0.599943, 0.19915023, 9.303889274597168, 2.546248435974121, 0.7983301281929016, 3.0397796630859375, 23.62330436706543, -2.5185153484344482, -0.629150390625, 0.41650390625, -0.66455078125, 0, 
72, 1170267424, 0.71580803, 0.29969367, -0.5983605, 0.19941732, 9.306252479553223, 2.137824773788452, 0.8666865825653076, -8.870558738708496, 16.82400894165039, 0.5373742580413818, -0.626708984375, 0.41943359375, -0.669189453125, 0, 
73, 1170284091, 0.7172328, 0.2988958, -0.5968922, 0.19989543, 9.719803810119629, 1.8385862112045288, 0.9443691968917847, -5.321221351623535, 14.658856391906738, 0.48097488284111023, -0.62255859375, 0.421630859375, -0.6689453125, 0, 
74, 1170300758, 0.71828973, 0.299, -0.59520674, 0.20096783, 10.058961868286133, 1.637296438217163, 0.7778165936470032, 2.4755780696868896, 14.186776161193848, -0.2636573314666748, -0.62060546875, 0.4228515625, -0.67138671875, 0, 
75, 1170317425, 0.7190015, 0.29975358, -0.5934905, 0.20237058, 10.264141082763672, 1.7399487495422363, 0.7687757015228271, 7.799860000610352, 12.747840881347656, -0.9197143316268921, -0.6181640625, 0.4208984375, -0.675537109375, 0, 
76, 1170334092, 0.7197274, 0.30029935, -0.59190536, 0.20362005, 10.326360702514648, 1.8396962881088257, 0.9096965789794922, 5.919642925262451, 12.172526359558105, -0.6154351830482483, -0.61572265625, 0.423583984375, -0.67724609375, 0, 
77, 1170350759, 0.72036195, 0.3011285, -0.59020126, 0.20509297, 10.233277320861816, 1.6491711139678955, 0.9694205522537231, 8.512600898742676, 12.469021797180176, -0.8150609135627747, -0.611572265625, 0.4228515625, -0.681884765625, 0, 
78, 1170367426, 0.7207774, 0.30225936, -0.5885017, 0.20684564, 10.060229301452637, 1.5542289018630981, 1.0057775974273682, 11.603992462158203, 11.739830017089844, -0.3761613070964813, -0.608642578125, 0.423583984375, -0.683349609375, 0, 
79, 1170384093, 0.72111785, 0.30307695, -0.5871502, 0.20829806, 9.797073364257812, 1.5832959413528442, 1.1948976516723633, 8.392280578613281, 9.532302856445312, 0.1737886518239975, -0.606201171875, 0.419921875, -0.68798828125, 0, 
80, 1170400760, 0.72158355, 0.30343682, -0.5859981, 0.20940305, 9.54185962677002, 1.6387183666229248, 1.5770825147628784, 4.2883100509643555, 9.006592750549316, 0.5121132731437683, -0.604736328125, 0.42138671875, -0.6904296875, 0, 
81, 1170417427, 0.72207993, 0.30334806, -0.5851115, 0.21029739, 9.382843971252441, 1.556004524230957, 1.617538332939148, 3.1290338039398193, 8.448626518249512, 2.0743281841278076, -0.603271484375, 0.424560546875, -0.6904296875, 0, 
82, 1170434094, 0.7222296, 0.303693, -0.58423907, 0.211707, 9.378325462341309, 1.3483766317367554, 1.4324772357940674, 8.067337989807129, 7.394172668457031, 3.3942220211029053, -0.6025390625, 0.425048828125, -0.693603515625, 0, 
83, 1170450761, 0.72242564, 0.30412382, -0.58321375, 0.21324094, 9.429988861083984, 1.2350364923477173, 1.292428731918335, 9.127462387084961, 8.45689582824707, 3.2366530895233154, -0.5986328125, 0.42333984375, -0.69580078125, 0, 
84, 1170467428, 0.7227654, 0.30419597, -0.5822949, 0.21449414, 9.48634147644043, 1.5078130960464478, 1.1544287204742432, 5.770268440246582, 8.44041919708252, 3.241755962371826, -0.597412109375, 0.423828125, -0.697021484375, 0, 
85, 1170484095, 0.7231747, 0.30401927, -0.58138806, 0.21582069, 9.622675895690918, 1.5562398433685303, 1.210424542427063, 4.6650543212890625, 9.193113327026367, 4.499762535095215, -0.5927734375, 0.427490234375, -0.69580078125, 0, 
86, 1170500762, 0.723399, 0.30445907, -0.58015656, 0.21775457, 9.686208724975586, 1.5694721937179565, 1.22915518283844, 11.028632164001465, 10.433161735534668, 4.627833843231201, -0.58740234375, 0.430419921875, -0.700927734375, 0, 
87, 1170517429, 0.72350764, 0.30519632, -0.57880193, 0.21995598, 9.721763610839844, 1.5354338884353638, 1.1193896532058716, 14.002298355102539, 10.711524963378906, 4.6668314933776855, -0.58935546875, 0.43115234375, -0.703857421875, 0, 
88, 1170534096, 0.7237083, 0.30596653, -0.57724553, 0.22230275, 9.727431297302246, 1.4106613397598267, 1.1895400285720825, 14.855058670043945, 12.35816478729248, 4.672754764556885, -0.58056640625, 0.4287109375, -0.706787109375, 0, 
89, 1170550763, 0.7238982, 0.3074768, -0.5749809, 0.22544786, 9.708776473999023, 1.1836497783660889, 1.3479108810424805, 22.813640594482422, 16.40572166442871, 4.202735424041748, -0.57861328125, 0.431396484375, -0.708984375, 0, 
90, 1170567430, 0.72407407, 0.30989283, -0.5719587, 0.22923067, 9.803139686584473, 1.5492416620254517, 1.3115530014038086, 31.053499221801758, 20.070846557617188, 2.164705991744995, -0.572509765625, 0.427490234375, -0.716796875, 0, 
91, 1170584097, 0.7242887, 0.3128559, -0.5683349, 0.23350133, 9.907024383544922, 2.041119337081909, 1.3306348323822021, 36.56297302246094, 23.407434463500977, 1.0786603689193726, -0.56396484375, 0.42822265625, -0.7275390625, 0, 
92, 1170600764, 0.7246557, 0.3150122, -0.5651933, 0.23706111, 9.880163192749023, 2.3832011222839355, 1.488896369934082, 28.661235809326172, 21.38172721862793, 1.5015383958816528, -0.5576171875, 0.42578125, -0.733642578125, 0, 
93, 1170617431, 0.72518826, 0.316012, -0.5629263, 0.23948379, 9.905009269714355, 2.1575686931610107, 1.6622107028961182, 16.690523147583008, 17.09662628173828, 1.9991265535354614, -0.554443359375, 0.42529296875, -0.739501953125, 0, 
94, 1170634098, 0.7257246, 0.3172238, -0.5604651, 0.24201629, 10.109158515930176, 1.66167414188385, 1.8234559297561646, 18.48184585571289, 17.964956283569336, 1.3227837085723877, -0.54736328125, 0.42724609375, -0.74365234375, 0, 
95, 1170650765, 0.7263151, 0.31909224, -0.5573507, 0.24496317, 10.13326358795166, 1.8366507291793823, 1.9046339988708496, 24.329105377197266, 21.235193252563477, -0.6752427816390991, -0.545166015625, 0.424072265625, -0.751708984375, 0, 
96, 1170667432, 0.72684723, 0.32142574, -0.55395025, 0.24802813, 9.962540626525879, 2.148939371109009, 1.95024836063385, 27.718503952026367, 21.902742385864258, -2.40214204788208, -0.53369140625, 0.42138671875, -0.759765625, 0, 
97, 1170684099, 0.72741926, 0.3231841, -0.5510903, 0.25042552, 9.820783615112305, 2.5182268619537354, 1.8974806070327759, 21.292701721191406, 18.845518112182617, -2.40299654006958, -0.5322265625, 0.4189453125, -0.761962890625, 0, 
98, 1170700766, 0.7280136, 0.32382596, -0.54943955, 0.251494, 9.72439193725586, 2.343820571899414, 1.8281456232070923, 8.535964012145996, 11.84442138671875, -2.122058391571045, -0.52685546875, 0.41748046875, -0.76611328125, 0, 
99, 1170717433, 0.7289761, 0.32291088, -0.5490265, 0.2507836, 9.658002853393555, 2.448685646057129, 1.8600902557373047, -8.942798614501953, 5.773425102233887, -2.991506814956665, -0.5263671875, 0.418701171875, -0.76708984375, 0, 
100, 1170734100, 0.7305653, 0.32007417, -0.54965806, 0.24840078, 9.746173858642578, 2.1085257530212402, 2.0639829635620117, -28.08708381652832, 2.5045318603515625, -2.8391175270080566, -0.52392578125, 0.424072265625, -0.7626953125, 0, 
101, 1170750767, 0.73209167, 0.3183925, -0.5491862, 0.24710928, 9.896674156188965, 1.4636523723602295, 2.177722930908203, -16.138530731201172, 8.225764274597168, -4.028754234313965, -0.525146484375, 0.422607421875, -0.766357421875, 0, 
102, 1170767434, 0.7334119, 0.3193906, -0.5465496, 0.24775012, 9.921168327331543, 1.5473235845565796, 2.1136255264282227, 8.78557300567627, 18.006366729736328, -8.846781730651855, -0.52197265625, 0.423583984375, -0.765380859375, 0, 
103, 1170784101, 0.73478454, 0.32140952, -0.54293096, 0.2490256, 9.657426834106445, 2.0025062561035156, 2.0644142627716064, 17.88265037536621, 22.800739288330078, -11.762019157409668, -0.517333984375, 0.41845703125, -0.774169921875, 0, 
104, 1170800768, 0.7364764, 0.32277557, -0.53943497, 0.24985692, 9.530499458312988, 2.4295880794525146, 2.1366050243377686, 12.01322078704834, 23.504688262939453, -11.84007453918457, -0.513916015625, 0.4169921875, -0.7822265625, 0, 
105, 1170817435, 0.73846084, 0.32317016, -0.5362953, 0.2502487, 9.537242889404297, 2.093257188796997, 2.44313907623291, 4.197662353515625, 23.47023582458496, -10.142146110534668, -0.5078125, 0.417236328125, -0.785888671875, 0, 
106, 1170834102, 0.7402509, 0.3252251, -0.5319112, 0.25165012, 9.807842254638672, 1.8907490968704224, 2.4584367275238037, 18.928987503051758, 28.434083938598633, -13.563812255859375, -0.504150390625, 0.41162109375, -0.791748046875, 0, 
107, 1170850769, 0.74176806, 0.32875943, -0.52648073, 0.2539986, 9.900723457336426, 2.0490481853485107, 2.252025842666626, 32.349300384521484, 32.30450439453125, -16.039812088012695, -0.4951171875, 0.407470703125, -0.803955078125, 0, 
108, 1170867436, 0.7432152, 0.33226657, -0.5211152, 0.25625998, 9.824602127075195, 2.6076877117156982, 2.3408541679382324, 31.944326400756836, 31.575756072998047, -16.127735137939453, -0.480712890625, 0.40087890625, -0.81298828125, 0, 
109, 1170884103, 0.74470323, 0.33500558, -0.51650316, 0.25770727, 9.558228492736816, 2.630718946456909, 2.380157232284546, 23.675537109375, 27.36836051940918, -15.863526344299316, -0.4775390625, 0.3984375, -0.822021484375, 0, 
110, 1170900770, 0.74650013, 0.33612713, -0.51318973, 0.2576675, 9.41364860534668, 2.747279405593872, 2.3765454292297363, 7.095484733581543, 21.259050369262695, -15.264784812927246, -0.47314453125, 0.39404296875, -0.82861328125, 0, 
111, 1170917437, 0.7482609, 0.33680233, -0.510512, 0.25699708, 9.406620979309082, 2.268617868423462, 2.176727056503296, 1.530259132385254, 17.20528793334961, -15.363619804382324, -0.471923828125, 0.39013671875, -0.83056640625, 0, 
112, 1170934104, 0.7498929, 0.337323, -0.50829154, 0.25595623, 9.402488708496094, 2.3004417419433594, 2.001694917678833, -1.0784820318222046, 13.839178085327148, -15.446293830871582, -0.468994140625, 0.38916015625, -0.833740234375, 0, 
113, 1170950771, 0.75121886, 0.33805615, -0.5063392, 0.25496915, 9.210211753845215, 2.2642903327941895, 2.0058605670928955, 0.4362679719924927, 11.17468547821045, -14.759603500366211, -0.466552734375, 0.385009765625, -0.83837890625, 0, 
114, 1170967438, 0.7522579, 0.33884373, -0.50491554, 0.25368026, 8.979164123535156, 2.557096481323242, 1.8992726802825928, -0.6002981662750244, 6.683915138244629, -14.784444808959961, -0.465087890625, 0.383056640625, -0.840087890625, 0, 
115, 1170984105, 0.7532762, 0.33853275, -0.5048081, 0.25127563, 8.897712707519531, 2.5697975158691406, 1.746462345123291, -12.416179656982422, -0.8394701480865479, -13.62602424621582, -0.469970703125, 0.382568359375, -0.84033203125, 0, 
116, 1171000772, 0.754271, 0.33722878, -0.5059777, 0.24766716, 9.026162147521973, 2.5970070362091064, 1.6479816436767578, -23.90343475341797, -8.572678565979004, -13.388007164001465, -0.47021484375, 0.380859375, -0.836669921875, 0, 
117, 1171017439, 0.7551167, 0.33496556, -0.50842893, 0.24309859, 9.171889305114746, 2.380075693130493, 1.6756255626678467, -34.07304382324219, -16.273788452148438, -11.791669845581055, -0.475341796875, 0.38134765625, -0.831787109375, 0, 
118, 1171034106, 0.7556416, 0.33308274, -0.51097894, 0.2386681, 9.32046127319336, 2.2106404304504395, 1.8586151599884033, -31.054651260375977, -18.16850471496582, -11.645801544189453, -0.487060546875, 0.38525390625, -0.82568359375, 0, 
119, 1171050773, 0.75588435, 0.3317835, -0.5132848, 0.23472884, 9.314905166625977, 2.113276720046997, 1.945815920829773, -25.257244110107422, -17.678930282592773, -11.258225440979004, -0.490966796875, 0.386474609375, -0.820068359375, 0, 
120, 1171067440, 0.75581837, 0.331219, -0.5152146, 0.23148803, 9.420234680175781, 2.006983757019043, 1.9933501482009888, -17.66779136657715, -16.37017250061035, -10.606980323791504, -0.498291015625, 0.383544921875, -0.814208984375, 0, 
121, 1171084107, 0.755568, 0.33108607, -0.5168573, 0.22881769, 9.515238761901855, 1.9850075244903564, 2.1051745414733887, -12.528874397277832, -14.885055541992188, -9.56852912902832, -0.505859375, 0.381591796875, -0.814453125, 0, 
122, 1171100774, 0.75513166, 0.33168608, -0.51792914, 0.22695816, 9.502809524536133, 2.0127227306365967, 2.2144508361816406, -4.517027854919434, -11.865458488464355, -9.00837230682373, -0.50830078125, 0.37890625, -0.812744140625, 0, 
123, 1171117441, 0.75437397, 0.33303455, -0.5186454, 0.22586489, 9.510408401489258, 2.217466115951538, 1.98264741897583, 3.3892409801483154, -10.568543434143066, -8.045511245727539, -0.51171875, 0.379638671875, -0.808349609375, 0, 
124, 1171134108, 0.7534329, 0.33444053, -0.5194181, 0.22515167, 9.58842945098877, 2.1569647789001465, 1.8542571067810059, 5.373617649078369, -10.709470748901367, -5.8943562507629395, -0.517333984375, 0.37939453125, -0.806884765625, 0, 
125, 1171150775, 0.7523033, 0.33589876, -0.52027756, 0.22477339, 9.619355201721191, 2.1462583541870117, 1.9107744693756104, 7.135650634765625, -11.108585357666016, -3.8895277976989746, -0.519287109375, 0.376220703125, -0.80615234375, 0, 
126, 1171167442, 0.7509206, 0.3377688, -0.5209586, 0.2250171, 9.70921516418457, 2.078030824661255, 1.9484260082244873, 12.349864959716797, -10.264612197875977, -2.2045958042144775, -0.52099609375, 0.37353515625, -0.805419921875, 0, 
127, 1171184109, 0.74931145, 0.34009433, -0.52134734, 0.22597566, 9.754009246826172, 2.231386184692383, 1.9704465866088867, 18.241880416870117, -8.588444709777832, -0.5192534327507019, -0.521728515625, 0.3701171875, -0.804443359375, 0, 
128, 1171200776, 0.7475165, 0.3426559, -0.5215895, 0.22748736, 9.744258880615234, 2.419039487838745, 2.004222869873047, 22.103225708007812, -7.5547051429748535, 1.393141508102417, -0.526123046875, 0.36767578125, -0.8076171875, 0, 
129, 1171217443, 0.7456618, 0.3450166, -0.52184635, 0.22940898, 9.794476509094238, 2.309175491333008, 2.022989273071289, 22.659324645996094, -6.552586555480957, 4.322426795959473, -0.523193359375, 0.36572265625, -0.806640625, 0, 
130, 1171234110, 0.7437467, 0.34763184, -0.5216511, 0.2321059, 9.863667488098145, 2.0709447860717773, 2.14249587059021, 27.60599136352539, -3.005479574203491, 6.373425006866455, -0.525634765625, 0.364990234375, -0.807373046875, 0, 
131, 1171250777, 0.7416444, 0.35106093, -0.52067316, 0.23583761, 9.778953552246094, 2.1586759090423584, 2.1449267864227295, 37.184688568115234, 1.4984081983566284, 7.121154308319092, -0.5244140625, 0.360595703125, -0.8134765625, 0, 
132, 1171267444, 0.73940164, 0.3548832, -0.51929426, 0.24016021, 9.5963134765625, 2.533928871154785, 2.0942068099975586, 42.30328369140625, 3.820549488067627, 7.943018436431885, -0.5166015625, 0.360107421875, -0.818359375, 0, 
133, 1171284111, 0.73719287, 0.35825875, -0.51817286, 0.2443244, 9.41630744934082, 2.752251386642456, 2.039966106414795, 38.96309280395508, 2.9758541584014893, 9.287755012512207, -0.514404296875, 0.35498046875, -0.820556640625, 0, 
134, 1171300778, 0.7350425, 0.3608841, -0.5176309, 0.24806, 9.43104362487793, 2.645148515701294, 1.9322504997253418, 32.518978118896484, 0.443255215883255, 11.11772346496582, -0.512451171875, 0.352783203125, -0.82373046875, 0, 
135, 1171317445, 0.73286307, 0.36320034, -0.51732564, 0.25173742, 9.470660209655762, 2.392254590988159, 1.915563941001892, 30.41851043701172, -0.47676295042037964, 12.55781364440918, -0.51416015625, 0.35302734375, -0.827392578125, 0, 
136, 1171334112, 0.7305739, 0.3656038, -0.5170252, 0.25550112, 9.48538875579834, 2.2166810035705566, 1.84693443775177, 31.435335159301758, -0.829681932926178, 12.863286972045898, -0.510498046875, 0.3544921875, -0.826171875, 0, 
137, 1171350779, 0.7281857, 0.36820567, -0.5166531, 0.2593067, 9.474139213562012, 2.370077610015869, 1.6791324615478516, 32.95948028564453, -1.0638409852981567, 12.334239959716797, -0.50830078125, 0.3515625, -0.831298828125, 0, 
138, 1171367446, 0.7258622, 0.3704155, -0.51655465, 0.2628456, 9.456781387329102, 2.595132827758789, 1.650587797164917, 29.399572372436523, -2.1725025177001953, 12.951614379882812, -0.508056640625, 0.352294921875, -0.828857421875, 0, 
139, 1171384113, 0.72371745, 0.37181658, -0.5170564, 0.26577863, 9.488306045532227, 2.597189426422119, 1.7692079544067383, 21.669368743896484, -4.605475902557373, 14.005620956420898, -0.503173828125, 0.350341796875, -0.83056640625, 0, 
140, 1171400780, 0.7217946, 0.37262255, -0.51790595, 0.26821357, 9.614888191223145, 2.3817849159240723, 1.897842288017273, 15.733484268188477, -5.731472015380859, 14.127106666564941, -0.50634765625, 0.3544921875, -0.83203125, 0, 
141, 1171417447, 0.7199517, 0.37340322, -0.5186694, 0.27059513, 9.71280574798584, 2.23574161529541, 1.9373680353164673, 15.375738143920898, -5.117073059082031, 13.573986053466797, -0.503173828125, 0.35595703125, -0.830810546875, 0, 
142, 1171434114, 0.71841437, 0.3738618, -0.51920784, 0.27300444, 9.68606185913086, 2.427835464477539, 2.0842621326446533, 13.521652221679688, -2.251711368560791, 13.693079948425293, -0.50439453125, 0.35791015625, -0.82958984375, 0, 
143, 1171450781, 0.7168565, 0.37477428, -0.5192436, 0.27576652, 9.624938011169434, 2.4661202430725098, 1.9631868600845337, 18.024703979492188, 0.1913207769393921, 12.556729316711426, -0.50146484375, 0.3544921875, -0.83056640625, 0, 
144, 1171467448, 0.7152947, 0.37589955, -0.5190736, 0.27859634, 9.589144706726074, 2.3404693603515625, 1.7820262908935547, 19.72016716003418, 0.9471785426139832, 11.608816146850586, -0.501220703125, 0.3564453125, -0.8291015625, 0, 
145, 1171484115, 0.71385604, 0.377041, -0.51876205, 0.2813107, 9.610810279846191, 2.272620677947998, 1.8033908605575562, 19.344266891479492, 1.7471604347229004, 10.376311302185059, -0.50146484375, 0.359130859375, -0.83154296875, 0, 
146, 1171500782, 0.7125755, 0.37807646, -0.51836675, 0.28388423, 9.586730003356934, 2.359178304672241, 1.749124526977539, 18.07693099975586, 2.5549216270446777, 9.531420707702637, -0.50048828125, 0.358154296875, -0.83349609375, 0, 
147, 1171517449, 0.71136177, 0.37903714, -0.5179907, 0.28632298, 9.56003475189209, 2.2936041355133057, 1.6924184560775757, 17.0201473236084, 2.489788293838501, 9.056546211242676, -0.496337890625, 0.359619140625, -0.834716796875, 0, 
148, 1171534116, 0.7103526, 0.37973166, -0.5177109, 0.28840706, 9.564300537109375, 2.426384925842285, 1.766098141670227, 13.735360145568848, 2.3449599742889404, 8.115225791931152, -0.4921875, 0.36279296875, -0.834228515625, 0, 
149, 1171550783, 0.70946854, 0.38029626, -0.517451, 0.29029965, 9.527215957641602, 2.417301893234253, 1.7975772619247437, 12.05333137512207, 2.4462578296661377, 7.453760623931885, -0.491455078125, 0.36083984375, -0.8359375, 0, 
150, 1171567450, 0.7086522, 0.38085186, -0.5171833, 0.29203674, 9.522046089172363, 2.4745967388153076, 1.726430892944336, 11.297077178955078, 2.3274788856506348, 6.578921318054199, -0.48974609375, 0.35986328125, -0.835205078125, 0, 
151, 1171584117, 0.7079023, 0.38134354, -0.516937, 0.29364562, 9.597747802734375, 2.3784239292144775, 1.7292087078094482, 10.312113761901855, 2.2469778060913086, 6.1176605224609375, -0.487060546875, 0.361328125, -0.83642578125, 0, 
152, 1171600784, 0.70716614, 0.38197577, -0.5166123, 0.29516503, 9.587711334228516, 2.3027846813201904, 1.689807653427124, 10.800149917602539, 2.1580755710601807, 4.9547271728515625, -0.48779296875, 0.36083984375, -0.83642578125, 0, 
153, 1171617451, 0.70637184, 0.38288167, -0.51617926, 0.29664707, 9.617445945739746, 2.2768146991729736, 1.5495517253875732, 12.370849609375, 1.8221523761749268, 3.6378374099731445, -0.486328125, 0.36181640625, -0.839599609375, 0, 
154, 1171634118, 0.7056988, 0.38352013, -0.51598203, 0.2977651, 9.563019752502441, 2.3498339653015137, 1.5272889137268066, 8.97944450378418, 0.7011605501174927, 3.1941094398498535, -0.48779296875, 0.360107421875, -0.83935546875, 0, 
155, 1171650785, 0.70516396, 0.3836924, -0.5162866, 0.29828224, 9.43470287322998, 2.504194974899292, 1.64934504032135, 3.190779447555542, -1.8640222549438477, 2.980524778366089, -0.486572265625, 0.36181640625, -0.839111328125, 0, 
156, 1171667452, 0.7047166, 0.38334322, -0.517214, 0.29818153, 9.399825096130371, 2.3242242336273193, 1.704813003540039, -3.042398691177368, -5.133535385131836, 3.319099187850952, -0.486328125, 0.3642578125, -0.836181640625, 0, 
157, 1171684119, 0.70441806, 0.3825411, -0.51858974, 0.29752672, 9.521832466125488, 2.27412748336792, 1.6750162839889526, -8.52044677734375, -7.31197452545166, 3.131103038787842, -0.4912109375, 0.3623046875, -0.834716796875, 0, 
158, 1171700786, 0.704416, 0.38117903, -0.52029043, 0.29630822, 9.630914688110352, 2.191277265548706, 1.6017156839370728, -14.687823295593262, -8.166335105895996, 2.6539459228515625, -0.492919921875, 0.364501953125, -0.830810546875, 0, 
159, 1171717453, 0.7044186, 0.37988475, -0.5218444, 0.29522982, 9.64913558959961, 1.7297027111053467, 1.6398054361343384, -13.572505950927734, -7.204351902008057, 2.6969549655914307, -0.49755859375, 0.369140625, -0.82763671875, 0, 
160, 1171734120, 0.70417476, 0.37941742, -0.5226941, 0.29490882, 9.754984855651855, 1.893574595451355, 1.7655919790267944, -4.7740478515625, -4.375654697418213, 2.0336356163024902, -0.4970703125, 0.36669921875, -0.826416015625, 0, 
161, 1171750787, 0.70381874, 0.37952155, -0.5229116, 0.2952391, 9.83312702178955, 1.90188729763031, 1.7843369245529175, 1.9126410484313965, -1.1836333274841309, 1.6944849491119385, -0.4931640625, 0.370361328125, -0.823974609375, 0, 
162, 1171767454, 0.70346737, 0.37995532, -0.52275044, 0.2958038, 9.814590454101562, 1.951857328414917, 1.6546446084976196, 5.111693382263184, 0.5998110771179199, 0.6285613179206848, -0.498779296875, 0.368408203125, -0.822509765625, 0, 
163, 1171784121, 0.7031159, 0.38041618, -0.5226037, 0.29630566, 9.777776718139648, 2.0365521907806396, 1.570280909538269, 4.990160942077637, 0.3088635504245758, 0.2509916424751282, -0.49560546875, 0.371826171875, -0.823974609375, 0, 
164, 1171800788, 0.70274335, 0.38075075, -0.52261144, 0.29674596, 9.717373847961426, 1.9324568510055542, 1.5206760168075562, 3.8984713554382324, -0.41371557116508484, 0.8470249772071838, -0.499267578125, 0.370361328125, -0.825439453125, 0, 
165, 1171817455, 0.70234984, 0.38096538, -0.52277845, 0.29710782, 9.727349281311035, 1.967572569847107, 1.576180100440979, 2.769245147705078, -1.2140612602233887, 1.3452942371368408, -0.49951171875, 0.3720703125, -0.824951171875, 0, 
166, 1171834122, 0.7020072, 0.38103464, -0.5229916, 0.297453, 9.798629760742188, 1.9605534076690674, 1.6806683540344238, 1.7812861204147339, -0.9989272356033325, 1.7952196598052979, -0.500732421875, 0.3701171875, -0.8251953125, 0, 
167, 1171850789, 0.70167506, 0.3811946, -0.5230723, 0.29788962, 9.778580665588379, 1.844619870185852, 1.609191656112671, 2.7931995391845703, -0.27085429430007935, 1.5295840501785278, -0.496337890625, 0.37158203125, -0.82421875, 0, 
168, 1171867456, 0.7013615, 0.38147888, -0.5229956, 0.29839852, 9.729517936706543, 1.9347468614578247, 1.5560892820358276, 3.930326223373413, 0.49042555689811707, 0.9635817408561707, -0.498046875, 0.3720703125, -0.82373046875, 0, 
169, 1171884123, 0.70107806, 0.38170773, -0.5229778, 0.298803, 9.65322494506836, 2.0260491371154785, 1.5230937004089355, 3.088526487350464, 0.1555907428264618, 0.7415325045585632, -0.497314453125, 0.37109375, -0.824951171875, 0, 
170, 1171900790, 0.70080906, 0.3817472, -0.5231643, 0.29905644, 9.66889476776123, 1.972510814666748, 1.5307050943374634, 1.1757252216339111, -0.7804253101348877, 1.1965868473052979, -0.496337890625, 0.37158203125, -0.822998046875, 0, 
171, 1171917457, 0.70055395, 0.38178796, -0.52329654, 0.29937077, 9.733315467834473, 1.8041373491287231, 1.619832992553711, 1.4764567613601685, -0.30944621562957764, 1.3076306581497192, -0.497802734375, 0.37255859375, -0.82275390625, 0, 
172, 1171934124, 0.7003972, 0.38187194, -0.52323186, 0.2997432, 9.737004280090332, 1.8359202146530151, 1.6706331968307495, 2.0433173179626465, 1.0559604167938232, 0.6953720450401306, -0.498291015625, 0.374267578125, -0.825439453125, 0, 
173, 1171950791, 0.70027864, 0.3819928, -0.5230812, 0.3001291, 9.690804481506348, 1.881453037261963, 1.5441406965255737, 2.3514251708984375, 1.5616960525512695, 0.3069297969341278, -0.497802734375, 0.3720703125, -0.82421875, 0, 
174, 1171967458, 0.7001957, 0.38209468, -0.5229393, 0.30043975, 9.686391830444336, 1.9624745845794678, 1.5123289823532104, 1.8791332244873047, 1.4913825988769531, -0.048241518437862396, -0.49853515625, 0.371826171875, -0.823974609375, 0, 
175, 1171984125, 0.70010227, 0.382117, -0.52292776, 0.30064958, 9.684805870056152, 1.9292975664138794, 1.479987382888794, 0.8937806487083435, 0.7290654182434082, 0.11126156151294708, -0.4951171875, 0.37255859375, -0.826416015625, 0, 
176, 1172000792, 0.69997275, 0.382134, -0.5229933, 0.3008155, 9.720800399780273, 1.8218129873275757, 1.516894817352295, 0.6452351212501526, 0.12917764484882355, 0.1881892830133438, -0.498779296875, 0.3720703125, -0.82470703125, 0, 
177, 1172017459, 0.69982344, 0.38224182, -0.52301425, 0.30098927, 9.74282455444336, 1.8690592050552368, 1.5249252319335938, 1.2573274374008179, 0.11124876886606216, -0.1923065483570099, -0.49609375, 0.375, -0.81982421875, 0, 
178, 1172034126, 0.699701, 0.38243034, -0.5228585, 0.30130515, 9.730299949645996, 1.8724013566970825, 1.5534005165100098, 2.4524993896484375, 1.2672460079193115, -0.32911041378974915, -0.49755859375, 0.375, -0.8212890625, 0, 
179, 1172050793, 0.6995703, 0.3827594, -0.5225724, 0.3016868, 9.67973518371582, 1.9016528129577637, 1.5576496124267578, 3.658191204071045, 1.747342824935913, -0.8542731404304504, -0.497314453125, 0.372314453125, -0.82177734375, 0, 
180, 1172067460, 0.6994721, 0.38299882, -0.52238536, 0.30193466, 9.643413543701172, 1.9261075258255005, 1.5314100980758667, 2.4580249786376953, 1.2224043607711792, -0.9903726577758789, -0.498779296875, 0.370361328125, -0.824951171875, 0, 
181, 1172084127, 0.69938236, 0.38316697, -0.52226657, 0.3021342, 9.648995399475098, 1.8877880573272705, 1.4666625261306763, 1.7784690856933594, 0.947234570980072, -0.8125436902046204, -0.497314453125, 0.37060546875, -0.8251953125, 0, 
182, 1172100794, 0.6991867, 0.38356057, -0.522039, 0.30248082, 9.682211875915527, 1.8097947835922241, 1.4462051391601562, 3.896498203277588, 1.0150824785232544, -0.989335298538208, -0.497802734375, 0.3720703125, -0.82421875, 0, 
183, 1172117461, 0.6989245, 0.38410705, -0.52172023, 0.30294302, 9.680059432983398, 1.740482211112976, 1.4356549978256226, 5.411784648895264, 1.2079975605010986, -1.0983302593231201, -0.49755859375, 0.369384765625, -0.826171875, 0, 
184, 1172134128, 0.69862485, 0.3848164, -0.52128774, 0.3034779, 9.650561332702637, 1.8052502870559692, 1.42798912525177, 6.79375696182251, 1.4798636436462402, -1.5722037553787231, -0.49462890625, 0.372314453125, -0.823486328125, 0, 
185, 1172150795, 0.6983111, 0.38553897, -0.52089024, 0.30396515, 9.651093482971191, 1.9291645288467407, 1.5014866590499878, 6.651018142700195, 1.114664912223816, -1.739454984664917, -0.496337890625, 0.369384765625, -0.82763671875, 0, 
186, 1172167462, 0.69801414, 0.3862263, -0.52048844, 0.30446258, 9.702567100524902, 1.9759721755981445, 1.5836901664733887, 6.482933044433594, 1.2975906133651733, -1.6189212799072266, -0.494384765625, 0.368408203125, -0.8271484375, 0, 
187, 1172184129, 0.69770885, 0.386944, -0.5200587, 0.3049851, 9.694718360900879, 1.9711062908172607, 1.6254276037216187, 6.800774097442627, 1.4027692079544067, -1.668609857559204, -0.495361328125, 0.369873046875, -0.827880859375, 0, 
188, 1172200796, 0.69747096, 0.38756883, -0.5196563, 0.305421, 9.669564247131348, 1.9121778011322021, 1.618957757949829, 5.81140661239624, 1.472717523574829, -1.8259230852127075, -0.498291015625, 0.3681640625, -0.82958984375, 0, 
189, 1172217463, 0.6972645, 0.38812917, -0.51930994, 0.30577016, 9.659360885620117, 1.945858359336853, 1.5610707998275757, 4.993696212768555, 1.2166417837142944, -1.9379020929336548, -0.497314453125, 0.36669921875, -0.830078125, 0, 
190, 1172234130, 0.69701713, 0.38868228, -0.51903635, 0.3060957, 9.660003662109375, 1.9966779947280884, 1.4986239671707153, 4.832009315490723, 0.6728904247283936, -1.7509098052978516, -0.494873046875, 0.36865234375, -0.83056640625, 0, 
191, 1172250797, 0.69674504, 0.3892355, -0.5187635, 0.30647454, 9.680014610290527, 1.9599207639694214, 1.582939624786377, 5.087445259094238, 0.7254605293273926, -1.445363163948059, -0.493896484375, 0.365966796875, -0.830078125, 0, 
192, 1172267464, 0.69651043, 0.38972592, -0.51852804, 0.3067828, 9.655166625976562, 1.9946684837341309, 1.6346349716186523, 4.3571367263793945, 0.6217803359031677, -1.5459058284759521, -0.494140625, 0.3642578125, -0.829833984375, 0, 
193, 1172284131, 0.69625807, 0.39022115, -0.5183126, 0.30709022, 9.662683486938477, 1.9748753309249878, 1.6325117349624634, 4.385016441345215, 0.44372090697288513, -1.4793001413345337, -0.495849609375, 0.3642578125, -0.826416015625, 0, 
194, 1172300798, 0.6959982, 0.39061993, -0.5182107, 0.30734423, 9.699131965637207, 2.014461040496826, 1.6091482639312744, 3.515535354614258, -0.07008275389671326, -1.077174186706543, -0.493408203125, 0.36181640625, -0.82861328125, 0, 
195, 1172317465, 0.6957544, 0.39097694, -0.51807207, 0.30767584, 9.699990272521973, 2.0179603099823, 1.6563498973846436, 3.6282951831817627, 0.4557267725467682, -0.6935470700263977, -0.49462890625, 0.36474609375, -0.830078125, 0, 
196, 1172334132, 0.6955436, 0.39131, -0.51791394, 0.30799496, 9.677308082580566, 2.0801095962524414, 1.6561530828475952, 3.425481081008911, 0.6770718097686768, -0.7946276664733887, -0.49560546875, 0.36376953125, -0.831298828125, 0, 
197, 1172350799, 0.69531995, 0.39163697, -0.5178022, 0.30827215, 9.676862716674805, 2.034080743789673, 1.556980013847351, 3.184042453765869, 0.30449652671813965, -0.821533739566803, -0.49658203125, 0.36279296875, -0.83056640625, 0, 
198, 1172367466, 0.69506097, 0.3919391, -0.5177405, 0.30857584, 9.702837944030762, 2.015287399291992, 1.4925750494003296, 3.1492092609405518, 0.06214921176433563, -0.40021762251853943, -0.4970703125, 0.359619140625, -0.83154296875, 0, 
199, 1172384133, 0.6947503, 0.39230865, -0.51763797, 0.3089775, 9.707747459411621, 1.9738215208053589, 1.5327260494232178, 4.04653787612915, 0.19623172283172607, -0.17503079771995544, -0.49462890625, 0.36376953125, -0.831787109375, 0, 
200, 1172400800, 0.69442785, 0.39270988, -0.5174928, 0.30943543, 9.717982292175293, 2.015843152999878, 1.5944498777389526, 4.522594928741455, 0.4416205883026123, -0.11603835225105286, -0.498291015625, 0.360595703125, -0.831787109375, 0, 
201, 1172417467, 0.69415104, 0.39309454, -0.51732695, 0.30984494, 9.70005989074707, 2.0807878971099854, 1.599735140800476, 4.192574977874756, 0.6034801006317139, -0.4435223340988159, -0.49560546875, 0.360595703125, -0.83349609375, 0, 
202, 1172434134, 0.6939731, 0.39334884, -0.51720554, 0.3101233, 9.66281795501709, 2.0633349418640137, 1.4885265827178955, 2.7441446781158447, 0.6630871891975403, -0.6967871189117432, -0.495849609375, 0.36279296875, -0.82958984375, 0, 
203, 1172450801, 0.69379056, 0.39365545, -0.51705885, 0.31038725, 9.737327575683594, 1.9512897729873657, 1.4679394960403442, 3.008211612701416, 0.6179191470146179, -1.010587453842163, -0.494384765625, 0.36279296875, -0.83251953125, 0, 
204, 1172467468, 0.6936554, 0.39384943, -0.5169062, 0.31069738, 9.728265762329102, 2.038799285888672, 1.64652681350708, 2.5209362506866455, 1.1836076974868774, -0.5135602355003357, -0.494384765625, 0.362548828125, -0.82958984375, 0, 
205, 1172484135, 0.6937888, 0.39346763, -0.51701057, 0.31070948, 9.599302291870117, 2.254640579223633, 1.7648526430130005, -2.5589137077331543, 1.3299586772918701, 0.23043107986450195, -0.4931640625, 0.360107421875, -0.8310546875, 0, 
206, 1172500802, 0.6943044, 0.39246133, -0.5173339, 0.3102925, 9.571419715881348, 2.1070706844329834, 1.7474757432937622, -8.561577796936035, 1.8057469129562378, 0.1899309903383255, -0.49609375, 0.361083984375, -0.83349609375, 0, 
207, 1172517469, 0.69505864, 0.39105937, -0.5178629, 0.30949038, 9.783912658691406, 1.8172556161880493, 1.7683385610580444, -12.899946212768555, 1.4690300226211548, -0.1926332265138626, -0.494384765625, 0.36376953125, -0.830810546875, 0, 
208, 1172534136, 0.695888, 0.38935247, -0.5184389, 0.3088134, 9.916019439697266, 2.017881155014038, 1.7479758262634277, -14.208105087280273, 2.491137742996216, 1.445959448814392, -0.495361328125, 0.3681640625, -0.826904296875, 0, 
209, 1172550803, 0.69673485, 0.38764825, -0.5187903, 0.30845782, 9.931347846984863, 2.2252330780029297, 1.8137775659561157, -12.615755081176758, 4.477756023406982, 2.3324475288391113, -0.49462890625, 0.370361328125, -0.8251953125, 0, 
210, 1172567470, 0.69773614, 0.38584694, -0.5190017, 0.30809706, 9.999217987060547, 2.065300226211548, 1.8863120079040527, -13.212212562561035, 5.885520935058594, 1.9602950811386108, -0.494384765625, 0.373046875, -0.823974609375, 0, 
211, 1172584137, 0.6988088, 0.38402772, -0.51904637, 0.30786383, 9.988534927368164, 1.8652623891830444, 1.8302381038665771, -12.67320442199707, 7.308307647705078, 2.0418074131011963, -0.4951171875, 0.375, -0.822998046875, 0, 
212, 1172600804, 0.6999547, 0.38224778, -0.518866, 0.30777967, 9.880655288696289, 1.9983220100402832, 1.7756816148757935, -11.664039611816406, 8.95717716217041, 1.8593043088912964, -0.494140625, 0.377197265625, -0.826416015625, 0, 
213, 1172617471, 0.7011918, 0.38048747, -0.5184696, 0.3078133, 9.773465156555176, 2.1981022357940674, 1.876675009727478, -10.928441047668457, 10.589694023132324, 1.5944045782089233, -0.490234375, 0.3798828125, -0.825439453125, 0, 
214, 1172634138, 0.7024832, 0.37868792, -0.5180134, 0.30785555, 9.670906066894531, 2.237003803253174, 1.9288066625595093, -11.09976577758789, 11.169989585876465, 1.5152102708816528, -0.4892578125, 0.381591796875, -0.82470703125, 0, 
215, 1172650805, 0.7037374, 0.37685302, -0.517675, 0.30781192, 9.661404609680176, 2.1331417560577393, 1.7759432792663574, -11.726009368896484, 10.31246280670166, 1.625498652458191, -0.485595703125, 0.383544921875, -0.8232421875, 0, 
216, 1172667472, 0.7049307, 0.3750547, -0.5173617, 0.30780473, 9.673033714294434, 2.058701276779175, 1.7354538440704346, -11.313708305358887, 9.992303848266602, 1.8753761053085327, -0.48486328125, 0.385498046875, -0.824462890625, 0, 
217, 1172684139, 0.7060364, 0.3734229, -0.5170298, 0.30781195, 9.612119674682617, 2.031405448913574, 1.7302278280258179, -10.19078254699707, 9.460633277893066, 1.497511625289917, -0.479736328125, 0.3916015625, -0.82373046875, 0, 
218, 1172700806, 0.70707494, 0.37190217, -0.51674235, 0.30775234, 9.562959671020508, 1.9869861602783203, 1.7422930002212524, -9.810098648071289, 8.605998992919922, 1.0411440134048462, -0.48095703125, 0.390869140625, -0.824462890625, 0, 
219, 1172717473, 0.70806146, 0.37044016, -0.516486, 0.3076776, 9.518072128295898, 1.9646661281585693, 1.7325228452682495, -9.512349128723145, 8.112364768981934, 0.953637957572937, -0.479736328125, 0.393798828125, -0.823974609375, 0, 
220, 1172734140, 0.7088701, 0.36919305, -0.51629585, 0.30763382, 9.508040428161621, 1.9265650510787964, 1.666853427886963, -8.043113708496094, 6.791158199310303, 0.8907458782196045, -0.478515625, 0.393798828125, -0.822021484375, 0, 
221, 1172750807, 0.7094542, 0.36801875, -0.5163661, 0.307576, 9.470769882202148, 1.9242464303970337, 1.6046010255813599, -7.72185754776001, 4.545876979827881, 1.7048646211624146, -0.47412109375, 0.400634765625, -0.82275390625, 0, 
222, 1172767474, 0.70979273, 0.3669305, -0.51673514, 0.30747545, 9.454734802246094, 1.8283778429031372, 1.6565237045288086, -7.4673261642456055, 1.9405592679977417, 2.4711649417877197, -0.4755859375, 0.400146484375, -0.8212890625, 0, 
223, 1172784141, 0.70998, 0.36605635, -0.51715106, 0.30738604, 9.57051944732666, 1.7773851156234741, 1.7457022666931152, -6.102579116821289, 0.762438952922821, 2.2047414779663086, -0.473388671875, 0.402099609375, -0.820068359375, 0, 
224, 1172800808, 0.70991355, 0.3656122, -0.5174295, 0.3075993, 9.597539901733398, 1.6083924770355225, 1.7456903457641602, -1.999154806137085, 0.39307817816734314, 2.3406553268432617, -0.4775390625, 0.403564453125, -0.8193359375, 0, 
225, 1172817475, 0.7095725, 0.36556208, -0.51762164, 0.30812183, 9.609201431274414, 1.6060714721679688, 1.7372770309448242, 1.8978240489959717, -0.21091416478157043, 2.8024518489837646, -0.475341796875, 0.404296875, -0.81396484375, 0, 
226, 1172834142, 0.70912, 0.3656499, -0.51781994, 0.30872563, 9.616745948791504, 1.7102502584457397, 1.7392420768737793, 3.127861261367798, -0.7162655591964722, 2.94978928565979, -0.4755859375, 0.4052734375, -0.8173828125, 0, 
227, 1172850809, 0.70855045, 0.36584255, -0.5181082, 0.30932108, 9.655594825744629, 1.6503887176513672, 1.726043462753296, 3.711190938949585, -1.8071105480194092, 3.005445718765259, -0.476318359375, 0.40234375, -0.81640625, 0, 
228, 1172867476, 0.7079274, 0.36606377, -0.5184184, 0.3099654, 9.68148136138916, 1.5697673559188843, 1.7866618633270264, 4.112144947052002, -2.034179925918579, 3.3051013946533203, -0.476806640625, 0.406005859375, -0.81494140625, 0, 
229, 1172884143, 0.70738816, 0.36635736, -0.51849234, 0.3107251, 9.778998374938965, 1.5780030488967896, 1.955073595046997, 5.169155597686768, -0.4452832341194153, 2.8242101669311523, -0.47802734375, 0.40478515625, -0.815185546875, 0, 
230, 1172900810, 0.7068836, 0.3667457, -0.5183569, 0.31163996, 9.787354469299316, 1.5881325006484985, 1.8933310508728027, 6.546594142913818, 0.8836255073547363, 2.628990411758423, -0.4765625, 0.40673828125, -0.81689453125, 0, 
231, 1172917477, 0.7063326, 0.36729425, -0.5180499, 0.3127517, 9.75576114654541, 1.5656026601791382, 1.7086514234542847, 8.514009475708008, 1.705434799194336, 2.672224998474121, -0.474609375, 0.4072265625, -0.818115234375, 0, 
232, 1172934144, 0.7057077, 0.3680762, -0.51753014, 0.31410068, 9.730255126953125, 1.5271804332733154, 1.6058250665664673, 11.13698959350586, 2.5794882774353027, 2.604447841644287, -0.474609375, 0.405029296875, -0.818359375, 0, 
233, 1172950811, 0.7050754, 0.36897302, -0.5168379, 0.31560463, 9.715221405029297, 1.552358627319336, 1.6300444602966309, 12.638118743896484, 3.5448250770568848, 2.5163848400115967, -0.472900390625, 0.404541015625, -0.822021484375, 0, 
234, 1172967478, 0.70440155, 0.36999303, -0.51604503, 0.31720892, 9.717238426208496, 1.5427237749099731, 1.6255879402160645, 13.915326118469238, 3.8823883533477783, 2.39046049118042, -0.471923828125, 0.403564453125, -0.818359375, 0, 
235, 1172984145, 0.7037022, 0.37104836, -0.5152021, 0.31889385, 9.757433891296387, 1.6381843090057373, 1.6400278806686401, 14.546772956848145, 4.1719160079956055, 2.5745909214019775, -0.467529296875, 0.4033203125, -0.82470703125, 0, 
236, 1173000812, 0.7029556, 0.37211877, -0.5143737, 0.32062575, 9.749470710754395, 1.6362125873565674, 1.6383413076400757, 14.875639915466309, 4.028407096862793, 2.8836593627929688, -0.4658203125, 0.402099609375, -0.8271484375, 0, 
237, 1173017479, 0.702083, 0.37344924, -0.51342326, 0.3225087, 9.756370544433594, 1.6771950721740723, 1.6579002141952515, 17.25739288330078, 3.9950220584869385, 2.6535556316375732, -0.464599609375, 0.40185546875, -0.82373046875, 0, 
238, 1173034146, 0.70111984, 0.37496698, -0.5123496, 0.3245439, 9.715907096862793, 1.6700514554977417, 1.7215014696121216, 19.2022762298584, 4.2527642250061035, 2.608503580093384, -0.458984375, 0.400634765625, -0.831298828125, 0, 
239, 1173050813, 0.70015824, 0.37653437, -0.51123357, 0.32655883, 9.642553329467773, 1.7311159372329712, 1.8107867240905762, 19.462512969970703, 4.302798271179199, 2.218306064605713, -0.463134765625, 0.3994140625, -0.82861328125, 0, 
240, 1173067480, 0.6992384, 0.3780531, -0.51013255, 0.32849124, 9.592060089111328, 1.793353796005249, 1.8552769422531128, 18.795915603637695, 4.2715888023376465, 1.9369754791259766, -0.458251953125, 0.3955078125, -0.833740234375, 0, 
241, 1173084147, 0.6983156, 0.37954473, -0.5091117, 0.33031267, 9.55823802947998, 1.8665101528167725, 1.8732064962387085, 18.10375213623047, 3.6448960304260254, 1.7161680459976196, -0.458251953125, 0.394775390625, -0.838134765625, 0, 
242, 1173100814, 0.697379, 0.38104248, -0.5081105, 0.33210385, 9.568501472473145, 1.7823785543441772, 1.840816855430603, 18.017831802368164, 3.4040791988372803, 1.6368775367736816, -0.458740234375, 0.392578125, -0.83447265625, 0, 
243, 1173117481, 0.6963418, 0.3828302, -0.5068675, 0.33411783, 9.618009567260742, 1.764116644859314, 1.8426576852798462, 21.0018310546875, 4.129721641540527, 1.2905235290527344, -0.4541015625, 0.390869140625, -0.83837890625, 0, 
244, 1173134148, 0.6950782, 0.3850796, -0.5053831, 0.3364046, 9.59988021850586, 1.6673247814178467, 1.8138155937194824, 25.314321517944336, 4.150765419006348, 0.8725370764732361, -0.453857421875, 0.39013671875, -0.844970703125, 0, 
245, 1173150815, 0.69370306, 0.3874878, -0.50384104, 0.3387825, 9.59337043762207, 1.7184443473815918, 1.7332977056503296, 26.819486618041992, 3.908930540084839, 0.8567982316017151, -0.45068359375, 0.38525390625, -0.847900390625, 0, 
246, 1173167482, 0.6923886, 0.38982525, -0.5023178, 0.34104434, 9.591567993164062, 1.942628026008606, 1.8863627910614014, 25.87354850769043, 3.8869924545288086, 0.45399898290634155, -0.449462890625, 0.380859375, -0.848388671875, 0, 
247, 1173184149, 0.6914142, 0.3917296, -0.5009382, 0.3428635, 9.606470108032227, 2.13332200050354, 2.100008726119995, 21.03462791442871, 4.198991298675537, -0.5624108910560608, -0.4453125, 0.38134765625, -0.852783203125, 0, 
248, 1173200816, 0.69090176, 0.39310107, -0.49965277, 0.3441998, 9.66869068145752, 2.2095799446105957, 2.313520908355713, 15.3723726272583, 5.284480571746826, -1.843443512916565, -0.445068359375, 0.377197265625, -0.85498046875, 0, 
249, 1173217483, 0.6908214, 0.39417398, -0.4982802, 0.34512272, 9.734635353088379, 2.106017589569092, 2.295858860015869, 11.574183464050293, 6.749284267425537, -4.024532794952393, -0.4423828125, 0.377685546875, -0.8564453125, 0, 
250, 1173234150, 0.691001, 0.3950983, -0.4967462, 0.34591672, 9.745878219604492, 2.008669853210449, 2.1639513969421387, 10.107828140258789, 8.392095565795898, -5.171175479888916, -0.441650390625, 0.374755859375, -0.859619140625, 0, 
251, 1173250817, 0.6912538, 0.39602658, -0.49507385, 0.34674668, 9.702004432678223, 2.0689375400543213, 2.095527172088623, 10.380194664001465, 9.375202178955078, -5.55822229385376, -0.438720703125, 0.374267578125, -0.8603515625, 0, 
252, 1173267484, 0.6915797, 0.3967722, -0.49352548, 0.34745115, 9.675651550292969, 2.076681137084961, 2.007829189300537, 8.592336654663086, 9.120944023132324, -5.361657619476318, -0.436279296875, 0.371826171875, -0.861328125, 0, 
253, 1173284151, 0.6920283, 0.39712852, -0.49240088, 0.34774616, 9.63603687286377, 2.0415849685668945, 1.9438832998275757, 4.005609512329102, 7.330843925476074, -5.114620685577393, -0.435546875, 0.367919921875, -0.8662109375, 0, 
254, 1173300818, 0.69246346, 0.3973306, -0.49162412, 0.34774798, 9.627984046936035, 1.9198789596557617, 1.849364161491394, 1.4823734760284424, 5.199519157409668, -5.000271320343018, -0.434326171875, 0.3681640625, -0.870361328125, 0, 
255, 1173317485, 0.6928242, 0.39775088, -0.49067724, 0.3478867, 9.701468467712402, 1.7516732215881348, 1.8161802291870117, 3.593424081802368, 5.615469932556152, -5.371093273162842, -0.43408203125, 0.36572265625, -0.8681640625, 0, 
256, 1173334152, 0.6930095, 0.39865392, -0.4892876, 0.34844056, 9.7139253616333, 1.695349931716919, 1.7452046871185303, 8.832184791564941, 7.119821548461914, -5.819957733154297, -0.43359375, 0.3662109375, -0.8720703125, 0, 
257, 1173350819, 0.69294035, 0.3999759, -0.48761922, 0.34940028, 9.635956764221191, 1.7676572799682617, 1.7330071926116943, 13.55954360961914, 7.712184429168701, -5.4588470458984375, -0.430419921875, 0.365234375, -0.8701171875, 0, 
258, 1173367486, 0.692719, 0.40145242, -0.4859352, 0.3504905, 9.543743133544922, 1.8542397022247314, 1.7385358810424805, 15.189855575561523, 7.271708011627197, -5.039501667022705, -0.43017578125, 0.359130859375, -0.87890625, 0, 
259, 1173384153, 0.6924718, 0.4028892, -0.48434755, 0.35152644, 9.5831937789917, 1.8962215185165405, 1.811374545097351, 14.656354904174805, 6.681551933288574, -4.839939594268799, -0.42529296875, 0.358642578125, -0.879150390625, 0, 
260, 1173400820, 0.6922157, 0.40422064, -0.48283026, 0.3525878, 9.63194465637207, 1.8806178569793701, 1.8999128341674805, 14.093478202819824, 6.647922992706299, -4.154659271240234, -0.4248046875, 0.35595703125, -0.880615234375, 0, 
261, 1173417487, 0.69184643, 0.4056539, -0.48125806, 0.35381392, 9.642379760742188, 1.9007867574691772, 1.8967103958129883, 15.573936462402344, 6.747750282287598, -3.5911030769348145, -0.421630859375, 0.354248046875, -0.885986328125, 0, 
262, 1173434154, 0.6913514, 0.407242, -0.47956422, 0.35525417, 9.705121994018555, 1.88211989402771, 1.8758293390274048, 17.66581916809082, 7.1353864669799805, -3.1236836910247803, -0.421875, 0.352783203125, -0.88720703125, 0, 
263, 1173450821, 0.69075507, 0.40887204, -0.47785008, 0.35684803, 9.722590446472168, 1.8438295125961304, 1.92538583278656, 18.70612335205078, 7.228888034820557, -2.3473496437072754, -0.42236328125, 0.350341796875, -0.886474609375, 0, 
264, 1173467488, 0.69007564, 0.41058248, -0.4760394, 0.35861433, 9.73716926574707, 1.9776078462600708, 2.062229871749878, 20.125991821289062, 7.70633602142334, -1.8687630891799927, -0.41455078125, 0.3466796875, -0.8916015625, 0, 
265, 1173484155, 0.6893441, 0.41234946, -0.47409466, 0.36056486, 9.772838592529297, 1.982212781906128, 2.175832509994507, 21.477428436279297, 8.550687789916992, -1.434896469116211, -0.4140625, 0.3427734375, -0.89501953125, 0, 
266, 1173500822, 0.6886104, 0.4140889, -0.47204897, 0.3626514, 9.81611156463623, 1.99811851978302, 2.1383321285247803, 22.05060577392578, 9.469200134277344, -0.9861741065979004, -0.407470703125, 0.340576171875, -0.8974609375, 0, 
267, 1173517489, 0.687764, 0.41597342, -0.46980512, 0.36500686, 9.790643692016602, 1.9721500873565674, 2.1421220302581787, 24.427648544311523, 10.442554473876953, -0.47377848625183105, -0.40771484375, 0.338134765625, -0.901611328125, 0, 
268, 1173534156, 0.68667823, 0.41819817, -0.46724245, 0.36778802, 9.73215389251709, 1.896729826927185, 2.0777862071990967, 28.900156021118164, 11.536928176879883, 0.12316549569368362, -0.402099609375, 0.33349609375, -0.903564453125, 0, 
269, 1173550823, 0.6854113, 0.42066476, -0.46440652, 0.37091675, 9.71480941772461, 1.8471657037734985, 2.1232786178588867, 32.374820709228516, 12.629674911499023, 0.6497584581375122, -0.399169921875, 0.33056640625, -0.90869140625, 0, 
270, 1173567490, 0.68397415, 0.42321184, -0.461475, 0.37431532, 9.66100788116455, 1.9286760091781616, 2.158212900161743, 34.356632232666016, 13.108257293701172, 1.8102372884750366, -0.39404296875, 0.325927734375, -0.91162109375, 0, 
271, 1173584157, 0.682289, 0.42590943, -0.45853123, 0.3779314, 9.487374305725098, 2.0516979694366455, 2.1478829383850098, 36.51246643066406, 12.619277954101562, 2.9491896629333496, -0.39013671875, 0.322021484375, -0.92041015625, 0, 
272, 1173600824, 0.6803141, 0.4288067, -0.45566696, 0.38166106, 9.239660263061523, 2.1278882026672363, 2.222181558609009, 38.45342254638672, 11.13923168182373, 3.834972858428955, -0.385009765625, 0.31689453125, -0.92431640625, 0, 
273, 1173617491, 0.6781356, 0.43164104, -0.45322606, 0.3852331, 8.994953155517578, 2.1084980964660645, 2.3184261322021484, 37.157798767089844, 8.209053993225098, 5.079524040222168, -0.380126953125, 0.314208984375, -0.9248046875, 0, 
274, 1173634158, 0.675797, 0.43434975, -0.451337, 0.3885018, 8.889200210571289, 2.0867488384246826, 2.318124771118164, 34.643829345703125, 4.552319049835205, 6.119771957397461, -0.37939453125, 0.31103515625, -0.929931640625, 0, 
275, 1173650825, 0.6734762, 0.43677914, -0.4499701, 0.39138314, 9.085010528564453, 2.0268962383270264, 2.3273565769195557, 30.699228286743164, 1.75482177734375, 6.70144510269165, -0.3759765625, 0.30712890625, -0.931640625, 0, 
276, 1173667492, 0.6711779, 0.43914637, -0.44875, 0.39407408, 9.3431396484375, 1.994983196258545, 2.2524733543395996, 29.364294052124023, 0.7242781519889832, 6.390273094177246, -0.3740234375, 0.30419921875, -0.933349609375, 0, 
277, 1173684159, 0.6689661, 0.441622, -0.44736964, 0.39662963, 9.559776306152344, 1.9689631462097168, 2.1283864974975586, 29.62249755859375, 1.0180567502975464, 4.708652973175049, -0.37646484375, 0.300537109375, -0.9375, 0, 
278, 1173700826, 0.6668398, 0.44427592, -0.44559464, 0.3992356, 9.605273246765137, 2.0275895595550537, 2.021840810775757, 31.417234420776367, 2.756678581237793, 2.954204559326172, -0.373046875, 0.295654296875, -0.936279296875, 0, 
279, 1173717493, 0.6646592, 0.4472731, -0.44344276, 0.4019123, 9.555999755859375, 2.125793218612671, 1.9398196935653687, 34.408382415771484, 3.5911717414855957, 1.220104455947876, -0.370361328125, 0.29248046875, -0.944091796875, 0, 
280, 1173734160, 0.6625418, 0.4503236, -0.44120368, 0.4044582, 9.53179931640625, 2.1941206455230713, 1.8392246961593628, 34.2992057800293, 3.6319210529327393, 0.015598197467625141, -0.367919921875, 0.288818359375, -0.94384765625, 0, 
281, 1173750827, 0.6605786, 0.4532554, -0.4390422, 0.40674016, 9.471495628356934, 2.33359432220459, 1.8662865161895752, 32.2621955871582, 3.262096643447876, -1.0129923820495605, -0.36669921875, 0.279052734375, -0.9462890625, 0, 
282, 1173767494, 0.65878445, 0.45609552, -0.43694142, 0.40873262, 9.49858570098877, 2.3936429023742676, 1.912449836730957, 30.272518157958984, 2.851010322570801, -2.3292715549468994, -0.365234375, 0.275634765625, -0.948486328125, 0, 
283, 1173784161, 0.657245, 0.45869884, -0.4350138, 0.4103508, 9.574132919311523, 2.450073003768921, 1.9676501750946045, 26.78692054748535, 2.3232314586639404, -3.4792702198028564, -0.366943359375, 0.2705078125, -0.953125, 0, 
284, 1173800828, 0.6559003, 0.461171, -0.43319735, 0.41165075, 9.527191162109375, 2.6284701824188232, 1.9944723844528198, 24.312204360961914, 1.7672673463821411, -4.71682596206665, -0.362060546875, 0.26708984375, -0.95654296875, 0, 
285, 1173817495, 0.65476125, 0.46350136, -0.43153983, 0.4125867, 9.468661308288574, 2.7117562294006348, 2.0328567028045654, 21.48412322998047, 0.9074210524559021, -6.000266075134277, -0.364013671875, 0.26318359375, -0.95556640625, 0, 
286, 1173834162, 0.65369, 0.46580958, -0.4298408, 0.41345826, 9.42537784576416, 2.650526762008667, 2.1213574409484863, 21.09161949157715, 1.1473612785339355, -6.535200119018555, -0.363525390625, 0.25927734375, -0.960205078125, 0, 
287, 1173850829, 0.6525994, 0.46831894, -0.42775208, 0.4145113, 9.370070457458496, 2.7328407764434814, 2.232740640640259, 23.700353622436523, 2.8423755168914795, -7.494503498077393, -0.36279296875, 0.253173828125, -0.962890625, 0, 
288, 1173867496, 0.6516142, 0.47081056, -0.4254806, 0.41557515, 9.401327133178711, 2.7783782482147217, 2.2103676795959473, 23.834796905517578, 4.044407844543457, -8.268508911132812, -0.3642578125, 0.247314453125, -0.96337890625, 0, 
289, 1173884163, 0.65086526, 0.4731138, -0.42325485, 0.41640514, 9.440560340881348, 2.8457276821136475, 2.296259641647339, 21.411989212036133, 4.3006110191345215, -9.279875755310059, -0.3623046875, 0.2412109375, -0.96240234375, 0, 
290, 1173900830, 0.6504114, 0.47516966, -0.42108133, 0.4169768, 9.439668655395508, 2.9665961265563965, 2.3145225048065186, 18.444826126098633, 4.778492450714111, -10.376214027404785, -0.35986328125, 0.23583984375, -0.966796875, 0, 
291, 1173917497, 0.6502, 0.47702128, -0.41897926, 0.41730967, 9.373952865600586, 2.963129997253418, 2.178434371948242, 15.844152450561523, 4.952810764312744, -11.297065734863281, -0.358642578125, 0.231689453125, -0.971435546875, 0, 
292, 1173934164, 0.65003127, 0.4788368, -0.41689104, 0.4175847, 9.317018508911133, 2.8961374759674072, 2.070406436920166, 15.335960388183594, 4.917581081390381, -11.514033317565918, -0.356689453125, 0.228759765625, -0.97314453125, 0, 
293, 1173950831, 0.64979476, 0.4807439, -0.41469494, 0.41794756, 9.29389762878418, 2.766188859939575, 2.0632102489471436, 16.529232025146484, 5.2257795333862305, -11.531463623046875, -0.359375, 0.223876953125, -0.973876953125, 0, 
294, 1173967498, 0.6494402, 0.48279485, -0.4124344, 0.41837138, 9.305439949035645, 2.7726223468780518, 2.0311148166656494, 17.92167091369629, 4.959997177124023, -11.535330772399902, -0.3505859375, 0.218017578125, -0.9755859375, 0, 
295, 1173984165, 0.6490214, 0.48484626, -0.410255, 0.41879162, 9.321664810180664, 2.8719968795776367, 2.0386641025543213, 17.893508911132812, 4.397541046142578, -11.092731475830078, -0.355224609375, 0.21142578125, -0.978515625, 0, 
296, 1174000832, 0.6487848, 0.48661324, -0.40833795, 0.41898227, 9.30146312713623, 2.9808156490325928, 2.1317200660705566, 14.6131010055542, 3.7912092208862305, -10.957197189331055, -0.35595703125, 0.20947265625, -0.98046875, 0, 
297, 1174017499, 0.6486835, 0.48820403, -0.4066124, 0.41896686, 9.251484870910645, 2.970975399017334, 2.1004672050476074, 12.247119903564453, 3.1275181770324707, -11.121011734008789, -0.353759765625, 0.205810546875, -0.98095703125, 0, 
298, 1174034166, 0.6485911, 0.48979884, -0.4048152, 0.41898844, 9.203268051147461, 2.843186378479004, 2.0696539878845215, 12.544894218444824, 3.5780205726623535, -11.225127220153809, -0.351318359375, 0.201904296875, -0.982177734375, 0, 
299, 1174050833, 0.64835906, 0.49158752, -0.40276444, 0.4192292, 9.181843757629395, 2.7193734645843506, 2.0568885803222656, 15.221634864807129, 4.495892524719238, -11.234635353088379, -0.353271484375, 0.197998046875, -0.984619140625, 0, 
300, 1174067500, 0.6478812, 0.49366584, -0.40042436, 0.41976714, 9.155077934265137, 2.793844223022461, 2.045637369155884, 19.002275466918945, 5.269924640655518, -10.982815742492676, -0.348876953125, 0.193115234375, -0.98583984375, 0, 
301, 1174084167, 0.6471956, 0.4958389, -0.39812538, 0.4204499, 9.107132911682129, 2.9961612224578857, 2.148439884185791, 20.41373062133789, 4.727703094482422, -9.858570098876953, -0.350341796875, 0.18896484375, -0.986083984375, 0, 
302, 1174100834, 0.6463806, 0.4980192, -0.39602813, 0.42110676, 9.056150436401367, 3.1623294353485107, 2.2995340824127197, 20.234529495239258, 3.359149932861328, -8.92615032196045, -0.34619140625, 0.182861328125, -0.98681640625, 0, 
303, 1174117501, 0.6455955, 0.50005174, -0.3942408, 0.4215794, 8.997187614440918, 3.2236883640289307, 2.390981912612915, 18.081005096435547, 1.846934199333191, -8.35904312133789, -0.348876953125, 0.177734375, -0.9892578125, 0, 
304, 1174134168, 0.64486945, 0.50190353, -0.3927756, 0.4218577, 9.0601224899292, 3.183875322341919, 2.5169928073883057, 15.61874771118164, 0.41600826382637024, -7.784577369689941, -0.345947265625, 0.173828125, -0.99169921875, 0, 
305, 1174150835, 0.64426225, 0.5035579, -0.39160657, 0.42190045, 9.21965217590332, 3.1823441982269287, 2.544996738433838, 12.8450345993042, -0.8360567092895508, -7.611337661743164, -0.345947265625, 0.170166015625, -0.992431640625, 0, 
306, 1174167502, 0.6438144, 0.5050288, -0.39067355, 0.42169073, 9.263358116149902, 3.42569899559021, 2.6316492557525635, 10.125117301940918, -1.8138989210128784, -7.876006603240967, -0.350830078125, 0.167236328125, -0.992431640625, 0, 
307, 1174184169, 0.6434609, 0.50647324, -0.3898506, 0.42125928, 9.254079818725586, 3.4631221294403076, 2.5137174129486084, 8.772725105285645, -2.76080060005188, -8.668641090393066, -0.352294921875, 0.164794921875, -0.991455078125, 0, 
308, 1174200836, 0.6432279, 0.507789, -0.38920975, 0.4206234, 9.400569915771484, 3.4008686542510986, 2.4476726055145264, 6.7138214111328125, -3.600576877593994, -8.932720184326172, -0.351318359375, 0.160888671875, -0.995361328125, 0, 
309, 1174217503, 0.6433767, 0.5087791, -0.3886779, 0.4196902, 9.510080337524414, 3.2504372596740723, 2.516852855682373, 2.837068796157837, -3.1721408367156982, -10.093450546264648, -0.351806640625, 0.15771484375, -0.993408203125, 0, 
310, 1174234170, 0.6438915, 0.5094979, -0.38830316, 0.4183739, 9.470929145812988, 3.2500712871551514, 2.359543800354004, -1.114761233329773, -3.4597206115722656, -11.57042121887207, -0.354248046875, 0.158203125, -0.995361328125, 0, 
311, 1174250837, 0.6446535, 0.50994235, -0.38818187, 0.41676787, 9.440705299377441, 3.406794548034668, 2.3214128017425537, -4.689964294433594, -4.1589484214782715, -11.94625186920166, -0.35205078125, 0.1572265625, -0.994384765625, 0, 
312, 1174267504, 0.64568144, 0.50998425, -0.38828295, 0.41502774, 9.530535697937012, 3.508578062057495, 2.41383957862854, -8.396279335021973, -3.758711576461792, -11.445858001708984, -0.355224609375, 0.155029296875, -0.99365234375, 0, 
313, 1174284171, 0.64684886, 0.50966835, -0.38859, 0.41330698, 9.642949104309082, 3.6648669242858887, 2.608743190765381, -11.00567626953125, -3.2232770919799805, -10.077214241027832, -0.3544921875, 0.15380859375, -0.99267578125, 0, 
314, 1174300838, 0.6480524, 0.5090959, -0.38888618, 0.41184604, 9.8048095703125, 3.820157766342163, 3.0745270252227783, -11.539048194885254, -1.4550905227661133, -8.37151050567627, -0.361328125, 0.1533203125, -0.99462890625, 0, 
315, 1174317505, 0.64952374, 0.50831306, -0.38907802, 0.41031107, 9.991582870483398, 4.261971473693848, 3.606706380844116, -13.302830696105957, 0.0352046824991703, -9.256585121154785, -0.360595703125, 0.154052734375, -0.9912109375, 0, 
316, 1174334172, 0.65221906, 0.50698334, -0.39009625, 0.40669796, 9.98856258392334, 5.506129264831543, 3.323637008666992, -27.894744873046875, -6.140714645385742, -17.62580108642578, -0.359619140625, 0.155517578125, -0.991943359375, 0, 
317, 1174350839, 0.65830183, 0.5020273, -0.39422175, 0.39899445, 9.712516784667969, 6.965900421142578, 3.2328107357025146, -75.62061309814453, -15.140049934387207, -24.83981704711914, -0.365234375, 0.16162109375, -0.98828125, 0, 
318, 1174367506, 0.66772664, 0.49284762, -0.40181863, 0.38701957, 9.227645874023438, 7.001067161560059, 3.9461071491241455, -127.38331604003906, -24.98676872253418, -29.83312225341797, -0.369873046875, 0.17626953125, -0.979248046875, 0, 
319, 1174384173, 0.68034446, 0.47990096, -0.41148287, 0.3708214, 9.378023147583008, 6.247825622558594, 3.2075440883636475, -172.67462158203125, -30.001209259033203, -40.237098693847656, -0.384033203125, 0.1953125, -0.97021484375, 0, 
320, 1174400840, 0.6952066, 0.46385905, -0.421003, 0.35253274, 9.436936378479004, 5.204971790313721, 2.5089972019195557, -200.11549377441406, -22.01477813720703, -47.4133186340332, -0.397705078125, 0.218994140625, -0.95703125, 0, 
321, 1174417507, 0.70918065, 0.450226, -0.42473426, 0.33757988, 9.276476860046387, 3.9864699840545654, 3.0229692459106445, -162.07290649414062, 7.884761810302734, -54.730857849121094, -0.401611328125, 0.236083984375, -0.949462890625, 0, 
322, 1174434174, 0.7219354, 0.4406758, -0.42132583, 0.32725936, 9.234060287475586, 2.973536968231201, 3.2929210662841797, -108.27288818359375, 43.9921875, -63.34339904785156, -0.396728515625, 0.244384765625, -0.94970703125, 0, 
323, 1174450841, 0.7333984, 0.43426648, -0.41297117, 0.32092723, 9.236804962158203, 3.0709640979766846, 3.049858808517456, -66.05809020996094, 69.81370544433594, -64.75111389160156, -0.3828125, 0.247802734375, -0.958251953125, 0, 
324, 1174467508, 0.74393386, 0.42891777, -0.4023902, 0.31729186, 9.550881385803223, 3.9615354537963867, 3.483226776123047, -45.35235595703125, 84.12711334228516, -58.78316879272461, -0.365478515625, 0.2451171875, -0.965576171875, 0, 
325, 1174484175, 0.75459945, 0.42236948, -0.39193484, 0.31396013, 9.89232063293457, 4.5862226486206055, 4.379113674163818, -51.29428482055664, 87.36210632324219, -53.82677459716797, -0.340576171875, 0.245849609375, -0.976806640625, 0, 
326, 1174500842, 0.7662426, 0.413695, -0.38192493, 0.30961668, 9.834447860717773, 4.520759105682373, 4.956808567047119, -68.83910369873047, 89.3331069946289, -54.160037994384766, -0.31982421875, 0.25537109375, -0.98388671875, 0, 
327, 1174517509, 0.77838314, 0.40431714, -0.3709796, 0.3049944, 9.689376831054688, 5.0639777183532715, 5.462164402008057, -72.6818618774414, 96.2645263671875, -57.50429153442383, -0.294921875, 0.260009765625, -0.991943359375, 0, 
328, 1174534176, 0.79154176, 0.39347768, -0.3594118, 0.2990991, 9.506342887878418, 5.8303399085998535, 6.201456069946289, -85.25990295410156, 101.70956420898438, -64.44719696044922, -0.265869140625, 0.2734375, -0.999755859375, 0, 
329, 1174550843, 0.8060119, 0.37986493, -0.34847665, 0.2908808, 8.73124885559082, 5.963221549987793, 6.3213300704956055, -110.93621063232422, 100.90747833251953, -71.20414733886719, -0.24072265625, 0.283203125, -1.004150390625, 0, 
330, 1174567510, 0.8209648, 0.36415592, -0.33802634, 0.28132838, 8.527397155761719, 5.296911239624023, 6.354506015777588, -127.97907257080078, 100.0654067993164, -73.25072479248047, -0.2177734375, 0.30029296875, -1.007568359375, 0, 
331, 1174584177, 0.83587056, 0.3470487, -0.32692403, 0.27202633, 8.957676887512207, 4.69036340713501, 6.62677001953125, -133.90306091308594, 106.96240234375, -70.12190246582031, -0.193115234375, 0.31884765625, -1.005615234375, 0, 
332, 1174600844, 0.8502854, 0.32982588, -0.3139202, 0.26397726, 8.939732551574707, 4.865031719207764, 7.094044208526611, -127.00851440429688, 120.00216674804688, -66.2894515991211, -0.16259765625, 0.3388671875, -1.005126953125, 0, 
333, 1174617511, 0.86424315, 0.31278405, -0.29893938, 0.25668138, 8.715533256530762, 5.419454097747803, 7.718385219573975, -119.6928482055664, 131.96823120117188, -65.93563079833984, -0.130615234375, 0.36328125, -1.00439453125, 0, 
334, 1174634178, 0.87800455, 0.2955269, -0.28233388, 0.24911763, 8.514856338500977, 6.153940200805664, 8.274370193481445, -118.23770904541016, 141.0352325439453, -70.22341918945312, -0.098388671875, 0.37939453125, -1.0068359375, 0, 
335, 1174650845, 0.89166665, 0.27844295, -0.26411182, 0.24009432, 8.030424118041992, 6.25929594039917, 8.610238075256348, -117.07524871826172, 147.35098266601562, -82.466552734375, -0.06494140625, 0.402099609375, -1.002197265625, 0, 
336, 1174667512, 0.90521187, 0.26077673, -0.2449215, 0.22934775, 7.386282920837402, 5.220778465270996, 8.373884201049805, -121.98213958740234, 150.75119018554688, -93.61632537841797, -0.0283203125, 0.421875, -0.99560546875, 0, 
337, 1174684179, 0.9181598, 0.24241242, -0.22494347, 0.21821837, 6.724913120269775, 4.830531120300293, 7.74525785446167, -124.67877960205078, 155.08680725097656, -95.28649139404297, 0.0048828125, 0.4423828125, -0.9921875, 0, 
338, 1174700846, 0.93031657, 0.22333948, -0.20459749, 0.20680994, 6.397463321685791, 4.660238742828369, 7.540674209594727, -127.73873138427734, 156.81893920898438, -95.37368774414062, 0.039794921875, 0.467041015625, -0.98095703125, 0, 
339, 1174717513, 0.94167614, 0.20262687, -0.18487291, 0.19496271, 6.150510311126709, 4.23949670791626, 7.818658828735352, -138.5395050048828, 153.42547607421875, -93.78396606445312, 0.069580078125, 0.490234375, -0.966796875, 0, 
340, 1174734180, 0.95213217, 0.18009442, -0.16619213, 0.18273067, 5.711010932922363, 3.5559380054473877, 7.774007320404053, -150.98486328125, 147.47201538085938, -91.30217742919922, 0.098388671875, 0.521240234375, -0.953857421875, 0, 
341, 1174750847, 0.9613233, 0.15699399, -0.14816397, 0.17104913, 5.574977874755859, 2.8517608642578125, 7.33697509765625, -153.3511199951172, 143.2023468017578, -84.65802001953125, 0.11865234375, 0.552978515625, -0.931640625, 0, 
342, 1174767514, 0.9690569, 0.13493276, -0.13041776, 0.16035277, 5.287020206451416, 2.4710402488708496, 6.847056865692139, -144.25436401367188, 139.76116943359375, -77.19435119628906, 0.144775390625, 0.58056640625, -0.910888671875, 0, 
343, 1174784181, 0.9753967, 0.113829985, -0.113880806, 0.15058318, 4.983188629150391, 2.0342061519622803, 6.560983657836914, -137.0975799560547, 130.33119201660156, -69.22476196289062, 0.165771484375, 0.6103515625, -0.8857421875, 0, 
344, 1174800848, 0.98049015, 0.09358318, -0.09879615, 0.14184816, 4.654991149902344, 1.241379976272583, 6.557394981384277, -131.09588623046875, 119.6152572631836, -60.53268051147461, 0.1826171875, 0.636474609375, -0.85986328125, 0, 
345, 1174817515, 0.9845271, 0.07422207, -0.08497252, 0.13407943, 4.162544250488281, 0.569325864315033, 6.4903244972229, -125.026123046875, 110.2324447631836, -52.78011703491211, 0.1943359375, 0.666259765625, -0.83935546875, 0, 
346, 1174834182, 0.98758906, 0.056684628, -0.072066784, 0.12751894, 3.4494612216949463, 0.2955889403820038, 6.452644348144531, -112.31844329833984, 102.45675659179688, -44.29569625854492, 0.20458984375, 0.687255859375, -0.81201171875, 0, 
347, 1174850849, 0.98978585, 0.04142054, -0.06016887, 0.12242622, 2.9351086616516113, 0.18893930315971375, 6.308492183685303, -96.69524383544922, 93.82240295410156, -34.29633331298828, 0.213134765625, 0.70751953125, -0.791748046875, 0, 
348, 1174867516, 0.9913218, 0.028778171, -0.049301714, 0.11841676, 2.6260383129119873, -0.01203683391213417, 6.409149169921875, -79.0826644897461, 84.684814453125, -27.15144920349121, 0.2236328125, 0.72412109375, -0.771484375, 0, 
349, 1174884183, 0.9923967, 0.018042317, -0.039734516, 0.11508395, 2.2369954586029053, -0.16951733827590942, 6.504077911376953, -66.82112884521484, 74.29584503173828, -22.544240951538086, 0.2314453125, 0.73583984375, -0.7568359375, 0, 
350, 1174900850, 0.99314296, 0.00832049, -0.031614315, 0.112242475, 1.8108593225479126, 0.052555523812770844, 6.94477653503418, -60.869144439697266, 63.62924575805664, -19.01993179321289, 0.241943359375, 0.7529296875, -0.73974609375, 0, 
351, 1174917517, 0.9936164, -9.653186E-4, -0.025066227, 0.10998863, 1.50874924659729, 0.1996249556541443, 7.414795398712158, -58.964786529541016, 52.56010437011719, -14.793417930603027, 0.247802734375, 0.761474609375, -0.72705078125, 0, 
352, 1174934184, 0.9939133, -0.009300022, -0.019539025, 0.108020015, 1.3975839614868164, -0.16417744755744934, 7.761247158050537, -53.2018928527832, 44.85662078857422, -12.875289916992188, 0.249267578125, 0.773193359375, -0.70751953125, 0, 
353, 1174950851, 0.99410695, -0.015907517, -0.014575242, 0.106237516, 1.1656060218811035, -0.5725340247154236, 7.920230388641357, -41.803279876708984, 39.71862030029297, -11.78829288482666, 0.255615234375, 0.77978515625, -0.69970703125, 0, 
354, 1174967518, 0.99425817, -0.020348854, -0.010044619, 0.10457447, 0.7799695730209351, -0.8106030225753784, 7.957581996917725, -27.30182647705078, 35.176361083984375, -11.198833465576172, 0.258056640625, 0.790771484375, -0.691162109375, 0, 
355, 1174984185, 0.9944093, -0.022070874, -0.006126148, 0.10308068, 0.5800356864929199, -0.9124859571456909, 7.943083763122559, -9.133503913879395, 29.022064208984375, -10.310897827148438, 0.259765625, 0.791748046875, -0.688720703125, 0, 
356, 1175000852, 0.99452996, -0.022024615, -0.0028506026, 0.10206488, 0.4767557978630066, -0.8439153432846069, 8.342822074890137, 2.527120590209961, 23.30678367614746, -7.1900811195373535, 0.26416015625, 0.7900390625, -0.68798828125, 0, 
357, 1175017519, 0.99461234, -0.021781592, -5.2065676E-4, 0.101348825, 0.2699439525604248, -0.8896019458770752, 8.864795684814453, 3.2172718048095703, 16.661542892456055, -5.259572505950928, 0.26611328125, 0.792724609375, -0.684326171875, 0, 
358, 1175034186, 0.99468297, -0.020789698, 5.228183E-4, 0.10086449, -0.07469542324542999, -0.8055177330970764, 8.62508487701416, 7.450289249420166, 7.308305263519287, -3.861839771270752, 0.270263671875, 0.793701171875, -0.688720703125, 0, 
359, 1175050853, 0.99477834, -0.018071981, 5.8981037E-4, 0.10044629, -0.07138904929161072, -0.6296327710151672, 8.22730541229248, 18.587261199951172, -0.5827600359916687, -3.5613412857055664, 0.273193359375, 0.78955078125, -0.689697265625, 0, 
360, 1175067520, 0.99485636, -0.013720316, 2.2751628E-4, 0.100362524, 0.19622646272182465, -0.849216103553772, 8.607029914855957, 29.468700408935547, -4.695104598999023, -1.313986897468567, 0.270263671875, 0.782958984375, -0.697265625, 0, 
361, 1175084187, 0.99490917, -0.0083863195, -3.2161144E-4, 0.10042653, 0.1802091747522354, -0.7936108112335205, 8.753212928771973, 36.06851577758789, -6.665172100067139, -0.3044723868370056, 0.273681640625, 0.77880859375, -0.700927734375, 0, 
362, 1175100854, 0.9949285, -0.0025327336, -0.0011049599, 0.1005485, -0.04128355532884598, -0.4662885367870331, 8.924567222595215, 39.4717903137207, -8.629294395446777, 0.0978538766503334, 0.2744140625, 0.770751953125, -0.71240234375, 0, 
363, 1175117521, 0.9949227, 0.0034385226, -0.0022705824, 0.100559354, -0.11266227066516876, -0.3036900758743286, 9.250288009643555, 40.01800537109375, -11.331128120422363, -0.6589547395706177, 0.2763671875, 0.762939453125, -0.720703125, 0, 
364, 1175134188, 0.9948655, 0.0099198455, -0.0036075632, 0.10065641, 0.1966053992509842, -0.13779816031455994, 9.71725845336914, 43.396888732910156, -12.86369514465332, -0.0428183414041996, 0.275390625, 0.755859375, -0.731201171875, 0, 
365, 1175150855, 0.99476147, 0.016697053, -0.005070385, 0.100724004, 0.4291314482688904, -0.09788502752780914, 9.95771598815918, 45.34064865112305, -13.934666633605957, -0.21738310158252716, 0.2763671875, 0.75, -0.741943359375, 0, 
366, 1175167522, 0.9946194, 0.023183867, -0.0068535954, 0.100736685, 0.39459747076034546, 0.1876671016216278, 10.099997520446777, 43.140743255615234, -15.930252075195312, -0.5253908038139343, 0.276123046875, 0.7392578125, -0.75, 0, 
367, 1175184189, 0.9944552, 0.028895285, -0.008981503, 0.10071372, 0.3450045585632324, 0.39906418323516846, 10.404253005981445, 37.603755950927734, -17.756771087646484, -0.6690014004707336, 0.2744140625, 0.72998046875, -0.759765625, 0, 
368, 1175200856, 0.9942846, 0.03361597, -0.011229815, 0.10070893, 0.37864983081817627, 0.5942807793617249, 10.647263526916504, 30.749191284179688, -17.893617630004883, -0.4608065187931061, 0.275146484375, 0.725341796875, -0.769775390625, 0, 
369, 1175217523, 0.9941151, 0.03792027, -0.013416233, 0.10058454, 0.41576874256134033, 0.671265184879303, 10.4314546585083, 27.934926986694336, -17.212739944458008, -1.2660852670669556, 0.2744140625, 0.71923828125, -0.7763671875, 0, 
370, 1175234190, 0.993959, 0.04159674, -0.01571735, 0.100341104, 0.5128244161605835, 0.5593658685684204, 10.057050704956055, 23.54861831665039, -17.5964298248291, -2.0064857006073, 0.26953125, 0.71240234375, -0.780029296875, 0, 
371, 1175250857, 0.9937956, 0.044946328, -0.017897204, 0.10015014, 0.6332336068153381, 0.5632709860801697, 10.120012283325195, 21.409683227539062, -16.529537200927734, -1.6452295780181885, 0.26611328125, 0.71044921875, -0.786376953125, 0, 
372, 1175267524, 0.9936071, 0.048433073, -0.019683484, 0.10006005, 0.7613173127174377, 0.6566481590270996, 10.315248489379883, 22.6411190032959, -13.907084465026855, -1.0803911685943604, 0.263671875, 0.706298828125, -0.791015625, 0, 
373, 1175284191, 0.99341077, 0.051871892, -0.021243894, 0.09996628, 0.7773529291152954, 0.778885543346405, 10.0209321975708, 22.475082397460938, -12.333166122436523, -1.1723023653030396, 0.260498046875, 0.698486328125, -0.794189453125, 0, 
374, 1175300858, 0.9932034, 0.0550801, -0.022923177, 0.09993851, 0.7937942743301392, 0.9461038708686829, 9.846261024475098, 20.833864212036133, -12.96312141418457, -0.6405173540115356, 0.259521484375, 0.69677734375, -0.7998046875, 0, 
375, 1175317525, 0.99300086, 0.0578634, -0.024867374, 0.09991477, 0.971860945224762, 0.9120499491691589, 9.916205406188965, 17.748273849487305, -14.477571487426758, -0.4529677927494049, 0.25732421875, 0.692138671875, -0.80615234375, 0, 
376, 1175334192, 0.99281377, 0.060289454, -0.026772311, 0.09984798, 1.0944817066192627, 1.1561628580093384, 10.179277420043945, 15.323626518249512, -13.97539234161377, -0.7154854536056519, 0.253662109375, 0.68994140625, -0.80908203125, 0, 
377, 1175350859, 0.9926683, 0.062223345, -0.02846552, 0.099637695, 1.026335597038269, 1.4307900667190552, 10.417424201965332, 12.062993049621582, -12.239367485046387, -1.7235252857208252, 0.251708984375, 0.687255859375, -0.811279296875, 0, 
378, 1175367526, 0.992589, 0.0631779, -0.030182328, 0.099321865, 0.9594137668609619, 1.3344329595565796, 10.452675819396973, 5.307005405426025, -11.759713172912598, -2.2919600009918213, 0.2509765625, 0.685546875, -0.812744140625, 0, 
379, 1175384193, 0.9925591, 0.06347136, -0.031961728, 0.098876156, 0.9903790950775146, 1.205686330795288, 10.136237144470215, 0.6999443173408508, -11.782404899597168, -3.048995018005371, 0.242919921875, 0.6826171875, -0.81396484375, 0, 
380, 1175400860, 0.99251246, 0.06413337, -0.03360856, 0.09836912, 1.089999794960022, 1.1258628368377686, 9.883355140686035, 3.297034740447998, -11.158941268920898, -3.5966970920562744, 0.24072265625, 0.684814453125, -0.816650390625, 0, 
381, 1175417527, 0.9924237, 0.06542875, -0.035027474, 0.09791563, 1.2177129983901978, 1.0162973403930664, 9.877167701721191, 7.804001808166504, -10.015755653381348, -3.451242685317993, 0.23828125, 0.68408203125, -0.817138671875, 0, 
382, 1175434194, 0.99229294, 0.067277454, -0.036146317, 0.09758152, 1.2132012844085693, 1.0516431331634521, 9.945489883422852, 11.830694198608398, -8.293801307678223, -2.8779795169830322, 0.234375, 0.680419921875, -0.81982421875, 0, 
383, 1175450861, 0.99214095, 0.06929939, -0.037132945, 0.09734033, 1.1271295547485352, 1.1395372152328491, 9.885676383972168, 13.137031555175781, -7.4667277336120605, -2.335822105407715, 0.23095703125, 0.677490234375, -0.822021484375, 0, 
384, 1175467528, 0.99198073, 0.07120262, -0.038196746, 0.09718807, 1.096624493598938, 1.1400073766708374, 9.8883638381958, 12.303855895996094, -7.872504234313965, -1.6577959060668945, 0.23193359375, 0.67529296875, -0.825439453125, 0, 
385, 1175484195, 0.9918174, 0.07298585, -0.03931892, 0.09708293, 1.1258735656738281, 1.1905345916748047, 9.985945701599121, 11.462407112121582, -8.169489860534668, -1.2753019332885742, 0.232177734375, 0.674560546875, -0.82763671875, 0, 
386, 1175500862, 0.9916612, 0.07469977, -0.040391088, 0.09693564, 1.1319032907485962, 1.2375952005386353, 10.096531867980957, 11.009831428527832, -7.801626682281494, -1.5759313106536865, 0.229248046875, 0.670166015625, -0.826416015625, 0, 
387, 1175517529, 0.9915398, 0.076072715, -0.041435305, 0.09666982, 1.1194502115249634, 1.3339377641677856, 10.07347297668457, 8.656341552734375, -7.436554431915283, -2.326626777648926, 0.22900390625, 0.66845703125, -0.83251953125, 0, 
388, 1175534196, 0.99144465, 0.07715396, -0.04247997, 0.09633456, 1.1698957681655884, 1.347921371459961, 10.113479614257812, 6.634024620056152, -7.275820732116699, -2.735379695892334, 0.22705078125, 0.66845703125, -0.834228515625, 0, 
389, 1175550863, 0.9913604, 0.07815231, -0.04336235, 0.09600335, 1.202044129371643, 1.4074290990829468, 10.21178150177002, 6.173442840576172, -6.111670970916748, -2.7773966789245605, 0.22509765625, 0.666015625, -0.837646484375, 0, 
390, 1175567530, 0.99128896, 0.07919156, -0.044096287, 0.095553026, 1.2533886432647705, 1.3687942028045654, 10.089162826538086, 6.508009910583496, -5.187770843505859, -3.6904008388519287, 0.22314453125, 0.663818359375, -0.8369140625, 0, 
391, 1175584197, 0.9912235, 0.08029115, -0.04470588, 0.095030524, 1.2689391374588013, 1.2700152397155762, 10.04013729095459, 6.977202415466309, -4.417564392089844, -4.272366046905518, 0.22021484375, 0.664794921875, -0.838134765625, 0, 
392, 1175600864, 0.9911556, 0.081455275, -0.045247167, 0.09449029, 1.2729716300964355, 1.162280559539795, 10.015066146850586, 7.461051940917969, -4.0053019523620605, -4.44863224029541, 0.21728515625, 0.660888671875, -0.841064453125, 0, 
393, 1175617531, 0.99107295, 0.08275624, -0.045680936, 0.09401674, 1.2439441680908203, 1.1991358995437622, 9.984625816345215, 8.500410079956055, -3.328390598297119, -4.085694789886475, 0.21875, 0.65966796875, -0.83984375, 0, 
394, 1175634198, 0.9909686, 0.084186494, -0.04613836, 0.09362329, 1.2174586057662964, 1.302330732345581, 9.878087997436523, 9.408763885498047, -3.535456418991089, -3.552002191543579, 0.219482421875, 0.657470703125, -0.842041015625, 0, 
395, 1175650865, 0.99086374, 0.08547365, -0.04673827, 0.09326884, 1.268523097038269, 1.352156162261963, 9.799280166625977, 8.359999656677246, -4.392700672149658, -3.1573102474212646, 0.215576171875, 0.656982421875, -0.846923828125, 0, 
396, 1175667532, 0.99078393, 0.08631603, -0.047515303, 0.09294738, 1.3340141773223877, 1.289852499961853, 9.879064559936523, 5.2150983810424805, -5.287230491638184, -2.701115608215332, 0.21533203125, 0.65673828125, -0.84619140625, 0, 
397, 1175684199, 0.99072605, 0.08681036, -0.048396062, 0.09264894, 1.289939522743225, 1.3007440567016602, 9.912394523620605, 2.7790868282318115, -5.750166416168213, -2.380892515182495, 0.2119140625, 0.656494140625, -0.846435546875, 0, 
398, 1175700866, 0.99067056, 0.087189764, -0.049290437, 0.092413716, 1.2624855041503906, 1.3157790899276733, 9.92091178894043, 2.013306140899658, -5.732264518737793, -1.9044969081878662, 0.208251953125, 0.654296875, -0.846435546875, 0, 
399, 1175717533, 0.99061745, 0.08751674, -0.050192323, 0.09218867, 1.3326399326324463, 1.3741717338562012, 9.914448738098145, 1.6595109701156616, -5.745204448699951, -1.8116953372955322, 0.20654296875, 0.652099609375, -0.84912109375, 0, 
400, 1175734200, 0.9905626, 0.087932326, -0.051018886, 0.091928385, 1.4465301036834717, 1.4131553173065186, 9.933629035949707, 2.3038878440856934, -5.310773849487305, -2.1255786418914795, 0.206298828125, 0.653076171875, -0.846923828125, 0, 
401, 1175750867, 0.9905176, 0.08831321, -0.051785316, 0.091620184, 1.4577217102050781, 1.397051215171814, 9.950961112976074, 2.087198257446289, -4.903461933135986, -2.480090618133545, 0.2041015625, 0.65283203125, -0.8486328125, 0, 
402, 1175767534, 0.99048054, 0.08863204, -0.05253448, 0.0912859, 1.4012242555618286, 1.39666748046875, 9.929869651794434, 1.6660679578781128, -4.759051322937012, -2.6495766639709473, 0.20263671875, 0.65283203125, -0.849853515625, 0, 
403, 1175784201, 0.9904427, 0.08901615, -0.05318716, 0.090943865, 1.3695162534713745, 1.4181699752807617, 9.86784839630127, 2.1738333702087402, -4.1479010581970215, -2.7825002670288086, 0.19921875, 0.654296875, -0.849853515625, 0, 
404, 1175800868, 0.99039704, 0.08951236, -0.05377262, 0.09060825, 1.4361201524734497, 1.4602473974227905, 9.853899002075195, 2.990103244781494, -3.7610902786254883, -2.8137407302856445, 0.19921875, 0.65380859375, -0.851318359375, 0, 
405, 1175817535, 0.9903492, 0.09007114, -0.054315448, 0.09025356, 1.4402145147323608, 1.4592480659484863, 9.863459587097168, 3.4407970905303955, -3.5217909812927246, -2.9907755851745605, 0.200439453125, 0.649658203125, -0.85302734375, 0, 
406, 1175834202, 0.99030745, 0.09060944, -0.05488122, 0.08982852, 1.3966113328933716, 1.3765965700149536, 9.793947219848633, 3.2600746154785156, -3.706587553024292, -3.4500248432159424, 0.19580078125, 0.649658203125, -0.852294921875, 0, 
407, 1175850869, 0.9902702, 0.09112582, -0.055463463, 0.08935934, 1.390683889389038, 1.312087893486023, 9.770576477050781, 3.0881617069244385, -3.831819772720337, -3.732365846633911, 0.192138671875, 0.64990234375, -0.853271484375, 0, 
408, 1175867536, 0.9902141, 0.091777995, -0.056066696, 0.08893518, 1.4495525360107422, 1.316423773765564, 9.713582992553711, 4.034499645233154, -4.03819465637207, -3.449230909347534, 0.1923828125, 0.651123046875, -0.8505859375, 0, 
409, 1175884203, 0.9901469, 0.092390426, -0.056780957, 0.08859532, 1.4979768991470337, 1.4233800172805786, 9.715822219848633, 3.7431297302246094, -4.720657825469971, -2.781238555908203, 0.190673828125, 0.64599609375, -0.85205078125, 0, 
410, 1175900870, 0.99008155, 0.09276287, -0.05773299, 0.08832159, 1.5140578746795654, 1.4252487421035767, 9.71133041381836, 1.9942688941955566, -6.150243282318115, -2.0854437351226807, 0.18798828125, 0.646728515625, -0.855224609375, 0, 
411, 1175917537, 0.99001884, 0.092979185, -0.058868263, 0.088045694, 1.4756518602371216, 1.443913459777832, 9.691678047180176, 0.8223599195480347, -7.3023295402526855, -1.9203828573226929, 0.187744140625, 0.649658203125, -0.85107421875, 0, 
412, 1175934204, 0.9899564, 0.093186244, -0.060004983, 0.087763496, 1.5444965362548828, 1.4701789617538452, 9.78756332397461, 0.7618499398231506, -7.31062126159668, -1.956490397453308, 0.182373046875, 0.6474609375, -0.856689453125, 0, 
413, 1175950871, 0.989897, 0.093460456, -0.061010696, 0.08744641, 1.5832923650741577, 1.4888664484024048, 9.92313289642334, 1.2859435081481934, -6.481052398681641, -2.305297374725342, 0.18212890625, 0.649169921875, -0.85302734375, 0, 
414, 1175967538, 0.98983276, 0.093928844, -0.061792057, 0.08712213, 1.6332851648330688, 1.4416160583496094, 10.022150993347168, 2.747385025024414, -5.0775580406188965, -2.5743520259857178, 0.1826171875, 0.646484375, -0.85400390625, 0, 
415, 1175984205, 0.989771, 0.09450787, -0.062426336, 0.08674385, 1.6502138376235962, 1.4517302513122559, 9.88013744354248, 3.5704751014709473, -4.175454139709473, -3.0830206871032715, 0.177978515625, 0.645263671875, -0.85791015625, 0, 
416, 1176000872, 0.9896979, 0.09533636, -0.062883034, 0.08634345, 1.6927437782287598, 1.5941920280456543, 9.842011451721191, 5.3784308433532715, -3.134239435195923, -3.44592022895813, 0.174072265625, 0.644287109375, -0.85693359375, 0, 
417, 1176017539, 0.9896283, 0.096187115, -0.063270696, 0.08591135, 1.6828498840332031, 1.5500538349151611, 9.889887809753418, 5.557175159454346, -2.695141553878784, -3.7180356979370117, 0.17822265625, 0.64404296875, -0.855712890625, 0, 
418, 1176034206, 0.98956114, 0.0970096, -0.06369983, 0.0854421, 1.615388035774231, 1.4807502031326294, 9.790176391601562, 5.326967716217041, -2.983245611190796, -3.9307491779327393, 0.176513671875, 0.64306640625, -0.859619140625, 0, 
419, 1176050873, 0.9894763, 0.09800736, -0.06410727, 0.08498054, 1.624274730682373, 1.414367437362671, 9.737346649169922, 6.55441951751709, -2.9400634765625, -3.9558122158050537, 0.1728515625, 0.642822265625, -0.860595703125, 0, 
420, 1176067540, 0.98936963, 0.09920411, -0.06446841, 0.08455876, 1.6728105545043945, 1.4068665504455566, 9.691204071044922, 7.974182605743408, -2.7235076427459717, -3.7874209880828857, 0.171875, 0.638427734375, -0.862060546875, 0, 
421, 1176084207, 0.98923916, 0.10053787, -0.06483071, 0.084233016, 1.6816401481628418, 1.5124918222427368, 9.821333885192871, 8.973052978515625, -2.755075454711914, -3.1778132915496826, 0.171142578125, 0.639404296875, -0.862060546875, 0, 
422, 1176100874, 0.98912597, 0.10161965, -0.06528105, 0.0839138, 1.6589826345443726, 1.5390108823776245, 9.889630317687988, 7.206441402435303, -3.1937952041625977, -2.9668540954589844, 0.171630859375, 0.635498046875, -0.866455078125, 0, 
423, 1176117541, 0.989038, 0.102450036, -0.06579655, 0.08353935, 1.6260625123977661, 1.6305546760559082, 9.79118824005127, 5.423764705657959, -3.519287586212158, -3.195286989212036, 0.16943359375, 0.635498046875, -0.867919921875, 0, 
424, 1176134208, 0.9889491, 0.10325365, -0.06629482, 0.083207436, 1.658079743385315, 1.5675692558288574, 9.932846069335938, 5.276440620422363, -3.3574798107147217, -2.90250825881958, 0.16845703125, 0.634765625, -0.8642578125, 0, 
425, 1176150875, 0.98885983, 0.10407272, -0.066783346, 0.08285646, 1.6551620960235596, 1.38765549659729, 9.84643268585205, 5.3876261711120605, -3.3136305809020996, -3.042545795440674, 0.166259765625, 0.63330078125, -0.8671875, 0, 
426, 1176167542, 0.9887329, 0.10520019, -0.06719068, 0.082617134, 1.6427584886550903, 1.318137764930725, 9.669089317321777, 7.620266437530518, -2.874878406524658, -2.4556884765625, 0.16357421875, 0.632568359375, -0.86767578125, 0, 
427, 1176184209, 0.9885422, 0.106771305, -0.06745364, 0.08266917, 1.7378754615783691, 1.2615165710449219, 9.76368522644043, 10.91252613067627, -1.963233470916748, -0.7422115802764893, 0.166015625, 0.630615234375, -0.86865234375, 0, 
428, 1176200876, 0.9882874, 0.108747035, -0.06751435, 0.08309035, 1.7958136796951294, 1.22208571434021, 9.906920433044434, 14.011153221130371, -0.5751014351844788, 1.4744726419448853, 0.16748046875, 0.627197265625, -0.870849609375, 0, 
429, 1176217543, 0.9879218, 0.1113226, -0.067755036, 0.083828874, 1.6365383863449097, 0.9482508897781372, 9.33474063873291, 18.23193359375, -1.9521701335906982, 3.557582139968872, 0.1669921875, 0.624755859375, -0.875732421875, 0, 
430, 1176234210, 0.9874397, 0.1142856, -0.06824503, 0.08511574, 1.7199106216430664, 1.1652178764343262, 9.387252807617188, 21.08839988708496, -3.5018129348754883, 7.368741989135742, 0.168212890625, 0.622314453125, -0.880615234375, 0, 
431, 1176250877, 0.98686516, 0.11766349, -0.06873462, 0.0867651, 1.8057467937469482, 1.6215436458587646, 9.81386661529541, 24.168386459350586, -3.497447967529297, 9.697060585021973, 0.17138671875, 0.6181640625, -0.881591796875, 0, 
432, 1176267544, 0.98631424, 0.12055164, -0.069467135, 0.08846386, 1.6849716901779175, 1.8700623512268066, 9.762471199035645, 20.71742820739746, -4.801660537719727, 10.449777603149414, 0.17138671875, 0.615234375, -0.885009765625, 0, 
433, 1176284211, 0.9858572, 0.12250148, -0.070486516, 0.09005948, 1.6054630279541016, 2.001903533935547, 9.913840293884277, 14.062887191772461, -6.218392848968506, 10.38151741027832, 0.1748046875, 0.612548828125, -0.885498046875, 0, 
434, 1176300878, 0.98548615, 0.12368163, -0.07168744, 0.09154779, 1.6353259086608887, 1.939924955368042, 10.0040283203125, 8.616477966308594, -7.025371074676514, 10.129535675048828, 0.17333984375, 0.61181640625, -0.886962890625, 0, 
435, 1176317545, 0.9851534, 0.124588996, -0.07281796, 0.0929947, 1.624694585800171, 1.962483286857605, 9.91555404663086, 6.769671440124512, -6.397102355957031, 9.904053688049316, 0.170654296875, 0.608642578125, -0.890380859375, 0, 
436, 1176334212, 0.98486394, 0.12532885, -0.07384096, 0.09425115, 1.5855839252471924, 2.0351054668426514, 9.677631378173828, 5.581547260284424, -5.708016872406006, 8.583292961120605, 0.169921875, 0.611083984375, -0.88720703125, 0, 
437, 1176350879, 0.9846138, 0.12597698, -0.07479755, 0.09524104, 1.564387559890747, 2.2170748710632324, 9.487918853759766, 4.840333938598633, -5.413771152496338, 6.744894981384277, 0.1708984375, 0.611328125, -0.888916015625, 0, 
438, 1176367546, 0.98441744, 0.12629661, -0.07594732, 0.09593543, 1.5382260084152222, 2.194967269897461, 9.425567626953125, 2.2940468788146973, -6.7409186363220215, 5.047093391418457, 0.167724609375, 0.61083984375, -0.884033203125, 0, 
439, 1176384213, 0.9842521, 0.12636872, -0.07736559, 0.0964023, 1.4781510829925537, 2.0935354232788086, 9.361202239990234, 0.29639023542404175, -8.582159042358398, 3.850858211517334, 0.168212890625, 0.613525390625, -0.885986328125, 0, 
440, 1176400880, 0.9841075, 0.1261927, -0.07906665, 0.09672856, 1.5306367874145508, 1.9403702020645142, 9.44399642944336, -1.6577056646347046, -10.449973106384277, 3.264730215072632, 0.165771484375, 0.61181640625, -0.885498046875, 0, 
441, 1176417547, 0.9839457, 0.12608622, -0.080953926, 0.09695162, 1.612682580947876, 1.7914414405822754, 9.311978340148926, -1.345461368560791, -11.861297607421875, 2.707090377807617, 0.161376953125, 0.611083984375, -0.886962890625, 0, 
442, 1176434214, 0.9837845, 0.12580386, -0.08308759, 0.09714949, 1.716013789176941, 1.7942465543746948, 9.267148971557617, -2.70287823677063, -13.43796157836914, 2.852116584777832, 0.15625, 0.6123046875, -0.884765625, 0, 
443, 1176450881, 0.9835981, 0.12542145, -0.08571899, 0.09724525, 1.819470763206482, 1.7732361555099487, 9.245429039001465, -3.738478422164917, -16.84341049194336, 2.670767068862915, 0.1552734375, 0.614501953125, -0.88525390625, 0, 
444, 1176467548, 0.98345304, 0.12430836, -0.08897741, 0.09721497, 2.086872100830078, 1.718051791191101, 9.26301383972168, -9.197876930236816, -20.682825088500977, 2.7661001682281494, 0.145751953125, 0.6171875, -0.884033203125, 0, 
445, 1176484215, 0.98336154, 0.12214777, -0.09287572, 0.097234085, 2.3075881004333496, 1.5309582948684692, 9.350774765014648, -16.711711883544922, -24.233482360839844, 4.255806922912598, 0.13720703125, 0.619873046875, -0.8818359375, 0, 
446, 1176500882, 0.9832838, 0.11927361, -0.097027496, 0.09753217, 2.5157382488250732, 1.6915391683578491, 9.448960304260254, -21.52161979675293, -25.225126266479492, 6.808541774749756, 0.133544921875, 0.623779296875, -0.877685546875, 0, 
447, 1176517549, 0.98311156, 0.11709848, -0.10103634, 0.09783383, 2.6655519008636475, 1.8592941761016846, 9.504846572875977, -16.60782241821289, -24.784793853759766, 6.315779685974121, 0.122314453125, 0.626220703125, -0.87158203125, 0, 
448, 1176534216, 0.98297065, 0.11460277, -0.105114006, 0.09790906, 2.6633076667785645, 1.8926401138305664, 9.187087059020996, -18.99765396118164, -25.19202995300293, 5.038023471832275, 0.11767578125, 0.631591796875, -0.865478515625, 0, 
449, 1176550883, 0.98289716, 0.1111119, -0.10969491, 0.09764399, 2.6856496334075928, 1.8245292901992798, 9.126374244689941, -26.352819442749023, -28.13726806640625, 3.8146731853485107, 0.108154296875, 0.636962890625, -0.863525390625, 0, 
450, 1176567550, 0.98274094, 0.107865326, -0.114500694, 0.09734011, 2.7736618518829346, 1.4573781490325928, 9.05539321899414, -24.814119338989258, -29.910717010498047, 3.5971438884735107, 0.09619140625, 0.63916015625, -0.860107421875, 0, 
451, 1176584217, 0.9824846, 0.105023794, -0.11942885, 0.09711414, 2.88700270652771, 0.9227920174598694, 9.20012378692627, -21.988737106323242, -31.01586151123047, 4.004079341888428, 0.08642578125, 0.649169921875, -0.85595703125, 0, 
452, 1176600884, 0.98209894, 0.10298059, -0.12415227, 0.097278394, 3.004129648208618, 1.089097023010254, 9.084616661071777, -16.048606872558594, -29.99793243408203, 5.884953022003174, 0.083740234375, 0.6494140625, -0.852783203125, 0, 
453, 1176617551, 0.98144615, 0.10302115, -0.12868655, 0.09792841, 3.0314993858337402, 1.0522866249084473, 9.353967666625977, -1.2075083255767822, -29.983930587768555, 7.467726707458496, 0.071044921875, 0.652587890625, -0.849365234375, 0, 
454, 1176634218, 0.98064107, 0.10420349, -0.13316755, 0.09874907, 3.1352009773254395, 0.7979270219802856, 9.483250617980957, 6.853573322296143, -30.388229370117188, 7.748959064483643, 0.0615234375, 0.64892578125, -0.84619140625, 0, 
455, 1176650885, 0.97985286, 0.105147436, -0.13741244, 0.099750444, 3.394711971282959, 0.9659525156021118, 9.504127502441406, 5.571061611175537, -28.491601943969727, 8.978996276855469, 0.056396484375, 0.648681640625, -0.849853515625, 0, 
456, 1176667552, 0.97912407, 0.10542032, -0.1416203, 0.10072954, 3.355668544769287, 1.5516688823699951, 9.651257514953613, 0.9843886494636536, -27.756301879882812, 9.318120956420898, 0.053466796875, 0.64892578125, -0.85107421875, 0, 
457, 1176684219, 0.9784487, 0.105193906, -0.14593561, 0.10136738, 3.2797696590423584, 1.9367930889129639, 9.674293518066406, -2.8439207077026367, -28.33950424194336, 7.4990105628967285, 0.037841796875, 0.64892578125, -0.84326171875, 0, 
458, 1176700886, 0.9778056, 0.10455426, -0.1505901, 0.101426065, 3.138495922088623, 1.8114159107208252, 9.127715110778809, -6.46021842956543, -30.719680786132812, 4.245615005493164, 0.033447265625, 0.652099609375, -0.84521484375, 0, 
459, 1176717553, 0.9770691, 0.103824295, -0.15573871, 0.101499826, 3.4366419315338135, 1.0626012086868286, 9.528347969055176, -7.306015968322754, -34.05929946899414, 4.889094829559326, 0.025146484375, 0.651123046875, -0.8408203125, 0, 
460, 1176734220, 0.9764375, 0.102338165, -0.16054118, 0.10160383, 3.7784175872802734, 0.6840721964836121, 9.615910530090332, -12.161726951599121, -31.07147979736328, 5.591498374938965, 0.01513671875, 0.654052734375, -0.839111328125, 0, 
461, 1176750887, 0.97572434, 0.10209812, -0.1647485, 0.10196014, 3.9207406044006348, 0.5715810656547546, 9.316433906555176, -3.011056661605835, -27.85490608215332, 5.55771541595459, 0.01123046875, 0.656494140625, -0.8388671875, 0, 
462, 1176767554, 0.9749808, 0.1022494, -0.16874127, 0.10239172, 3.784053087234497, 0.7503522634506226, 9.185302734375, -0.09921745210886002, -26.665571212768555, 5.495436668395996, 0.002197265625, 0.655517578125, -0.831787109375, 0, 
463, 1176784221, 0.9742112, 0.1028078, -0.17240451, 0.103053436, 3.687969446182251, 1.0804389715194702, 9.04623794555664, 3.1714930534362793, -24.60881233215332, 6.355287075042725, -0.004150390625, 0.655517578125, -0.837646484375, 0, 
464, 1176800888, 0.9732783, 0.10379159, -0.17638485, 0.1041401, 3.5408825874328613, 0.9690202474594116, 8.788970947265625, 6.433582782745361, -26.926830291748047, 9.039247512817383, -0.010498046875, 0.656494140625, -0.83447265625, 0, 
465, 1176817555, 0.9720206, 0.10429249, -0.18223968, 0.10529875, 3.649919271469116, 0.6094963550567627, 8.823378562927246, 2.1970317363739014, -39.469791412353516, 11.674568176269531, -0.0185546875, 0.654296875, -0.833740234375, 0, 
466, 1176834222, 0.9705537, 0.103704736, -0.18972641, 0.106183365, 4.000375270843506, 0.8612311482429504, 8.994226455688477, -6.422170162200928, -50.04935073852539, 12.531119346618652, -0.02978515625, 0.654052734375, -0.82763671875, 0, 
467, 1176850889, 0.9691456, 0.10242041, -0.19706975, 0.10691449, 4.446266174316406, 1.2850590944290161, 9.818593978881836, -11.18287181854248, -48.61794662475586, 12.266189575195312, -0.043212890625, 0.65673828125, -0.822509765625, 0, 
468, 1176867556, 0.9681098, 0.10060687, -0.20278206, 0.10733657, 4.546319961547852, 1.4450023174285889, 10.218462944030762, -14.176071166992188, -37.07816696166992, 9.498095512390137, -0.0517578125, 0.658935546875, -0.8173828125, 0, 
469, 1176884223, 0.9674901, 0.09891764, -0.2063829, 0.107631534, 4.540305137634277, 1.2134666442871094, 9.865872383117676, -12.244359970092773, -22.629926681518555, 6.708360195159912, -0.060791015625, 0.661865234375, -0.8173828125, 0, 
470, 1176900890, 0.9667763, 0.09801239, -0.20992987, 0.10801253, 4.229706287384033, 0.7087072134017944, 9.104804992675781, -6.792041778564453, -22.932714462280273, 6.20125150680542, -0.0654296875, 0.66455078125, -0.813232421875, 0, 
471, 1176917557, 0.9656441, 0.09714421, -0.21523598, 0.108480364, 4.422271251678467, 0.6786348223686218, 9.161653518676758, -7.421602725982666, -35.203125, 8.223278045654297, -0.073974609375, 0.66845703125, -0.8076171875, 0, 
472, 1176934224, 0.96459156, 0.0963602, -0.22014777, 0.10868645, 5.0111799240112305, 1.0712592601776123, 9.894577026367188, -6.984707832336426, -32.70845413208008, 6.038180351257324, -0.085205078125, 0.665771484375, -0.806396484375, 0, 
473, 1176950891, 0.96405935, 0.0963991, -0.22234723, 0.10889745, 5.157968997955322, 1.2095080614089966, 9.909379005432129, 0.1767725795507431, -14.546422958374023, 2.638871908187866, -0.09033203125, 0.66748046875, -0.80126953125, 0, 
474, 1176967558, 0.96375513, 0.09718251, -0.2231374, 0.10927717, 4.677773475646973, 0.879416286945343, 9.372888565063477, 6.282655239105225, -5.302950382232666, 1.5144920349121094, -0.092041015625, 0.666748046875, -0.80224609375, 0, 
475, 1176984225, 0.96335095, 0.098124385, -0.22430207, 0.10961391, 4.470306873321533, 0.6674098372459412, 9.113489151000977, 7.067058086395264, -8.08852481842041, 1.3167493343353271, -0.091064453125, 0.665771484375, -0.80126953125, 0, 
476, 1177000892, 0.9629347, 0.09903528, -0.22549321, 0.11000764, 4.885628700256348, 0.7720799446105957, 9.384139060974121, 6.958346843719482, -8.223402976989746, 1.7749353647232056, -0.093994140625, 0.66357421875, -0.80029296875, 0, 
477, 1177017559, 0.96275085, 0.09984831, -0.2256816, 0.110495344, 5.08887243270874, 0.8979839086532593, 9.609335899353027, 7.075835227966309, -1.0871951580047607, 1.6955288648605347, -0.093994140625, 0.662841796875, -0.804443359375, 0, 
478, 1177034226, 0.9627541, 0.10053496, -0.22511324, 0.11100311, 4.878698825836182, 0.8555017113685608, 9.380352973937988, 6.73423957824707, 4.3226237297058105, 1.3694920539855957, -0.094482421875, 0.66259765625, -0.803466796875, 0, 
479, 1177050893, 0.96274555, 0.100831844, -0.2247838, 0.11147333, 4.688244342803955, 0.7982231974601746, 9.199337005615234, 3.938491106033325, 2.9938817024230957, 1.907787799835205, -0.092529296875, 0.660400390625, -0.80517578125, 0, 
480, 1177067560, 0.96274, 0.10053853, -0.22474253, 0.111868754, 4.8223419189453125, 0.8875027298927307, 9.221501350402832, -0.28907132148742676, 1.489493727684021, 2.5298173427581787, -0.091552734375, 0.663330078125, -0.805419921875, 0, 
481, 1177084227, 0.96292883, 0.10018245, -0.22389522, 0.112261325, 5.061716556549072, 0.8643684387207031, 9.344500541687012, -0.20810964703559875, 7.170558929443359, 1.9096449613571167, -0.092041015625, 0.664306640625, -0.80419921875, 0, 
482, 1177100894, 0.9632981, 0.10009157, -0.2221195, 0.112702064, 4.9451117515563965, 0.7749871611595154, 9.1647367477417, 2.2305986881256104, 13.425108909606934, 1.0529004335403442, -0.08447265625, 0.665771484375, -0.80517578125, 0, 
483, 1177117561, 0.9636567, 0.100166075, -0.22029619, 0.11314668, 4.6232404708862305, 0.7341637015342712, 8.927911758422852, 3.3926987648010254, 13.601848602294922, 0.812717080116272, -0.080078125, 0.665771484375, -0.805419921875, 0, 
484, 1177134228, 0.9639188, 0.10043678, -0.21878076, 0.1136146, 4.485807418823242, 0.7239579558372498, 8.897953987121582, 4.572503566741943, 11.279577255249023, 0.9685767292976379, -0.078369140625, 0.66748046875, -0.80419921875, 0, 
485, 1177150895, 0.9641665, 0.10072266, -0.21727088, 0.114155136, 4.536441326141357, 0.7609800696372986, 9.02057933807373, 4.804515838623047, 11.258535385131836, 1.4546931982040405, -0.076904296875, 0.666259765625, -0.80615234375, 0, 
486, 1177167562, 0.96448046, 0.100842156, -0.21550503, 0.11474352, 4.455465316772461, 0.8096991181373596, 9.07764720916748, 3.9442553520202637, 13.218619346618652, 1.8020977973937988, -0.071044921875, 0.66748046875, -0.8095703125, 0, 
487, 1177184229, 0.9648189, 0.10082434, -0.21373296, 0.115227655, 4.344708442687988, 0.8877707123756409, 8.954676628112793, 2.8820323944091797, 13.330816268920898, 1.302816390991211, -0.07080078125, 0.66796875, -0.809814453125, 0, 
488, 1177200896, 0.9650792, 0.10088121, -0.21239145, 0.11547931, 4.249572277069092, 0.9406291246414185, 8.700052261352539, 2.7610881328582764, 10.137907028198242, 0.021937284618616104, -0.06298828125, 0.6669921875, -0.812255859375, 0, 
489, 1177217563, 0.9652439, 0.10101062, -0.21154973, 0.11553287, 4.276235580444336, 0.9317240715026855, 8.648141860961914, 2.632589101791382, 6.486968040466309, -0.9674367308616638, -0.064453125, 0.6669921875, -0.80859375, 0, 
490, 1177234230, 0.96544653, 0.10104021, -0.21062557, 0.115503386, 4.370213985443115, 0.9502478837966919, 8.958272933959961, 1.897939920425415, 7.1117777824401855, -1.4527078866958618, -0.0615234375, 0.666015625, -0.8076171875, 0, 
491, 1177250897, 0.96572167, 0.101374, -0.20921968, 0.11546567, 4.199906826019287, 0.8881380558013916, 8.844832420349121, 4.247496128082275, 10.167976379394531, -2.332402229309082, -0.05908203125, 0.6669921875, -0.808349609375, 0, 
492, 1177267564, 0.9658107, 0.10220483, -0.20846273, 0.11535679, 3.933321952819824, 0.7350565195083618, 8.56206226348877, 7.0712456703186035, 5.147359848022461, -2.911569118499756, -0.05712890625, 0.666259765625, -0.8125, 0, 
493, 1177284231, 0.965751, 0.10302594, -0.20846318, 0.11512519, 4.074834823608398, 0.7831698060035706, 8.699616432189941, 6.350094795227051, -0.1731739193201065, -3.0532846450805664, -0.05615234375, 0.666015625, -0.81005859375, 0, 
494, 1177300898, 0.96570534, 0.103932016, -0.20834728, 0.11490252, 4.279220104217529, 0.9014975428581238, 8.950521469116211, 7.025161266326904, 0.5592982172966003, -3.2023561000823975, -0.0576171875, 0.665283203125, -0.814453125, 0, 
495, 1177317565, 0.9656084, 0.10483641, -0.20850556, 0.11460993, 4.116666316986084, 0.8718776702880859, 8.797599792480469, 6.748172760009766, -1.381357192993164, -3.420499801635742, -0.058837890625, 0.66015625, -0.81591796875, 0, 
496, 1177334232, 0.96543497, 0.10535613, -0.20929134, 0.114161976, 4.154752254486084, 0.8371577858924866, 8.802967071533203, 3.547973871231079, -5.465654373168945, -3.3829703330993652, -0.064453125, 0.660888671875, -0.817138671875, 0, 
497, 1177350899, 0.9652289, 0.1056894, -0.21030183, 0.113736145, 4.3778791427612305, 0.8831344842910767, 8.992834091186523, 2.205369234085083, -6.840250492095947, -2.7740671634674072, -0.06298828125, 0.66357421875, -0.810791015625, 0, 
498, 1177367566, 0.96502274, 0.105801806, -0.21143901, 0.113273755, 4.468596458435059, 0.9429368376731873, 9.082551956176758, 0.6058684587478638, -7.533266067504883, -2.5996062755584717, -0.06689453125, 0.659423828125, -0.81787109375, 0, 
499, 1177384233, 0.9648454, 0.10568235, -0.21259092, 0.11273812, 4.536165714263916, 0.9981837272644043, 9.154502868652344, -1.056261420249939, -7.4597578048706055, -2.755587339401245, -0.069091796875, 0.658935546875, -0.819580078125, 0, 
500, 1177400900, 0.964695, 0.105531305, -0.21360259, 0.11225331, 4.567771911621094, 0.918932318687439, 9.260702133178711, -1.0868687629699707, -6.426388263702393, -2.490086793899536, -0.07275390625, 0.6611328125, -0.814453125, 0, 
501, 1177417567, 0.9646591, 0.10536016, -0.21412034, 0.11173565, 4.568360805511475, 0.8568298816680908, 9.31592845916748, -0.9532471299171448, -2.9899048805236816, -3.1201839447021484, -0.071533203125, 0.66064453125, -0.81396484375, 0, 
502, 1177434234, 0.9646366, 0.10537028, -0.21445765, 0.111272514, 4.481674671173096, 0.8267927169799805, 9.154065132141113, 0.47744640707969666, -1.87079656124115, -3.1569509506225586, -0.07373046875, 0.660400390625, -0.81494140625, 0, 
503, 1177450901, 0.96461624, 0.105125085, -0.21490821, 0.11081062, 4.496431827545166, 0.8820223808288574, 9.209704399108887, -1.2837406396865845, -2.4216232299804688, -2.683436393737793, -0.075439453125, 0.65966796875, -0.814453125, 0, 
504, 1177467568, 0.9646623, 0.104571186, -0.21521872, 0.11032991, 4.549855709075928, 1.0166492462158203, 9.253609657287598, -3.282977819442749, -1.1721715927124023, -2.4969370365142822, -0.07568359375, 0.65869140625, -0.811279296875, 0, 
505, 1177484235, 0.96476156, 0.10393673, -0.21536702, 0.10976991, 4.5492634773254395, 1.0049927234649658, 9.174330711364746, -3.8367252349853516, -0.013901292346417904, -3.0535781383514404, -0.079833984375, 0.6611328125, -0.812744140625, 0, 
506, 1177500902, 0.964899, 0.10328549, -0.21536443, 0.109181456, 4.555712699890137, 0.8861709237098694, 9.136802673339844, -3.891216516494751, 1.0371479988098145, -3.347317695617676, -0.080322265625, 0.660888671875, -0.81005859375, 0, 
507, 1177517569, 0.96509326, 0.10258804, -0.21510333, 0.108633086, 4.538288593292236, 0.8145627379417419, 9.09134292602539, -3.9702250957489014, 2.9006452560424805, -3.2307608127593994, -0.080078125, 0.66357421875, -0.81005859375, 0, 
508, 1177534236, 0.96527696, 0.101951756, -0.2148601, 0.10808151, 4.502577781677246, 0.8209177255630493, 8.96078109741211, -3.557950019836426, 2.719972848892212, -3.3109025955200195, -0.078125, 0.662841796875, -0.81005859375, 0, 
509, 1177550903, 0.96544427, 0.10146902, -0.21462953, 0.10749812, 4.5101237297058105, 0.8608071208000183, 8.922630310058594, -2.5683841705322266, 2.4779393672943115, -3.719636917114258, -0.080322265625, 0.662353515625, -0.808349609375, 0, 
510, 1177567570, 0.96563476, 0.10117312, -0.21418463, 0.10695214, 4.568553924560547, 0.912427544593811, 9.007863998413086, -1.1176167726516724, 3.8257439136505127, -3.9048550128936768, -0.078125, 0.664306640625, -0.805419921875, 0, 
511, 1177584237, 0.96589327, 0.1011039, -0.21332867, 0.10639125, 4.464554309844971, 0.8734421133995056, 8.914399147033691, 0.63260817527771, 6.481627464294434, -4.66514253616333, -0.078369140625, 0.66162109375, -0.811279296875, 0, 
