sep=,
DeviceTag:,Xsens_5,,,,,,,,,,,,,,,,,
FirmwareVersion:,2.2.1,,,,,,,,,,,,,,,,,
AppVersion:,2023.0.0,,,,,,,,,,,,,,,,,
StartTime:,2023-07-03 16:03:54.000 +0200,,,,,,,,,,,,,,,,,
© Movella Technologies B. V. 2005-2023,,,,,,,,,,,,,,,,,,,

PacketCounter,SampleTimeFine,Quat_W,Quat_X,Quat_Y,Quat_Z,Acc_X,Acc_Y,Acc_Z,Gyr_X,Gyr_Y,Gyr_Z,Mag_X,Mag_Y,Mag_Z,Status,
0, 2292510051, 0.56726694, 0.59135205, -0.08411638, 0.56695276, 0.0, 0.0, 0.0, 0.0, 0.0, 0.0, -0.27001953125, -0.59130859375, -0.5615234375, 0, 
1, 2292526718, 0.56723404, 0.5884606, -0.08877386, 0.5692792, 7.319071292877197, 5.725414276123047, 3.4567830562591553, -9.59080696105957, -25.433210372924805, 30.33454132080078, -0.280029296875, -0.582763671875, -0.5615234375, 0, 
2, 2292543385, 0.5674713, 0.58518827, -0.09322703, 0.5716991, 7.49747896194458, 5.772381782531738, 3.676530361175537, -8.911979675292969, -31.469478607177734, 38.74704360961914, -0.289306640625, -0.572021484375, -0.559814453125, 0, 
3, 2292560052, 0.5675463, 0.58144265, -0.09924696, 0.5744267, 7.237258434295654, 5.781863212585449, 3.630998373031616, -17.297897338867188, -34.15001678466797, 48.742462158203125, -0.30224609375, -0.562744140625, -0.558837890625, 0, 
4, 2292576719, 0.56712425, 0.578752, -0.105513304, 0.57644016, 6.566411972045898, 5.802731037139893, 3.608287811279297, -19.33553695678711, -39.18217468261719, 52.528648376464844, -0.314453125, -0.548095703125, -0.554443359375, 0, 
5, 2292593386, 0.5664104, 0.578068, -0.11110677, 0.57677704, 6.557863712310791, 5.741807460784912, 3.6799120903015137, -13.055381774902344, -49.591922760009766, 51.59096145629883, -0.329833984375, -0.539306640625, -0.552734375, 0, 
6, 2292610053, 0.56427604, 0.5795872, -0.11655186, 0.5762697, 6.882980823516846, 5.612326622009277, 3.9872777462005615, 0.3678002655506134, -59.1641845703125, 54.17517852783203, -0.347900390625, -0.52880859375, -0.544921875, 0, 
7, 2292626720, 0.5618129, 0.58138084, -0.12313349, 0.5755005, 7.277143478393555, 5.859405040740967, 4.292354106903076, 0.47325170040130615, -63.97328186035156, 56.77142333984375, -0.3662109375, -0.51904296875, -0.54052734375, 0, 
8, 2292643387, 0.55957735, 0.58259386, -0.1307521, 0.574771, 7.751875400543213, 6.112008094787598, 4.400156021118164, -8.12697982788086, -66.44723510742188, 58.08203125, -0.384521484375, -0.50927734375, -0.533203125, 0, 
9, 2292660054, 0.55746853, 0.5833927, -0.13908382, 0.5740539, 8.261159896850586, 6.041698932647705, 4.31610107421875, -13.303399085998535, -66.52022552490234, 59.35868835449219, -0.40185546875, -0.49609375, -0.522705078125, 0, 
10, 2292676721, 0.5557681, 0.58347946, -0.14825739, 0.5733179, 8.368525505065918, 5.704932689666748, 4.255911350250244, -21.62596893310547, -64.66877746582031, 59.22806930541992, -0.42041015625, -0.4794921875, -0.513671875, 0, 
11, 2292693388, 0.5547236, 0.58241427, -0.15829867, 0.5727277, 8.036290168762207, 5.355379104614258, 3.884525775909424, -32.35187530517578, -60.465965270996094, 59.02939224243164, -0.434814453125, -0.46337890625, -0.507568359375, 0, 
12, 2292710055, 0.55349356, 0.58127284, -0.1686625, 0.5721188, 7.554269790649414, 4.970672607421875, 3.8069040775299072, -34.04007339477539, -59.601295471191406, 59.02004623413086, -0.453125, -0.4423828125, -0.50537109375, 0, 
13, 2292726722, 0.5518888, 0.5803035, -0.17939007, 0.57138944, 7.336025714874268, 4.42525577545166, 3.8155407905578613, -34.05257797241211, -61.26921463012695, 59.8656120300293, -0.467529296875, -0.42529296875, -0.4970703125, 0, 
14, 2292743389, 0.54918545, 0.57997185, -0.19005826, 0.5708818, 7.229730129241943, 4.008236885070801, 3.6185083389282227, -26.967073440551758, -63.178340911865234, 62.28080749511719, -0.48388671875, -0.406494140625, -0.483642578125, 0, 
15, 2292760056, 0.545088, 0.5807114, -0.20044139, 0.5705057, 7.377267360687256, 4.101799011230469, 3.577821731567383, -16.368663787841797, -66.5914077758789, 64.04731750488281, -0.49658203125, -0.388916015625, -0.4775390625, 0, 
16, 2292776723, 0.54032534, 0.58180636, -0.21084353, 0.570171, 7.225427150726318, 4.682323932647705, 3.641474962234497, -12.831923484802246, -67.91055297851562, 65.49344635009766, -0.515625, -0.375732421875, -0.46484375, 0, 
17, 2292793390, 0.535604, 0.5828528, -0.22105208, 0.56969047, 6.597033977508545, 5.203535079956055, 3.37506103515625, -13.2293062210083, -67.05313873291016, 64.6527099609375, -0.52978515625, -0.36083984375, -0.453125, 0, 
18, 2292810057, 0.5312972, 0.5839252, -0.23122485, 0.56858575, 6.281984806060791, 5.115354537963867, 3.1806116104125977, -16.41038703918457, -68.4216537475586, 62.22210693359375, -0.543701171875, -0.343017578125, -0.44140625, 0, 
19, 2292826724, 0.52642214, 0.5859056, -0.2410762, 0.5669893, 6.656887054443359, 4.676313877105713, 3.3560054302215576, -10.98090648651123, -73.17219543457031, 61.29893493652344, -0.556640625, -0.328857421875, -0.428466796875, 0, 
20, 2292843391, 0.5204143, 0.58936894, -0.24988063, 0.56513095, 7.306953430175781, 4.354727745056152, 3.69718861579895, 2.3429296016693115, -77.80269622802734, 58.543601989746094, -0.572509765625, -0.31787109375, -0.4150390625, 0, 
21, 2292860058, 0.51401925, 0.59338856, -0.25772688, 0.5632506, 7.846319198608398, 4.632383823394775, 3.819470167160034, 9.62356185913086, -77.28530883789062, 54.95939254760742, -0.5859375, -0.307861328125, -0.3994140625, 0, 
22, 2292876725, 0.50770533, 0.59746516, -0.26471886, 0.5614221, 8.05356216430664, 4.782886505126953, 3.8389391899108887, 12.935309410095215, -74.18119812011719, 51.256961822509766, -0.602783203125, -0.295166015625, -0.38427734375, 0, 
23, 2292893392, 0.5023912, 0.6005053, -0.27201024, 0.55947036, 8.248538970947266, 4.537759780883789, 3.5653131008148193, 3.8632454872131348, -69.99857330322266, 50.187217712402344, -0.612060546875, -0.291015625, -0.371337890625, 0, 
24, 2292910059, 0.49805975, 0.6026674, -0.27941617, 0.5573646, 8.376505851745605, 4.216876983642578, 3.201280117034912, -3.9652135372161865, -65.70744323730469, 47.809226989746094, -0.626708984375, -0.27783203125, -0.3564453125, 0, 
25, 2292926726, 0.49368632, 0.60543495, -0.28577504, 0.55502707, 8.933602333068848, 3.862116575241089, 2.8731937408447266, 1.8029860258102417, -65.13874053955078, 41.273284912109375, -0.6357421875, -0.265625, -0.34521484375, 0, 
26, 2292943393, 0.48907363, 0.6092484, -0.2908773, 0.55228055, 9.745284080505371, 3.9300856590270996, 3.097943067550659, 10.297730445861816, -66.47907257080078, 32.8626823425293, -0.646484375, -0.2626953125, -0.332763671875, 0, 
27, 2292960060, 0.48566034, 0.6128776, -0.2954121, 0.5488595, 10.478168487548828, 4.441538333892822, 2.9412782192230225, 5.503452777862549, -63.961116790771484, 23.406293869018555, -0.65625, -0.2578125, -0.318359375, 0, 
28, 2292976727, 0.4842419, 0.6155515, -0.29975668, 0.54474986, 11.028176307678223, 4.758482456207275, 2.536017656326294, -6.752081394195557, -58.21963119506836, 14.356452941894531, -0.66650390625, -0.250732421875, -0.3037109375, 0, 
29, 2292993394, 0.48508805, 0.61692554, -0.30419, 0.5399638, 12.003484725952148, 4.51910400390625, 1.677795648574829, -22.41387367248535, -51.36688232421875, 6.4037652015686035, -0.67431640625, -0.248291015625, -0.29541015625, 0, 
30, 2293010061, 0.48769733, 0.61629283, -0.30887982, 0.53565663, 12.573957443237305, 3.8890292644500732, 1.0961800813674927, -36.67090606689453, -38.227481842041016, 6.170366287231445, -0.68505859375, -0.240234375, -0.27978515625, 0, 
31, 2293026728, 0.49151495, 0.61335844, -0.31382835, 0.5326501, 10.812623023986816, 2.9939117431640625, 0.7688674926757812, -47.91361999511719, -21.578271865844727, 11.141433715820312, -0.686767578125, -0.231201171875, -0.275146484375, 0, 
32, 2293043395, 0.49480596, 0.6107974, -0.32034075, 0.5286546, 9.11699104309082, 2.369562864303589, 0.2095269113779068, -52.52421569824219, -32.61653518676758, 14.520750045776367, -0.69287109375, -0.2177734375, -0.26953125, 0, 
33, 2293060062, 0.49687836, 0.60943615, -0.32839406, 0.52331346, 8.86060619354248, 2.1600005626678467, 0.041276320815086365, -52.128143310546875, -49.54197692871094, 17.279983520507812, -0.69921875, -0.206787109375, -0.25341796875, 0, 
34, 2293076729, 0.49870327, 0.60838854, -0.33777, 0.5167881, 8.525442123413086, 2.3298351764678955, 0.15708330273628235, -57.65943145751953, -59.781551361083984, 18.114051818847656, -0.70849609375, -0.1923828125, -0.23779296875, 0, 
35, 2293093396, 0.5021161, 0.60627884, -0.34875476, 0.5086018, 8.298511505126953, 2.6463711261749268, -0.0460163950920105, -77.6769790649414, -64.06571960449219, 15.330780029296875, -0.717529296875, -0.17822265625, -0.220458984375, 0, 
36, 2293110063, 0.5082677, 0.60197884, -0.36179343, 0.49838856, 8.083812713623047, 2.9779274463653564, -0.1866152137517929, -108.8403549194336, -64.73160552978516, 12.119717597961426, -0.72900390625, -0.160400390625, -0.19580078125, 0, 
37, 2293126730, 0.5174328, 0.59491485, -0.37642056, 0.48646396, 7.782116413116455, 3.179856061935425, -0.4913942813873291, -140.8147735595703, -59.84099578857422, 8.964967727661133, -0.733154296875, -0.14111328125, -0.175537109375, 0, 
38, 2293143397, 0.52676046, 0.58757436, -0.39081228, 0.47386268, 8.168364524841309, 2.263903856277466, -0.8899829387664795, -143.5599365234375, -59.86606979370117, 5.587017059326172, -0.74462890625, -0.12060546875, -0.1533203125, 0, 
39, 2293160064, 0.5345344, 0.5813312, -0.40410787, 0.4615451, 9.182931900024414, 1.5922882556915283, -0.8923342823982239, -129.1219482421875, -61.87131881713867, 3.843034505844116, -0.75048828125, -0.102783203125, -0.129638671875, 0, 
40, 2293176731, 0.5406565, 0.57631993, -0.41570827, 0.45025843, 10.270047187805176, 2.020237922668457, -0.47032323479652405, -109.8714370727539, -59.437503814697266, 2.030756950378418, -0.758056640625, -0.08740234375, -0.10498046875, 0, 
41, 2293193398, 0.54598266, 0.57160145, -0.42585057, 0.4402569, 10.857624053955078, 2.700545310974121, -0.2046058028936386, -97.52958679199219, -51.71122741699219, 2.15743088722229, -0.762451171875, -0.075927734375, -0.082763671875, 0, 
42, 2293210065, 0.5512484, 0.56697774, -0.43440863, 0.43122023, 11.07636833190918, 3.0324108600616455, -0.4797661304473877, -89.3773193359375, -42.165626525878906, -0.8229900598526001, -0.76708984375, -0.06494140625, -0.064208984375, 0, 
43, 2293226732, 0.55710226, 0.5615892, -0.4416, 0.42337236, 10.616729736328125, 3.2445452213287354, -0.19042734801769257, -87.03873443603516, -28.02172088623047, -1.272911787033081, -0.7744140625, -0.056884765625, -0.052490234375, 0, 
44, 2293243399, 0.5628444, 0.5560411, -0.4483059, 0.41598836, 9.438677787780762, 3.2625555992126465, 0.47365671396255493, -84.44813537597656, -24.04680061340332, -0.6269389986991882, -0.775390625, -0.049072265625, -0.03564453125, 0, 
45, 2293260066, 0.5679683, 0.5510324, -0.45524693, 0.4080757, 8.746264457702637, 3.132002353668213, 0.5908488631248474, -82.30166625976562, -30.399595260620117, -1.6537033319473267, -0.780029296875, -0.043701171875, -0.021728515625, 0, 
46, 2293276733, 0.5729686, 0.54616845, -0.46305287, 0.39873463, 8.713212966918945, 3.508270025253296, 0.793425440788269, -88.156005859375, -39.981056213378906, -4.044942855834961, -0.78369140625, -0.037353515625, -0.003662109375, 0, 
47, 2293293400, 0.5790781, 0.5400898, -0.47230342, 0.38717118, 8.700413703918457, 3.9706246852874756, 1.2237268686294556, -108.1166000366211, -47.212162017822266, -6.473928451538086, -0.7861328125, -0.031494140625, 0.016357421875, 0, 
48, 2293310067, 0.586267, 0.5324096, -0.48315954, 0.37334692, 8.531635284423828, 3.593700408935547, 0.8319035768508911, -130.0539093017578, -54.38985061645508, -7.05560302734375, -0.792724609375, -0.021484375, 0.042724609375, 0, 
49, 2293326734, 0.5938033, 0.5236012, -0.49504083, 0.35801443, 9.096810340881348, 3.3034892082214355, 0.09041888266801834, -143.48304748535156, -60.07655334472656, -6.5098443031311035, -0.796630859375, -0.01513671875, 0.072509765625, 0, 
50, 2293343401, 0.60179013, 0.5134895, -0.5067722, 0.34257734, 9.591400146484375, 3.2219769954681396, -0.6069828867912292, -150.41036987304688, -55.03783416748047, -4.244574546813965, -0.80322265625, -0.009033203125, 0.098388671875, 0, 
51, 2293360068, 0.60970694, 0.5025682, -0.5181353, 0.32744262, 9.436904907226562, 3.5388946533203125, -1.0205416679382324, -151.63925170898438, -50.60549545288086, -1.4437898397445679, -0.805908203125, 0.001220703125, 0.129150390625, 0, 
52, 2293376735, 0.6179525, 0.49058685, -0.52944905, 0.31167763, 9.559892654418945, 3.8154296875, -1.4011204242706299, -159.41354370117188, -48.78056716918945, -1.2807989120483398, -0.80712890625, 0.006591796875, 0.158203125, 0, 
53, 2293393402, 0.6258892, 0.47863355, -0.5395672, 0.2967153, 9.70380973815918, 3.6985487937927246, -1.6175307035446167, -152.84153747558594, -41.89458465576172, -1.3532257080078125, -0.810791015625, 0.010986328125, 0.186767578125, 0, 
54, 2293410069, 0.6331966, 0.467463, -0.54793674, 0.28338304, 9.777106285095215, 3.068588972091675, -1.6991121768951416, -137.87142944335938, -32.635257720947266, -1.7371890544891357, -0.8095703125, 0.013427734375, 0.2109375, 0, 
55, 2293426736, 0.6388951, 0.45856375, -0.55413723, 0.27288178, 9.679020881652832, 2.630514621734619, -1.6882297992706299, -108.00580596923828, -24.276838302612305, -1.9134918451309204, -0.812744140625, 0.015869140625, 0.2294921875, 0, 
56, 2293443403, 0.6436739, 0.4512488, -0.55872023, 0.26436767, 9.3935546875, 3.095348834991455, -1.1842811107635498, -87.6290512084961, -17.090221405029297, -2.7422878742218018, -0.81201171875, 0.018798828125, 0.244140625, 0, 
57, 2293460070, 0.64907503, 0.44365945, -0.5623614, 0.25615937, 9.101529121398926, 3.8781886100769043, -0.6286250948905945, -87.95089721679688, -8.879386901855469, -4.4304280281066895, -0.814208984375, 0.018310546875, 0.2529296875, 0, 
58, 2293476737, 0.6545677, 0.43620804, -0.56531525, 0.24835978, 8.631609916687012, 3.4217567443847656, -0.1876799315214157, -84.85870361328125, -4.343269348144531, -5.306472301483154, -0.814453125, 0.013916015625, 0.264892578125, 0, 
59, 2293493404, 0.65853995, 0.43016446, -0.5682833, 0.241532, 8.487189292907715, 2.610978126525879, 0.023060267791152, -70.22420501708984, -9.755217552185059, -3.725202798843384, -0.81591796875, 0.013671875, 0.276611328125, 0, 
60, 2293510071, 0.66062593, 0.42564556, -0.57174325, 0.23560372, 8.598182678222656, 3.342196464538574, 0.8078585267066956, -55.05622100830078, -19.197179794311523, -1.09028160572052, -0.81591796875, 0.013671875, 0.284423828125, 0, 
61, 2293526738, 0.663637, 0.4189649, -0.57650673, 0.2273639, 8.570563316345215, 4.728102684020996, 1.3562668561935425, -78.7556381225586, -24.8253173828125, -0.7459748983383179, -0.81689453125, 0.010986328125, 0.30126953125, 0, 
62, 2293543405, 0.6677963, 0.41040456, -0.58172613, 0.21728049, 8.501165390014648, 4.208366870880127, 0.7730767726898193, -98.61314392089844, -24.879558563232422, -1.9878485202789307, -0.81884765625, 0.01513671875, 0.317626953125, 0, 
63, 2293560072, 0.67091703, 0.40269148, -0.5869272, 0.20791045, 8.533134460449219, 2.6086244583129883, 0.018868761137127876, -88.88929748535156, -28.27426528930664, -0.48778319358825684, -0.8193359375, 0.011962890625, 0.33447265625, 0, 
64, 2293576739, 0.6731354, 0.39584726, -0.5919753, 0.199397, 9.044235229492188, 3.111701011657715, 0.04892328754067421, -78.71688842773438, -30.049936294555664, 0.7258628010749817, -0.819580078125, 0.01171875, 0.348876953125, 0, 
65, 2293593406, 0.6758336, 0.3881137, -0.5969905, 0.1903134, 9.56352424621582, 4.592109203338623, 0.1218767911195755, -86.42174530029297, -28.25102996826172, 0.9115505218505859, -0.8154296875, 0.010009765625, 0.365234375, 0, 
66, 2293610073, 0.68029183, 0.3779886, -0.6017817, 0.1794064, 10.027467727661133, 4.428708553314209, -0.29907500743865967, -109.4273681640625, -21.710365295410156, -0.5397600531578064, -0.816162109375, 0.00732421875, 0.381591796875, 0, 
67, 2293626740, 0.6845134, 0.36828998, -0.60591, 0.16934276, 9.94112777709961, 2.7451441287994385, -0.8341343998908997, -102.53396606445312, -17.866077423095703, 0.26727232336997986, -0.8154296875, 0.005859375, 0.397705078125, 0, 
68, 2293643407, 0.68862253, 0.35817912, -0.609932, 0.15965569, 9.971393585205078, 3.0248935222625732, -0.6259394288063049, -102.53690338134766, -16.28130531311035, 3.483670711517334, -0.81396484375, 0.002685546875, 0.411865234375, 0, 
69, 2293660074, 0.69290054, 0.34786808, -0.61340386, 0.15037519, 9.919130325317383, 3.3879921436309814, -0.6583101749420166, -101.63035583496094, -11.652914047241211, 4.614880561828613, -0.816162109375, -4.8828125E-4, 0.427001953125, 0, 
70, 2293676741, 0.6972718, 0.33766288, -0.6162144, 0.14168906, 9.577788352966309, 2.8035595417022705, -0.4857832193374634, -98.19815826416016, -6.693121433258057, 5.278708457946777, -0.812255859375, -0.001708984375, 0.435302734375, 0, 
71, 2293693408, 0.7013859, 0.32754004, -0.61882377, 0.1335396, 9.155352592468262, 2.3028502464294434, -0.3690851926803589, -94.77132415771484, -5.565920352935791, 7.200593948364258, -0.814208984375, -0.0048828125, 0.450439453125, 0, 
72, 2293710075, 0.7047881, 0.31816927, -0.6214144, 0.12604201, 9.068243026733398, 2.515636682510376, -0.1150234267115593, -86.7799072265625, -7.649963855743408, 7.640084266662598, -0.8134765625, -0.00927734375, 0.45947265625, 0, 
73, 2293726742, 0.70749223, 0.31020018, -0.62362546, 0.11967494, 9.256580352783203, 2.143625497817993, -0.23700030148029327, -73.322509765625, -7.476004123687744, 6.827727317810059, -0.8125, -0.011962890625, 0.46728515625, 0, 
74, 2293743409, 0.70944774, 0.30326056, -0.6258326, 0.11423904, 9.44301700592041, 2.0207087993621826, -0.1408473700284958, -62.74690628051758, -9.453756332397461, 7.441895008087158, -0.813232421875, -0.012451171875, 0.476806640625, 0, 
75, 2293760076, 0.7108137, 0.29748625, -0.6278479, 0.10978603, 9.483433723449707, 2.2190818786621094, -0.004983548074960709, -51.474761962890625, -9.853494644165039, 7.168290615081787, -0.808837890625, -0.01220703125, 0.486572265625, 0, 
76, 2293776743, 0.71181345, 0.29269218, -0.62960905, 0.10604558, 9.495054244995117, 2.3882975578308105, -0.12622863054275513, -42.68330383300781, -9.418801307678223, 6.090670585632324, -0.8095703125, -0.014404296875, 0.494384765625, 0, 
77, 2293793410, 0.7121894, 0.28934014, -0.6311279, 0.10366515, 9.554800987243652, 2.46661376953125, -0.04199449345469475, -28.326841354370117, -9.17974853515625, 6.410821914672852, -0.809326171875, -0.01708984375, 0.5009765625, 0, 
78, 2293810077, 0.7124142, 0.28652534, -0.6324409, 0.101920456, 9.508379936218262, 3.1208858489990234, 0.25276485085487366, -22.507923126220703, -7.885321140289307, 6.843746662139893, -0.805908203125, -0.015625, 0.501708984375, 0, 
79, 2293826744, 0.7126839, 0.28410473, -0.6334617, 0.10046161, 9.488879203796387, 3.0533370971679688, 0.356915146112442, -19.228534698486328, -5.937776565551758, 5.944070339202881, -0.804931640625, -0.014892578125, 0.506591796875, 0, 
80, 2293843411, 0.71281767, 0.2823003, -0.6342555, 0.09958598, 9.3177490234375, 2.691255569458008, 0.30413520336151123, -13.256105422973633, -4.682132720947266, 5.78801965713501, -0.806640625, -0.013916015625, 0.510009765625, 0, 
81, 2293860078, 0.7127141, 0.28122443, -0.63489664, 0.09928629, 9.390617370605469, 2.795280933380127, 0.21349294483661652, -6.616286277770996, -4.325204849243164, 5.291962146759033, -0.804443359375, -0.013916015625, 0.509033203125, 0, 
82, 2293876745, 0.71265817, 0.2806144, -0.63518053, 0.09959723, 9.264715194702148, 3.230372190475464, 0.43268585205078125, -1.5252492427825928, -1.4705917835235596, 5.529340744018555, -0.802734375, -0.01220703125, 0.510009765625, 0, 
83, 2293893412, 0.71312314, 0.27887395, -0.6355372, 0.098880045, 9.337766647338867, 3.5510451793670654, 0.7610424757003784, -12.614683151245117, -0.7482625842094421, 5.257041931152344, -0.80322265625, -0.0126953125, 0.51220703125, 0, 
84, 2293910079, 0.7140454, 0.27649188, -0.63574153, 0.09759274, 9.318522453308105, 2.939483404159546, 0.35866811871528625, -19.024818420410156, 1.3282825946807861, 4.7337775230407715, -0.802734375, -0.01318359375, 0.51171875, 0, 
85, 2293926746, 0.7146233, 0.27470186, -0.6359812, 0.0968524, 9.2568359375, 2.5689241886138916, 0.22715970873832703, -13.104658126831055, 0.3118540644645691, 5.144935607910156, -0.8017578125, -0.01220703125, 0.516845703125, 0, 
86, 2293943413, 0.71492946, 0.2734364, -0.6362473, 0.09642625, 9.310620307922363, 2.881136417388916, 0.3081928789615631, -8.665790557861328, -0.733330249786377, 4.61140775680542, -0.80224609375, -0.010009765625, 0.51171875, 0, 
87, 2293960080, 0.7153915, 0.271931, -0.6365119, 0.09550606, 9.557716369628906, 3.333466053009033, 0.6593822836875916, -12.306217193603516, -0.7887818813323975, 3.140125036239624, -0.8017578125, -0.00927734375, 0.517333984375, 0, 
88, 2293976747, 0.7159701, 0.2704368, -0.6366539, 0.094460584, 9.576375961303711, 2.6254780292510986, 0.3556036055088043, -12.939133644104004, 0.08174937218427658, 2.215890407562256, -0.79833984375, -0.010498046875, 0.517822265625, 0, 
89, 2293993414, 0.71602666, 0.26933005, -0.6371679, 0.09372503, 9.535895347595215, 2.672302007675171, 0.4421769678592682, -8.95102596282959, -3.6901891231536865, 3.0622873306274414, -0.80126953125, -0.010498046875, 0.5224609375, 0, 
90, 2294010081, 0.7159796, 0.26807785, -0.6378948, 0.09272556, 9.82457447052002, 3.182831048965454, 0.6452143788337708, -10.771324157714844, -5.576015949249268, 2.8544280529022217, -0.7978515625, -0.010009765625, 0.521728515625, 0, 
91, 2294026748, 0.7162062, 0.26625893, -0.63864344, 0.09104729, 9.875434875488281, 3.180112600326538, 0.697628378868103, -17.058128356933594, -5.372270107269287, 1.8928253650665283, -0.796142578125, -0.01220703125, 0.52294921875, 0, 
92, 2294043415, 0.7163424, 0.26462188, -0.6393965, 0.08944928, 9.851997375488281, 2.658890724182129, 0.5796138048171997, -15.64635181427002, -5.7627482414245605, 1.5807726383209229, -0.798583984375, -0.011474609375, 0.52685546875, 0, 
93, 2294060082, 0.7161653, 0.26387373, -0.6400155, 0.08864663, 9.842792510986328, 2.65789794921875, 0.33713456988334656, -7.119757175445557, -5.577846050262451, 1.5266389846801758, -0.796875, -0.0126953125, 0.528076171875, 0, 
94, 2294076749, 0.7159127, 0.26413244, -0.6401682, 0.08881467, 9.855310440063477, 2.9353182315826416, 0.5063866972923279, 2.5263280868530273, -2.447050094604492, 1.063240885734558, -0.7958984375, -0.0126953125, 0.52978515625, 0, 
95, 2294093416, 0.7156767, 0.26489976, -0.64001834, 0.089507274, 9.730986595153809, 3.1165754795074463, 0.604503870010376, 7.489865303039551, -0.2337031215429306, 0.8579807877540588, -0.798095703125, -0.014404296875, 0.529052734375, 0, 
96, 2294110083, 0.71554476, 0.2652053, -0.64000785, 0.0897332, 9.787700653076172, 3.3442635536193848, 0.9238028526306152, 2.8879151344299316, -1.0247896909713745, 0.8117624521255493, -0.795654296875, -0.0126953125, 0.524658203125, 0, 
97, 2294126750, 0.71576893, 0.26511663, -0.63981384, 0.08959046, 9.931173324584961, 2.940706491470337, 0.7290397882461548, -1.205269455909729, 0.9971598982810974, 0.22218374907970428, -0.7958984375, -0.011474609375, 0.529052734375, 0, 
98, 2294143417, 0.7159552, 0.26531768, -0.63949126, 0.089809746, 9.74614143371582, 2.5742225646972656, 0.5029095411300659, 1.9634119272232056, 1.9369670152664185, 0.5288189649581909, -0.795166015625, -0.0126953125, 0.52685546875, 0, 
99, 2294160084, 0.715984, 0.26592156, -0.63913214, 0.090348706, 9.674723625183105, 2.8446264266967773, 0.564018189907074, 5.660170555114746, 1.7636713981628418, 0.34764760732650757, -0.794677734375, -0.0126953125, 0.524658203125, 0, 
100, 2294176751, 0.71602744, 0.26685816, -0.6385866, 0.091097385, 9.670381546020508, 3.051851272583008, 0.7274091243743896, 8.306859016418457, 2.927717447280884, -0.4249916076660156, -0.796875, -0.010986328125, 0.52294921875, 0, 
101, 2294193418, 0.71633977, 0.26719806, -0.6380554, 0.09136722, 9.701665878295898, 3.1034457683563232, 0.7313308715820312, 2.76480770111084, 3.5276436805725098, -0.28125303983688354, -0.794677734375, -0.01220703125, 0.5234375, 0, 
102, 2294210085, 0.71690565, 0.2676772, -0.6371755, 0.09166623, 9.724499702453613, 2.8162059783935547, 0.31600841879844666, 3.3325390815734863, 6.316930770874023, -1.5228800773620605, -0.795166015625, -0.014404296875, 0.52587890625, 0, 
103, 2294226752, 0.71703255, 0.26947394, -0.63606805, 0.09308993, 9.518245697021484, 2.3566555976867676, 0.3088158369064331, 15.696649551391602, 6.778503894805908, -1.8925626277923584, -0.796630859375, -0.0126953125, 0.516845703125, 0, 
104, 2294243419, 0.7168997, 0.27124083, -0.6352535, 0.094533585, 9.525031089782715, 3.2203004360198975, 0.6180169582366943, 15.928484916687012, 4.274539947509766, -0.9810187220573425, -0.800048828125, -0.01318359375, 0.517333984375, 0, 
105, 2294260086, 0.7171472, 0.27210647, -0.63452744, 0.09504321, 9.810868263244629, 3.636033535003662, 0.7026891708374023, 6.636693477630615, 4.349645137786865, -1.6963037252426147, -0.79833984375, -0.01171875, 0.51220703125, 0, 
106, 2294276753, 0.7176769, 0.27251545, -0.6337201, 0.09525876, 9.840298652648926, 2.8588707447052, 0.5006612539291382, 2.6242835521698, 5.733832359313965, -1.435617446899414, -0.799560546875, -0.013916015625, 0.515625, 0, 
107, 2294293420, 0.7181984, 0.27301294, -0.63282245, 0.09586976, 9.8117094039917, 2.814012289047241, 0.3015637993812561, 4.856174468994141, 6.836535930633545, -0.03489730507135391, -0.801513671875, -0.0126953125, 0.51123046875, 0, 
108, 2294310087, 0.7187493, 0.27413908, -0.63151085, 0.09716705, 9.613312721252441, 3.020510196685791, 0.17171847820281982, 11.155343055725098, 9.907285690307617, -0.1829260289669037, -0.801513671875, -0.01220703125, 0.5078125, 0, 
109, 2294326754, 0.7192551, 0.27566302, -0.6299931, 0.09894913, 9.329474449157715, 3.038421630859375, 0.14371730387210846, 15.438772201538086, 11.413975715637207, 0.1382255107164383, -0.801513671875, -0.01171875, 0.5009765625, 0, 
110, 2294343421, 0.71980125, 0.27714202, -0.6284503, 0.10064264, 9.175484657287598, 3.1731457710266113, 0.2295839935541153, 14.761186599731445, 11.615610122680664, -0.1623719036579132, -0.80419921875, -0.01220703125, 0.4970703125, 0, 
111, 2294360088, 0.72041214, 0.27849922, -0.6269155, 0.10208608, 9.28894329071045, 3.1066477298736572, 0.21956856548786163, 12.938506126403809, 11.49803352355957, -0.8769798278808594, -0.803466796875, -0.01171875, 0.490478515625, 0, 
112, 2294376755, 0.7211369, 0.27946767, -0.6254471, 0.10332154, 9.22679328918457, 2.9852066040039062, 0.30557867884635925, 9.840272903442383, 11.56961727142334, -0.1639854460954666, -0.803955078125, -0.012451171875, 0.48974609375, 0, 
113, 2294393422, 0.72207326, 0.27964154, -0.62418085, 0.10396689, 9.285961151123047, 3.014476776123047, 0.2940058410167694, 2.8035223484039307, 10.93578815460205, 0.5775730609893799, -0.80615234375, -0.009521484375, 0.48876953125, 0, 
114, 2294410089, 0.7229261, 0.27949554, -0.6231693, 0.104500204, 9.11021614074707, 2.7982630729675293, 0.13262048363685608, 0.7018329501152039, 9.356443405151367, 1.9546526670455933, -0.80615234375, -0.012451171875, 0.484130859375, 0, 
115, 2294426756, 0.72368973, 0.27914447, -0.6223738, 0.10489371, 9.162644386291504, 2.8483221530914307, -0.18512563407421112, -0.9102115035057068, 7.816990852355957, 2.6170997619628906, -0.80517578125, -0.01171875, 0.48876953125, 0, 
116, 2294443423, 0.7241616, 0.27904534, -0.62177396, 0.10545484, 9.183053016662598, 2.8776257038116455, -0.018159102648496628, 1.461633563041687, 5.794534206390381, 2.9585936069488525, -0.805419921875, -0.009765625, 0.478515625, 0, 
117, 2294460090, 0.72460407, 0.27871218, -0.621342, 0.10584182, 9.308501243591309, 2.7775685787200928, -0.12035102397203445, -0.5277496576309204, 4.717584133148193, 3.4367570877075195, -0.805419921875, -0.009033203125, 0.4775390625, 0, 
118, 2294476757, 0.724806, 0.27848366, -0.62112004, 0.10636304, 9.302972793579102, 2.65006160736084, -0.07270996272563934, 0.8605803847312927, 2.8807437419891357, 4.227856636047363, -0.80810546875, -0.011962890625, 0.479736328125, 0, 
119, 2294493424, 0.724661, 0.27836788, -0.6212193, 0.10707364, 9.219584465026855, 2.7626280784606934, 0.049122415482997894, 2.649409770965576, 0.13022136688232422, 5.543926239013672, -0.80712890625, -0.01025390625, 0.479248046875, 0, 
120, 2294510091, 0.72425616, 0.27802852, -0.621767, 0.10751309, 9.221317291259766, 3.071074962615967, 0.2403152883052826, 0.5330579280853271, -3.5246405601501465, 6.19381046295166, -0.804931640625, -0.008056640625, 0.47802734375, 0, 
121, 2294526758, 0.72368896, 0.27750683, -0.62263376, 0.107664414, 9.264815330505371, 2.9220023155212402, 0.3330020308494568, -1.5401943922042847, -6.188976764678955, 6.286067962646484, -0.806396484375, -0.0068359375, 0.476806640625, 0, 
122, 2294543425, 0.72295535, 0.27694976, -0.623727, 0.10769929, 9.264781951904297, 2.8628456592559814, 0.26486483216285706, -2.069967746734619, -8.201163291931152, 6.422021389007568, -0.8037109375, -0.00341796875, 0.484130859375, 0, 
123, 2294560092, 0.72208107, 0.2764074, -0.62498313, 0.10767578, 9.102444648742676, 3.115687370300293, 0.46710726618766785, -2.1050193309783936, -9.707090377807617, 6.489691734313965, -0.80322265625, -0.0029296875, 0.482421875, 0, 
124, 2294576759, 0.7211535, 0.27593723, -0.6262923, 0.10749156, 9.081681251525879, 3.085315227508545, 0.5685730576515198, -2.3770644664764404, -10.543754577636719, 5.548744201660156, -0.80224609375, -0.00244140625, 0.4853515625, 0, 
125, 2294593426, 0.72025853, 0.2753632, -0.6276276, 0.10717474, 9.099798202514648, 3.0364673137664795, 0.598028302192688, -3.5464131832122803, -10.700759887695312, 5.3910980224609375, -0.800048828125, -0.004150390625, 0.488037109375, 0, 
126, 2294610093, 0.71924835, 0.27511156, -0.62891716, 0.107045986, 9.190048217773438, 2.9865708351135254, 0.5827364325523376, -0.8855082392692566, -10.84832763671875, 4.954375267028809, -0.7978515625, -7.32421875E-4, 0.49267578125, 0, 
127, 2294626760, 0.7182417, 0.275046, -0.6300984, 0.107026465, 9.268943786621094, 3.09989070892334, 0.7660969495773315, 0.5824522376060486, -10.225861549377441, 4.503693580627441, -0.795166015625, -0.00244140625, 0.494873046875, 0, 
128, 2294643427, 0.7173963, 0.27506837, -0.63106143, 0.106964976, 9.36109447479248, 3.0009067058563232, 0.7908855080604553, 0.6924459338188171, -8.601540565490723, 3.4125022888183594, -0.799072265625, 0.002197265625, 0.497802734375, 0, 
129, 2294660094, 0.71661294, 0.2754397, -0.6317541, 0.10717226, 9.299276351928711, 2.839902877807617, 0.8385634422302246, 3.666400671005249, -6.759704113006592, 2.689481258392334, -0.79736328125, 0.0, 0.499267578125, 0, 
130, 2294676761, 0.71590704, 0.27601856, -0.63223857, 0.107542545, 9.2880220413208, 2.9526140689849854, 0.9219604134559631, 5.40812873840332, -5.257878303527832, 2.1544573307037354, -0.79345703125, 9.765625E-4, 0.499267578125, 0, 
131, 2294693428, 0.71560895, 0.27664077, -0.63226014, 0.107800275, 9.57473087310791, 2.982239246368408, 0.799485981464386, 4.706186294555664, -1.472999095916748, 0.2528933584690094, -0.7978515625, 0.001708984375, 0.498291015625, 0, 
132, 2294710095, 0.7156586, 0.27761692, -0.6316579, 0.10848967, 9.567209243774414, 2.7925162315368652, 0.7561320066452026, 8.128377914428711, 3.6528778076171875, -0.588080644607544, -0.795166015625, 0.00146484375, 0.495361328125, 0, 
133, 2294726762, 0.71569043, 0.2791297, -0.63073164, 0.10977932, 9.541723251342773, 2.9103856086730957, 0.7363787293434143, 13.652877807617188, 5.903046131134033, -0.5646322965621948, -0.795166015625, 0.002685546875, 0.495361328125, 0, 
134, 2294743429, 0.71550435, 0.28126812, -0.6296964, 0.11146549, 9.5350923538208, 3.0837717056274414, 0.7595580816268921, 18.952482223510742, 5.775768280029297, -1.3593703508377075, -0.794921875, 0.003173828125, 0.491455078125, 0, 
135, 2294760096, 0.71541977, 0.2837519, -0.6283243, 0.1134383, 9.627059936523438, 3.300785541534424, 0.8060123920440674, 21.95517921447754, 8.155656814575195, -2.151240348815918, -0.79541015625, 0.001953125, 0.487548828125, 0, 
136, 2294776763, 0.71558934, 0.28622878, -0.62665224, 0.115378894, 9.60412311553955, 3.3346405029296875, 0.877855658531189, 21.52012062072754, 10.665117263793945, -3.0307185649871826, -0.7958984375, 0.004150390625, 0.4814453125, 0, 
137, 2294793430, 0.71572024, 0.2888541, -0.6249048, 0.117481805, 9.460373878479004, 2.942169427871704, 0.814083456993103, 23.085437774658203, 11.062054634094238, -2.954444408416748, -0.797607421875, 0.003662109375, 0.476318359375, 0, 
138, 2294810097, 0.71568346, 0.2914422, -0.62337554, 0.119421944, 9.440959930419922, 3.1431055068969727, 0.9434955716133118, 22.360553741455078, 8.966146469116211, -3.014582395553589, -0.800048828125, 0.003662109375, 0.468994140625, 0, 
139, 2294826764, 0.7155666, 0.29395708, -0.6219937, 0.12115169, 9.439337730407715, 3.3177406787872314, 0.993536651134491, 21.13882064819336, 7.522662162780762, -3.351044178009033, -0.800537109375, 0.0068359375, 0.46728515625, 0, 
140, 2294843431, 0.71548295, 0.29595903, -0.6209221, 0.12226338, 9.515658378601074, 3.3173787593841553, 1.042803168296814, 15.649290084838867, 5.301314830780029, -3.5657522678375244, -0.7978515625, 0.005859375, 0.465087890625, 0, 
141, 2294860098, 0.7156757, 0.29679564, -0.6202985, 0.1222725, 9.616765975952148, 3.495303153991699, 1.1464176177978516, 4.274983882904053, 2.992901563644409, -3.30376935005188, -0.801025390625, 0.005859375, 0.460693359375, 0, 
142, 2294876765, 0.7161002, 0.29734224, -0.6196146, 0.12192604, 9.687801361083984, 2.830686092376709, 0.7063899040222168, 0.9142518639564514, 3.7699015140533447, -4.094894886016846, -0.801025390625, 0.005126953125, 0.461669921875, 0, 
143, 2294893432, 0.71621054, 0.29862705, -0.61879, 0.1223245, 9.54704475402832, 2.4235284328460693, 0.47141093015670776, 8.48314094543457, 4.023058891296387, -3.6006858348846436, -0.803955078125, 7.32421875E-4, 0.46240234375, 0, 
144, 2294910099, 0.7160581, 0.30045083, -0.6178988, 0.12325244, 9.59632682800293, 2.9119625091552734, 0.6459231376647949, 13.983193397521973, 3.8729054927825928, -3.230058431625366, -0.8037109375, 0.004638671875, 0.45458984375, 0, 
145, 2294926766, 0.7161651, 0.3017951, -0.6170038, 0.12382981, 9.592341423034668, 3.1590168476104736, 0.7487659454345703, 9.60032844543457, 4.678039073944092, -3.1469693183898926, -0.802734375, 0.00244140625, 0.453857421875, 0, 
146, 2294943433, 0.7162655, 0.30303904, -0.6161663, 0.124380715, 9.59089469909668, 2.6410820484161377, 0.6121232509613037, 8.958550453186035, 4.392828941345215, -2.713589668273926, -0.802001953125, 0.001708984375, 0.453857421875, 0, 
147, 2294960100, 0.71631527, 0.30417445, -0.6154154, 0.12503704, 9.561314582824707, 2.7610788345336914, 0.7508643269538879, 8.900997161865234, 4.064666271209717, -1.5276697874069214, -0.8037109375, 0.0029296875, 0.447265625, 0, 
148, 2294976767, 0.71643424, 0.30515543, -0.6146651, 0.12565488, 9.554547309875488, 2.8504722118377686, 0.5627292394638062, 7.8345627784729, 4.39869499206543, -1.1328116655349731, -0.8037109375, 7.32421875E-4, 0.44775390625, 0, 
149, 2294993434, 0.7166336, 0.30562064, -0.61412805, 0.12601274, 9.510473251342773, 2.9246575832366943, 0.7070968747138977, 3.8408613204956055, 3.5927000045776367, 0.13798201084136963, -0.8037109375, 0.002197265625, 0.447265625, 0, 
150, 2295010101, 0.71700144, 0.30536819, -0.6138496, 0.1258894, 9.563138961791992, 2.816669464111328, 0.5991867184638977, -2.304835557937622, 2.636910915374756, 1.1936607360839844, -0.80419921875, 0.002197265625, 0.446044921875, 0, 
151, 2295026768, 0.7173342, 0.30509275, -0.6135969, 0.12589256, 9.56856918334961, 2.510349988937378, 0.40952685475349426, -1.8333185911178589, 2.6462976932525635, 1.989396095275879, -0.8046875, -9.765625E-4, 0.4443359375, 0, 
152, 2295043435, 0.7174825, 0.30526966, -0.6132091, 0.12650716, 9.546836853027344, 2.5143847465515137, 0.366057425737381, 3.4793765544891357, 3.4359118938446045, 2.9460558891296387, -0.805908203125, 0.0029296875, 0.446044921875, 0, 
153, 2295060102, 0.717555, 0.30576158, -0.6126644, 0.12754215, 9.513999938964844, 2.718914747238159, 0.3639777898788452, 7.095917224884033, 4.512043476104736, 3.4013609886169434, -0.8056640625, 0.00341796875, 0.442626953125, 0, 
154, 2295076769, 0.71756935, 0.30630994, -0.6121157, 0.12877463, 9.472526550292969, 2.734764814376831, 0.3645334839820862, 8.32664680480957, 4.668550491333008, 4.166157245635986, -0.8046875, 0.005615234375, 0.439208984375, 0, 
155, 2295093436, 0.7175429, 0.30667534, -0.6117186, 0.12993354, 9.486461639404297, 2.7989208698272705, 0.45176923274993896, 7.063324928283691, 3.7724249362945557, 4.916161060333252, -0.803955078125, 0.005615234375, 0.43701171875, 0, 
156, 2295110103, 0.71754295, 0.30689326, -0.6113822, 0.13099872, 9.550540924072266, 2.807267665863037, 0.41602572798728943, 5.827895164489746, 3.530000686645508, 5.170072078704834, -0.803955078125, 0.0078125, 0.435302734375, 0, 
157, 2295126770, 0.71744275, 0.3073314, -0.6110093, 0.13225354, 9.520406723022461, 2.68487286567688, 0.3951854109764099, 7.952253818511963, 3.504401445388794, 5.186285495758057, -0.804931640625, 0.01220703125, 0.43603515625, 0, 
158, 2295143437, 0.7173143, 0.30795476, -0.61053026, 0.1337043, 9.532181739807129, 2.7884879112243652, 0.38106831908226013, 9.841588020324707, 4.170076370239258, 5.161569595336914, -0.803955078125, 0.010986328125, 0.4326171875, 0, 
159, 2295160104, 0.71711725, 0.3084167, -0.610245, 0.13499248, 9.42308521270752, 3.0269436836242676, 0.46189239621162415, 8.326339721679688, 2.7476351261138916, 5.502333164215088, -0.80224609375, 0.014404296875, 0.4326171875, 0, 
160, 2295176771, 0.7170017, 0.3086418, -0.6100383, 0.13602395, 9.414752006530762, 3.0378153324127197, 0.4851490557193756, 5.831264019012451, 2.390491247177124, 5.32947301864624, -0.80322265625, 0.0126953125, 0.42919921875, 0, 
161, 2295193438, 0.7167459, 0.30902776, -0.6099117, 0.13705799, 9.386311531066895, 2.861663341522217, 0.3684875965118408, 6.854325294494629, 1.273457407951355, 4.977553844451904, -0.798828125, 0.013671875, 0.427490234375, 0, 
162, 2295210105, 0.71637535, 0.30967256, -0.6097441, 0.13828054, 9.384797096252441, 3.0271894931793213, 0.3293876349925995, 9.197761535644531, 1.1688553094863892, 4.8423967361450195, -0.801025390625, 0.014404296875, 0.427490234375, 0, 
163, 2295226772, 0.71592057, 0.31063908, -0.6094641, 0.13969572, 9.432014465332031, 3.090501070022583, 0.31971967220306396, 11.870551109313965, 1.494392991065979, 4.291851997375488, -0.79931640625, 0.01708984375, 0.42578125, 0, 
164, 2295243439, 0.715349, 0.31184372, -0.60916734, 0.14122494, 9.409241676330566, 2.9551916122436523, 0.3506013751029968, 13.780891418457031, 1.124814510345459, 3.943788528442383, -0.801513671875, 0.018310546875, 0.423583984375, 0, 
165, 2295260106, 0.71474504, 0.3128991, -0.6090274, 0.14254649, 9.365962028503418, 3.2710609436035156, 0.5384333729743958, 12.091064453125, -0.06465929746627808, 3.920057773590088, -0.796875, 0.0205078125, 0.424072265625, 0, 
166, 2295276773, 0.71427476, 0.3134305, -0.6091556, 0.14318658, 9.43315601348877, 3.329395294189453, 0.6135403513908386, 6.109096050262451, -1.765970230102539, 3.2370545864105225, -0.7998046875, 0.0205078125, 0.421875, 0, 
167, 2295293440, 0.7139367, 0.31367826, -0.60935813, 0.14346845, 9.420083999633789, 3.027341604232788, 0.5225930213928223, 2.857090473175049, -2.066112518310547, 2.722815752029419, -0.798583984375, 0.022216796875, 0.427978515625, 0, 
168, 2295310107, 0.71346444, 0.31410336, -0.6096273, 0.14374389, 9.382568359375, 2.981750249862671, 0.445141077041626, 3.921464681625366, -3.13883638381958, 2.2348170280456543, -0.80078125, 0.02099609375, 0.423095703125, 0, 
169, 2295326774, 0.71300656, 0.31450558, -0.6099109, 0.14393465, 9.403554916381836, 3.201493263244629, 0.5811440944671631, 3.407546281814575, -3.299440860748291, 1.9414876699447632, -0.799072265625, 0.0244140625, 0.423583984375, 0, 
170, 2295343441, 0.7125689, 0.3149981, -0.6101486, 0.14401618, 9.368626594543457, 2.9512834548950195, 0.5086807012557983, 3.394815683364868, -3.313809394836426, 0.9281209111213684, -0.798095703125, 0.022216796875, 0.42529296875, 0, 
171, 2295360108, 0.71210533, 0.31546772, -0.61044765, 0.14401326, 9.40096378326416, 3.0248327255249023, 0.594661295413971, 2.9219796657562256, -3.879004955291748, 0.7771468162536621, -0.797119140625, 0.023193359375, 0.427001953125, 0, 
172, 2295376775, 0.7117673, 0.31580967, -0.6106994, 0.14386792, 9.443623542785645, 2.8970515727996826, 0.578890323638916, 1.474260687828064, -3.304615020751953, 0.3999999761581421, -0.799072265625, 0.021484375, 0.421875, 0, 
173, 2295393442, 0.7113762, 0.31624174, -0.6109692, 0.14370748, 9.383367538452148, 2.8051085472106934, 0.557134211063385, 1.9515018463134766, -3.7396717071533203, 0.042997315526008606, -0.7998046875, 0.022705078125, 0.426513671875, 0, 
174, 2295410109, 0.71096236, 0.3167389, -0.6112309, 0.1435484, 9.51229476928711, 2.9332189559936523, 0.5628151297569275, 2.3348731994628906, -3.859001398086548, -0.21903982758522034, -0.79638671875, 0.023681640625, 0.427001953125, 0, 
175, 2295426776, 0.7106015, 0.31726015, -0.61140895, 0.14342533, 9.552532196044922, 2.8170061111450195, 0.5515088438987732, 2.5707530975341797, -3.174642562866211, -0.3750723600387573, -0.797119140625, 0.022705078125, 0.427490234375, 0, 
176, 2295443443, 0.7102443, 0.31768277, -0.6116512, 0.14322616, 9.583273887634277, 2.8344297409057617, 0.5178704857826233, 1.6997807025909424, -3.5439529418945312, -0.1994333118200302, -0.797607421875, 0.02490234375, 0.427978515625, 0, 
177, 2295460110, 0.7098463, 0.3182699, -0.61181355, 0.14320292, 9.570443153381348, 2.7420003414154053, 0.5176762342453003, 3.4127197265625, -3.104964017868042, -0.1696329265832901, -0.79638671875, 0.02392578125, 0.427490234375, 0, 
178, 2295476777, 0.7094134, 0.31882364, -0.61202276, 0.14322086, 9.561431884765625, 2.7575504779815674, 0.5745834708213806, 3.4537506103515625, -3.359323024749756, 0.300135999917984, -0.797119140625, 0.02099609375, 0.426513671875, 0, 
179, 2295493444, 0.70906013, 0.3192416, -0.6122359, 0.14312913, 9.579384803771973, 2.8526742458343506, 0.5728950500488281, 2.155033588409424, -3.1554980278015137, 0.26018026471138, -0.798095703125, 0.02490234375, 0.427978515625, 0, 
180, 2295510111, 0.70868486, 0.31969428, -0.61243486, 0.14312571, 9.541498184204102, 2.6409943103790283, 0.5202853083610535, 2.75907039642334, -3.026831865310669, 0.5328530073165894, -0.798095703125, 0.022216796875, 0.427978515625, 0, 
181, 2295526778, 0.7082009, 0.32029593, -0.61263895, 0.14330344, 9.506739616394043, 2.684418201446533, 0.49790167808532715, 4.4850077629089355, -3.261892795562744, 0.8932109475135803, -0.798095703125, 0.021728515625, 0.431396484375, 0, 
182, 2295543445, 0.7077386, 0.32086194, -0.6128248, 0.14352487, 9.471500396728516, 2.8189609050750732, 0.5281298160552979, 4.465939044952393, -2.9537205696105957, 1.183838129043579, -0.797607421875, 0.02392578125, 0.42919921875, 0, 
183, 2295560112, 0.70745206, 0.3210391, -0.6130816, 0.14344531, 9.463616371154785, 2.8821420669555664, 0.5359330773353577, 0.8507963418960571, -2.8445334434509277, 1.3385132551193237, -0.797119140625, 0.026123046875, 0.430419921875, 0, 
184, 2295576779, 0.70726174, 0.32101944, -0.61336005, 0.1432373, 9.440703392028809, 2.715391159057617, 0.5096026659011841, -0.8800140023231506, -2.6410534381866455, 1.4968509674072266, -0.79931640625, 0.02490234375, 0.4287109375, 0, 
185, 2295593446, 0.7069535, 0.3211015, -0.6137022, 0.1431097, 9.468852996826172, 2.7472288608551025, 0.562926709651947, 0.15288862586021423, -3.3761253356933594, 1.7078996896743774, -0.797119140625, 0.023193359375, 0.4296875, 0, 
186, 2295610113, 0.706675, 0.3212216, -0.61397445, 0.14304732, 9.51993179321289, 2.9165189266204834, 0.5353977680206299, 0.6194366812705994, -2.8148739337921143, 1.6745645999908447, -0.797607421875, 0.02099609375, 0.430419921875, 0, 
187, 2295626780, 0.7064933, 0.32135144, -0.61412674, 0.1430004, 9.510554313659668, 2.8769750595092773, 0.47088950872421265, 0.6385694146156311, -1.8055673837661743, 1.3509480953216553, -0.797119140625, 0.02392578125, 0.43212890625, 0, 
188, 2295643447, 0.706229, 0.32175535, -0.61416626, 0.143228, 9.433627128601074, 2.733905553817749, 0.4281475841999054, 3.4245145320892334, -1.2735660076141357, 1.358260989189148, -0.797119140625, 0.02392578125, 0.43359375, 0, 
189, 2295660114, 0.7058624, 0.32235625, -0.6141887, 0.14358601, 9.482490539550781, 2.9148201942443848, 0.4858122766017914, 5.17456579208374, -1.530025839805603, 1.2156236171722412, -0.794921875, 0.023193359375, 0.4326171875, 0, 
190, 2295676781, 0.7056135, 0.3228214, -0.6141833, 0.14378771, 9.543334007263184, 3.0359697341918945, 0.5455607175827026, 3.624100923538208, -1.1155611276626587, 0.8547406792640686, -0.797119140625, 0.02392578125, 0.438232421875, 0, 
191, 2295693448, 0.70557266, 0.32291436, -0.6142161, 0.14363924, 9.537240982055664, 3.012953281402588, 0.5555754899978638, -0.15832488238811493, -0.840019702911377, 0.6139811873435974, -0.796630859375, 0.02392578125, 0.431396484375, 0, 
192, 2295710115, 0.70553726, 0.32293645, -0.6142951, 0.1434254, 9.521964073181152, 2.881256103515625, 0.527022659778595, -0.8327200412750244, -1.1257420778274536, 0.7003856301307678, -0.797119140625, 0.026611328125, 0.431396484375, 0, 
193, 2295726782, 0.7054782, 0.32310504, -0.6142963, 0.14333135, 9.549701690673828, 2.887354612350464, 0.4728459417819977, 0.5160126090049744, -0.7354558110237122, 0.5122091174125671, -0.7958984375, 0.025634765625, 0.43212890625, 0, 
194, 2295743449, 0.70540494, 0.32337916, -0.6142456, 0.14329116, 9.54051399230957, 2.9720091819763184, 0.5236548185348511, 1.3380266427993774, -0.533025860786438, 0.2256798893213272, -0.794921875, 0.02392578125, 0.430908203125, 0, 
195, 2295760116, 0.7053488, 0.3236731, -0.6141747, 0.14320767, 9.5286226272583, 2.9125094413757324, 0.4551265835762024, 1.2364082336425781, -0.4860394299030304, -0.12664197385311127, -0.79541015625, 0.025634765625, 0.43212890625, 0, 
196, 2295776783, 0.70534056, 0.3238446, -0.6141404, 0.14300686, 9.522693634033203, 2.8927226066589355, 0.4869220554828644, 0.006512028630822897, -0.6058299541473389, -0.14449404180049896, -0.79638671875, 0.026123046875, 0.430908203125, 0, 
197, 2295793450, 0.7053236, 0.32403743, -0.6141144, 0.14276531, 9.475778579711914, 2.8528621196746826, 0.48193642497062683, -0.05121259018778801, -0.8019208312034607, -0.40542343258857727, -0.798095703125, 0.0244140625, 0.42919921875, 0, 
198, 2295810117, 0.70526963, 0.324259, -0.6141257, 0.14248052, 9.480046272277832, 2.9263932704925537, 0.5016551613807678, -0.05703947693109512, -1.2728614807128906, -0.6215817332267761, -0.797119140625, 0.022216796875, 0.43212890625, 0, 
199, 2295826784, 0.7053519, 0.32428727, -0.61411625, 0.14204808, 9.522049903869629, 2.9311506748199463, 0.48490360379219055, -1.8929579257965088, -0.7420511245727539, -0.6992522478103638, -0.797607421875, 0.02392578125, 0.430908203125, 0, 
200, 2295843451, 0.7055909, 0.32404795, -0.61413306, 0.14133345, 9.50877571105957, 2.8701231479644775, 0.4476928114891052, -4.750247001647949, -0.5809089541435242, -1.0325120687484741, -0.79931640625, 0.0234375, 0.434326171875, 0, 
201, 2295860118, 0.7058567, 0.32376397, -0.6141544, 0.14056292, 9.504501342773438, 2.774348020553589, 0.42719441652297974, -5.268314838409424, -0.5775664448738098, -1.133656620979309, -0.798828125, 0.01953125, 0.434814453125, 0, 
202, 2295876785, 0.70600814, 0.3235928, -0.6142219, 0.13989908, 9.426277160644531, 2.703969717025757, 0.40129825472831726, -4.061354160308838, -1.1611261367797852, -0.8886966109275818, -0.797607421875, 0.022216796875, 0.434814453125, 0, 
203, 2295893452, 0.7061149, 0.3234274, -0.614351, 0.139175, 9.424190521240234, 2.874405860900879, 0.4388592541217804, -4.255922317504883, -1.79465651512146, -1.0369174480438232, -0.7978515625, 0.01953125, 0.43603515625, 0, 
204, 2295910119, 0.7061736, 0.32334957, -0.6144707, 0.13852735, 9.460451126098633, 2.855524778366089, 0.44602900743484497, -3.3774704933166504, -1.8676398992538452, -1.0128158330917358, -0.798828125, 0.02001953125, 0.4365234375, 0, 
205, 2295926786, 0.7061756, 0.32328418, -0.61464477, 0.13789657, 9.4900484085083, 2.7721617221832275, 0.4523795545101166, -3.171326160430908, -2.3500423431396484, -0.81379234790802, -0.802734375, 0.021240234375, 0.439208984375, 0, 
206, 2295943453, 0.70598876, 0.3234744, -0.6148586, 0.13745211, 9.589111328125, 2.7413840293884277, 0.4438263773918152, -0.7629510760307312, -3.1753854751586914, -0.7306278347969055, -0.79833984375, 0.0205078125, 0.43603515625, 0, 
207, 2295960120, 0.7056895, 0.32371768, -0.6151617, 0.13705948, 9.563929557800293, 2.8030598163604736, 0.5003350377082825, -0.11151769757270813, -4.022513389587402, -0.4115705192089081, -0.800537109375, 0.018310546875, 0.438232421875, 0, 
208, 2295976787, 0.7053403, 0.3239413, -0.61553574, 0.13664919, 9.516266822814941, 2.8372457027435303, 0.4964809715747833, -0.24210408329963684, -4.608582973480225, -0.21924474835395813, -0.7978515625, 0.01611328125, 0.438232421875, 0, 
209, 2295993454, 0.705002, 0.3241123, -0.61593026, 0.1362114, 9.460648536682129, 2.7687456607818604, 0.45601287484169006, -0.6478604674339294, -4.67951774597168, -0.10049144178628922, -0.7978515625, 0.018310546875, 0.438720703125, 0, 
210, 2296010121, 0.7044563, 0.32457054, -0.6163522, 0.13603404, 9.354175567626953, 2.7192533016204834, 0.4769327640533447, 2.271033525466919, -5.390449047088623, 0.19034717977046967, -0.799560546875, 0.018310546875, 0.441650390625, 0, 
211, 2296026788, 0.70391, 0.32500353, -0.6167709, 0.1359314, 9.383076667785645, 2.9062612056732178, 0.48377352952957153, 2.483362913131714, -5.192104339599609, 0.6421424150466919, -0.7978515625, 0.01953125, 0.44482421875, 0, 
212, 2296043455, 0.7034294, 0.32542345, -0.61710054, 0.13591793, 9.410205841064453, 2.8281939029693604, 0.4064043164253235, 2.7273621559143066, -4.283378601074219, 0.8675342202186584, -0.7978515625, 0.01953125, 0.442626953125, 0, 
213, 2296060122, 0.7029417, 0.32589918, -0.61735964, 0.13612473, 9.386561393737793, 2.648559093475342, 0.33561116456985474, 3.996304988861084, -3.5417115688323975, 1.5369092226028442, -0.799072265625, 0.01904296875, 0.44384765625, 0, 
214, 2296076789, 0.70237386, 0.3264038, -0.61766505, 0.1364611, 9.361137390136719, 2.836385488510132, 0.42754289507865906, 4.8612589836120605, -3.8350672721862793, 2.2058746814727783, -0.795654296875, 0.01953125, 0.44482421875, 0, 
215, 2296093456, 0.7019182, 0.32667533, -0.61799175, 0.13667591, 9.37017822265625, 2.877394437789917, 0.4331893026828766, 2.9418435096740723, -3.5256783962249756, 2.546600818634033, -0.799560546875, 0.021240234375, 0.447265625, 0, 
216, 2296110123, 0.7015032, 0.3268693, -0.61830854, 0.13691024, 9.393755912780762, 2.7311785221099854, 0.39445966482162476, 2.5993754863739014, -3.1876158714294434, 2.9076879024505615, -0.795654296875, 0.018310546875, 0.442138671875, 0, 
217, 2296126790, 0.7011081, 0.32703727, -0.6185939, 0.13724399, 9.388104438781738, 2.790916919708252, 0.3518088161945343, 2.9483230113983154, -2.6914854049682617, 3.4002206325531006, -0.796875, 0.02001953125, 0.44384765625, 0, 
218, 2296143457, 0.7006845, 0.32730168, -0.6188232, 0.13774171, 9.439554214477539, 2.7491955757141113, 0.35616806149482727, 4.17819356918335, -2.285421371459961, 3.6723809242248535, -0.796875, 0.0234375, 0.446044921875, 0, 
219, 2296160124, 0.7002394, 0.32767808, -0.6189679, 0.138458, 9.47884464263916, 2.68528413772583, 0.31880006194114685, 5.68466854095459, -1.6189148426055908, 4.0685200691223145, -0.796875, 0.02294921875, 0.446044921875, 0, 
220, 2296176791, 0.699836, 0.32790902, -0.6191463, 0.13915195, 9.473441123962402, 2.901874303817749, 0.4370085895061493, 4.888330936431885, -1.4827321767807007, 4.606732368469238, -0.7978515625, 0.0263671875, 0.447265625, 0, 
221, 2296193458, 0.6996326, 0.32771647, -0.61939585, 0.13951723, 9.514910697937012, 2.919480562210083, 0.5201741456985474, 0.8949397802352905, -1.332821011543274, 4.795511245727539, -0.795654296875, 0.0283203125, 0.442138671875, 0, 
222, 2296210125, 0.69949144, 0.32727462, -0.6197409, 0.13973008, 9.546422004699707, 2.7438712120056152, 0.5776911973953247, -2.2481420040130615, -1.962355375289917, 5.256923675537109, -0.79736328125, 0.0263671875, 0.446044921875, 0, 
223, 2296226792, 0.6994419, 0.32658952, -0.6201361, 0.13982794, 9.567244529724121, 2.7195839881896973, 0.4845587909221649, -3.568580150604248, -1.6805137395858765, 5.768564224243164, -0.795166015625, 0.028076171875, 0.4521484375, 0, 
224, 2296243459, 0.69939244, 0.32611927, -0.6203614, 0.1401726, 9.592948913574219, 2.656935453414917, 0.38900312781333923, -1.4062910079956055, -0.5552833676338196, 5.647594928741455, -0.7939453125, 0.02734375, 0.445556640625, 0, 
225, 2296260126, 0.6992465, 0.3260766, -0.620358, 0.14101233, 9.5706787109375, 2.5938446521759033, 0.4125368595123291, 3.2748851776123047, 0.8458275198936462, 5.773801326751709, -0.79296875, 0.032958984375, 0.447265625, 0, 
226, 2296276793, 0.69908005, 0.3262746, -0.620189, 0.14211896, 9.573134422302246, 2.664194345474243, 0.5287712216377258, 6.223958492279053, 2.0405964851379395, 5.675500869750977, -0.79345703125, 0.0322265625, 0.4443359375, 0, 
227, 2296293460, 0.69904786, 0.32627097, -0.6200007, 0.14310417, 9.526094436645508, 2.808871030807495, 0.797432005405426, 3.6916801929473877, 2.393167495727539, 5.750890254974365, -0.792236328125, 0.030029296875, 0.442626953125, 0, 
228, 2296310127, 0.69904774, 0.3259671, -0.6200228, 0.14369994, 9.601602554321289, 2.6635046005249023, 0.8243476748466492, 1.181456208229065, 1.1676383018493652, 5.617063522338867, -0.791015625, 0.03515625, 0.442138671875, 0, 
229, 2296326794, 0.698909, 0.32577732, -0.62012416, 0.14436612, 9.586041450500488, 2.489429235458374, 0.8334426879882812, 2.278128147125244, 0.21544763445854187, 5.777745246887207, -0.791015625, 0.034423828125, 0.442138671875, 0, 
230, 2296343461, 0.6986446, 0.32578138, -0.62024, 0.1451376, 9.601079940795898, 2.5384538173675537, 0.7563665509223938, 3.495269298553467, -0.49994713068008423, 5.58915901184082, -0.788330078125, 0.03662109375, 0.443115234375, 0, 
231, 2296360128, 0.69827676, 0.3261818, -0.62018126, 0.14625478, 9.540483474731445, 2.596001386642456, 0.7003492116928101, 6.557293891906738, 0.04517440125346184, 5.245513439178467, -0.788330078125, 0.0361328125, 0.4404296875, 0, 
232, 2296376795, 0.6979134, 0.32658908, -0.62012804, 0.14730129, 9.569132804870605, 2.5044355392456055, 0.684865415096283, 9.284202575683594, 0.7126031517982483, 4.940851211547852, -0.787841796875, 0.0361328125, 0.443115234375, 0, 
233, 2296393462, 0.697402, 0.3275645, -0.6197957, 0.14894786, 9.528177261352539, 2.50347638130188, 0.7373342514038086, 12.301934242248535, 1.3489896059036255, 4.849184513092041, -0.79052734375, 0.04052734375, 0.438720703125, 0, 
234, 2296410129, 0.69696987, 0.32849193, -0.6194109, 0.15052089, 9.588380813598633, 2.615647554397583, 0.7661800980567932, 13.036649703979492, 2.1976418495178223, 4.521650314331055, -0.787109375, 0.041748046875, 0.434814453125, 0, 
235, 2296426796, 0.69658834, 0.3295368, -0.618863, 0.15224653, 9.583876609802246, 2.5246570110321045, 0.7460665702819824, 14.037415504455566, 3.319082021713257, 4.321909427642822, -0.7880859375, 0.0439453125, 0.43359375, 0, 
236, 2296443463, 0.6961987, 0.33073434, -0.6181809, 0.15419036, 9.61174201965332, 2.5614981651306152, 0.7411108613014221, 15.689001083374023, 4.193333625793457, 4.4102091789245605, -0.787353515625, 0.046142578125, 0.4296875, 0, 
237, 2296460130, 0.6958298, 0.33213487, -0.6172969, 0.1563717, 9.658807754516602, 2.5429210662841797, 0.7675869464874268, 17.582582473754883, 5.4778265953063965, 4.192579746246338, -0.787841796875, 0.04833984375, 0.42529296875, 0, 
238, 2296476797, 0.6955385, 0.33360586, -0.6162305, 0.15872405, 9.639366149902344, 2.5750625133514404, 0.7554869651794434, 19.353425979614258, 7.166553020477295, 4.219065189361572, -0.78564453125, 0.046630859375, 0.421875, 0, 
239, 2296493464, 0.69524956, 0.3352191, -0.61502486, 0.16124752, 9.660218238830566, 2.5989162921905518, 0.6841397285461426, 20.288103103637695, 7.886362552642822, 4.09609842300415, -0.78662109375, 0.0498046875, 0.41748046875, 0, 
240, 2296510131, 0.6951707, 0.33659276, -0.61372584, 0.16365737, 9.661773681640625, 2.6675896644592285, 0.7649956941604614, 18.466739654541016, 9.257730484008789, 4.118521690368652, -0.785400390625, 0.0498046875, 0.41455078125, 0, 
241, 2296526798, 0.6952086, 0.33779544, -0.6124083, 0.16593777, 9.63138484954834, 2.5748980045318604, 0.7392895817756653, 16.86975860595703, 9.718091011047363, 4.047727584838867, -0.785888671875, 0.051513671875, 0.407958984375, 0, 
242, 2296543465, 0.69527984, 0.3390526, -0.6109826, 0.16831462, 9.653057098388672, 2.4845941066741943, 0.6505794525146484, 17.588388442993164, 10.521000862121582, 3.987217664718628, -0.78515625, 0.0546875, 0.4033203125, 0, 
243, 2296560132, 0.6953756, 0.34046182, -0.6093705, 0.17089832, 9.651765823364258, 2.5944528579711914, 0.61745285987854, 19.343353271484375, 11.808174133300781, 3.8679659366607666, -0.782958984375, 0.0556640625, 0.39892578125, 0, 
244, 2296576799, 0.6955194, 0.34179613, -0.6077217, 0.17350163, 9.606624603271484, 2.6731510162353516, 0.6847545504570007, 19.001220703125, 12.310389518737793, 4.130651473999023, -0.783935546875, 0.057373046875, 0.393310546875, 0, 
245, 2296593466, 0.69561714, 0.34301978, -0.60623074, 0.17589484, 9.647555351257324, 2.6417269706726074, 0.7510988116264343, 17.516468048095703, 10.990548133850098, 4.016455173492432, -0.78564453125, 0.0556640625, 0.390380859375, 0, 
246, 2296610133, 0.6958192, 0.34402525, -0.60479, 0.17807768, 9.669309616088867, 2.565558433532715, 0.654459536075592, 15.291704177856445, 10.9398193359375, 3.9129786491394043, -0.784912109375, 0.056884765625, 0.389404296875, 0, 
247, 2296626800, 0.69598687, 0.34509975, -0.60332274, 0.18030663, 9.633933067321777, 2.3801589012145996, 0.49082401394844055, 15.929449081420898, 10.939948081970215, 3.8231680393218994, -0.7841796875, 0.06005859375, 0.380859375, 0, 
248, 2296643467, 0.6959008, 0.34660923, -0.6017743, 0.18289924, 9.574469566345215, 2.439316511154175, 0.437995970249176, 20.221271514892578, 10.59976577758789, 3.870323419570923, -0.78515625, 0.062744140625, 0.375244140625, 0, 
249, 2296660134, 0.69569844, 0.34818685, -0.60031676, 0.18544438, 9.598395347595215, 2.610060691833496, 0.6038625240325928, 20.513357162475586, 9.487889289855957, 3.7182343006134033, -0.783935546875, 0.0615234375, 0.36962890625, 0, 
250, 2296676801, 0.6955748, 0.34965533, -0.5988733, 0.18779694, 9.654288291931152, 2.5464348793029785, 0.6109334826469421, 18.988691329956055, 9.41930866241455, 3.1807758808135986, -0.783935546875, 0.06494140625, 0.3623046875, 0, 
251, 2296693468, 0.6953524, 0.35117847, -0.5974927, 0.19016148, 9.557172775268555, 2.3166444301605225, 0.5572555661201477, 19.455677032470703, 8.668741226196289, 3.2896430492401123, -0.783203125, 0.06494140625, 0.360107421875, 0, 
252, 2296710135, 0.69504404, 0.35272643, -0.59618425, 0.19251606, 9.556093215942383, 2.446531057357788, 0.6261626482009888, 19.648591995239258, 7.912447929382324, 3.415555477142334, -0.783203125, 0.06640625, 0.355712890625, 0, 
253, 2296726802, 0.69462305, 0.35440803, -0.59490585, 0.19488715, 9.555463790893555, 2.500633478164673, 0.6312523484230042, 20.588106155395508, 7.16810417175293, 3.163257122039795, -0.782470703125, 0.06591796875, 0.35107421875, 0, 
254, 2296743469, 0.6942515, 0.355977, -0.59366184, 0.19713268, 9.640174865722656, 2.5019350051879883, 0.6306303143501282, 19.36981964111328, 7.047914981842041, 3.039841651916504, -0.782958984375, 0.06591796875, 0.348876953125, 0, 
255, 2296760136, 0.69387853, 0.3575559, -0.5923861, 0.19941233, 9.636143684387207, 2.4879071712493896, 0.6409722566604614, 19.6038818359375, 7.262907981872559, 3.082793951034546, -0.78173828125, 0.069091796875, 0.343994140625, 0, 
256, 2296776803, 0.6934948, 0.35917023, -0.59106314, 0.2017579, 9.60218334197998, 2.3973968029022217, 0.6390753388404846, 20.13409423828125, 7.55516242980957, 3.147287130355835, -0.78173828125, 0.069091796875, 0.33935546875, 0, 
257, 2296793470, 0.6930063, 0.36094972, -0.58969074, 0.20426166, 9.5392484664917, 2.3270275592803955, 0.757881224155426, 21.891376495361328, 7.523763179779053, 3.2468063831329346, -0.780517578125, 0.06787109375, 0.332763671875, 0, 
258, 2296810137, 0.6924074, 0.36277324, -0.5883785, 0.20683037, 9.520387649536133, 2.3734848499298096, 0.8642361164093018, 22.556400299072266, 6.882843494415283, 3.67425799369812, -0.781005859375, 0.07080078125, 0.337158203125, 0, 
259, 2296826804, 0.69180304, 0.36448509, -0.58718634, 0.20921685, 9.484695434570312, 2.4668118953704834, 0.9867661595344543, 21.132579803466797, 5.982861518859863, 3.559037685394287, -0.779296875, 0.069580078125, 0.32373046875, 0, 
260, 2296843471, 0.69121087, 0.36616084, -0.58600444, 0.21154873, 9.555750846862793, 2.4160945415496826, 0.9223320484161377, 20.69999122619629, 5.882855415344238, 3.452552556991577, -0.77978515625, 0.07177734375, 0.3232421875, 0, 
261, 2296860138, 0.6905384, 0.3679952, -0.5847365, 0.2140556, 9.610855102539062, 2.2262775897979736, 1.02208411693573, 22.488357543945312, 6.165993690490723, 3.5409812927246094, -0.78076171875, 0.070556640625, 0.31591796875, 0, 
262, 2296876805, 0.68968815, 0.37027115, -0.58319926, 0.21704496, 9.666666030883789, 2.085904121398926, 1.1652636528015137, 27.374576568603516, 7.283176898956299, 3.625084161758423, -0.77783203125, 0.072265625, 0.314697265625, 0, 
263, 2296893472, 0.6886821, 0.3730025, -0.58135605, 0.22048034, 9.706869125366211, 2.0362398624420166, 1.3881001472473145, 32.18034744262695, 8.543476104736328, 3.351799488067627, -0.780029296875, 0.0732421875, 0.307373046875, 0, 
264, 2296910139, 0.6877783, 0.37558183, -0.5794153, 0.22400285, 9.75463581085205, 2.384620189666748, 1.7326334714889526, 31.703508377075195, 9.837306022644043, 3.949129104614258, -0.77880859375, 0.074951171875, 0.306396484375, 0, 
265, 2296926806, 0.6869856, 0.3780042, -0.57741785, 0.22749111, 9.891080856323242, 2.3741254806518555, 2.138857126235962, 30.635881423950195, 10.659335136413574, 4.092470169067383, -0.778076171875, 0.075927734375, 0.2939453125, 0, 
266, 2296943473, 0.68633085, 0.38056213, -0.57509345, 0.23106267, 10.206229209899902, 2.091123342514038, 2.460186243057251, 31.77414894104004, 12.697054862976074, 2.8787317276000977, -0.7802734375, 0.075927734375, 0.288330078125, 0, 
267, 2296960140, 0.6858273, 0.38317007, -0.57232857, 0.23507823, 10.46313762664795, 2.167163610458374, 2.6769840717315674, 34.087890625, 16.387197494506836, 3.3666975498199463, -0.776611328125, 0.074462890625, 0.279296875, 0, 
268, 2296976807, 0.685861, 0.38516706, -0.5691816, 0.23931865, 10.579216003417969, 2.6260173320770264, 3.230125904083252, 31.31046485900879, 21.805463790893555, 4.941195487976074, -0.775390625, 0.074462890625, 0.27099609375, 0, 
269, 2296993474, 0.6868265, 0.38626528, -0.56554407, 0.24336986, 11.199530601501465, 2.7727010250091553, 3.9495811462402344, 24.69504737854004, 28.650386810302734, 4.7370476722717285, -0.7763671875, 0.078369140625, 0.25927734375, 0, 
270, 2297010141, 0.68867934, 0.38673344, -0.5610045, 0.24785519, 11.660016059875488, 2.3385441303253174, 4.315011501312256, 22.588865280151367, 38.44886016845703, 5.359335422515869, -0.77392578125, 0.078125, 0.24853515625, 0, 
271, 2297026808, 0.6916717, 0.38605437, -0.5555815, 0.25274894, 11.801541328430176, 2.422478675842285, 5.026881217956543, 17.236465454101562, 49.94218063354492, 7.409297943115234, -0.7763671875, 0.0791015625, 0.236083984375, 0, 
272, 2297043475, 0.6963373, 0.3831442, -0.54960555, 0.25738865, 11.636730194091797, 2.621387481689453, 5.930140972137451, 2.208505153656006, 62.019039154052734, 10.33148193359375, -0.7744140625, 0.081787109375, 0.21923828125, 0, 
273, 2297060142, 0.70312625, 0.37732825, -0.5430841, 0.2613365, 11.557480812072754, 2.53071928024292, 6.1630964279174805, -18.907686233520508, 75.80352020263672, 12.793485641479492, -0.76953125, 0.08251953125, 0.201416015625, 0, 
274, 2297076809, 0.7115011, 0.3697284, -0.5352956, 0.26556742, 11.431814193725586, 2.1329009532928467, 6.135312557220459, -28.278305053710938, 91.62074279785156, 14.666926383972168, -0.76806640625, 0.0869140625, 0.18505859375, 0, 
275, 2297093476, 0.7208355, 0.36168924, -0.5254452, 0.27108082, 11.700543403625488, 1.766903281211853, 5.998322486877441, -24.34848976135254, 109.14860534667969, 15.532821655273438, -0.761474609375, 0.08935546875, 0.16259765625, 0, 
276, 2297110143, 0.73083055, 0.35372862, -0.5131958, 0.27819628, 11.860950469970703, 1.8906323909759521, 6.038079261779785, -15.314218521118164, 127.13493347167969, 15.950429916381836, -0.75830078125, 0.093017578125, 0.13232421875, 0, 
277, 2297126810, 0.7412535, 0.34581664, -0.4988509, 0.2865348, 11.728950500488281, 2.086787462234497, 6.30206298828125, -7.760426998138428, 141.94760131835938, 15.981485366821289, -0.748046875, 0.096435546875, 0.099853515625, 0, 
278, 2297143477, 0.7519246, 0.3379578, -0.48271617, 0.29559994, 11.783374786376953, 2.164167881011963, 6.683431148529053, -2.036393165588379, 153.4457244873047, 14.745091438293457, -0.736328125, 0.099609375, 0.061767578125, 0, 
279, 2297160144, 0.7628517, 0.32976222, -0.46512166, 0.30492017, 12.041028022766113, 2.2668137550354004, 6.623594760894775, -0.5373538136482239, 163.03317260742188, 13.264857292175293, -0.72265625, 0.10302734375, 0.021484375, 0, 
280, 2297176811, 0.7738932, 0.3214978, -0.44580117, 0.314627, 12.195649147033691, 2.5721676349639893, 6.507737636566162, 3.71657395362854, 173.41647338867188, 11.36070442199707, -0.70849609375, 0.104736328125, -0.017333984375, 0, 
281, 2297193478, 0.7847071, 0.31344187, -0.42494217, 0.32467437, 11.985215187072754, 2.5722522735595703, 6.580352783203125, 9.709515571594238, 181.18426513671875, 9.638789176940918, -0.6904296875, 0.103271484375, -0.06201171875, 0, 
282, 2297210145, 0.79481643, 0.30668077, -0.40229872, 0.3352159, 12.113090515136719, 2.342670202255249, 6.528822422027588, 23.645679473876953, 186.9264373779297, 6.270114898681641, -0.669189453125, 0.1015625, -0.105712890625, 0, 
283, 2297226812, 0.8046096, 0.30010727, -0.37835023, 0.345529, 12.097834587097168, 3.0098400115966797, 6.831293106079102, 27.720928192138672, 192.29954528808594, 2.496116876602173, -0.647216796875, 0.098876953125, -0.153564453125, 0, 
284, 2297243479, 0.81454104, 0.29252315, -0.3535721, 0.35488057, 12.122873306274414, 3.48101806640625, 6.616483688354492, 21.30959129333496, 197.71604919433594, -2.200258255004883, -0.6201171875, 0.096923828125, -0.1982421875, 0, 
285, 2297260146, 0.8240686, 0.28483856, -0.3279218, 0.3636555, 11.420881271362305, 3.211209774017334, 6.655762672424316, 22.26459312438965, 200.7902069091797, -5.916617393493652, -0.590576171875, 0.090576171875, -0.2392578125, 0, 
286, 2297276813, 0.8328519, 0.2776047, -0.30153298, 0.3719831, 11.10787296295166, 2.669996976852417, 6.857075214385986, 27.09198760986328, 201.3869171142578, -9.02540111541748, -0.559814453125, 0.08349609375, -0.2822265625, 0, 
287, 2297293480, 0.8409525, 0.27065742, -0.27427006, 0.37989432, 10.631789207458496, 3.211540460586548, 7.074510097503662, 31.404212951660156, 203.5608673095703, -11.913371086120605, -0.52734375, 0.078125, -0.322021484375, 0, 
288, 2297310147, 0.8487205, 0.2629928, -0.24661677, 0.3868962, 10.200090408325195, 3.4239368438720703, 7.270786762237549, 27.158315658569336, 205.4902801513672, -15.655776977539062, -0.49169921875, 0.06982421875, -0.359619140625, 0, 
289, 2297326814, 0.85620797, 0.25436962, -0.21884549, 0.39282426, 9.787110328674316, 3.09808349609375, 7.074409484863281, 20.53641700744629, 206.43710327148438, -19.748748779296875, -0.45703125, 0.06103515625, -0.39599609375, 0, 
290, 2297343481, 0.8630657, 0.24549714, -0.19090547, 0.39800027, 9.36191177368164, 2.727309226989746, 6.837221145629883, 19.474153518676758, 205.98397827148438, -22.39303207397461, -0.415283203125, 0.057861328125, -0.428955078125, 0, 
291, 2297360148, 0.86911273, 0.23663786, -0.16312815, 0.40253583, 8.618459701538086, 3.0661909580230713, 6.894266605377197, 19.622365951538086, 202.993896484375, -23.728622436523438, -0.378662109375, 0.04931640625, -0.458984375, 0, 
292, 2297376815, 0.8744345, 0.22780828, -0.13585782, 0.4062151, 7.809495449066162, 3.279019355773926, 7.255247592926025, 18.588760375976562, 197.82701110839844, -26.0594482421875, -0.33935546875, 0.0400390625, -0.486572265625, 0, 
293, 2297393482, 0.87953585, 0.2171331, -0.110037096, 0.40885434, 7.3073906898498535, 3.8113298416137695, 7.08503532409668, 2.7877960205078125, 192.57241821289062, -27.709623336791992, -0.30126953125, 0.03076171875, -0.510009765625, 0, 
294, 2297410149, 0.884212, 0.20536302, -0.08533626, 0.4107469, 6.674160480499268, 3.4566168785095215, 6.829351425170898, -6.959816932678223, 187.5867462158203, -28.53577995300293, -0.2607421875, 0.030517578125, -0.53173828125, 0, 
295, 2297426816, 0.8882498, 0.19306676, -0.06213761, 0.41216084, 5.9530792236328125, 2.743629217147827, 6.662595272064209, -13.822936058044434, 179.02993774414062, -27.233932495117188, -0.22216796875, 0.031494140625, -0.545654296875, 0, 
296, 2297443483, 0.89147156, 0.18142432, -0.040326297, 0.41320434, 5.180032253265381, 2.3984382152557373, 6.529439449310303, -12.856982231140137, 167.99862670898438, -25.64227867126465, -0.1845703125, 0.0341796875, -0.561279296875, 0, 
297, 2297460150, 0.8940722, 0.1701888, -0.02043059, 0.41382807, 4.669942378997803, 2.3192574977874756, 6.379764080047607, -15.161823272705078, 154.5250244140625, -24.202558517456055, -0.1494140625, 0.032958984375, -0.572021484375, 0, 
298, 2297476817, 0.8961649, 0.1591061, -0.0021916635, 0.414209, 4.119091033935547, 2.387498378753662, 5.953510761260986, -18.389877319335938, 143.66757202148438, -22.35321807861328, -0.114013671875, 0.037353515625, -0.580810546875, 0, 
299, 2297493484, 0.89786416, 0.14802346, 0.014512404, 0.4143896, 3.6500468254089355, 2.2227656841278076, 5.484231472015381, -22.3547306060791, 134.0966339111328, -20.80805778503418, -0.083984375, 0.0400390625, -0.5869140625, 0, 
300, 2297510151, 0.89931124, 0.13585208, 0.029031737, 0.41465747, 3.0904946327209473, 2.3014636039733887, 5.025883197784424, -35.07606887817383, 123.92903137207031, -17.454391479492188, -0.053955078125, 0.046875, -0.587890625, 0, 
301, 2297526818, 0.9003934, 0.1237698, 0.04184269, 0.4149965, 2.5011239051818848, 2.2307183742523193, 4.347522258758545, -39.099334716796875, 113.34424591064453, -14.377340316772461, -0.025634765625, 0.056640625, -0.586181640625, 0, 
302, 2297543485, 0.9010312, 0.112662435, 0.05297533, 0.4155045, 1.711890697479248, 1.8297069072723389, 4.250942230224609, -37.56009292602539, 100.52192687988281, -10.368035316467285, -0.00146484375, 0.065185546875, -0.5869140625, 0, 
303, 2297560152, 0.90134364, 0.10262634, 0.0624363, 0.41611224, 1.1416826248168945, 1.5705182552337646, 4.201454162597656, -35.50905990600586, 87.35826873779297, -7.1377272605896, 0.020751953125, 0.075439453125, -0.58447265625, 0, 
304, 2297576819, 0.9013302, 0.094138846, 0.070442274, 0.41686934, 0.5711231231689453, 1.4963308572769165, 4.238698482513428, -29.92560386657715, 74.19470977783203, -3.592684268951416, 0.040771484375, 0.081298828125, -0.58349609375, 0, 
305, 2297593486, 0.90120864, 0.0863642, 0.07668531, 0.4177126, 0.18347159028053284, 1.5277729034423828, 4.380806922912598, -30.548871994018555, 61.35728454589844, -1.2655699253082275, 0.0546875, 0.090576171875, -0.579345703125, 0, 
306, 2297610153, 0.9010466, 0.079537965, 0.081470296, 0.4185112, -0.24653644859790802, 1.4329122304916382, 4.299422740936279, -28.828855514526367, 49.60735321044922, -0.05933250114321709, 0.069091796875, 0.095458984375, -0.576171875, 0, 
307, 2297626820, 0.90080315, 0.0750133, 0.08534347, 0.41909847, -0.7906394600868225, 1.0840259790420532, 4.28959846496582, -17.046361923217773, 37.264892578125, 0.6542097926139832, 0.077880859375, 0.10205078125, -0.57373046875, 0, 
308, 2297643487, 0.9004802, 0.07344749, 0.088742174, 0.41936347, -1.068945050239563, 1.1227153539657593, 4.417115211486816, 0.13734202086925507, 25.664222717285156, 0.8718391060829163, 0.0869140625, 0.104248046875, -0.575439453125, 0, 
309, 2297660154, 0.9001573, 0.07387345, 0.09178067, 0.41932833, -1.2048697471618652, 1.5587915182113647, 4.795729160308838, 11.607738494873047, 17.51571273803711, 0.41602131724357605, 0.091796875, 0.101806640625, -0.5771484375, 0, 
310, 2297676821, 0.89994174, 0.07488232, 0.09430916, 0.41905105, -1.1970900297164917, 1.8894858360290527, 5.242339611053467, 13.828102111816406, 12.46184253692627, -0.7634643316268921, 0.097900390625, 0.097900390625, -0.57666015625, 0, 
311, 2297693488, 0.89981645, 0.07655093, 0.096445866, 0.41853195, -1.3677427768707275, 1.6571836471557617, 5.531196594238281, 16.869651794433594, 7.929553508758545, -1.8876839876174927, 0.096923828125, 0.09228515625, -0.58154296875, 0, 
312, 2297710155, 0.8997205, 0.07929585, 0.09817476, 0.41782418, -1.5194640159606934, 1.694594144821167, 6.071721076965332, 22.453495025634766, 2.164309024810791, -2.206934928894043, 0.097412109375, 0.08837890625, -0.582763671875, 0, 
313, 2297726822, 0.8996753, 0.08270741, 0.09939849, 0.41696993, -1.532131552696228, 2.0924434661865234, 6.590908050537109, 25.19042205810547, -3.0179641246795654, -2.528491735458374, 0.09912109375, 0.08154296875, -0.58447265625, 0, 
314, 2297743489, 0.89972025, 0.086217865, 0.099810496, 0.4160627, -1.6458078622817993, 2.274481773376465, 7.22812032699585, 23.445526123046875, -8.443424224853516, -2.5819966793060303, 0.097900390625, 0.0771484375, -0.587158203125, 0, 
315, 2297760156, 0.8998549, 0.09000426, 0.09918992, 0.41511685, -1.6346912384033203, 2.0442922115325928, 7.813689231872559, 22.16004180908203, -15.73211669921875, -2.270597219467163, 0.0908203125, 0.071044921875, -0.5888671875, 0, 
316, 2297776823, 0.90004903, 0.09404895, 0.09749488, 0.4141997, -1.5179487466812134, 1.9841333627700806, 8.233993530273438, 20.63477897644043, -23.166303634643555, -1.41660475730896, 0.088623046875, 0.067626953125, -0.594970703125, 0, 
317, 2297793490, 0.9002349, 0.09838926, 0.09469931, 0.41343558, -1.5891090631484985, 2.042520761489868, 8.555648803710938, 19.239227294921875, -30.73487091064453, 0.46888747811317444, 0.078125, 0.059326171875, -0.594970703125, 0, 
318, 2297810157, 0.90040314, 0.10317989, 0.090710394, 0.4127954, -1.4544960260391235, 2.039484739303589, 8.593822479248047, 18.575328826904297, -39.33041763305664, 2.3930552005767822, 0.072509765625, 0.05615234375, -0.59619140625, 0, 
319, 2297826824, 0.90051293, 0.10803096, 0.08590293, 0.41234308, -0.9466538429260254, 2.369396924972534, 8.788127899169922, 16.559579849243164, -44.422119140625, 4.346182823181152, 0.0615234375, 0.053955078125, -0.598388671875, 0, 
320, 2297843491, 0.9005954, 0.11256215, 0.0806249, 0.41201633, -0.6892771124839783, 2.1691722869873047, 8.867733001708984, 13.195021629333496, -46.32756805419922, 5.364988803863525, 0.051513671875, 0.048095703125, -0.60009765625, 0, 
321, 2297860158, 0.9005569, 0.11761479, 0.075224094, 0.4117104, -0.5563211441040039, 1.8679680824279785, 9.113929748535156, 16.168249130249023, -48.484947204589844, 6.223706245422363, 0.03857421875, 0.046630859375, -0.60009765625, 0, 
322, 2297876825, 0.9003652, 0.1232695, 0.069624886, 0.4114605, -0.187592014670372, 2.075993061065674, 9.627243041992188, 19.450857162475586, -51.296356201171875, 7.476266860961914, 0.028076171875, 0.041015625, -0.601318359375, 0, 
323, 2297893492, 0.9001156, 0.12836787, 0.063725024, 0.41140354, 0.2753121554851532, 2.5558865070343018, 9.998189926147461, 15.132104873657227, -51.3863525390625, 8.82199478149414, 0.0146484375, 0.0390625, -0.60302734375, 0, 
324, 2297910159, 0.89980423, 0.1327746, 0.057516236, 0.41160095, 0.42451798915863037, 2.6069066524505615, 10.331770896911621, 9.932683944702148, -51.07521438598633, 10.537445068359375, 0.00341796875, 0.037109375, -0.596923828125, 0, 
325, 2297926826, 0.89940935, 0.13681631, 0.051277883, 0.411965, 0.6582914590835571, 2.518920421600342, 10.481698036193848, 7.613889217376709, -50.02516174316406, 11.68520736694336, -0.0087890625, 0.03271484375, -0.599609375, 0, 
326, 2297943493, 0.8989818, 0.14012025, 0.045353245, 0.41248223, 0.9657117128372192, 2.8136022090911865, 10.517738342285156, 3.9329442977905273, -45.82136154174805, 12.166109085083008, -0.0205078125, 0.03515625, -0.597900390625, 0, 
327, 2297960160, 0.89857143, 0.14267866, 0.04009593, 0.4130435, 1.0818288326263428, 2.6814215183258057, 10.455957412719727, 1.1966004371643066, -39.5235481262207, 11.510282516479492, -0.028076171875, 0.036376953125, -0.5986328125, 0, 
328, 2297976827, 0.8980711, 0.14513987, 0.035715006, 0.41367546, 1.3136364221572876, 2.425863027572632, 10.388799667358398, 3.1656219959259033, -33.71883010864258, 11.308472633361816, -0.034912109375, 0.034912109375, -0.596923828125, 0, 
329, 2297993494, 0.8973943, 0.14763656, 0.032284588, 0.414542, 1.3740063905715942, 2.669282913208008, 10.609991073608398, 6.22432279586792, -27.64911651611328, 12.313159942626953, -0.04150390625, 0.034912109375, -0.596435546875, 0, 
330, 2298010161, 0.89673525, 0.14943868, 0.02931069, 0.4155418, 1.5007034540176392, 3.0013246536254883, 10.763288497924805, 3.2060842514038086, -22.698928833007812, 12.461589813232422, -0.046630859375, 0.034912109375, -0.59521484375, 0, 
331, 2298026828, 0.89610267, 0.15071078, 0.026931593, 0.41660666, 1.6165707111358643, 2.852433919906616, 10.808197021484375, 1.6029411554336548, -17.433616638183594, 12.063796997070312, -0.04931640625, 0.033935546875, -0.59521484375, 0, 
332, 2298043495, 0.8954875, 0.15157633, 0.024758374, 0.41774878, 1.491328239440918, 2.665637969970703, 10.960896492004395, -0.3326965570449829, -14.900373458862305, 12.196147918701172, -0.0517578125, 0.03515625, -0.593505859375, 0, 
333, 2298060162, 0.89491755, 0.15223266, 0.023031328, 0.41882902, 1.5667990446090698, 2.4292991161346436, 10.983475685119629, -0.3599099814891815, -11.606764793395996, 11.181304931640625, -0.054931640625, 0.036865234375, -0.59423828125, 0, 
334, 2298076829, 0.8942654, 0.15292065, 0.021470044, 0.42005223, 1.09294855594635, 2.546442985534668, 11.244356155395508, 0.397336483001709, -10.496719360351562, 12.122723579406738, -0.053466796875, 0.036865234375, -0.589599609375, 0, 
335, 2298093496, 0.8937444, 0.15270525, 0.01984831, 0.42131758, 1.1761995553970337, 3.090841054916382, 11.424065589904785, -5.454548358917236, -8.233298301696777, 11.933317184448242, -0.05615234375, 0.03857421875, -0.593505859375, 0, 
336, 2298110163, 0.89333147, 0.15157706, 0.018449048, 0.42266217, 1.4126087427139282, 2.9936277866363525, 11.311736106872559, -10.534526824951172, -4.1519246101379395, 11.747537612915039, -0.057373046875, 0.0419921875, -0.587890625, 0, 
337, 2298126830, 0.89291245, 0.15011354, 0.017532181, 0.42410663, 1.4107096195220947, 2.66586971282959, 11.254374504089355, -11.189891815185547, -0.10092692822217941, 11.833826065063477, -0.053955078125, 0.044677734375, -0.589599609375, 0, 
338, 2298143497, 0.8924131, 0.14893231, 0.017405547, 0.4255762, 1.2177023887634277, 2.8089699745178223, 11.348621368408203, -7.058903694152832, 3.971041202545166, 11.438608169555664, -0.051025390625, 0.048583984375, -0.59033203125, 0, 
339, 2298160164, 0.89190197, 0.14811459, 0.018087665, 0.4269028, 0.9272034764289856, 3.1216039657592773, 11.569588661193848, -2.420529365539551, 7.725991725921631, 9.811186790466309, -0.0478515625, 0.049072265625, -0.58740234375, 0, 
340, 2298176831, 0.89156055, 0.14677167, 0.019465916, 0.42801768, 0.9537004828453064, 3.5546329021453857, 11.570832252502441, -3.7396113872528076, 13.293023109436035, 7.243169784545898, -0.04443359375, 0.050048828125, -0.589599609375, 0, 
341, 2298193498, 0.89153415, 0.14429982, 0.021557907, 0.42881224, 0.876937210559845, 3.4570116996765137, 11.309748649597168, -8.841493606567383, 20.618009567260742, 3.485644817352295, -0.04052734375, 0.053466796875, -0.588623046875, 0, 
342, 2298210165, 0.8916047, 0.14211775, 0.024706079, 0.42922404, 0.7391630411148071, 2.969238519668579, 11.003273963928223, -3.9979472160339355, 25.837223052978516, -0.1481570154428482, -0.03271484375, 0.054931640625, -0.588623046875, 0, 
343, 2298226832, 0.8916702, 0.14057967, 0.02900158, 0.429326, 0.5310436487197876, 3.2254178524017334, 10.906681060791016, 3.396479606628418, 30.662364959716797, -3.041454315185547, -0.026123046875, 0.052734375, -0.59130859375, 0, 
344, 2298243499, 0.89189893, 0.13850503, 0.03404257, 0.42915514, 0.3305164873600006, 3.518855094909668, 10.984716415405273, 2.1990973949432373, 36.5101203918457, -6.019000053405762, -0.01708984375, 0.05419921875, -0.593017578125, 0, 
345, 2298260166, 0.8923181, 0.1356148, 0.039534803, 0.42873558, 0.2667372226715088, 3.2428030967712402, 10.633764266967773, -1.6050810813903809, 41.390323638916016, -8.721818923950195, -0.007080078125, 0.052978515625, -0.59228515625, 0, 
346, 2298276833, 0.89274484, 0.13285002, 0.045825105, 0.42808628, 0.1323404461145401, 2.695746898651123, 10.113011360168457, 1.566247820854187, 45.689842224121094, -10.861136436462402, 0.004150390625, 0.051513671875, -0.5947265625, 0, 
347, 2298293500, 0.89320314, 0.12986735, 0.052480955, 0.42728043, 0.12191068381071091, 2.9082534313201904, 9.709716796875, 1.3274729251861572, 48.414527893066406, -12.313605308532715, 0.012939453125, 0.0537109375, -0.597412109375, 0, 
348, 2298310167, 0.89376825, 0.12610053, 0.059333183, 0.4263297, -0.04400308057665825, 2.847510814666748, 9.266252517700195, -2.9590015411376953, 51.752864837646484, -13.971640586853027, 0.0263671875, 0.05224609375, -0.596923828125, 0, 
349, 2298326834, 0.8943545, 0.12181928, 0.066195615, 0.42533305, -0.16477486491203308, 2.5064990520477295, 8.879322052001953, -6.096708297729492, 53.27037048339844, -14.532418251037598, 0.0390625, 0.052734375, -0.5966796875, 0, 
350, 2298343501, 0.8947996, 0.117819875, 0.073241465, 0.42436785, -0.26316410303115845, 2.150282144546509, 8.52778148651123, -3.7247540950775146, 53.662506103515625, -13.948185920715332, 0.05126953125, 0.05419921875, -0.597900390625, 0, 
351, 2298360168, 0.8951078, 0.11407479, 0.080278635, 0.42346725, -0.447922945022583, 2.017063617706299, 8.301071166992188, -2.1026837825775146, 52.98778533935547, -13.013116836547852, 0.0615234375, 0.05224609375, -0.598876953125, 0, 
352, 2298376835, 0.8953356, 0.11051303, 0.08692399, 0.42261726, -0.6674896478652954, 1.9986296892166138, 8.178287506103516, -2.0756213665008545, 50.12452697753906, -12.054486274719238, 0.0751953125, 0.054443359375, -0.595703125, 0, 
353, 2298393502, 0.8955079, 0.10710698, 0.09284735, 0.42186886, -0.803983211517334, 1.9608012437820435, 8.105534553527832, -3.228261947631836, 45.33383560180664, -10.61989974975586, 0.08349609375, 0.055908203125, -0.5966796875, 0, 
354, 2298410169, 0.895594, 0.104287505, 0.09814259, 0.4211933, -0.96639484167099, 1.7754719257354736, 8.007485389709473, -1.4164032936096191, 39.869171142578125, -9.08218765258789, 0.09423828125, 0.0546875, -0.597900390625, 0, 
355, 2298426836, 0.8955429, 0.102642804, 0.10276432, 0.42060333, -1.1835343837738037, 1.6695523262023926, 8.008926391601562, 3.915921211242676, 32.466854095458984, -6.876152992248535, 0.1025390625, 0.05615234375, -0.597900390625, 0, 
356, 2298443503, 0.8954367, 0.101830676, 0.106629066, 0.42006436, -1.4204485416412354, 1.9086873531341553, 8.007487297058105, 6.866301536560059, 25.463693618774414, -5.275256633758545, 0.108642578125, 0.054443359375, -0.598876953125, 0, 
357, 2298460170, 0.8954147, 0.100861624, 0.10947159, 0.41961387, -1.4330285787582397, 2.1378073692321777, 8.09412956237793, 2.8313403129577637, 19.61021614074707, -4.367432117462158, 0.113525390625, 0.054443359375, -0.59765625, 0, 
358, 2298476837, 0.8954471, 0.099870145, 0.11153558, 0.4192382, -1.4690794944763184, 1.8098009824752808, 8.040192604064941, 0.35387173295021057, 14.878372192382812, -3.538512706756592, 0.119140625, 0.0537109375, -0.5966796875, 0, 
359, 2298493504, 0.8954024, 0.099900186, 0.11302266, 0.41892794, -1.542413592338562, 1.582137107849121, 7.992676258087158, 4.992166519165039, 8.475584983825684, -1.729062795639038, 0.1220703125, 0.05322265625, -0.599365234375, 0, 
360, 2298510171, 0.895275, 0.10071659, 0.11399509, 0.41874135, -1.577899694442749, 1.9074153900146484, 8.241816520690918, 8.32429027557373, 3.177967071533203, 0.24031762778759003, 0.12158203125, 0.051513671875, -0.602294921875, 0, 
361, 2298526838, 0.895203, 0.10125299, 0.11415417, 0.41872212, -1.5171544551849365, 2.217534065246582, 8.411337852478027, 4.097960948944092, -0.9613854289054871, 1.4592642784118652, 0.121337890625, 0.04931640625, -0.599365234375, 0, 
362, 2298543505, 0.89519775, 0.101334095, 0.11366267, 0.41884765, -1.5445315837860107, 2.0009725093841553, 8.492289543151855, -0.7350333333015442, -3.617947816848755, 2.256101131439209, 0.124267578125, 0.0498046875, -0.6005859375, 0, 
363, 2298560172, 0.8951535, 0.10208504, 0.11260575, 0.41904542, -1.4871296882629395, 1.7999794483184814, 8.592105865478516, 1.7388787269592285, -8.956839561462402, 3.7338907718658447, 0.11865234375, 0.05078125, -0.60107421875, 0, 
364, 2298576839, 0.89507246, 0.10363031, 0.111205935, 0.4192129, -1.4202065467834473, 2.0043256282806396, 8.675204277038574, 5.701756477355957, -13.356086730957031, 4.515810966491699, 0.117431640625, 0.048095703125, -0.6005859375, 0, 
365, 2298593506, 0.8949753, 0.105652235, 0.109402634, 0.41939, -1.3962910175323486, 2.1386280059814453, 8.872255325317383, 7.484598159790039, -17.2009220123291, 5.275076389312744, 0.113037109375, 0.04541015625, -0.603271484375, 0, 
366, 2298610173, 0.8948985, 0.107775025, 0.10715501, 0.41959435, -1.3135795593261719, 2.2013802528381348, 8.944711685180664, 6.796911239624023, -20.228431701660156, 5.7843241691589355, 0.10986328125, 0.04833984375, -0.601806640625, 0, 
367, 2298626840, 0.89481175, 0.11014386, 0.10472613, 0.41977718, -1.2943732738494873, 2.175382614135742, 9.072953224182129, 7.818593502044678, -22.068729400634766, 5.998179912567139, 0.10693359375, 0.043212890625, -0.602294921875, 0, 
368, 2298643507, 0.89473397, 0.11277162, 0.102081686, 0.41989672, -1.0870108604431152, 2.363454818725586, 9.036623001098633, 8.837523460388184, -24.201833724975586, 5.934700965881348, 0.100341796875, 0.04443359375, -0.60498046875, 0, 
369, 2298660174, 0.894699, 0.11483136, 0.09928745, 0.4200832, -0.8408455848693848, 2.454831838607788, 9.16878604888916, 4.835668087005615, -23.464290618896484, 5.942331314086914, 0.09521484375, 0.03955078125, -0.602783203125, 0, 
370, 2298676841, 0.89461154, 0.117175475, 0.096488945, 0.42027396, -0.9850744009017944, 2.3673975467681885, 9.206185340881348, 6.61530876159668, -24.27069091796875, 6.317099571228027, 0.088134765625, 0.0390625, -0.605712890625, 0, 
371, 2298693508, 0.89449006, 0.1198049, 0.09370964, 0.42042044, -0.8306137919425964, 2.4686970710754395, 9.468500137329102, 8.489216804504395, -24.993013381958008, 6.318521976470947, 0.084716796875, 0.036376953125, -0.606201171875, 0, 
372, 2298710175, 0.89442354, 0.12214014, 0.09093451, 0.42049935, -0.6574514508247375, 2.6917805671691895, 9.544187545776367, 6.697422027587891, -24.20793342590332, 5.552762031555176, 0.076904296875, 0.036865234375, -0.606689453125, 0, 
373, 2298726842, 0.8944171, 0.12386375, 0.08800288, 0.4206324, -0.5468898415565491, 2.6420934200286865, 9.471641540527344, 2.402085542678833, -23.391590118408203, 5.459377288818359, 0.072998046875, 0.035888671875, -0.605712890625, 0, 
374, 2298743509, 0.8944339, 0.12536377, 0.084909074, 0.42078805, -0.5600370764732361, 2.694026231765747, 9.53934097290039, 0.5281285643577576, -23.73369789123535, 5.534422397613525, 0.063720703125, 0.0361328125, -0.605224609375, 0, 
375, 2298760176, 0.8944647, 0.12667418, 0.08172397, 0.4209611, -0.5302613377571106, 2.6958322525024414, 9.670888900756836, -0.9204965829849243, -23.737884521484375, 5.570792198181152, 0.06201171875, 0.037109375, -0.60693359375, 0, 
376, 2298776843, 0.8944481, 0.12844042, 0.07866129, 0.42104438, -0.5780003666877747, 2.5357906818389893, 9.64868450164795, 2.333225965499878, -24.356426239013672, 5.3028459548950195, 0.0576171875, 0.0400390625, -0.60400390625, 0, 
377, 2298793510, 0.8943726, 0.13082297, 0.075691156, 0.42101574, -0.37173646688461304, 2.6556363105773926, 9.670197486877441, 6.510707378387451, -25.639326095581055, 5.037921905517578, 0.0498046875, 0.03515625, -0.605712890625, 0, 
378, 2298810177, 0.8943491, 0.13287693, 0.07270228, 0.42094937, -0.09531630575656891, 2.963257312774658, 9.749794006347656, 4.414071083068848, -24.863842010498047, 4.501410484313965, 0.0458984375, 0.03466796875, -0.6044921875, 0, 
379, 2298826844, 0.8943849, 0.13441144, 0.06960959, 0.42090854, 0.005885152146220207, 2.851780414581299, 9.626383781433105, 0.8529365062713623, -23.998567581176758, 4.321389675140381, 0.03759765625, 0.035888671875, -0.60400390625, 0, 
380, 2298843511, 0.89438665, 0.13605143, 0.06669446, 0.4208498, 0.05623142421245575, 2.7892308235168457, 9.627313613891602, 2.0562236309051514, -23.205137252807617, 4.195348739624023, 0.035400390625, 0.03369140625, -0.607421875, 0, 
381, 2298860178, 0.8943861, 0.13768679, 0.06403202, 0.4207328, 0.1840427964925766, 2.921060085296631, 9.60578727722168, 2.7909116744995117, -21.685361862182617, 3.6043338775634766, 0.028564453125, 0.03662109375, -0.603515625, 0, 
382, 2298876845, 0.89443254, 0.13904572, 0.06148793, 0.42056656, 0.15096093714237213, 2.9257397651672363, 9.755562782287598, 1.4100643396377563, -20.217388153076172, 2.9308204650878906, 0.023681640625, 0.035400390625, -0.604736328125, 0, 
383, 2298893512, 0.8944975, 0.1404802, 0.05911833, 0.4202914, 0.24847005307674408, 2.7816429138183594, 9.747648239135742, 2.4096522331237793, -19.469619750976562, 2.0710644721984863, 0.01806640625, 0.03515625, -0.60400390625, 0, 
384, 2298910179, 0.8945558, 0.14180811, 0.056831628, 0.42003676, 0.27535951137542725, 2.856989860534668, 9.877082824707031, 1.9949949979782104, -18.622032165527344, 2.093552589416504, 0.016357421875, 0.03564453125, -0.60302734375, 0, 
385, 2298926846, 0.8946669, 0.14276989, 0.054587156, 0.419772, 0.3394413888454437, 2.953080415725708, 9.871006965637207, -0.17739373445510864, -17.32887840270996, 1.696221947669983, 0.0107421875, 0.0341796875, -0.601806640625, 0, 
386, 2298943513, 0.8948147, 0.14337377, 0.052395668, 0.41953, 0.26499491930007935, 2.8083465099334717, 9.960437774658203, -2.269568920135498, -15.956482887268066, 1.5435699224472046, 0.0068359375, 0.03759765625, -0.601318359375, 0, 
387, 2298960180, 0.8949035, 0.14440648, 0.05050631, 0.419218, 0.24768227338790894, 2.6658108234405518, 9.98820686340332, 1.3281924724578857, -15.378300666809082, 1.1400671005249023, 0.0029296875, 0.036376953125, -0.599609375, 0, 
388, 2298976847, 0.8949769, 0.14552344, 0.048846297, 0.41887158, 0.38136744499206543, 2.7489676475524902, 9.973855972290039, 2.543823003768921, -14.235214233398438, 0.775892436504364, -9.765625E-4, 0.035888671875, -0.600830078125, 0, 
389, 2298993514, 0.89515126, 0.14585118, 0.047266033, 0.4185664, 0.3554558753967285, 2.9033353328704834, 10.07153606414795, -2.1912314891815186, -11.459920883178711, 0.3976437449455261, -0.002685546875, 0.035400390625, -0.5986328125, 0, 
390, 2299010181, 0.895368, 0.14581837, 0.04579767, 0.41827765, 0.17084509134292603, 2.607027292251587, 10.018702507019043, -4.131996154785156, -9.727936744689941, 0.1480606645345688, -0.003173828125, 0.03662109375, -0.600830078125, 0, 
391, 2299026848, 0.8954918, 0.1462266, 0.044727135, 0.41798583, 0.22074322402477264, 2.612326145172119, 9.933913230895996, -0.16910788416862488, -8.522602081298828, 0.14018473029136658, -0.007080078125, 0.0400390625, -0.59912109375, 0, 
392, 2299043515, 0.89559144, 0.14674476, 0.0440013, 0.41766763, 0.3533533811569214, 2.857374429702759, 9.92923355102539, 1.5398037433624268, -6.73568058013916, -0.262261301279068, -0.007568359375, 0.038330078125, -0.59912109375, 0, 
393, 2299060182, 0.89577293, 0.14672527, 0.043467045, 0.41734067, 0.41125696897506714, 2.8166592121124268, 9.892862319946289, -1.2981669902801514, -4.045308589935303, -0.9049736261367798, -0.01220703125, 0.037353515625, -0.597412109375, 0, 
394, 2299076849, 0.895974, 0.14659473, 0.043147847, 0.4169878, 0.3504120111465454, 2.5851051807403564, 9.743964195251465, -1.3715217113494873, -2.4313113689422607, -1.3682177066802979, -0.009765625, 0.038818359375, -0.597900390625, 0, 
395, 2299093516, 0.89611524, 0.14679281, 0.04323275, 0.41660574, 0.3047056198120117, 2.6938118934631348, 9.598673820495605, 1.8873422145843506, -0.8939728140830994, -1.6812816858291626, -0.00927734375, 0.038330078125, -0.601318359375, 0, 
396, 2299110183, 0.8962243, 0.14713943, 0.043703575, 0.41619956, 0.27970823645591736, 2.7674288749694824, 9.649429321289062, 3.952110528945923, 1.0435832738876343, -2.0819413661956787, -0.0126953125, 0.033935546875, -0.5986328125, 0, 
397, 2299126850, 0.89632183, 0.14766148, 0.044419162, 0.41572878, 0.33709588646888733, 2.5908753871917725, 9.605483055114746, 5.767269134521484, 1.9882049560546875, -2.638108015060425, -0.011962890625, 0.037353515625, -0.59912109375, 0, 
398, 2299143517, 0.8963619, 0.14854668, 0.045340102, 0.4152276, 0.3378864824771881, 2.567347288131714, 9.562067031860352, 8.667539596557617, 2.204428195953369, -2.755568504333496, -0.010986328125, 0.034912109375, -0.600830078125, 0, 
399, 2299160184, 0.8964147, 0.14945233, 0.04619565, 0.41469395, 0.27334269881248474, 2.7821147441864014, 9.738333702087402, 8.610934257507324, 1.7094366550445557, -2.913188934326172, -0.00927734375, 0.030517578125, -0.601318359375, 0, 
400, 2299176851, 0.8964977, 0.15020086, 0.04686202, 0.4141687, 0.25369465351104736, 2.7689380645751953, 9.73084545135498, 7.074786186218262, 0.9913205504417419, -2.8000831604003906, -0.009765625, 0.031494140625, -0.600830078125, 0, 
401, 2299193518, 0.89660704, 0.1508878, 0.047344245, 0.4136272, 0.3532792627811432, 2.6330201625823975, 9.601475715637207, 6.154546737670898, 0.0073572495020926, -2.8014919757843018, -0.008056640625, 0.029296875, -0.601318359375, 0, 
402, 2299210185, 0.896623, 0.1521526, 0.047949243, 0.41305923, 0.43668052554130554, 2.51362681388855, 9.418045997619629, 10.179572105407715, -0.8727402091026306, -2.6335625648498535, -0.008056640625, 0.025390625, -0.60302734375, 0, 
403, 2299226852, 0.8964863, 0.15415123, 0.0488121, 0.41251335, 0.4134136438369751, 2.55674409866333, 9.351852416992188, 15.597563743591309, -1.2844138145446777, -2.086015224456787, -0.010986328125, 0.02490234375, -0.605224609375, 0, 
404, 2299243519, 0.89626867, 0.15654805, 0.04989317, 0.41195387, 0.4452435374259949, 2.704198122024536, 9.263755798339844, 18.77116584777832, -1.0494945049285889, -2.0329079627990723, -0.011474609375, 0.01708984375, -0.605712890625, 0, 
405, 2299260186, 0.89600253, 0.15897729, 0.05106991, 0.41145816, 0.3529011905193329, 2.8430583477020264, 9.257225036621094, 19.27910804748535, -0.4593643248081207, -1.5902303457260132, -0.01318359375, 0.01416015625, -0.608642578125, 0, 
406, 2299276853, 0.8958742, 0.16049844, 0.051877886, 0.4110455, 0.36633870005607605, 3.0908212661743164, 9.403989791870117, 12.466085433959961, -0.11506512016057968, -1.3806148767471313, -0.011474609375, 0.0107421875, -0.612548828125, 0, 
407, 2299293520, 0.8958172, 0.16152617, 0.05264704, 0.41066927, 0.4339138865470886, 2.7705283164978027, 9.1561861038208, 9.226792335510254, 1.058592438697815, -1.489993691444397, -0.011474609375, 0.011962890625, -0.61376953125, 0, 
408, 2299310187, 0.8956269, 0.16310541, 0.05371273, 0.41032207, 0.4054765999317169, 2.609602689743042, 9.112749099731445, 13.605942726135254, 1.4149937629699707, -1.0587400197982788, -0.0107421875, 0.004638671875, -0.6142578125, 0, 
409, 2299326854, 0.89538616, 0.16484648, 0.05466572, 0.41002584, 0.26931309700012207, 3.129566192626953, 9.454371452331543, 14.334277153015137, 0.3491077125072479, -0.40918874740600586, -0.009765625, 0.0029296875, -0.615234375, 0, 
410, 2299343521, 0.8953456, 0.16561571, 0.05515637, 0.40973878, 0.33959147334098816, 3.3069345951080322, 9.640807151794434, 6.819913864135742, 0.17891114950180054, -0.7566249370574951, -0.010986328125, 7.32421875E-4, -0.6142578125, 0, 
411, 2299360188, 0.89538074, 0.16603525, 0.055192914, 0.40948695, 0.17225266993045807, 2.880863904953003, 9.594378471374512, 3.2907519340515137, -1.6176468133926392, -0.3676318824291229, -0.011474609375, -0.003173828125, -0.612548828125, 0, 
412, 2299376855, 0.89540434, 0.16673774, 0.054804686, 0.4092021, 0.19098533689975739, 2.896721601486206, 9.616655349731445, 3.8727498054504395, -5.061160087585449, 0.060119420289993286, -0.01318359375, -0.001953125, -0.613525390625, 0, 
413, 2299393522, 0.8954268, 0.16753376, 0.05414782, 0.40891492, 0.1934383362531662, 3.140824317932129, 9.640953063964844, 3.7066001892089844, -6.9778361320495605, 0.39720824360847473, -0.015869140625, -0.003662109375, -0.6142578125, 0, 
414, 2299410189, 0.89548934, 0.16821773, 0.0533197, 0.40860617, 0.2789495885372162, 3.064242362976074, 9.571053504943848, 2.5036354064941406, -7.757767200469971, 0.3118026554584503, -0.012451171875, -0.002197265625, -0.615966796875, 0, 
415, 2299426856, 0.89557934, 0.1688104, 0.052343667, 0.40829054, 0.31488627195358276, 3.010591745376587, 9.465628623962402, 1.5052778720855713, -8.426567077636719, 0.33356067538261414, -0.01708984375, -0.005859375, -0.616455078125, 0, 
416, 2299443523, 0.8956589, 0.1694093, 0.051368985, 0.40799147, 0.3536703884601593, 2.966661214828491, 9.430963516235352, 1.5614211559295654, -8.411136627197266, 0.46948736906051636, -0.020263671875, -0.003173828125, -0.61767578125, 0, 
417, 2299460190, 0.89571875, 0.16999333, 0.050443914, 0.4077329, 0.36338546872138977, 2.933776378631592, 9.41536808013916, 1.6265923976898193, -8.007146835327148, 0.7131153345108032, -0.02099609375, -0.001953125, -0.61376953125, 0, 
418, 2299476857, 0.89576286, 0.17046645, 0.049655978, 0.40753496, 0.47088390588760376, 3.0742669105529785, 9.342398643493652, 1.3352993726730347, -6.770885467529297, 0.939083456993103, -0.024169921875, -0.001953125, -0.6142578125, 0, 
419, 2299493524, 0.8958109, 0.17067872, 0.04908268, 0.4074098, 0.43776482343673706, 2.995567560195923, 9.284611701965332, 0.30655205249786377, -4.632723331451416, 1.0338504314422607, -0.023681640625, -0.004150390625, -0.611328125, 0, 
420, 2299510191, 0.8958081, 0.17093845, 0.048762515, 0.40734538, 0.44122666120529175, 2.9134037494659424, 9.34434986114502, 1.3536889553070068, -3.114607095718384, 1.2727912664413452, -0.023193359375, -0.004638671875, -0.613037109375, 0, 
421, 2299526858, 0.89573216, 0.17131813, 0.048722945, 0.40735766, 0.44800442457199097, 3.006777286529541, 9.36611557006836, 2.9498209953308105, -1.6004096269607544, 1.6725285053253174, -0.0263671875, -0.0029296875, -0.6142578125, 0, 
422, 2299543525, 0.89568263, 0.17134334, 0.04875377, 0.40745232, 0.4785502552986145, 3.143986940383911, 9.48232364654541, 0.9138035774230957, -0.08124348521232605, 1.9129934310913086, -0.023681640625, -0.00146484375, -0.6142578125, 0, 
423, 2299560192, 0.89566326, 0.17103016, 0.048903998, 0.40760854, 0.4886675477027893, 2.998197555541992, 9.519890785217285, -0.8868396878242493, 1.6667015552520752, 1.955446481704712, -0.025390625, -0.005126953125, -0.61474609375, 0, 
424, 2299576859, 0.89558876, 0.17053081, 0.049441252, 0.4079166, 0.5180560350418091, 3.017989158630371, 9.373211860656738, -0.9222620725631714, 4.780604362487793, 2.5500197410583496, -0.02099609375, -2.44140625E-4, -0.612060546875, 0, 
425, 2299593526, 0.89540946, 0.16978975, 0.05109545, 0.4084152, 0.4776053726673126, 3.139183759689331, 9.326498031616211, 0.7852665781974792, 12.597145080566406, 2.6245925426483154, -0.017578125, -0.001953125, -0.613525390625, 0, 
426, 2299610193, 0.895148, 0.16870078, 0.054128353, 0.40904847, 0.3546734154224396, 3.282918691635132, 9.375509262084961, 2.564379930496216, 22.246826171875, 1.9497767686843872, -0.01416015625, -0.003662109375, -0.616943359375, 0, 
427, 2299626860, 0.89490634, 0.16681626, 0.058852293, 0.4096969, 0.4774920642375946, 3.516120433807373, 9.393563270568848, 2.3934335708618164, 34.90260696411133, -0.2672824561595917, -0.008056640625, -0.00439453125, -0.617431640625, 0, 
428, 2299643527, 0.89483523, 0.16277243, 0.06560543, 0.41045246, 0.486385703086853, 3.8443443775177, 9.566327095031738, -5.423159599304199, 53.52657699584961, -3.2856173515319824, 0.008544921875, 2.44140625E-4, -0.61865234375, 0, 
429, 2299660194, 0.89507085, 0.15529808, 0.074182615, 0.41137296, 0.26896485686302185, 3.938671112060547, 9.84636402130127, -21.81609344482422, 74.476318359375, -6.731224536895752, 0.023681640625, 0.00244140625, -0.61572265625, 0, 
430, 2299676861, 0.8953488, 0.1461022, 0.0838681, 0.41227546, -0.1338399350643158, 3.1464908123016357, 10.073111534118652, -29.32697868347168, 86.13394165039062, -8.99868392944336, 0.04638671875, 0.00927734375, -0.61572265625, 0, 
431, 2299693528, 0.895128, 0.13847746, 0.095232606, 0.41291767, -0.24601347744464874, 2.438878297805786, 10.265195846557617, -14.247594833374023, 92.04703521728516, -9.953197479248047, 0.068115234375, 0.01416015625, -0.614013671875, 0, 
432, 2299710195, 0.8944186, 0.13236158, 0.10835148, 0.41322622, -0.2870737910270691, 2.695013999938965, 10.741803169250488, 0.7133319973945618, 98.57838439941406, -11.273051261901855, 0.09326171875, 0.015380859375, -0.6162109375, 0, 
433, 2299726862, 0.8935042, 0.12594798, 0.12302513, 0.4131008, -0.5532436370849609, 3.1213934421539307, 11.146645545959473, 3.8156280517578125, 108.76895904541016, -14.963562965393066, 0.11767578125, 0.015625, -0.614013671875, 0, 
434, 2299743529, 0.8922942, 0.118601754, 0.13883941, 0.41287813, -0.9339913725852966, 3.377898693084717, 10.814262390136719, 1.6617400646209717, 118.6158676147461, -16.471668243408203, 0.148681640625, 0.01513671875, -0.6123046875, 0, 
435, 2299760196, 0.89059705, 0.11056303, 0.15604809, 0.41262832, -1.1426185369491577, 3.0420114994049072, 10.395267486572266, 1.7818100452423096, 129.6012725830078, -17.026235580444336, 0.18212890625, 0.0146484375, -0.611572265625, 0, 
436, 2299776863, 0.8883992, 0.10198491, 0.17469442, 0.4121021, -1.1525347232818604, 2.865054130554199, 10.174454689025879, 3.222362995147705, 140.28741455078125, -18.945924758911133, 0.2119140625, 0.013671875, -0.607666015625, 0, 
437, 2299793530, 0.88567775, 0.0927438, 0.1946026, 0.4112223, -1.4973729848861694, 2.7112889289855957, 10.01114559173584, 3.5258936882019043, 150.2897491455078, -21.271909713745117, 0.251220703125, 0.01416015625, -0.601318359375, 0, 
438, 2299810197, 0.8823169, 0.0834055, 0.21551098, 0.41001913, -2.1942248344421387, 2.559936046600342, 9.718647003173828, 6.586009502410889, 157.34518432617188, -22.163293838500977, 0.286865234375, 0.014892578125, -0.594482421875, 0, 
439, 2299826864, 0.8783452, 0.074389935, 0.23706694, 0.40838143, -2.5624074935913086, 2.574301242828369, 9.409307479858398, 11.345709800720215, 161.051025390625, -22.9384822845459, 0.32666015625, 0.00927734375, -0.58447265625, 0, 
440, 2299843531, 0.8737711, 0.06520905, 0.2589061, 0.40649724, -2.7970309257507324, 2.688816785812378, 9.005523681640625, 11.829331398010254, 164.11264038085938, -23.11870765686035, 0.3642578125, 0.010498046875, -0.57470703125, 0, 
441, 2299860198, 0.86861587, 0.05559587, 0.28073296, 0.40448123, -3.2062759399414062, 2.8070321083068848, 8.699771881103516, 9.663808822631836, 166.2555389404297, -23.02115821838379, 0.405029296875, 0.00830078125, -0.561279296875, 0, 
442, 2299876865, 0.8630278, 0.04481622, 0.30197203, 0.40247655, -3.6479697227478027, 2.9179575443267822, 8.261944770812988, 1.1708800792694092, 166.85711669921875, -23.753620147705078, 0.44140625, 0.01025390625, -0.546630859375, 0, 
443, 2299893532, 0.8569897, 0.033402815, 0.3227794, 0.40033287, -4.305825233459473, 2.785820722579956, 7.762022018432617, -3.393921136856079, 166.96170043945312, -24.50049591064453, 0.4794921875, 0.010986328125, -0.5263671875, 0, 
444, 2299910199, 0.8505475, 0.021865444, 0.34305882, 0.3979971, -4.712407112121582, 2.767476797103882, 7.363858222961426, -5.096979141235352, 165.05520629882812, -24.660367965698242, 0.51513671875, 0.017333984375, -0.506591796875, 0, 
445, 2299926866, 0.8436989, 0.010477452, 0.3632998, 0.39506438, -5.027936935424805, 2.672220230102539, 7.169126033782959, -2.8985936641693115, 165.29946899414062, -26.671100616455078, 0.555419921875, 0.01806640625, -0.486328125, 0, 
446, 2299943533, 0.8366885, -0.0010694631, 0.3825947, 0.39188376, -5.451242923736572, 2.667890787124634, 6.7962965965271, -5.797760963439941, 160.63685607910156, -27.991533279418945, 0.587890625, 0.025146484375, -0.4638671875, 0, 
447, 2299960200, 0.829349, -0.0127883265, 0.40135935, 0.38849413, -5.535076141357422, 2.484790086746216, 6.296102523803711, -7.7083024978637695, 158.9216766357422, -28.757341384887695, 0.617431640625, 0.030517578125, -0.436279296875, 0, 
448, 2299976867, 0.8215816, -0.024426565, 0.41989803, 0.38482875, -5.912821292877197, 2.309570074081421, 6.067845821380615, -7.169832229614258, 158.62774658203125, -28.980667114257812, 0.645751953125, 0.035888671875, -0.410888671875, 0, 
449, 2299993534, 0.8132918, -0.036494877, 0.43797785, 0.381314, -6.247877597808838, 2.20426869392395, 5.811208724975586, -11.372917175292969, 158.6603546142578, -28.063405990600586, 0.676025390625, 0.04248046875, -0.384033203125, 0, 
450, 2300010201, 0.8046359, -0.048673827, 0.45536882, 0.37793052, -6.618126392364502, 2.135192394256592, 5.5856170654296875, -14.325090408325195, 156.17095947265625, -26.870954513549805, 0.703125, 0.049560546875, -0.354248046875, 0, 
451, 2300026868, 0.79576737, -0.060894787, 0.4719005, 0.3746417, -7.100515365600586, 1.8929415941238403, 5.106943130493164, -17.194740295410156, 152.1604766845703, -26.212560653686523, 0.727783203125, 0.05908203125, -0.32568359375, 0, 
452, 2300043535, 0.78696185, -0.072250016, 0.48765954, 0.37102503, -7.199524402618408, 1.6649140119552612, 4.558656692504883, -13.394946098327637, 145.63279724121094, -25.676807403564453, 0.74951171875, 0.065185546875, -0.294677734375, 0, 
453, 2300060202, 0.7778319, -0.08305398, 0.503249, 0.36717886, -7.361007213592529, 1.6253604888916016, 4.167154788970947, -10.271319389343262, 144.50442504882812, -24.32371711730957, 0.77001953125, 0.072998046875, -0.265625, 0, 
454, 2300076869, 0.76843965, -0.09335933, 0.5183364, 0.36347237, -7.669971942901611, 1.8170431852340698, 4.000993251800537, -9.541177749633789, 141.3811798095703, -21.475845336914062, 0.78955078125, 0.078125, -0.234130859375, 0, 
455, 2300093536, 0.7589381, -0.10399426, 0.5322727, 0.36039466, -8.044891357421875, 2.028163433074951, 3.844191312789917, -16.502315521240234, 136.10081481933594, -19.80010986328125, 0.807861328125, 0.084228515625, -0.203857421875, 0, 
456, 2300110203, 0.7494673, -0.11521899, 0.5449156, 0.35789713, -8.057482719421387, 1.7884618043899536, 3.4576425552368164, -24.91573715209961, 130.2740936279297, -19.94525146484375, 0.822265625, 0.08984375, -0.17578125, 0, 
457, 2300126870, 0.7397832, -0.12664255, 0.55693495, 0.3556767, -7.9632673263549805, 1.3433409929275513, 2.9627809524536133, -28.71137046813965, 128.11851501464844, -19.23993682861328, 0.836181640625, 0.102294921875, -0.14208984375, 0, 
458, 2300143537, 0.7296853, -0.13771248, 0.56896025, 0.35338235, -8.425808906555176, 1.0179741382598877, 2.6820785999298096, -27.005205154418945, 128.92239379882812, -17.248462677001953, 0.849609375, 0.10693359375, -0.110595703125, 0, 
459, 2300160204, 0.7199406, -0.14777535, 0.5802254, 0.35097966, -8.638113021850586, 0.9348212480545044, 2.2810373306274414, -23.072858810424805, 121.37112426757812, -15.426589965820312, 0.86181640625, 0.11376953125, -0.076416015625, 0, 
460, 2300176871, 0.71058255, -0.15644865, 0.5910086, 0.34828928, -8.664230346679688, 1.004610300064087, 1.9032748937606812, -15.847649574279785, 114.37018585205078, -12.726824760437012, 0.8740234375, 0.118896484375, -0.050537109375, 0, 
461, 2300193538, 0.70154005, -0.16444083, 0.6012617, 0.34537745, -8.730545997619629, 1.1353487968444824, 1.5138801336288452, -12.57594108581543, 109.09160614013672, -12.370338439941406, 0.8779296875, 0.12255859375, -0.020263671875, 0, 
462, 2300210205, 0.692549, -0.17222646, 0.6111685, 0.34232664, -8.610413551330566, 1.1799331903457642, 1.3586186170578003, -11.79136848449707, 106.85845184326172, -12.710236549377441, 0.88818359375, 0.126708984375, 0.00390625, 0, 
463, 2300226872, 0.6831111, -0.18011478, 0.6207702, 0.33994487, -8.780433654785156, 1.2089542150497437, 1.3264591693878174, -16.36131477355957, 106.71894073486328, -9.27767562866211, 0.89306640625, 0.130859375, 0.0341796875, 0, 
464, 2300243539, 0.6740081, -0.18760341, 0.6294307, 0.3381349, -9.178492546081543, 1.321669340133667, 1.0099976062774658, -18.729490280151367, 99.2157974243164, -6.846048355102539, 0.90087890625, 0.135498046875, 0.060546875, 0, 
465, 2300260206, 0.6654895, -0.19502348, 0.63683933, 0.33693564, -9.542430877685547, 1.3136035203933716, 0.3097284734249115, -23.2281551361084, 89.923583984375, -6.708305835723877, 0.902587890625, 0.13671875, 0.085693359375, 0, 
466, 2300276873, 0.6574014, -0.20262995, 0.6432912, 0.33606735, -9.842093467712402, 1.163270354270935, -0.24657055735588074, -27.181241989135742, 83.62384033203125, -8.304332733154297, 0.9072265625, 0.1396484375, 0.111083984375, 0, 
467, 2300293540, 0.64960265, -0.20990863, 0.6493169, 0.33517554, -10.271800994873047, 1.036848545074463, -0.6158023476600647, -26.18691062927246, 79.66310119628906, -8.233356475830078, 0.911376953125, 0.143798828125, 0.133544921875, 0, 
468, 2300310207, 0.64266855, -0.21605136, 0.65475494, 0.3340585, -10.593639373779297, 0.8787953853607178, -0.715858519077301, -20.22442054748535, 70.85316467285156, -7.016503810882568, 0.9130859375, 0.146728515625, 0.1552734375, 0, 
469, 2300326874, 0.63673884, -0.22054635, 0.6597412, 0.33266315, -10.81747817993164, 0.8955269455909729, -0.848021388053894, -11.249545097351074, 60.9379768371582, -3.8095955848693848, 0.9140625, 0.148681640625, 0.16943359375, 0, 
470, 2300343541, 0.6319395, -0.22394133, 0.66384846, 0.3313731, -10.788573265075684, 1.0796223878860474, -0.8605635166168213, -7.216683864593506, 49.263580322265625, -2.2793197631835938, 0.914306640625, 0.1494140625, 0.18408203125, 0, 
471, 2300360208, 0.62771845, -0.22707996, 0.66705656, 0.33081707, -10.862677574157715, 1.393629550933838, -1.1339774131774902, -10.618304252624512, 40.98193359375, -0.6262664794921875, 0.91796875, 0.150634765625, 0.19580078125, 0, 
472, 2300376875, 0.6240889, -0.22964443, 0.66974354, 0.33048475, -10.710960388183594, 1.4725735187530518, -1.30698561668396, -9.424498558044434, 34.33924102783203, 0.8014891147613525, 0.9150390625, 0.15185546875, 0.20703125, 0, 
473, 2300393542, 0.6209169, -0.23144811, 0.6721158, 0.3303853, -10.680806159973145, 1.2565672397613525, -1.251068353652954, -7.219212055206299, 28.758682250976562, 3.7558963298797607, 0.918701171875, 0.150146484375, 0.216064453125, 0, 
474, 2300410209, 0.6185688, -0.232147, 0.6739309, 0.33060244, -10.689762115478516, 1.1155650615692139, -1.2241132259368896, -3.9170141220092773, 19.53997039794922, 7.448146343231201, 0.919189453125, 0.150146484375, 0.22216796875, 0, 
475, 2300426876, 0.6170551, -0.231994, 0.6752275, 0.3308926, -10.573261260986328, 1.1527405977249146, -1.3133738040924072, -0.47893857955932617, 11.399463653564453, 8.980356216430664, 0.91845703125, 0.145751953125, 0.22607421875, 0, 
476, 2300443543, 0.6161399, -0.23135333, 0.6762222, 0.33101517, -10.456748962402344, 1.2732610702514648, -1.3659403324127197, 2.6391782760620117, 6.481801986694336, 8.688810348510742, 0.91943359375, 0.146484375, 0.2294921875, 0, 
477, 2300460210, 0.61582255, -0.22992142, 0.67712295, 0.3307623, -10.399991989135742, 1.3559420108795166, -1.159301996231079, 8.48083782196045, 2.084177255630493, 9.263792037963867, 0.921142578125, 0.141845703125, 0.23046875, 0, 
478, 2300476877, 0.615919, -0.22825085, 0.6777588, 0.33043692, -10.356573104858398, 1.4602822065353394, -0.8738487362861633, 9.887649536132812, -1.4037754535675049, 8.704764366149902, 0.92333984375, 0.138916015625, 0.2294921875, 0, 
479, 2300493544, 0.6161653, -0.2268656, 0.67800564, 0.33042547, -10.189643859863281, 1.4402161836624146, -0.744409441947937, 6.574487686157227, -3.6011147499084473, 7.749112606048584, 0.923828125, 0.13671875, 0.2255859375, 0, 
480, 2300510211, 0.6165087, -0.22567226, 0.6780304, 0.3305514, -9.912513732910156, 1.3585810661315918, -0.6033728122711182, 4.77480411529541, -4.777383804321289, 6.8664398193359375, 0.926025390625, 0.134521484375, 0.2265625, 0, 
481, 2300526878, 0.6168418, -0.22460487, 0.67806566, 0.3305844, -9.784208297729492, 1.249657392501831, -0.4637010395526886, 4.687272548675537, -4.257664203643799, 5.9224324226379395, 0.9267578125, 0.134521484375, 0.2255859375, 0, 
482, 2300543545, 0.61718845, -0.22364041, 0.6780442, 0.3306354, -9.802899360656738, 1.2089784145355225, -0.39644521474838257, 4.061873912811279, -4.355555534362793, 5.400637149810791, 0.928955078125, 0.13427734375, 0.2216796875, 0, 
483, 2300560212, 0.6176304, -0.22279853, 0.67788064, 0.33071378, -9.68264102935791, 1.2088459730148315, -0.363203763961792, 3.2397828102111816, -5.16387939453125, 4.511440753936768, 0.929443359375, 0.131591796875, 0.223388671875, 0, 
484, 2300576879, 0.61816096, -0.22196773, 0.6776905, 0.3306711, -9.520145416259766, 1.2796396017074585, -0.3446844816207886, 3.833127021789551, -5.4773149490356445, 3.7043590545654297, 0.928955078125, 0.132080078125, 0.21875, 0, 
485, 2300593546, 0.6185926, -0.22134548, 0.6775826, 0.3305018, -9.456243515014648, 1.3374061584472656, -0.1248110756278038, 3.5756418704986572, -3.998257875442505, 2.5445644855499268, 0.927490234375, 0.1298828125, 0.21875, 0, 
486, 2300610213, 0.6189583, -0.2210572, 0.6773584, 0.3304697, -9.385722160339355, 1.3725403547286987, -0.06898865848779678, 1.15483820438385, -3.6317076683044434, 1.5431265830993652, 0.927978515625, 0.132080078125, 0.2177734375, 0, 
487, 2300626880, 0.61923444, -0.22097397, 0.67709696, 0.33054352, -9.341280937194824, 1.3157730102539062, -0.08128942549228668, -0.42768728733062744, -3.064284324645996, 1.1826536655426025, 0.9296875, 0.127685546875, 0.2138671875, 0, 
488, 2300643547, 0.6195393, -0.22096029, 0.6767509, 0.3306902, -9.31764030456543, 1.324920415878296, -0.2005966305732727, -1.210808515548706, -3.506769895553589, 0.9736541509628296, 0.9296875, 0.132568359375, 0.2138671875, 0, 
489, 2300660214, 0.61985815, -0.22077921, 0.67657053, 0.3305827, -9.285162925720215, 1.2967360019683838, -0.2724559009075165, 1.0892183780670166, -2.859292984008789, 0.8876848816871643, 0.927001953125, 0.13037109375, 0.21533203125, 0, 
490, 2300676881, 0.62018186, -0.22032405, 0.6766117, 0.33019483, -9.30419921875, 1.281080722808838, -0.2747936546802521, 4.0780415534973145, -2.1355037689208984, 1.2900348901748657, 0.93017578125, 0.128173828125, 0.213134765625, 0, 
491, 2300693548, 0.62058556, -0.21962555, 0.6767475, 0.32962307, -9.315457344055176, 1.3994497060775757, -0.16994373500347137, 6.309575080871582, -2.376647710800171, 1.5984762907028198, 0.9287109375, 0.1298828125, 0.212646484375, 0, 
492, 2300710215, 0.6208662, -0.21925128, 0.67671514, 0.3294104, -9.3126859664917, 1.5325043201446533, -0.10108789801597595, 2.6945202350616455, -2.3263697624206543, 1.6424530744552612, 0.931396484375, 0.130859375, 0.2099609375, 0, 
493, 2300726882, 0.620911, -0.21904996, 0.6768068, 0.32927087, -9.414179801940918, 1.5119692087173462, -0.228859543800354, 1.5485566854476929, -0.41689151525497437, 1.8653857707977295, 0.931396484375, 0.128173828125, 0.213134765625, 0, 
494, 2300743549, 0.62084293, -0.21881342, 0.6770299, 0.32909787, -9.514488220214844, 1.4553438425064087, -0.2293478399515152, 1.990478277206421, 0.6383581757545471, 2.3322670459747314, 0.9287109375, 0.130859375, 0.21142578125, 0, 
495, 2300760216, 0.62081426, -0.21862254, 0.67709315, 0.32914898, -9.519820213317871, 1.4944186210632324, -0.25453582406044006, 0.45530420541763306, -0.4601898193359375, 2.743171453475952, 0.931396484375, 0.128173828125, 0.2138671875, 0, 
496, 2300776883, 0.6207058, -0.2184588, 0.6772603, 0.32911846, -9.620072364807129, 1.5123828649520874, -0.31523701548576355, 0.8401861786842346, 0.5373032689094543, 2.5996251106262207, 0.9306640625, 0.127685546875, 0.21484375, 0, 
497, 2300793550, 0.6206817, -0.21806926, 0.6775466, 0.32883254, -9.715155601501465, 1.4642289876937866, -0.3407329022884369, 3.3980557918548584, 0.5241574645042419, 2.543231964111328, 0.932373046875, 0.124755859375, 0.2138671875, 0, 
498, 2300810217, 0.6206307, -0.2177283, 0.6778711, 0.32848617, -9.687302589416504, 1.4240347146987915, -0.3884487748146057, 3.5226938724517822, 1.0111253261566162, 2.1735193729400635, 0.931884765625, 0.128662109375, 0.21044921875, 0, 
499, 2300826884, 0.620477, -0.21732858, 0.6783978, 0.32795316, -9.7882661819458, 1.4441113471984863, -0.49624618887901306, 4.95092248916626, 2.497443437576294, 2.181766986846924, 0.9296875, 0.1259765625, 0.21142578125, 0, 
500, 2300843551, 0.6203951, -0.2168036, 0.67889446, 0.3274273, -9.809632301330566, 1.4641789197921753, -0.3811189830303192, 5.498983383178711, 1.738641619682312, 2.5861656665802, 0.93017578125, 0.124755859375, 0.212646484375, 0, 
501, 2300860218, 0.62020606, -0.21662596, 0.6792731, 0.32711762, -9.730712890625, 1.3993358612060547, -0.3435133993625641, 2.5874083042144775, 2.193382501602173, 1.9476284980773926, 0.9306640625, 0.124267578125, 0.216552734375, 0, 
502, 2300876885, 0.62, -0.21643361, 0.67975336, 0.32663736, -9.889066696166992, 1.3509844541549683, -0.44372156262397766, 3.654541492462158, 2.9267311096191406, 1.4764888286590576, 0.93408203125, 0.124755859375, 0.21435546875, 0, 
503, 2300893552, 0.6198756, -0.21616264, 0.6802543, 0.3260099, -9.76111125946045, 1.214299201965332, -0.439336359500885, 4.846799850463867, 2.6750097274780273, 1.06266450881958, 0.93408203125, 0.124267578125, 0.215576171875, 0, 
504, 2300910219, 0.6199546, -0.21583012, 0.68058854, 0.32538158, -9.690105438232422, 1.2399463653564453, -0.4565136134624481, 5.04550313949585, 0.8775230646133423, 0.6435767412185669, 0.932373046875, 0.124267578125, 0.216552734375, 0, 
505, 2300926886, 0.6199609, -0.21535537, 0.6811893, 0.3244257, -9.661823272705078, 1.3367701768875122, -0.4164746105670929, 7.674263954162598, 2.5196175575256348, 0.4708959758281708, 0.9345703125, 0.12255859375, 0.215576171875, 0, 
506, 2300943553, 0.6199299, -0.2147795, 0.6818186, 0.32354343, -9.638646125793457, 1.4138721227645874, -0.3072342574596405, 7.773110389709473, 2.4813716411590576, 1.3814598321914673, 0.931396484375, 0.123046875, 0.212158203125, 0, 
507, 2300960220, 0.6198574, -0.21430665, 0.6822672, 0.32304993, -9.53487491607666, 1.473474383354187, -0.33928316831588745, 5.052688121795654, 1.562662959098816, 2.3778128623962402, 0.931884765625, 0.124267578125, 0.212646484375, 0, 
508, 2300976887, 0.61963433, -0.21408129, 0.6827031, 0.32270616, -9.454133987426758, 1.4651561975479126, -0.34731417894363403, 3.0514395236968994, 2.5434374809265137, 2.165919065475464, 0.932861328125, 0.12353515625, 0.215576171875, 0, 
509, 2300993554, 0.61925983, -0.21408443, 0.6831975, 0.32237634, -9.55373764038086, 1.4095979928970337, -0.30772197246551514, 1.9259599447250366, 3.9907023906707764, 1.5701866149902344, 0.93505859375, 0.123046875, 0.216552734375, 0, 
510, 2301010221, 0.6189337, -0.21399309, 0.6837459, 0.3219004, -9.497669219970703, 1.3739224672317505, -0.37049058079719543, 3.209822654724121, 3.999269962310791, 1.3607003688812256, 0.9345703125, 0.1220703125, 0.217041015625, 0, 
511, 2301026888, 0.6185709, -0.21382919, 0.6844033, 0.32130915, -9.487791061401367, 1.3785061836242676, -0.43533408641815186, 4.250799179077148, 4.645452499389648, 1.4495508670806885, 0.935791015625, 0.124267578125, 0.217041015625, 0, 
512, 2301043555, 0.6180885, -0.21377335, 0.6851309, 0.3207235, -9.483495712280273, 1.4420742988586426, -0.407577246427536, 3.749450206756592, 5.737034320831299, 1.3280889987945557, 0.9345703125, 0.12255859375, 0.220458984375, 0, 
513, 2301060222, 0.61757016, -0.21384509, 0.6858122, 0.32021746, -9.467297554016113, 1.4929250478744507, -0.415488064289093, 2.681317090988159, 5.872250080108643, 1.0723271369934082, 0.93408203125, 0.12353515625, 0.21875, 0, 
