sep=															
DeviceTag:	Xsens_1														
FirmwareVersion:	2.2.1														
AppVersion:	2023.0.0														
StartTime:	2023-07-17 14:57:19.000 +0200														
© Movella Technologies B. V. 2005-2023															
PacketCounter	SampleTimeFine	Quat_W	Quat_X	Quat_Y	Quat_Z	Acc_X	Acc_Y	Acc_Z	Gyr_X	Gyr_Y	Gyr_Z	Mag_X	Mag_Y	Mag_Z	Status
0	1113757131	4.04E-17	3.95E-16	-0.707106781	-0.707106781	0	0	0	0	0	0	1.028808594	-0.007568359	-0.322021484	0
1	1113773798	0.001231882	0.000490409	0.707072576	0.707139742	-9.247828232	3.466745516	-0.833264029	1.560086484	0.571368122	-4.534283571	1.026934303	-0.007353107	-0.321677811	0
2	1113790465	0.002410578	0.000762815	0.70699802	0.707211006	-9.26597403	3.487905315	-0.865175626	2.329131325	0.429567258	-4.580705274	1.027818385	-0.008176871	-0.318652422	0
3	1113807132	0.003293571	0.001092916	0.706860291	0.707344673	-9.256567567	3.473902222	-0.853847109	3.499162355	0.289740099	-4.543918805	1.026844944	-0.007613016	-0.317853772	0
4	1113823799	0.004303769	0.001622376	0.70685889	0.707339632	-9.19730786	3.287990618	-0.867034756	2.324618658	-0.183243207	-6.401272051	1.028268689	-0.009859677	-0.318860672	0
5	1113840466	0.00557288	0.00250497	0.70645955	0.707727047	-9.250230207	3.456336505	-0.954476427	4.37119545	-0.03372829	-7.053051458	1.028921011	-0.010440695	-0.317812974	0
6	1113857133	0.006573691	0.003492871	0.705878182	0.708294133	-9.118842653	3.367754273	-0.944352241	5.896171657	0.238290313	-7.282827294	1.026731901	-0.011307771	-0.320496121	0
7	1113873800	0.007692749	0.004637809	0.705189198	0.708962275	-9.128382611	3.306937524	-0.906156956	5.334875863	0.233248253	-8.987832137	1.027656669	-0.013992964	-0.320057129	0
8	1113890467	0.008951892	0.005838186	0.704526842	0.709596863	-9.137685503	3.423183707	-0.97847037	4.479064008	-0.004365409	-9.729898946	1.025264774	-0.013030384	-0.318266705	0
9	1113907134	0.010244902	0.007124603	0.703897487	0.710191953	-9.154578371	3.439585324	-0.998760853	4.61862825	-0.386406855	-10.86770379	1.028741006	-0.012368403	-0.320913041	0
10	1113923801	0.011589468	0.008439108	0.703256777	0.710791369	-9.204582532	3.430961161	-0.962604137	4.572624974	-0.771324554	-11.68947846	1.026834303	-0.012455978	-0.319398578	0
11	1113940468	0.01303559	0.009780623	0.702654321	0.711344725	-9.215989279	3.458132676	-0.953894337	4.374893623	-1.174498183	-12.47667076	1.026870296	-0.014745612	-0.32022905	0
12	1113957135	0.014577821	0.011063518	0.70205801	0.711884567	-9.220113625	3.51075801	-0.967631542	3.637622	-1.595881539	-12.934358	1.02540115	-0.01292341	-0.318345786	0
13	1113973802	0.016058825	0.012361643	0.701594843	0.712287849	-9.159940698	3.525044468	-0.995808842	3.151733828	-1.464640918	-12.93009213	1.025359121	-0.012153809	-0.318526306	0
14	1113990469	0.017472218	0.013669861	0.701201118	0.712618305	-9.033329529	3.527138863	-1.028863404	2.605457853	-1.174663541	-12.92968315	1.025492054	-0.012380392	-0.316876523	0
15	1114007136	0.018766975	0.015057739	0.70083731	0.712915233	-8.919509914	3.47363558	-1.036180841	2.49134527	-0.390257724	-13.02527432	1.024238787	-0.014880118	-0.320197439	0
16	1114023803	0.019963146	0.016463957	0.700329912	0.713350142	-8.859705414	3.457440351	-1.058793072	2.507914315	0.550764885	-12.95295287	1.022647423	-0.012778765	-0.319454886	0
17	1114040470	0.021038754	0.018015991	0.699782692	0.713818589	-8.927860349	3.482467095	-1.087563106	3.427349837	1.520809467	-13.15404013	1.023570018	-0.012256427	-0.320079964	0
18	1114057137	0.022029061	0.019518876	0.699198605	0.714321387	-9.120690733	3.532624134	-1.136171784	3.694601482	1.601430785	-12.60438087	1.022268597	-0.012068261	-0.322967388	0
19	1114073804	0.022917757	0.020847054	0.698695997	0.714747565	-9.28728433	3.599552284	-1.193724141	3.577873371	0.892529566	-11.23710241	1.021075411	-0.01040539	-0.322053142	0
20	1114090471	0.023569836	0.021833866	0.698170989	0.71520977	-9.366070105	3.673084197	-1.211785895	3.8394834	0.221737319	-8.463266782	1.020473583	-0.011333551	-0.321291757	0
21	1114107138	0.023957392	0.022448674	0.697651198	0.715684921	-9.392755565	3.638295863	-1.185884982	3.610676731	-0.335058018	-5.467603755	1.01921733	-0.0111907	-0.324512895	0
22	1114123805	0.024194057	0.022756014	0.697118893	0.716185772	-9.417317718	3.801567504	-1.108945865	3.494999611	-1.051313233	-3.286192613	1.020200148	-0.010936785	-0.320666685	0
23	1114140472	0.024310612	0.022755866	0.696583872	0.716702221	-9.386866365	3.753801652	-1.032023927	3.91584327	-2.049734004	-1.332604724	1.019365329	-0.009516305	-0.32312409	0
24	1114157139	0.024444134	0.022565419	0.696051666	0.717220583	-9.292323361	3.85064613	-0.897149037	3.873657815	-2.925095658	-0.59376728	1.0202137	-0.006061403	-0.323018651	0
25	1114173806	0.024596655	0.022041079	0.695468089	0.717797557	-9.205649875	3.869526452	-0.788514749	3.744669225	-4.219314614	0.682540589	1.019860489	-0.007939749	-0.321105751	0
26	1114190473	0.024691429	0.021268991	0.695153603	0.718122156	-9.109982468	3.900570347	-0.689286948	2.818804742	-5.42450878	2.139934513	1.018550277	-0.007009928	-0.322035027	0
27	1114207140	0.024789539	0.020224797	0.694841807	0.718450625	-9.033392688	3.892845467	-0.691157807	1.694279513	-6.081473172	3.138683671	1.020288901	-0.006101866	-0.323533459	0
28	1114223807	0.024809822	0.019149705	0.694710057	0.718606776	-8.974808311	3.927192894	-0.75535465	0.775955029	-5.864896924	3.587565092	1.017994185	-0.006507115	-0.322254311	0
29	1114240474	0.024731445	0.018134114	0.694670585	0.718673979	-9.010612871	3.878378005	-0.827978172	-0.133085523	-4.895033843	3.630732655	1.017892684	-0.002123272	-0.322985066	0
30	1114257141	0.024516321	0.017346039	0.69480665	0.718569262	-9.020623959	3.828208324	-0.915476423	-1.294811336	-3.155705408	3.171284967	1.017611774	-0.001970563	-0.323168137	0
31	1114273808	0.024197542	0.016845635	0.695060085	0.71834684	-9.089972681	3.78305695	-0.961300023	-2.471420023	-1.144144345	2.255533166	1.020634917	-0.000947565	-0.32287081	0
32	1114290475	0.023749403	0.016633919	0.695491419	0.717949138	-9.16870435	3.80214028	-0.940289727	-3.451661247	0.696698184	1.576704164	1.019386202	0.001159441	-0.323194625	0
33	1114307142	0.023143196	0.016559622	0.696051196	0.717427978	-9.203925864	3.788687499	-0.889798646	-4.599731952	2.165607636	1.713241067	1.017398735	0.001265306	-0.324021588	0
34	1114323809	0.022406809	0.016517177	0.69672397	0.716799015	-9.235410379	3.759684081	-0.886861899	-6.369071303	3.280141175	2.153152332	1.0188674	0.003414586	-0.324996306	0
35	1114340476	0.021519052	0.016594753	0.697675971	0.715897887	-9.267829666	3.790374592	-0.892079207	-8.449881118	4.49230762	2.410042009	1.017258463	0.000845939	-0.325314601	0
36	1114357143	0.020631126	0.016761721	0.69875122	0.714870711	-9.245621074	3.772889394	-0.899833835	-10.49608059	5.310882641	1.924840706	1.017164696	0.004301989	-0.32535811	0
37	1114373810	0.019667631	0.017146801	0.70022736	0.713442931	-9.284813848	3.789211839	-0.926815306	-12.4545126	6.156663766	1.456059959	1.020383018	0.003319922	-0.324477597	0
38	1114390477	0.018731038	0.017616331	0.701787245	0.711922381	-9.336624036	3.770961859	-0.970415827	-14.41048734	6.889446898	0.839711072	1.018551318	0.004102138	-0.324654972	0
39	1114407144	0.017820399	0.018201174	0.703501907	0.710236734	-9.354455722	3.767525777	-0.952740604	-16.42873647	7.540611588	0.147590313	1.021066802	0.004308414	-0.324006078	0
40	1114423811	0.016945399	0.018980232	0.70553238	0.708220775	-9.313299866	3.710858544	-0.981351603	-18.4879398	7.999165167	-0.820445705	1.01873429	0.006367745	-0.327762484	0
41	1114440478	0.01630397	0.020006622	0.707612227	0.706129487	-9.103818965	3.659759723	-1.022659932	-20.10347766	8.45700787	-3.208773439	1.01900029	0.005571526	-0.325473382	0
42	1114457145	0.015916246	0.021390069	0.709823118	0.703875187	-8.902641711	3.507757978	-0.977785487	-20.93260951	8.744196803	-6.078744862	1.014528733	0.007688381	-0.326763827	0
43	1114473812	0.015824619	0.022939484	0.712047492	0.701578029	-8.786937406	3.352149199	-1.063629744	-22.57494616	8.597576573	-8.399239123	1.015497802	0.008608598	-0.326721109	0
44	1114490479	0.015811215	0.024789775	0.714795921	0.698714723	-8.750108323	3.267230309	-1.309444291	-24.73219776	8.593816771	-9.842204575	1.014627012	0.007864873	-0.327058664	0
45	1114507146	0.015755116	0.026661663	0.71740797	0.695964609	-9.136933524	3.119467169	-1.602469048	-24.72157439	9.226281901	-9.780625726	1.018975259	0.008915212	-0.327881193	0
46	1114523813	0.015495395	0.028515475	0.719789664	0.693433198	-9.522116883	2.942547905	-1.826940562	-23.62231164	10.34272126	-8.696094523	1.01521684	0.006622588	-0.327512709	0
47	1114540480	0.014969863	0.030359536	0.722051899	0.691010316	-9.92819709	2.807292897	-1.86012895	-21.42267693	10.9960455	-7.084685417	1.017524813	0.009386062	-0.327091608	0
48	1114557147	0.01441883	0.031816254	0.723802803	0.689122142	-10.03196572	2.864705792	-1.733692067	-18.86193653	9.886222121	-5.092032017	1.015738427	0.011505703	-0.327204489	0
49	1114573814	0.013834074	0.032961072	0.725592285	0.687195767	-10.01262253	2.886603827	-1.537080892	-16.08749217	7.270765005	-2.851319727	1.015050532	0.01121237	-0.329529745	0
50	1114590481	0.013329442	0.033385908	0.726819579	0.685887022	-9.93714523	2.917608154	-1.229863243	-12.41636368	3.952818312	0.285934764	1.013367718	0.0126614	-0.327461227	0
51	1114607148	0.012728429	0.033260283	0.728120397	0.684523505	-9.733447008	2.972656782	-1.047990494	-8.780317571	0.251688655	4.079983556	1.013752212	0.011916199	-0.329309695	0
52	1114623815	0.012220443	0.032255749	0.728603743	0.684066381	-9.455648466	3.017382959	-0.991958302	-4.858656969	-2.954700455	7.622107068	1.014369505	0.013584295	-0.329956235	0
53	1114640482	0.011891332	0.03097812	0.729183284	0.68351349	-9.188552122	2.898290026	-1.05548683	-3.717404924	-5.867066271	8.452410458	1.013820833	0.01645715	-0.328782665	0
54	1114657149	0.011712473	0.029467752	0.729426206	0.683324139	-9.112581246	2.955456354	-1.222360016	-0.26560363	-7.83448471	8.95792728	1.013135846	0.015888429	-0.330435923	0
55	1114673816	0.011582871	0.02770018	0.729122783	0.683723997	-9.045273569	2.918060061	-1.364346497	3.637744167	-8.870008035	9.854208802	1.014769363	0.015692345	-0.332838745	0
56	1114690483	0.011523238	0.025949012	0.728737997	0.684203767	-9.095125533	2.828809669	-1.447622647	5.132136826	-9.473344199	9.56025293	1.015487851	0.017884579	-0.328672427	0
57	1114707150	0.011461492	0.024180235	0.728270059	0.684767605	-9.250877466	2.893043561	-1.554547073	5.799314457	-9.560554644	9.704027035	1.013956877	0.021374706	-0.330616318	0
58	1114723817	0.011359033	0.022463888	0.727803788	0.685323276	-9.344787434	2.917445923	-1.578782073	6.451259141	-9.426302588	9.763235303	1.0127885	0.020856425	-0.325372263	0
59	1114740484	0.011173095	0.02066776	0.727186968	0.686037257	-9.359315693	2.984889823	-1.550844881	7.148103141	-9.174689592	10.52558777	1.011816529	0.022749408	-0.330773217	0
60	1114757151	0.010887145	0.018731798	0.726438373	0.686890006	-9.391233999	2.993176553	-1.414212463	8.56506286	-9.448206801	11.74529305	1.013037834	0.023076904	-0.331869236	0
61	1114773818	0.010514543	0.016586574	0.725476449	0.687966752	-9.365481916	3.009155212	-1.289854527	10.43866794	-9.980063612	13.2064865	1.015924349	0.02087089	-0.331646325	0
62	1114790485	0.010054426	0.014210689	0.724261314	0.689305821	-9.305434777	2.935625483	-1.209678311	12.9419524	-10.68702617	14.79780612	1.016843167	0.022987307	-0.329178813	0
63	1114807152	0.009642037	0.011673882	0.722842463	0.690846963	-9.227422928	2.847086974	-1.146806786	15.11944869	-11.79845595	15.42747371	1.01657899	0.023885792	-0.329494258	0
64	1114823819	0.009348737	0.009064194	0.721231945	0.69257124	-9.201868424	2.867377335	-1.208985925	16.97366343	-12.76780851	15.26919386	1.013739007	0.024587737	-0.327075894	0
65	1114840486	0.009176948	0.006480065	0.719433547	0.694470419	-9.169322301	2.901277333	-1.324681845	18.72740969	-13.267682	14.60191016	1.014224899	0.027847306	-0.330973701	0
66	1114857153	0.009029965	0.003878482	0.717473687	0.696516278	-9.183351641	2.851663245	-1.436148585	20.1937168	-13.49194776	14.60072441	1.012501032	0.030850349	-0.326730809	0
67	1114873820	0.008859839	0.001316418	0.715367953	0.698690534	-9.182228018	2.782970637	-1.471043417	21.75562113	-13.31390877	14.57855884	1.012694463	0.030084161	-0.328326168	0
68	1114890487	0.008662266	-0.001150754	0.713120614	0.700986898	-9.122485718	2.752503218	-1.475754562	22.87389137	-12.70147589	14.2760461	1.014868672	0.03204918	-0.330148036	0
69	1114907154	0.00850376	-0.003539853	0.710895267	0.703237567	-9.130900393	2.688819787	-1.563395808	22.57147782	-12.55494848	13.74579967	1.012118977	0.035415402	-0.327979802	0
70	1114923821	0.008324264	-0.005890359	0.708680163	0.705456191	-9.156356695	2.615359509	-1.581878392	22.44820169	-12.33797987	13.71161314	1.017173147	0.034765241	-0.327691072	0
71	1114940488	0.008182962	-0.008019404	0.706510091	0.707610217	-9.131225654	2.62250611	-1.571648899	21.94657981	-11.49765796	12.49760761	1.014917903	0.037651242	-0.330045974	0
72	1114957155	0.008082855	-0.009868743	0.704373637	0.70971477	-8.973202689	2.673451525	-1.710773494	21.57590783	-10.38402965	10.98575628	1.016907751	0.037615555	-0.329494371	0
73	1114973822	0.008066096	-0.011297659	0.702315507	0.711730448	-8.789619603	2.733652955	-1.783960227	20.76221511	-8.782847709	8.56628094	1.017060371	0.039964262	-0.329466776	0
74	1114990489	0.008027218	-0.012364145	0.700359906	0.713637649	-8.746822326	2.688003617	-1.82128886	19.67038514	-6.938160101	6.926418959	1.016606721	0.037840659	-0.330579883	0
75	1115007156	0.00800138	-0.013033005	0.698452129	0.715493356	-8.864786635	2.740916018	-1.752860533	19.25176725	-5.134822439	4.968827118	1.018676802	0.039285638	-0.33260878	0
76	1115023823	0.008117324	-0.013321855	0.696551188	0.717337494	-8.945299978	2.839088365	-1.600340504	19.14358862	-3.983438069	2.464685553	1.018320572	0.041815893	-0.330608087	0
77	1115040490	0.008415998	-0.013331802	0.694540702	0.719280646	-9.043059475	2.979598317	-1.403957662	20.18078725	-3.515098736	0.257423679	1.018597693	0.044459732	-0.334306634	0
78	1115057157	0.008785456	-0.013292573	0.692318393	0.721416223	-9.268425074	2.907826236	-1.205224191	22.2016573	-3.635601242	-0.287061961	1.019295073	0.047802311	-0.335203181	0
79	1115073824	0.00926126	-0.013318744	0.689696986	0.723916368	-9.471452958	2.818615157	-0.989434311	25.88448994	-4.43627913	-0.430714296	1.021173449	0.049074408	-0.331447935	0
80	1115090491	0.009846124	-0.013363529	0.686544278	0.726898496	-9.467242989	2.876093167	-0.783768039	30.8833642	-5.02879055	-0.768328519	1.022290247	0.050186244	-0.33213728	0
81	1115107158	0.010525713	-0.013443811	0.682986668	0.730231254	-9.408550819	2.965753574	-0.730803839	34.51931465	-5.580798485	-0.99311942	1.022367584	0.053549804	-0.336164497	0
82	1115123825	0.011342458	-0.013535988	0.679246881	0.733697349	-9.55197227	3.016662115	-0.782551607	36.08145741	-6.23812443	-1.583981915	1.023359572	0.054676884	-0.335409279	0
83	1115140492	0.01230624	-0.013564733	0.67540027	0.737223867	-9.473639217	3.178170901	-0.905197841	36.97666323	-6.583883862	-2.587260833	1.025895364	0.052706685	-0.335220767	0
84	1115157159	0.013413217	-0.013602562	0.671497636	0.740760407	-9.445489726	3.22941697	-0.993753095	37.30645745	-7.263592158	-3.268008309	1.026367927	0.058304236	-0.336159153	0
85	1115173826	0.014629878	-0.013594862	0.66763648	0.744219509	-9.309521649	3.292477046	-0.902106586	36.80164362	-7.541247142	-4.048093397	1.026200775	0.059854083	-0.338108505	0
86	1115190493	0.015810839	-0.013520509	0.663844434	0.747581287	-9.323146711	3.305985829	-0.755434565	36.06905326	-7.035737826	-4.197637155	1.025966426	0.059324014	-0.339714858	0
87	1115207160	0.016918516	-0.013355915	0.660115246	0.750855009	-9.366564552	3.317860191	-0.593138385	35.26005593	-6.168616077	-4.271161643	1.026084674	0.064353251	-0.339136374	0
88	1115223827	0.017996667	-0.013221387	0.65646686	0.754024255	-9.46124402	3.410500662	-0.370916719	34.39185499	-6.148482676	-4.014557402	1.029460427	0.06647548	-0.340717685	0
89	1115240494	0.01910555	-0.013222578	0.652952671	0.757042239	-9.639721286	3.504422605	-0.18324787	32.97126884	-6.905415231	-3.613569838	1.03190504	0.0692164	-0.341012397	0
90	1115257161	0.020298296	-0.013291257	0.649611917	0.759878727	-9.729945215	3.601796165	0.038046324	31.23749746	-7.533193639	-3.808581379	1.030110844	0.069424524	-0.343393333	0
91	1115273828	0.021568992	-0.013390779	0.646569207	0.762432768	-9.783764088	3.752773454	0.134039681	28.50893998	-7.952937102	-4.161313461	1.032071479	0.069503295	-0.341021915	0
92	1115290495	0.022832441	-0.013565934	0.643861815	0.764680723	-9.801710569	3.984509154	0.135781312	25.37492993	-8.182507044	-3.897996237	1.034297887	0.078168611	-0.345262558	0
93	1115307162	0.023998225	-0.013766175	0.641460841	0.766656747	-9.65205463	4.248874314	0.209012462	22.56353978	-7.75414987	-3.391969657	1.034942577	0.076096934	-0.34658059	0
94	1115323829	0.024983335	-0.013998016	0.63933258	0.768396864	-9.48061898	4.421547487	0.272174414	20.14791874	-7.019348841	-2.431164423	1.036227155	0.08103302	-0.345366817	0
95	1115340496	0.025664837	-0.014364924	0.637320643	0.770037248	-9.331651445	4.473377419	0.424933561	19.00471894	-6.257833985	-0.355904391	1.037725303	0.079810444	-0.348308391	0
96	1115357163	0.026108145	-0.014936049	0.635564917	0.771461286	-9.375230122	4.415049965	0.564620018	16.77369121	-6.196282866	1.655390178	1.037647039	0.083661541	-0.348261161	0
97	1115373830	0.026424635	-0.015626567	0.634050138	0.772682322	-9.553694713	4.343802794	0.637938678	14.58107842	-6.121263502	2.702595316	1.039137346	0.088946161	-0.349862952	0
98	1115390497	0.026617321	-0.016303502	0.632481673	0.773946153	-9.96622306	4.357530381	0.651790677	14.96268762	-5.347100615	3.233318073	1.042894176	0.093664948	-0.350118695	0
99	1115407164	0.026845623	-0.01690213	0.630576542	0.775478469	-10.37206872	4.38753184	0.798116052	17.96122107	-4.987062724	2.730910531	1.043707619	0.093945735	-0.351971017	0
100	1115423831	0.027320955	-0.017516271	0.628278173	0.777311574	-10.47919308	4.413634913	0.976946456	21.49776667	-6.069702048	1.542096341	1.038821573	0.094564778	-0.353446387	0
101	1115440498	0.027994717	-0.018472528	0.625755922	0.779297496	-10.43761016	4.317291209	1.081601734	23.44782134	-8.667765669	1.98122572	1.045403131	0.098302958	-0.352200101	0
102	1115457165	0.028960492	-0.019822778	0.623488115	0.78104476	-9.982743675	4.099417027	1.015024159	20.97469202	-11.83388966	1.990814319	1.046319784	0.098691365	-0.352586419	0
103	1115473832	0.029974829	-0.021490097	0.621294243	0.782708853	-9.506458582	4.367816195	0.754219924	20.23551336	-13.6121375	3.033894226	1.046329578	0.101835241	-0.350164771	0
104	1115490499	0.030650624	-0.023526791	0.618747993	0.784638739	-8.901893096	4.277389249	0.470577753	23.11954479	-14.0508835	6.474948577	1.043835603	0.105913767	-0.354053877	0
105	1115507166	0.031225124	-0.025361926	0.615833269	0.786848873	-8.42337611	4.056397051	0.349748331	26.36765274	-12.48297139	6.212122948	1.048069283	0.107147152	-0.352457485	0
106	1115523833	0.031793909	-0.027029499	0.612672672	0.789234281	-8.108824114	3.944401027	0.337265353	27.49378027	-11.12301005	5.449180461	1.04758541	0.11154964	-0.353445854	0
107	1115540500	0.032426289	-0.028559329	0.609434621	0.791657971	-8.05118891	3.893849508	0.355467319	28.14744147	-10.58656725	4.482699804	1.046735592	0.114239866	-0.353450496	0
108	1115557167	0.033198465	-0.030069076	0.60635046	0.79393503	-8.169632818	3.780719238	0.356050074	26.7576507	-10.99280556	3.514708266	1.046903223	0.111084065	-0.353746816	0
109	1115573834	0.034065985	-0.031677842	0.603591301	0.795935653	-8.432774648	3.762765348	0.372922836	23.85739226	-11.84726186	3.228572788	1.049367009	0.116920609	-0.351868858	0
110	1115590501	0.03494578	-0.033395751	0.601225437	0.79761613	-8.717630531	3.749719955	0.372519062	20.38260676	-12.40624733	3.416436222	1.048400131	0.12105712	-0.352140594	0
111	1115607168	0.035796748	-0.035103088	0.59922405	0.799009952	-8.943461048	3.782917748	0.363690419	17.22216481	-12.13797378	3.350532966	1.049231527	0.123521958	-0.348690263	0
112	1115623835	0.036621696	-0.036764683	0.59758934	0.80012136	-9.115835068	3.760183926	0.311302813	14.07630262	-11.68853899	3.123617581	1.049430395	0.12702838	-0.353801688	0
113	1115640502	0.037360871	-0.038382515	0.596434446	0.800872586	-9.307039563	3.827294886	0.282248893	9.972640008	-11.00069923	3.187229235	1.052628138	0.127216594	-0.353390415	0
114	1115657169	0.037871655	-0.039995202	0.595830436	0.801219204	-9.431696089	3.931639394	0.243512409	5.245365646	-9.936247187	4.159375587	1.053335922	0.130720391	-0.351636995	0
115	1115673836	0.038056473	-0.041548058	0.595722557	0.801211645	-9.388030876	3.997562309	0.184079573	1.011981388	-8.176716959	5.462372158	1.052459617	0.132851949	-0.349583753	0
116	1115690503	0.037857729	-0.042960538	0.595988115	0.800949032	-9.250280143	4.083189395	0.105323905	-2.139126475	-5.749733484	6.802603374	1.053536146	0.135730895	-0.348692728	0
117	1115707170	0.037251876	-0.044120128	0.596468461	0.800556736	-9.109690201	4.078261013	0.030401777	-3.885834991	-2.620610097	7.879466716	1.052235923	0.136584961	-0.352789416	0
118	1115723837	0.036392014	-0.044890882	0.597086009	0.80009295	-8.90429473	4.021468397	0.019546913	-4.892441018	0.619901734	7.587498101	1.053253097	0.14130852	-0.350740031	0
119	1115740504	0.035448886	-0.045318241	0.597750881	0.799614606	-8.789330145	3.975058131	0.079323032	-5.133010891	2.900565699	6.58278395	1.053241399	0.144827168	-0.350786161	0
120	1115757171	0.034572647	-0.045415754	0.598408195	0.799155663	-8.899401568	4.015103206	0.131715345	-4.889507752	4.488776276	4.830545844	1.057047372	0.150458027	-0.351107987	0
121	1115773838	0.033683271	-0.045468924	0.598970829	0.798769028	-8.940513444	4.005570676	0.142640768	-4.044158876	4.834434258	4.734129693	1.054876906	0.149638029	-0.348981303	0
122	1115790505	0.033017049	-0.045394119	0.599582353	0.798342189	-8.936842754	3.91073006	0.147271467	-4.357726508	4.666749256	2.92502689	1.054905285	0.152586974	-0.350151164	0
123	1115807172	0.032514886	-0.045251871	0.60013772	0.797953487	-8.942445371	3.909523732	0.206427787	-3.805783741	4.407572935	1.74902809	1.056700581	0.157273295	-0.346595829	0
124	1115823839	0.032115164	-0.045127254	0.600519527	0.797689442	-9.084892989	3.867197986	0.202338937	-2.289768623	3.939858071	1.318675342	1.055979522	0.160786716	-0.346018698	0
125	1115840506	0.031809215	-0.045052312	0.600804529	0.797491305	-9.186444997	3.874708836	0.159944709	-1.448428263	3.331513497	1.036364124	1.059588008	0.163882577	-0.345882202	0
126	1115857173	0.031670822	-0.045005757	0.601044311	0.797318742	-9.152722001	3.81575801	0.173300298	-1.029131758	2.530524951	0.239357052	1.059966811	0.16227435	-0.346115272	0
127	1115873840	0.031740961	-0.044996829	0.601286931	0.797133504	-9.151661506	3.8354407	0.153507162	-1.021778175	1.507364098	-0.76360372	1.059824529	0.167165409	-0.342345015	0
128	1115890507	0.031961808	-0.044946727	0.601498439	0.796967918	-9.142167095	3.781143493	0.128342705	-0.69699817	1.158065372	-1.757454044	1.059443137	0.171550174	-0.342122977	0
129	1115907174	0.03225549	-0.044772124	0.601732822	0.796788963	-9.113464456	3.808468925	0.063910162	-0.809195009	1.584301399	-2.691565528	1.057844525	0.172013234	-0.341926761	0
130	1115923841	0.032642059	-0.044424993	0.601985615	0.796601679	-8.935970467	3.791436628	0.04471882	-0.862987056	2.186883423	-3.933245711	1.056462676	0.171126547	-0.339352544	0
131	1115940508	0.0331273	-0.043906628	0.602150292	0.796485917	-8.90599632	3.707971137	0.003521863	5.06E-05	2.755673249	-5.154641113	1.057468648	0.177064652	-0.338439452	0
132	1115957175	0.033679584	-0.043207277	0.602235878	0.79643629	-8.895243063	3.656391407	0.006845211	0.782168801	3.50497728	-6.239951243	1.058557565	0.17637082	-0.338495938	0
133	1115973842	0.034304021	-0.042377646	0.602324119	0.796387484	-8.780953573	3.661334016	0.090842015	0.836244589	3.954009555	-7.18338829	1.058326088	0.180628525	-0.337591113	0
134	1115990509	0.034945599	-0.041521578	0.602376038	0.796365414	-8.869224018	3.634650378	0.097660925	1.171737081	4.065045305	-7.379439788	1.059393534	0.181006679	-0.332797397	0
135	1116007176	0.035565551	-0.040701062	0.602340117	0.796407496	-9.127736284	3.596120056	0.142569785	1.918264449	3.995888859	-7.079303679	1.058607537	0.182894335	-0.331072759	0
136	1116023843	0.036233654	-0.03997337	0.602368618	0.796392679	-9.307878955	3.675644478	0.118714837	1.336150528	3.329027281	-6.986955636	1.057305212	0.186228733	-0.332635817	0
137	1116040510	0.036936281	-0.039426925	0.602589522	0.796220507	-9.402445605	3.82495335	0.010721971	-0.388806617	2.240674871	-6.515341999	1.05838919	0.185333709	-0.330547002	0
138	1116057177	0.037580034	-0.039138907	0.602906147	0.795964864	-9.497543142	3.979765332	-0.196376771	-1.32854002	1.106124411	-5.175414388	1.05745767	0.188306268	-0.329164492	0
139	1116073844	0.038066816	-0.039043298	0.603321715	0.795631477	-9.265366232	4.062028463	-0.543108584	-2.273534905	0.732126487	-3.576962041	1.056643769	0.189886361	-0.324892131	0
140	1116090511	0.038374566	-0.038897232	0.603745982	0.795301947	-8.937789418	4.129365297	-0.74868369	-2.337448769	1.756434505	-2.834129414	1.058480949	0.191346918	-0.324044197	0
141	1116107178	0.038500159	-0.038557065	0.604080981	0.795058022	-8.672630891	4.084184897	-0.894040242	-1.49223277	3.560938379	-2.633334856	1.060951271	0.191082025	-0.326949328	0
142	1116123845	0.038504556	-0.037928624	0.604297386	0.794923573	-8.569435722	3.915911541	-1.042885428	-0.349388417	5.615679906	-3.147370458	1.055211865	0.194368627	-0.323704989	0
143	1116140512	0.038481147	-0.036943642	0.604349043	0.794931822	-8.632901166	3.913820434	-1.134141795	1.223946546	7.640604471	-4.429533095	1.057660337	0.196185134	-0.320675807	0
144	1116157179	0.038753069	-0.03550484	0.604500099	0.79486932	-8.843974263	3.774824759	-1.145875725	0.571912139	8.864212442	-8.005237264	1.055342075	0.20041237	-0.320168989	0
145	1116173846	0.039077681	-0.03378313	0.6043665	0.795030043	-9.201335011	4.002476209	-1.11187218	3.133324744	10.13264828	-9.357160818	1.0556844	0.198525785	-0.318467272	0
146	1116190513	0.039437648	-0.03207673	0.603994008	0.79536595	-9.313580285	3.909692696	-1.082586375	5.163406158	9.847341702	-9.406508207	1.053658305	0.199005473	-0.319018356	0
147	1116207180	0.039869696	-0.030541653	0.603725078	0.795608977	-9.418090135	3.82990089	-1.014536716	4.172125942	8.587126958	-9.152380367	1.053026858	0.200634147	-0.316999172	0
148	1116223847	0.04016436	-0.029533693	0.603689087	0.79565952	-9.516778911	3.867346903	-1.007937367	1.917647214	6.273557798	-6.32136567	1.053457654	0.201595547	-0.312379939	0
149	1116240514	0.040222556	-0.029157923	0.603846016	0.79555135	-9.493573024	3.948898238	-0.936749172	-0.026656868	3.794641144	-2.49441324	1.053329989	0.199991381	-0.312507233	0
150	1116257181	0.040049157	-0.029337772	0.604186711	0.795294775	-9.285380734	3.940785417	-0.863895935	-1.854313806	1.720901954	0.988780694	1.056199382	0.201540103	-0.31473771	0
151	1116273848	0.039728114	-0.029886905	0.604628913	0.794954293	-8.996482059	3.894925756	-0.819841509	-2.892756831	0.314158894	3.268819873	1.051822049	0.20182694	-0.310742004	0
152	1116290515	0.039297498	-0.030587328	0.605049045	0.794629332	-8.82970709	3.899896681	-0.808219529	-2.77389771	-0.071396995	4.48673743	1.052769149	0.204910658	-0.310752613	0
153	1116307182	0.038775414	-0.031226158	0.605382743	0.794375937	-8.721257972	3.800682995	-0.876544965	-2.009362014	0.626457413	4.743080313	1.052831152	0.205678136	-0.308394011	0
154	1116323849	0.038239496	-0.031686805	0.60562785	0.794196824	-8.665259171	3.710200311	-0.954411442	-1.175244161	1.632392782	4.095988882	1.052301492	0.206685749	-0.305748204	0
155	1116340516	0.037716233	-0.031997906	0.605796694	0.794080591	-8.753237366	3.709050215	-0.97522053	-0.461771907	2.37036427	3.42074549	1.052442371	0.204470559	-0.308645214	0
156	1116357183	0.037152736	-0.032300191	0.605875113	0.794035087	-8.850105825	3.788772643	-1.054320181	0.313962108	2.555761087	3.626637009	1.053300806	0.207334449	-0.30554804	0
157	1116373850	0.03650715	-0.032680246	0.605876027	0.794048783	-8.976910028	3.807576779	-1.094540439	0.937169907	2.442420484	4.415363549	1.05448734	0.206282821	-0.304523491	0
158	1116390517	0.035791014	-0.033178003	0.605823916	0.794100501	-8.996588217	3.848362248	-1.125814905	1.330176394	2.062924159	5.29618423	1.053710609	0.208409656	-0.305575832	0
159	1116407184	0.035000221	-0.033853159	0.605734095	0.79417577	-9.009224541	3.835851635	-1.098363284	1.56382845	1.373772361	6.440123281	1.052527304	0.211000077	-0.304899178	0
160	1116423851	0.03419655	-0.034718771	0.605571453	0.794297437	-9.037311019	3.849217392	-1.067227308	2.098117753	0.357158076	7.316181776	1.053263356	0.208851522	-0.303814833	0
161	1116440518	0.033417032	-0.035813803	0.605400114	0.794412598	-9.079406861	3.788650961	-1.00988678	2.061206994	-1.022816735	8.124357146	1.050341943	0.208624592	-0.304014466	0
162	1116457185	0.032763408	-0.036967906	0.605370959	0.794409174	-9.122339361	3.851857238	-0.905090614	0.80216048	-1.885341805	7.608824497	1.053813117	0.213503724	-0.300136336	0
163	1116473852	0.032159508	-0.038193735	0.605397227	0.794355841	-9.108262214	3.801292961	-0.923160297	0.28347506	-2.495509022	7.597528789	1.053089828	0.213618096	-0.303180724	0
164	1116490519	0.031668827	-0.039297869	0.605509423	0.794236175	-9.12751413	3.745412753	-0.932695067	-0.409467632	-2.313797919	6.42412856	1.054191405	0.211134837	-0.301914214	0
165	1116507186	0.031353679	-0.040211126	0.605666906	0.794082875	-9.109167365	3.669261966	-0.886822625	-0.713503923	-2.015913278	4.64445317	1.053768771	0.214620353	-0.301666122	0
166	1116523853	0.031227733	-0.04090787	0.605817137	0.793937637	-9.090894689	3.640676349	-0.808461983	-0.546078763	-1.632074554	2.710351154	1.053357944	0.212538038	-0.300876075	0
167	1116540520	0.031316442	-0.041418047	0.6059363	0.793816746	-9.091697716	3.568740864	-0.783662889	-0.177262486	-1.515306771	0.775698775	1.053795493	0.210303593	-0.302455479	0
168	1116557187	0.031514838	-0.041854905	0.605944587	0.793779654	-9.109308467	3.553279802	-0.756318032	0.821608442	-1.57866914	-0.076469177	1.053519716	0.209669983	-0.301257633	0
169	1116573854	0.031701724	-0.04232508	0.605822912	0.793840152	-9.013989988	3.557124304	-0.720492624	1.924210459	-1.716512463	0.188605837	1.05615032	0.210095064	-0.301946239	0
170	1116590521	0.031794766	-0.042891627	0.605618862	0.793961709	-8.938949499	3.52700749	-0.74457742	2.577390958	-1.855399191	1.142836942	1.054648282	0.213134272	-0.301088191	0
171	1116607188	0.031828353	-0.043493833	0.605362823	0.794122846	-8.923665868	3.524742418	-0.811784016	2.998399165	-1.806236094	1.642082347	1.053914107	0.213001823	-0.300807741	0
172	1116623855	0.031899378	-0.044016646	0.605059621	0.794322239	-8.879966849	3.53331835	-0.807403779	3.440154879	-1.535957204	1.131528037	1.054913291	0.210271699	-0.300578412	0
173	1116640522	0.032062579	-0.044427536	0.604756874	0.794523322	-8.955585102	3.543066056	-0.852654566	3.493150618	-1.31592072	0.162964138	1.05301637	0.209725609	-0.300560858	0
174	1116657189	0.03227975	-0.044782524	0.604481031	0.79470449	-9.065512443	3.55723391	-0.862076419	3.288768052	-1.245784686	-0.37461203	1.056461324	0.209717524	-0.299798669	0
175	1116673856	0.032527988	-0.045093749	0.604182105	0.794904062	-9.231583429	3.669698838	-0.81114641	3.506562869	-1.145890614	-0.712673705	1.055094654	0.209022405	-0.302049471	0
176	1116690523	0.032742552	-0.045439118	0.60392267	0.795072714	-9.244118219	3.679103963	-0.70737902	3.140610086	-1.199021927	-0.404243353	1.055872872	0.207208737	-0.301597309	0
177	1116707190	0.032829687	-0.045961441	0.603668092	0.795232414	-9.57650002	3.604367796	-0.761583574	2.997250884	-1.639685848	1.024253139	1.055116593	0.206757216	-0.30092419	0
178	1116723857	0.03287983	-0.046540643	0.603502324	0.795322469	-9.565147701	3.712537235	-0.75612372	2.195514299	-1.800917922	1.428969802	1.056786701	0.204943773	-0.302159975	0
179	1116740524	0.032934586	-0.047176301	0.603483241	0.795297232	-9.418268763	3.760691542	-0.746439313	0.90172439	-2.133946985	1.56946386	1.055505248	0.204928779	-0.303182696	0
180	1116757191	0.032945928	-0.047886039	0.603574665	0.795184958	-9.342713722	3.677261732	-0.712455596	-0.094928074	-2.363333478	2.057899245	1.056590177	0.205626329	-0.303485672	0
181	1116773858	0.032889766	-0.048598463	0.603633275	0.795099568	-9.167624431	3.596641193	-0.653969561	0.171965061	-2.09645973	2.457558891	1.054001338	0.203309397	-0.302100383	0
182	1116790525	0.03277418	-0.049290422	0.603593441	0.795091986	-9.049444524	3.531419855	-0.569252935	1.018357239	-1.731379152	2.750735647	1.057939737	0.200366498	-0.304318158	0
183	1116807192	0.032690651	-0.049933595	0.603403452	0.795199492	-8.943121278	3.47712882	-0.463072797	2.338877592	-1.586933761	2.454226312	1.056883204	0.202129241	-0.303979451	0
184	1116823859	0.032666428	-0.050575784	0.603074585	0.795409353	-9.013395039	3.385591898	-0.376525028	3.546671335	-1.812515023	2.203324803	1.056328852	0.202905688	-0.305260948	0
185	1116840526	0.032766789	-0.051163744	0.602692339	0.795657309	-9.149844134	3.334025632	-0.391721104	4.05637663	-2.01529669	1.336178366	1.056852978	0.203955209	-0.302609642	0
186	1116857193	0.033041871	-0.051708878	0.602335172	0.795881127	-9.415741943	3.401174975	-0.430634705	3.893373677	-2.494420683	0.205709497	1.05698574	0.202368389	-0.303586901	0
187	1116873860	0.03340484	-0.052182836	0.601981191	0.796102828	-9.684850689	3.433394078	-0.577742292	3.917689987	-2.455774432	-0.551556932	1.056026411	0.19805916	-0.303122934	0
188	1116890527	0.033946295	-0.052430307	0.601986587	0.796059584	-9.713166494	3.253874758	-0.739703386	0.971130081	-1.960266916	-2.635268145	1.054049243	0.198028662	-0.304449949	0
189	1116907194	0.034489836	-0.05240978	0.60210979	0.795944387	-9.635117381	3.437704046	-0.805778639	0.088090124	-0.50400685	-3.785720021	1.056659692	0.199985405	-0.304245777	0
190	1116923861	0.03477575	-0.052353849	0.602245051	0.795833287	-9.476088453	3.28916055	-0.866512036	-0.049204038	0.754027825	-2.505650552	1.055350897	0.19632677	-0.301749911	0
191	1116940528	0.034859434	-0.052175869	0.602511249	0.795639801	-9.293533541	3.208839218	-0.750718946	-1.155806009	2.25175039	-1.94914404	1.055450378	0.195387103	-0.302662738	0
192	1116957195	0.034756272	-0.051998776	0.602966736	0.795310785	-9.239915727	3.211539463	-0.719591438	-2.824885351	3.012637955	-1.002708834	1.055011045	0.195248018	-0.304534355	0
193	1116973862	0.034642856	-0.051838854	0.603671297	0.794791526	-9.182447119	3.210691146	-0.611469998	-4.986002004	2.949775735	-0.989468572	1.055869751	0.194005294	-0.303030112	0
194	1116990529	0.034563761	-0.051731114	0.604516711	0.794159168	-9.173066551	3.212607786	-0.532652619	-6.227056915	2.516936545	-1.01941601	1.058797395	0.193959219	-0.305948617	0
195	1117007196	0.034590144	-0.051653064	0.60539902	0.793490712	-9.28589562	3.199309714	-0.525657027	-6.54721313	1.918325763	-1.474590424	1.057598642	0.194439613	-0.302643685	0
196	1117023863	0.034703947	-0.051607353	0.606267473	0.79282537	-9.359859529	3.16252748	-0.593812533	-6.435217336	1.383079934	-1.789493572	1.053226209	0.195177061	-0.302789868	0
197	1117040530	0.034891754	-0.051560026	0.607065417	0.792209384	-9.491626597	3.162534408	-0.702631776	-5.818923171	1.087358047	-2.139158393	1.056611254	0.192006049	-0.305207621	0
198	1117057197	0.035107472	-0.051488381	0.607879347	0.791580136	-9.500459486	3.183196789	-0.774324455	-5.946131467	1.098953464	-2.374798687	1.054405956	0.192685474	-0.302411312	0
199	1117073864	0.035281789	-0.051378752	0.608730448	0.790925193	-9.494938707	3.221528445	-0.789306554	-6.265996705	1.473955785	-2.303541102	1.057868805	0.192675032	-0.302035386	0
200	1117090531	0.035378234	-0.051191872	0.609505114	0.790336188	-9.462472988	3.251536701	-0.826232291	-5.588953012	2.218476751	-2.138506899	1.057862038	0.189663299	-0.302079408	0
201	1117107198	0.035381315	-0.050931735	0.610201739	0.789815142	-9.432991206	3.279430699	-0.806197412	-4.901531279	3.005609153	-1.874580668	1.056973283	0.190214166	-0.302025254	0
202	1117123865	0.035344702	-0.050610178	0.610861624	0.789327206	-9.328586922	3.254625622	-0.766288896	-4.565428522	3.501875813	-1.878370861	1.054352251	0.191297516	-0.300405145	0
203	1117140532	0.035349941	-0.050275916	0.611453223	0.788890151	-9.296498596	3.166612789	-0.714577373	-3.956594889	3.386820757	-2.105636869	1.055737921	0.189046245	-0.302908513	0
204	1117157199	0.035444248	-0.049931823	0.611975977	0.788502329	-9.312577857	3.126698427	-0.680089588	-3.318762525	3.052454629	-2.572178136	1.056801888	0.18920903	-0.300354663	0
205	1117173866	0.035692942	-0.049657475	0.612404115	0.788175963	-9.121087875	3.214741147	-0.641224183	-2.542783177	2.032185376	-3.048593409	1.054956456	0.189540118	-0.302824384	0
206	1117190533	0.035933756	-0.049686683	0.612732549	0.787907876	-9.321963959	3.200974268	-0.617444921	-1.854077837	0.422807906	-1.665534278	1.054303007	0.187378884	-0.299802626	0
207	1117207200	0.036196122	-0.049879967	0.613032821	0.787650043	-9.433354439	3.298810513	-0.652256361	-1.686648488	-0.55992466	-1.05998852	1.056447721	0.191428141	-0.302969287	0
208	1117223867	0.036504299	-0.050126489	0.613202764	0.787487868	-9.430462831	3.26548308	-0.739264545	-0.493604168	-1.070915335	-0.989298802	1.055048013	0.189338741	-0.300606156	0
209	1117240534	0.036880182	-0.05024614	0.613244825	0.787429973	-9.51659334	3.225929665	-0.715634098	0.640132726	-0.650489252	-1.809282016	1.054844293	0.187531688	-0.303881768	0
210	1117257201	0.037333571	-0.050385203	0.613199379	0.787435113	-9.529921192	3.135984434	-0.67804861	1.300358532	-1.046201102	-2.089435027	1.05569695	0.187346217	-0.299333248	0
211	1117273868	0.037833305	-0.050607204	0.61313017	0.787450917	-9.525201116	3.083923525	-0.679903333	1.394104631	-1.667077898	-1.962482744	1.053300677	0.189638509	-0.299702636	0
212	1117290535	0.038336353	-0.050839282	0.613001422	0.787511872	-9.556901604	3.175659524	-0.703937527	2.111764565	-1.815078368	-1.856403608	1.055144656	0.190467124	-0.300384633	0
213	1117307202	0.038803945	-0.051129013	0.612781726	0.787641184	-9.498524565	3.267103872	-0.710166123	2.742470448	-1.933015216	-1.359825385	1.05450394	0.187886197	-0.298915205	0
214	1117323869	0.039249627	-0.051492658	0.612551093	0.787774797	-9.375682937	3.283220777	-0.721690244	2.715903997	-2.21655133	-0.914527133	1.053968998	0.187644205	-0.300076551	0
215	1117340536	0.039630926	-0.052130132	0.612414985	0.787819602	-9.256664369	3.21622243	-0.833576693	1.751870193	-3.444061917	0.546682452	1.056554459	0.18692653	-0.298187401	0
216	1117357203	0.039814055	-0.053187666	0.612252865	0.787865688	-9.296121752	3.199997288	-0.835923643	1.514261896	-4.827639261	3.393948339	1.056000886	0.186900402	-0.296562769	0
217	1117373870	0.039772194	-0.054372707	0.612182364	0.787841694	-9.408628168	3.300957596	-0.847548631	1.213632348	-4.807335824	5.173394493	1.055851726	0.186372545	-0.295242334	0
218	1117390537	0.039575146	-0.055530208	0.612075836	0.787853651	-9.521447027	3.297470565	-0.850085836	0.887921483	-3.777707906	5.872541717	1.054727126	0.189540137	-0.296945098	0
219	1117407204	0.039183005	-0.05665345	0.612020259	0.787836456	-9.573048261	3.242282074	-0.781587818	0.765020246	-2.903870269	6.806201855	1.056770673	0.186730648	-0.295813045	0
220	1117423871	0.038603042	-0.057806667	0.611977924	0.787814201	-9.441469391	3.172034785	-0.805328574	0.545297442	-2.261052093	7.95766766	1.054346395	0.187589163	-0.293855009	0
221	1117440538	0.037935468	-0.058920859	0.61192099	0.787808311	-9.24906243	3.097736793	-0.826793011	0.785586038	-1.727686139	8.307220253	1.055026173	0.190318269	-0.295503999	0
222	1117457205	0.037253244	-0.059897482	0.611798646	0.787862237	-9.09315877	2.930076956	-0.827524804	0.998154469	-0.766382454	7.824680767	1.053824661	0.191445495	-0.294704719	0
223	1117473872	0.036751685	-0.060678775	0.611747961	0.787865364	-9.142352643	2.909910831	-0.832734614	0.656144861	-0.529937195	6.018749673	1.05277446	0.187166652	-0.293985396	0
224	1117490539	0.036496717	-0.061400117	0.611860591	0.787733859	-9.198646555	2.98035708	-0.824216848	-0.625495651	-1.285834143	4.360052517	1.05168487	0.189597873	-0.294294245	0
225	1117507206	0.036411996	-0.062144415	0.612135628	0.787465689	-9.245336409	2.999519496	-0.833256969	-2.051002565	-2.138034403	3.447998594	1.05377911	0.188070272	-0.294659252	0
226	1117523873	0.036280711	-0.062882946	0.612438434	0.787177622	-9.328367498	3.038972033	-0.787809187	-2.352006299	-1.902918027	3.676538647	1.052899028	0.190434887	-0.294012234	0
227	1117540540	0.035997456	-0.06358852	0.612674158	0.786950481	-9.34662814	3.018407676	-0.762557215	-1.855001204	-1.057697532	4.416395791	1.05368745	0.194408853	-0.292489115	0
228	1117557207	0.035545982	-0.064185794	0.613012042	0.786659331	-9.349236995	3.030842668	-0.797105354	-1.709700035	-0.148608163	4.932383856	1.05441851	0.191683464	-0.292624665	0
229	1117573874	0.034992086	-0.064795845	0.613177026	0.786505554	-9.397879619	3.037706097	-0.795473977	-1.16133502	0.568387518	5.579269868	1.055982456	0.192880844	-0.292766754	0
230	1117590541	0.034355683	-0.065439126	0.613403123	0.786304023	-9.46248173	3.007115249	-0.829522619	-1.517219839	0.642994709	6.16967083	1.051982183	0.19246047	-0.290393084	0
231	1117607208	0.033576251	-0.066187926	0.613651077	0.786081516	-9.500878348	3.073145912	-0.873293222	-1.697578771	0.621713803	7.406022911	1.056679876	0.197590731	-0.291593824	0
232	1117623875	0.032786087	-0.067010177	0.614010773	0.785764264	-9.451257847	2.951994962	-0.88116667	-2.43932952	0.138521182	7.749477855	1.056239143	0.192638716	-0.290942372	0
233	1117640542	0.032220567	-0.067718709	0.61448901	0.785352957	-9.410431766	2.997504363	-0.945537052	-3.850947375	-0.033915101	5.952152283	1.053902445	0.197012532	-0.290278532	0
234	1117657209	0.031603301	-0.068561133	0.614834534	0.785034457	-9.328596005	2.913063178	-0.993656201	-2.804581692	-0.534982513	6.900270177	1.05744194	0.195210561	-0.28769966	0
235	1117673876	0.03109605	-0.069324625	0.615185092	0.784712963	-9.274109463	2.784329011	-1.019827274	-2.71018614	-0.612419321	5.996910386	1.056685188	0.196214485	-0.289760479	0
236	1117690543	0.030613332	-0.070117652	0.615654001	0.784293624	-9.332202563	2.839266916	-1.151471628	-3.860988843	-0.875836799	5.929827225	1.057787701	0.196299038	-0.288945321	0
237	1117707210	0.030204667	-0.070836577	0.616211931	0.783806553	-9.210580291	3.086595686	-1.121183393	-4.588916229	-0.821700907	5.18287383	1.059779852	0.198616158	-0.287951679	0
238	1117723877	0.03015506	-0.0712226	0.616870331	0.783255391	-9.065491746	3.067692582	-0.948254705	-5.039803953	-0.623298054	1.796917098	1.057523432	0.198720432	-0.286956117	0
239	1117740544	0.030497547	-0.071184626	0.617528694	0.782726619	-9.046964365	3.224019213	-0.880478905	-4.801447315	0.045370637	-2.111333385	1.056083993	0.198496719	-0.287360771	0
240	1117757211	0.031073585	-0.070823931	0.618192023	0.782212903	-9.115723629	3.384751487	-0.889708719	-4.584404897	0.790370242	-4.73530989	1.056515863	0.201054123	-0.287628203	0
241	1117773878	0.03169808	-0.070334398	0.618789447	0.781759505	-9.198983604	3.501334645	-0.922975591	-3.861491902	1.260882028	-5.49588821	1.056925822	0.200036134	-0.285295929	0
242	1117790545	0.032340521	-0.069808622	0.619333055	0.781349738	-9.263958316	3.500163306	-0.88455556	-3.466285315	1.414442944	-5.725852487	1.058910256	0.203379768	-0.286263222	0
243	1117807212	0.032975424	-0.069284575	0.619885694	0.780931492	-9.329081519	3.556797197	-0.871871877	-3.549012129	1.42557418	-5.689646174	1.05937538	0.201633419	-0.284121558	0
244	1117823879	0.03349731	-0.068778516	0.620490822	0.780473308	-9.36320197	3.66450642	-0.845064982	-4.022811882	1.783353287	-5.043168153	1.060213713	0.203426794	-0.285822424	0
245	1117840546	0.033830391	-0.068408756	0.621026001	0.780065672	-9.359364131	3.636356961	-0.881606616	-3.553116074	1.860988719	-3.413537138	1.05885072	0.201857198	-0.284187998	0
246	1117857213	0.034001617	-0.068145476	0.621394495	0.77978777	-9.379596557	3.516353666	-0.880290785	-2.212699957	1.999549422	-1.992750104	1.059357429	0.206883445	-0.2853809	0
247	1117873880	0.034011697	-0.067980112	0.621655674	0.779593568	-9.386619334	3.34232566	-0.908647077	-1.415304605	2.185163503	-0.647304409	1.057531985	0.208264077	-0.285590981	0
248	1117890547	0.033924731	-0.06788864	0.62192355	0.77939165	-9.328561838	3.286887709	-0.958241362	-1.497909512	2.175446932	0.191617772	1.057686535	0.204729683	-0.283435554	0
249	1117907214	0.033803565	-0.067889336	0.622087145	0.779266284	-9.221802336	3.204221977	-1.072813215	-0.661021279	1.83419592	0.839527805	1.058404996	0.206893509	-0.282818719	0
250	1117923881	0.033766419	-0.067836896	0.622175392	0.779202006	-9.133076337	3.130685258	-1.089972131	0.049116012	1.75505359	0.218265453	1.060148652	0.207262365	-0.28339796	0
251	1117940548	0.033989141	-0.067641307	0.622263081	0.779139301	-9.042842505	3.333955302	-1.007229308	0.20986068	1.396531518	-1.777585835	1.059134276	0.206267673	-0.282426173	0
252	1117957215	0.034615231	-0.067279548	0.622375164	0.77905353	-9.003045521	3.344188229	-0.926659354	0.203870798	0.54301729	-4.66648061	1.059668524	0.206018912	-0.283667184	0
253	1117973882	0.035599735	-0.066702208	0.622561863	0.778909623	-9.23151977	3.376995742	-0.939408372	-0.229422965	0.146111074	-7.559903336	1.060925297	0.206759217	-0.282021795	0
254	1117990549	0.036633198	-0.066179094	0.622767613	0.778741829	-9.348002062	3.38904597	-0.944655115	-0.432772556	-0.366828545	-7.604610372	1.061217716	0.207997876	-0.281775007	0
255	1118007216	0.037572459	-0.065791913	0.622964341	0.778572517	-9.4407649	3.376965517	-0.921576895	-0.460383618	-0.705599633	-6.51159026	1.059803634	0.207067943	-0.283007411	0
256	1118023883	0.03835952	-0.065524819	0.623079991	0.77846411	-9.458599315	3.46013142	-0.833928408	0.131446053	-0.694734764	-5.126704271	1.061001988	0.208583729	-0.281090123	0
257	1118040550	0.038950741	-0.065313032	0.623065764	0.778463937	-9.451173316	3.466252308	-0.759875081	1.176695226	-0.137561318	-3.754998671	1.059641489	0.20801569	-0.284025733	0
258	1118057217	0.039349139	-0.065055091	0.623003756	0.778515125	-9.451528548	3.433243044	-0.772416664	1.567272137	0.950819994	-2.886329268	1.062128224	0.210159541	-0.281325993	0
259	1118073884	0.039538111	-0.064801177	0.622911009	0.778600938	-9.407157228	3.404201998	-0.827906221	1.789908782	1.83197393	-1.722990978	1.061241427	0.208274681	-0.284670034	0
260	1118090551	0.039586575	-0.064552354	0.622789905	0.778716014	-9.264505197	3.34854583	-0.79961327	2.008564248	2.406787346	-0.926410568	1.065285652	0.208412522	-0.282482778	0
261	1118107218	0.039622248	-0.064218038	0.62263813	0.778863197	-9.2532018	3.364437199	-0.754430595	2.350603562	2.914332721	-1.197468136	1.060776555	0.212063033	-0.281630476	0
262	1118123885	0.039700965	-0.06374642	0.622468786	0.779033271	-9.249423669	3.304708167	-0.759377488	2.589490744	3.474539755	-2.002300398	1.061009542	0.208718389	-0.282043599	0
263	1118140552	0.039820749	-0.063149861	0.622288327	0.779219892	-9.225926074	3.329103806	-0.796190463	2.755765167	3.977192201	-2.745374285	1.06131272	0.210014602	-0.285269377	0
264	1118157219	0.039985444	-0.06254298	0.622145405	0.779374515	-9.300301837	3.280808956	-0.879155092	2.450581868	3.831295046	-3.053098394	1.059974438	0.209419877	-0.282035811	0
265	1118173886	0.04012738	-0.06203176	0.622067894	0.779469941	-9.332595407	3.280657545	-0.948159644	1.809929387	3.401993365	-2.560832671	1.061205726	0.210083286	-0.281106872	0
266	1118190553	0.040252449	-0.061603055	0.622009877	0.779543788	-9.31110826	3.306739262	-1.008444212	1.587065692	3.018173615	-2.126714237	1.063116819	0.211038686	-0.282974856	0
267	1118207220	0.040413864	-0.061210938	0.62196417	0.779602791	-9.326965944	3.284325699	-0.953975755	1.449112967	2.659298782	-2.173065458	1.065258825	0.210239044	-0.282582542	0
268	1118223887	0.040579768	-0.060839951	0.621961816	0.779625091	-9.280375787	3.241126254	-0.9803615	1.065507177	2.511063247	-2.129309227	1.060844874	0.210285666	-0.282918262	0
269	1118240554	0.040736804	-0.060463537	0.621984299	0.779628249	-9.241954541	3.224387709	-0.986598926	0.823499911	2.576819177	-2.117946182	1.065008821	0.210500922	-0.28124998	0
270	1118257221	0.040918389	-0.060073426	0.622022993	0.779618025	-9.237096519	3.240787991	-1.019306135	0.683723849	2.53743385	-2.314387199	1.061007841	0.213143924	-0.281190651	0
271	1118273888	0.041163764	-0.059670371	0.622049012	0.779615301	-9.275015912	3.267051122	-0.996314492	0.842870652	2.311948083	-2.695258078	1.062998905	0.212551017	-0.282698619	0
272	1118290555	0.041506773	-0.059319595	0.622079146	0.779599839	-9.307981002	3.273771737	-0.966817594	0.783093465	1.603823753	-2.998706992	1.064424353	0.210195242	-0.281179846	0
273	1118307222	0.041808443	-0.059092529	0.622046013	0.779627401	-9.33702202	3.263271822	-0.967159172	1.224686306	1.11991114	-2.207726794	1.059095767	0.212532537	-0.279180083	0
274	1118323889	0.041991759	-0.059054433	0.621935755	0.779708396	-9.310769703	3.178076011	-0.930289574	1.812457842	0.587242885	-0.707870235	1.059356189	0.21278311	-0.283356499	0
275	1118340556	0.042313664	-0.058923854	0.621972479	0.779671577	-9.295381704	3.150358902	-0.960678264	0.572667122	0.490229303	-1.935760909	1.062322159	0.210853563	-0.281771153	0
276	1118357223	0.042553475	-0.058903863	0.621802691	0.779795454	-9.341115928	3.189501854	-0.996342865	2.295108287	0.247580201	-0.88369699	1.067345823	0.21144514	-0.280996148	0
277	1118373890	0.042772913	-0.058957096	0.621534313	0.779993357	-9.287181651	3.065026001	-0.936506615	3.114939334	-0.06662219	-0.391304087	1.063588974	0.21054609	-0.280729155	0
278	1118390557	0.043000027	-0.059080909	0.621233094	0.780211437	-9.319005086	3.078042108	-0.934003125	3.3577929	-0.485602448	-0.099492398	1.065339725	0.213230632	-0.279221132	0
279	1118407224	0.043130551	-0.059272018	0.620882633	0.780468667	-9.365349035	3.098263054	-0.921978307	3.707350768	-0.430603053	0.746764053	1.065470758	0.216649987	-0.278837334	0
280	1118423891	0.043195512	-0.059507153	0.620576722	0.78069045	-9.379261208	3.060658203	-0.915095084	3.321815799	-0.409597829	1.274196883	1.065482916	0.212982915	-0.280951303	0
281	1118440558	0.043139199	-0.059854152	0.620220774	0.780949859	-9.411083216	3.090039847	-0.971133951	3.61787969	-0.478770342	2.441664871	1.065579474	0.213475782	-0.280848747	0
282	1118457225	0.042964359	-0.06028955	0.619838242	0.781229664	-9.378635114	3.135794796	-1.01090515	3.787471843	-0.459523443	3.48582875	1.065086567	0.215248303	-0.280598883	0
283	1118473892	0.042710927	-0.060727896	0.619445445	0.781521107	-9.340575503	3.183584072	-0.961023999	3.846794167	-0.142454332	3.935428002	1.06634854	0.218256023	-0.279408324	0
284	1118490559	0.042445102	-0.061101848	0.619039554	0.781827991	-9.260833561	3.226372638	-0.967058148	4.017670961	0.244954269	3.748405653	1.066476716	0.217290585	-0.278921541	0
285	1118507226	0.04221768	-0.061407203	0.618686087	0.782096125	-9.231232218	3.277437768	-0.988927315	3.583831056	0.451857832	3.217932221	1.064279775	0.216215287	-0.279358986	0
286	1118523893	0.042009339	-0.061634048	0.618378302	0.78233288	-9.237263357	3.279495889	-0.983421652	3.246494346	0.781719676	2.757783379	1.06623298	0.217748447	-0.278138233	0
287	1118540560	0.041848012	-0.061825861	0.618099912	0.78254636	-9.240177966	3.274080568	-0.999031058	3.014887772	0.76289406	2.338305175	1.065081092	0.216948752	-0.278930532	0
288	1118557227	0.041723292	-0.062010174	0.617863787	0.782724885	-9.302313987	3.227457174	-1.009639393	2.647957725	0.642121361	2.082235258	1.068241606	0.220986403	-0.280671946	0
289	1118573894	0.041619502	-0.062202773	0.617687997	0.782853863	-9.300401597	3.25996918	-0.998302337	2.107634416	0.501316476	1.968553808	1.069326721	0.217617405	-0.279412248	0
290	1118590561	0.041556728	-0.062427115	0.617575356	0.782928205	-9.318171147	3.314924358	-0.995293162	1.541004443	0.144521076	1.843410429	1.067550902	0.221683729	-0.280743278	0
291	1118607228	0.041546031	-0.062674234	0.61747058	0.782991667	-9.306290593	3.310918302	-0.931435585	1.480777028	-0.211641855	1.655241185	1.069819394	0.220315085	-0.278622359	0
292	1118623895	0.04152609	-0.062971008	0.617266533	0.783129787	-9.330606217	3.290998584	-0.900953673	2.300526934	-0.43534631	1.981973984	1.070073198	0.221521	-0.276343377	0
293	1118640562	0.041603884	-0.063224247	0.617104238	0.783233152	-9.349491262	3.266685912	-0.845499393	1.98652511	-0.623642495	1.245331909	1.069969179	0.220535312	-0.277608959	0
294	1118657229	0.041658998	-0.063569614	0.616922625	0.78334533	-9.341389222	3.258181805	-0.901867234	2.086750646	-1.023351909	1.772449606	1.070693862	0.220777824	-0.27455186	0
295	1118673896	0.041833566	-0.063908608	0.616810704	0.783396577	-9.353330071	3.334284194	-0.898291256	1.505274354	-1.50382853	1.058637335	1.066907403	0.222359912	-0.277011478	0
296	1118690563	0.042008743	-0.064352136	0.616689223	0.783446533	-9.359886826	3.361036364	-0.93616691	1.51570748	-2.07405622	1.503174191	1.070895542	0.223976554	-0.275104206	0
297	1118707230	0.042213988	-0.0648254	0.616562402	0.783496299	-9.335128297	3.329813918	-0.942977337	1.551463604	-2.368032589	1.471190911	1.068413115	0.225658993	-0.275845028	0
298	1118723897	0.0424259	-0.065326232	0.616395953	0.783574218	-9.30854639	3.339829905	-0.948366723	1.883654352	-2.548703742	1.580673589	1.07091055	0.223853135	-0.27637244	0
299	1118740564	0.042617352	-0.065793473	0.616185695	0.783690098	-9.28311545	3.321560893	-0.951409029	2.274334539	-2.279407809	1.579761456	1.071625565	0.225149079	-0.275452907	0
300	1118757231	0.04278111	-0.066208873	0.615952837	0.783829232	-9.282536651	3.338690889	-0.965396671	2.50123091	-1.883762372	1.527719197	1.071348579	0.224893407	-0.274666073	0
301	1118773898	0.042896317	-0.066627463	0.615708164	0.783979683	-9.310996096	3.299649151	-0.975987758	2.585534242	-1.696739454	1.812347241	1.069538296	0.230017952	-0.277434776	0
302	1118790565	0.042988306	-0.067030608	0.615446245	0.784145919	-9.325148517	3.285307952	-0.977206106	2.73982957	-1.518877979	1.88790772	1.068549986	0.226516393	-0.275401751	0
303	1118807232	0.043043838	-0.067449768	0.615140729	0.784346633	-9.314840629	3.265596491	-0.973793552	3.094413953	-1.450801977	2.18460552	1.069973361	0.225663881	-0.271850092	0
304	1118823899	0.043127065	-0.067870289	0.61478146	0.784587431	-9.300659219	3.262931439	-0.940286941	3.563514907	-1.575704162	2.081035442	1.069716111	0.227064923	-0.274806258	0
305	1118840566	0.043313727	-0.068267621	0.61443305	0.784815571	-9.290276364	3.259560615	-0.915672023	3.505379781	-1.894766137	1.420966235	1.069019077	0.228080835	-0.276010588	0
306	1118857233	0.043568626	-0.068702768	0.614043559	0.785068285	-9.32084285	3.254502587	-0.885224334	3.851525197	-2.389880938	1.241438764	1.071408359	0.228051356	-0.277322444	0
307	1118873900	0.043815785	-0.069194623	0.613669141	0.78530406	-9.32779919	3.253733499	-0.899664582	3.676399042	-2.668751751	1.515495616	1.072019701	0.226005799	-0.273509544	0
308	1118890567	0.044059416	-0.069754378	0.613291637	0.785535781	-9.317113656	3.231489475	-0.904162324	3.652607873	-3.024221997	1.825327772	1.07268239	0.227832945	-0.274738807	0
309	1118907234	0.044329287	-0.070384916	0.612906989	0.785764533	-9.291853563	3.238082416	-0.918146029	3.670143975	-3.523065591	1.990509911	1.073204305	0.22840967	-0.27463937	0
310	1118923901	0.044595446	-0.071062344	0.612515708	0.785993573	-9.27262553	3.246994174	-0.924041979	3.688086282	-3.764326171	2.215020592	1.071569614	0.231094272	-0.275060463	0
311	1118940568	0.044810152	-0.071755503	0.612138789	0.786211995	-9.253873259	3.226791442	-0.910896786	3.52732677	-3.633641394	2.55236393	1.071628358	0.228274997	-0.2749035	0
312	1118957235	0.04499238	-0.072412711	0.611758957	0.786436942	-9.277377672	3.188145973	-0.910668384	3.566862675	-3.302222346	2.584423726	1.072748061	0.228152258	-0.274233326	0
313	1118973902	0.045117275	-0.072992511	0.611424831	0.786636003	-9.308430033	3.191913264	-0.947737311	3.209320298	-2.645486007	2.544822263	1.073047115	0.231045226	-0.271082485	0
314	1118990569	0.045214514	-0.073512575	0.611104613	0.786830796	-9.308343472	3.147059584	-0.957427536	3.118269162	-2.207494307	2.439371611	1.072099926	0.229624309	-0.273478974	0
315	1119007236	0.045278163	-0.074020163	0.610774719	0.78703567	-9.312428517	3.143075049	-0.929176972	3.19410746	-1.997304368	2.582344144	1.070875395	0.229305148	-0.2731522	0
316	1119023903	0.045339303	-0.074523963	0.610479197	0.78721387	-9.338296911	3.189842406	-0.928429018	2.897280907	-1.972537616	2.560923423	1.072443976	0.2325016	-0.272218074	0
317	1119040570	0.045352817	-0.075081814	0.610217698	0.787362816	-9.323551558	3.205843832	-0.922132728	2.54289586	-2.070611995	3.024368412	1.073273938	0.229577876	-0.270731545	0
318	1119057237	0.045283371	-0.075702153	0.610000582	0.787475644	-9.345515311	3.22073823	-0.945630178	2.092223551	-2.068098883	3.705683077	1.073291522	0.232932735	-0.27266364	0
319	1119073904	0.045115415	-0.076351824	0.609758932	0.787609703	-9.306085981	3.272109215	-0.964399518	2.255022734	-1.814628239	4.387093794	1.075434356	0.232177281	-0.273896453	0
320	1119090571	0.044841028	-0.077073607	0.609496554	0.787758143	-9.2718013	3.166617226	-0.976254638	2.345213595	-1.759824245	5.282244264	1.073610934	0.234252126	-0.270274419	0
321	1119107238	0.044612664	-0.077709453	0.609440916	0.787751687	-9.314537741	3.199360376	-0.980545751	0.631017106	-1.510185325	4.520854253	1.073668204	0.233782636	-0.272738941	0
322	1119123905	0.044272335	-0.078367151	0.609397598	0.787739245	-9.289214715	3.129988398	-1.019070279	0.462900048	-1.159223242	5.214046578	1.075041313	0.235201279	-0.27361128	0
323	1119140572	0.0437761	-0.079003556	0.609373943	0.787721708	-9.251416301	3.167527955	-0.959096114	0.253253701	-0.3909993	5.960924045	1.075182929	0.236734958	-0.27265413	0
324	1119157239	0.043207927	-0.079596339	0.609445401	0.787638116	-9.253585543	3.105537108	-0.937347502	-0.567168812	0.137160303	6.100044331	1.077926596	0.235352702	-0.269667526	0
325	1119173906	0.042655481	-0.080050173	0.609579151	0.787518723	-9.243770242	3.179351014	-0.927080789	-1.01124873	0.822751713	5.39089401	1.076573791	0.239838354	-0.27138552	0
326	1119190573	0.042152927	-0.080421578	0.609761996	0.787366375	-9.266413544	3.200270626	-0.916575764	-1.364593306	1.055258985	4.741480932	1.078090349	0.236469317	-0.271148425	0
327	1119207240	0.041674874	-0.080795034	0.610014189	0.787158215	-9.283105059	3.221715546	-0.915569768	-1.956413293	0.927117555	4.565549793	1.075210381	0.238590702	-0.269423596	0
328	1119223907	0.041267457	-0.081116589	0.610269124	0.786948977	-9.324634518	3.177018224	-0.876803778	-1.924490467	0.911264925	3.965318103	1.075825765	0.239819678	-0.268821568	0
329	1119240574	0.040878136	-0.08145348	0.610506289	0.786750519	-9.298009996	3.203594579	-0.863795315	-1.782998702	0.755608787	3.947365761	1.076411366	0.240820594	-0.269253875	0
330	1119257241	0.040524321	-0.081745755	0.610688361	0.786597188	-9.326539305	3.213277361	-0.891333003	-1.261922521	0.857195035	3.612797854	1.076955315	0.242641349	-0.268180313	0
331	1119273908	0.040183591	-0.082055512	0.610787399	0.786505515	-9.363064068	3.29068486	-0.890685105	-0.552997017	0.718691261	3.682336503	1.075495959	0.241860801	-0.269085725	0
332	1119290575	0.039812526	-0.082415481	0.610829912	0.78645373	-9.316427805	3.29936776	-0.894181659	-0.112162193	0.581854716	4.100837265	1.076843488	0.239922043	-0.264663223	0
333	1119307242	0.039428841	-0.082799903	0.610766169	0.786482187	-9.317097077	3.304978152	-0.889270546	0.782104707	0.520008242	4.353397557	1.077175097	0.24409355	-0.268230564	0
334	1119323909	0.039078456	-0.083195304	0.610619705	0.78657167	-9.292219944	3.26827732	-0.937667454	1.504951781	0.331194523	4.284475239	1.075126138	0.244994351	-0.267337397	0
335	1119340576	0.03875009	-0.083617864	0.610446883	0.786677244	-9.280960941	3.288412861	-0.970347316	1.716043033	0.09365995	4.299191759	1.075238679	0.24375405	-0.268093612	0
336	1119357243	0.038503876	-0.084045034	0.61025842	0.786790025	-9.272203724	3.340886295	-0.998477547	1.875442312	-0.279294573	3.88582158	1.076746881	0.24434754	-0.266956473	0
337	1119373910	0.038320854	-0.084436234	0.610003896	0.786954434	-9.301586099	3.382830969	-0.992839526	2.492579443	-0.33969214	3.444506898	1.079274817	0.244497582	-0.271057766	0
338	1119390577	0.038146798	-0.084827538	0.609690453	0.787163682	-9.3308482	3.425379017	-1.018579318	3.003252758	-0.371212608	3.440823959	1.079406571	0.246977877	-0.263906154	0
339	1119407244	0.038028922	-0.08520485	0.609451187	0.787313905	-9.316377808	3.345312281	-1.000525373	2.389280759	-0.549032244	3.017354382	1.077206154	0.245823367	-0.266007579	0
340	1119423911	0.03790019	-0.085579613	0.609269208	0.787420306	-9.296241849	3.298875658	-1.023803566	1.888214999	-0.503141248	3.019315805	1.079142544	0.245537772	-0.269258433	0
341	1119440578	0.037825604	-0.085939856	0.609101612	0.787514312	-9.266884147	3.284305902	-1.012967979	1.791691969	-0.659029859	2.654561233	1.078697812	0.246414728	-0.266392922	0
342	1119457245	0.0378162	-0.086278582	0.608950858	0.787594308	-9.281529623	3.257014992	-0.993223427	1.683398222	-0.822016889	2.197949754	1.077311708	0.248226503	-0.26515671	0
343	1119473912	0.037864593	-0.086584085	0.608801982	0.787673546	-9.30005255	3.281252292	-0.975626723	1.711064801	-0.887585912	1.746492601	1.082393928	0.249326808	-0.266269755	0
344	1119490579	0.037895132	-0.086871215	0.608638207	0.787767024	-9.307425184	3.291061811	-0.965952079	1.845756324	-0.71103178	1.780274718	1.079103319	0.248130698	-0.263347582	0
345	1119507246	0.037921751	-0.087145867	0.608477921	0.787859225	-9.291535232	3.236396988	-0.994004373	1.821202642	-0.629738439	1.747901726	1.080979569	0.248268069	-0.265859603	0
346	1119523913	0.037927935	-0.087393129	0.60830314	0.787966498	-9.28652238	3.229654007	-1.030824944	1.956293264	-0.393466297	1.759030575	1.079961723	0.248556688	-0.265054401	0
347	1119540580	0.037926702	-0.08760246	0.608123017	0.788082337	-9.308943116	3.219926723	-1.080467138	2.024390665	-0.157514076	1.648735885	1.077210038	0.250105389	-0.266067499	0
348	1119557247	0.037939009	-0.087825232	0.607973481	0.78817232	-9.311860345	3.231660047	-1.118113315	1.753987869	-0.298799501	1.608511083	1.078678554	0.252203619	-0.261802523	0
349	1119573914	0.0379684	-0.088066433	0.607850489	0.788238851	-9.298287914	3.238234269	-1.116465072	1.515268832	-0.484033155	1.572403938	1.076990846	0.250422758	-0.263457834	0
350	1119590581	0.038043184	-0.088316199	0.607778901	0.788262502	-9.241872619	3.209293298	-1.118396294	1.078906368	-0.737693344	1.322599936	1.080003094	0.251174572	-0.262761666	0
351	1119607248	0.038245305	-0.088521714	0.607793732	0.788218233	-9.224986954	3.207587998	-1.107736958	0.413236274	-1.054349667	0.378702175	1.078530884	0.249060384	-0.264787506	0
352	1119623915	0.038551849	-0.088645743	0.607825272	0.788165037	-9.219021716	3.193564333	-1.113829965	0.36889834	-1.055886992	-0.538541957	1.081219593	0.253653416	-0.263938569	0
353	1119640582	0.038924403	-0.088661741	0.607806456	0.788159437	-9.245671581	3.208464975	-1.048221951	0.911413322	-0.738412377	-1.301517784	1.077348653	0.252144604	-0.262329586	0
354	1119657249	0.039373764	-0.088568818	0.607707197	0.788224101	-9.298818805	3.23767538	-1.018755577	1.712855519	-0.450897531	-2.10365726	1.081008653	0.253395706	-0.265549942	0
355	1119673916	0.039851186	-0.088386473	0.607593722	0.788308051	-9.344656553	3.303296101	-1.009362473	1.912162902	-0.080128967	-2.613096682	1.080199992	0.252176087	-0.264398474	0
356	1119690583	0.04028223	-0.088123688	0.607444272	0.788430729	-9.362075383	3.343929098	-1.007598811	2.261184196	0.561457614	-2.664697956	1.079948036	0.253246639	-0.263209489	0
357	1119707250	0.040612025	-0.08783759	0.607248265	0.788596707	-9.369901215	3.352765766	-1.018214928	2.642041446	1.119084594	-2.172355557	1.081292776	0.253040263	-0.262778902	0
358	1119723917	0.040873659	-0.08755462	0.607054487	0.788763832	-9.335800671	3.361228108	-1.024441419	2.590273102	1.386279908	-1.792326577	1.079627825	0.253767487	-0.262744773	0
359	1119740584	0.041090741	-0.087328404	0.606928754	0.788874381	-9.322870796	3.377324983	-1.029286078	1.943275885	1.245008866	-1.37023744	1.077946005	0.253510767	-0.262492222	0
360	1119757251	0.0412425	-0.087197181	0.606899519	0.788903468	-9.301907532	3.378931667	-1.023705148	1.013131316	0.978428153	-0.702366328	1.08006977	0.253996567	-0.264196614	0
361	1119773918	0.041332226	-0.087161365	0.606945151	0.788867623	-9.251964588	3.354842872	-0.979876467	0.270515549	0.699064947	-0.03358911	1.082516777	0.253579874	-0.25967209	0
362	1119790585	0.041357564	-0.087146701	0.607033916	0.788799613	-9.22600847	3.335687612	-1.003166224	-0.140826115	0.844075175	0.366828575	1.082433154	0.256126764	-0.262338116	0
363	1119807252	0.041309041	-0.087150226	0.607138171	0.788721524	-9.230447475	3.320296584	-1.029830705	-0.31941896	1.050649281	0.83005805	1.080813257	0.25563994	-0.263132725	0
364	1119823919	0.041158121	-0.087183399	0.607274097	0.788621097	-9.252816775	3.264802283	-1.054003915	-0.652913536	1.308481785	1.48234325	1.080578046	0.253089353	-0.264640946	0
365	1119840586	0.040920862	-0.087202369	0.60743628	0.788506433	-9.245105807	3.234060685	-1.082791495	-0.904475585	1.741951141	1.871277404	1.083004327	0.252602141	-0.260145181	0
366	1119857253	0.040643198	-0.087150918	0.607636285	0.78837237	-9.259721276	3.249962699	-1.095833878	-1.197333614	2.28884372	1.767168585	1.079949545	0.256205001	-0.262113401	0
367	1119873920	0.040358869	-0.087073621	0.607866649	0.788217916	-9.258052043	3.214496572	-1.11497641	-1.441889688	2.447945315	1.67182294	1.081966346	0.257897651	-0.262981009	0
368	1119890587	0.040052274	-0.086958585	0.608095695	0.788069569	-9.250004797	3.19559692	-1.095888714	-1.418309161	2.745245546	1.638360519	1.083744908	0.256298826	-0.262048659	0
369	1119907254	0.039759157	-0.086786768	0.608299905	0.787945741	-9.24338478	3.230886094	-1.082208084	-1.157928199	2.999895138	1.349949622	1.083208878	0.258857573	-0.261731124	0
370	1119923921	0.039484166	-0.086629526	0.608498867	0.787823238	-9.276198146	3.241358187	-1.028639058	-1.118424534	2.840980307	1.316243657	1.082806337	0.257560241	-0.261096732	0
371	1119940588	0.039196039	-0.08649202	0.608656967	0.787730599	-9.313317933	3.297955362	-1.040868963	-0.786933402	2.7924523	1.502752306	1.082702129	0.256549363	-0.262108378	0
372	1119957255	0.038782612	-0.086507322	0.608698353	0.787717403	-9.351475201	3.350110829	-1.060844574	0.061969197	2.503685453	2.912164286	1.082601256	0.256809515	-0.260950708	0
373	1119973922	0.038386391	-0.086506331	0.608962207	0.787532964	-9.307160802	3.30881203	-1.08545843	-1.846382377	2.474096544	2.569881493	1.084107152	0.26176904	-0.262938928	0
374	1119990589	0.037939275	-0.086508478	0.609210856	0.787362069	-9.284615058	3.33032889	-1.115707865	-1.740813246	2.671777968	2.870006989	1.08344107	0.257701088	-0.260626261	0
375	1120007256	0.03744729	-0.08652988	0.609318674	0.787299838	-9.229995842	3.326721324	-1.035706812	-0.54940228	2.777106276	3.305485303	1.083601367	0.258432965	-0.264058885	0
376	1120023923	0.0369837	-0.086561574	0.60933293	0.787307233	-9.300250868	3.269804376	-0.998502569	0.254399314	2.620289933	3.265648562	1.083754893	0.257470614	-0.261446405	0
377	1120040590	0.036678586	-0.086632066	0.609370364	0.787284781	-9.311084379	3.348821529	-1.006490327	0.085308863	1.734467497	2.548868306	1.084860795	0.259993041	-0.259992282	0
378	1120057257	0.036593602	-0.086785904	0.609502556	0.787169454	-9.337267195	3.328305459	-1.016410735	-0.706216935	0.326860086	1.625130773	1.085428438	0.259886244	-0.260423247	0
379	1120073924	0.036645408	-0.087026746	0.609684419	0.786999599	-9.329343843	3.278669046	-0.966506459	-1.143393124	-0.738286931	1.206024484	1.084180253	0.260586664	-0.261135198	0
380	1120090591	0.036843177	-0.087275628	0.609898377	0.786796997	-9.305747331	3.264977323	-0.952987021	-1.369634115	-1.405648067	0.423160528	1.084566783	0.260682892	-0.261739291	0
381	1120107258	0.037143081	-0.087549399	0.610055525	0.786630632	-9.278728519	3.315839458	-0.926442759	-0.85595665	-1.961419963	0.019198671	1.083294805	0.262145889	-0.262555085	0
382	1120123925	0.037517243	-0.087753307	0.610109975	0.786547921	-9.237138039	3.281668694	-0.881289729	0.115465685	-1.871728694	-0.592322005	1.085650754	0.260761748	-0.263171131	0
383	1120140592	0.03794654	-0.08788467	0.610121219	0.786503937	-9.242499093	3.280740967	-0.861209067	0.564762505	-1.698255156	-1.158402249	1.08408619	0.261406253	-0.261870407	0
384	1120157259	0.038299618	-0.088024805	0.610086449	0.786498123	-9.258354174	3.251134726	-0.871497988	0.924339134	-1.412382496	-0.671294438	1.084561037	0.261329942	-0.262297682	0
385	1120173926	0.038569952	-0.088164396	0.609972676	0.786557521	-9.231193253	3.229576549	-0.912435744	1.576300002	-1.042617848	-0.160084772	1.085370811	0.260830164	-0.262120157	0
386	1120190593	0.038790867	-0.088298766	0.609835013	0.786638325	-9.250811948	3.24923478	-0.954084309	1.768903197	-0.801502528	0.107770855	1.084930519	0.264045291	-0.261770021	0
387	1120207260	0.038996947	-0.088416785	0.60966459	0.786746972	-9.275605601	3.261586001	-0.944820983	2.057753986	-0.643594908	0.147492376	1.085516634	0.260997917	-0.260117721	0
388	1120223927	0.03919006	-0.088553652	0.609470669	0.786872222	-9.286617635	3.278963218	-0.946265601	2.241323756	-0.687927242	0.317074663	1.087112398	0.259849458	-0.260332915	0
389	1120240594	0.03937481	-0.088758464	0.609276929	0.786989952	-9.294995071	3.274542997	-0.973856267	2.182552572	-1.024437756	0.645874113	1.08237875	0.261586134	-0.261857934	0
390	1120257261	0.039517275	-0.089066757	0.609111629	0.787075931	-9.308747704	3.266846611	-0.972269934	1.837517574	-1.417894831	1.283090649	1.084456957	0.261033774	-0.261954555	0
391	1120273928	0.039700804	-0.089420266	0.6090373	0.787084131	-9.297578159	3.214611136	-0.934746077	1.039249566	-1.861087456	1.176154918	1.085999273	0.259407312	-0.261311461	0
392	1120290595	0.039840954	-0.08985441	0.609003574	0.787053702	-9.243147492	3.249383876	-0.96851248	0.592895761	-2.122424206	1.712311201	1.083289422	0.260912401	-0.260064246	0
393	1120307262	0.040016242	-0.090274864	0.60901257	0.786989732	-9.222318217	3.278094339	-0.983527171	0.254764478	-2.208845744	1.432232227	1.084911026	0.260563823	-0.261328106	0
394	1120323929	0.04017625	-0.090686977	0.609051238	0.786904271	-9.245981238	3.344666553	-0.932017335	0.002727165	-2.10758277	1.456417148	1.083824489	0.26272767	-0.259635237	0
395	1120340596	0.040310699	-0.091058814	0.609081287	0.786831193	-9.288317305	3.354887245	-0.922123586	0.099034031	-1.777521097	1.433429992	1.083147631	0.263442093	-0.261173738	0
396	1120357263	0.040348932	-0.091462299	0.609055792	0.786802169	-9.307512351	3.350629758	-0.943387118	0.514178001	-1.533822879	2.13228546	1.084711738	0.263866611	-0.261708342	0
397	1120373930	0.04030863	-0.091943283	0.608975676	0.786810189	-9.313903718	3.314094151	-0.950029574	0.892835455	-1.615128692	2.926000974	1.084500312	0.262400168	-0.259234667	0
398	1120390597	0.040183865	-0.092450263	0.608842938	0.786859887	-9.318816543	3.328163521	-0.971445124	1.298500677	-1.393803486	3.538364357	1.08569798	0.261887862	-0.258130783	0
399	1120407264	0.040033972	-0.092998173	0.608677364	0.786931057	-9.273012746	3.321762326	-0.965147548	1.528292408	-1.500655587	3.870817151	1.082478764	0.259853851	-0.258231275	0
400	1120423931	0.039872606	-0.093553808	0.60848288	0.78702379	-9.283194505	3.321487568	-0.958482872	1.752324123	-1.485964955	3.988526977	1.087241529	0.259901589	-0.260144732	0
401	1120440598	0.039714181	-0.094120503	0.608220313	0.787167178	-9.24645149	3.326499409	-0.972202142	2.347384742	-1.550197974	4.079073446	1.083544159	0.261635364	-0.258764378	0
402	1120457265	0.039601122	-0.094652893	0.607914883	0.787344954	-9.225022941	3.292401267	-0.963387753	2.747794284	-1.539081576	3.725639371	1.08733977	0.260973523	-0.259159525	0
403	1120473932	0.039567556	-0.095125055	0.607626572	0.787512274	-9.218277036	3.293576132	-0.9675199	2.689190483	-1.551010197	3.031453153	1.083719146	0.261162422	-0.259891477	0
404	1120490599	0.039630786	-0.095506061	0.607354808	0.787672603	-9.210082691	3.280898649	-0.968188917	2.652346538	-1.461937229	2.113526998	1.08377478	0.260416003	-0.258612089	0
405	1120507266	0.039785982	-0.095773739	0.607081672	0.787842821	-9.242410952	3.303816744	-0.960543449	2.784532697	-1.223623933	1.145173853	1.087688009	0.263087452	-0.257465175	0
406	1120523933	0.040019819	-0.095968249	0.606846235	0.787988678	-9.232421755	3.314170441	-0.96696383	2.63231783	-1.191216926	0.392642213	1.084211113	0.25939576	-0.257372703	0
407	1120540600	0.040343776	-0.096105005	0.60664789	0.788108206	-9.282532915	3.299362009	-0.975628855	2.352846184	-1.24774699	-0.37364279	1.085460927	0.259014685	-0.255417481	0
408	1120557267	0.040725428	-0.096233084	0.606515883	0.788174547	-9.303021983	3.305308789	-0.962752636	1.768139958	-1.441723869	-0.785374576	1.086475003	0.258903008	-0.258259467	0
409	1120573934	0.041084935	-0.096364955	0.606407873	0.788222884	-9.32637643	3.293646506	-0.955494261	1.526906241	-1.369541078	-0.67200349	1.083179836	0.259275441	-0.25977409	0
410	1120590601	0.041367098	-0.096494033	0.606325938	0.788255366	-9.297897434	3.275677713	-0.965839453	1.417718226	-1.08826344	-0.268497881	1.086305074	0.256974019	-0.255788053	0
411	1120607268	0.041571115	-0.096588855	0.606298186	0.788254366	-9.276523016	3.25872696	-0.978420108	1.402327007	-0.751228332	0.024468215	1.083229698	0.258927045	-0.25716694	0
412	1120623935	0.041759838	-0.096660094	0.606213885	0.788300494	-9.248982089	3.248181041	-0.994851453	1.486132873	-0.395304401	0.010589299	1.082590151	0.258981724	-0.257866383	0
413	1120640602	0.041965223	-0.096653105	0.606089859	0.788385807	-9.280076917	3.226916623	-0.972531653	1.782744343	0.013996098	-0.38105831	1.083454133	0.259007812	-0.256283261	0
414	1120657269	0.042170271	-0.096634421	0.605988377	0.788455163	-9.291078074	3.186349643	-0.987458185	1.579727717	0.079719257	-0.448054004	1.083615288	0.255905988	-0.25778546	0
415	1120673936	0.042367857	-0.09661522	0.605851252	0.788552297	-9.316154023	3.174660834	-1.00230668	1.485358516	0.265197567	-0.423837445	1.084377341	0.257488802	-0.257361826	0
416	1120690603	0.042575592	-0.096572383	0.605752777	0.788622005	-9.319688341	3.171856093	-1.017913004	1.513742741	0.219214111	-0.566425912	1.087356692	0.258700735	-0.257924204	0
417	1120707270	0.042774707	-0.096542135	0.605647398	0.788695867	-9.329125517	3.176686851	-1.007966803	1.629949715	0.159984146	-0.449161255	1.081818898	0.257890497	-0.257863966	0
418	1120723937	0.042952824	-0.096552544	0.605530585	0.788774601	-9.327780681	3.208264988	-1.010017976	1.582296554	0.063585079	-0.167850852	1.083204016	0.257218762	-0.255107767	0
419	1120740604	0.043021244	-0.096594669	0.605480714	0.788803998	-9.335990379	3.219107098	-1.015220231	1.579662814	0.099207339	0.581687898	1.081088323	0.256259807	-0.255084361	0
420	1120757271	0.042931853	-0.096853219	0.605256571	0.78894917	-9.371804373	3.212786151	-0.99948898	2.355823839	-0.22039032	2.431884953	1.083903229	0.25769023	-0.255420318	0
421	1120773938	0.042986942	-0.097112955	0.605181786	0.788971611	-9.285243411	3.052199425	-1.001368164	1.062309768	-0.840366552	1.510388052	1.083530715	0.255440022	-0.256951549	0
422	1120790605	0.043044278	-0.097332964	0.605006427	0.789075857	-9.337831418	3.230172038	-1.037288246	2.156206353	-0.681906578	1.453970295	1.084324442	0.256339157	-0.255328388	0
423	1120807272	0.043037097	-0.097509366	0.604745152	0.789254733	-9.224701116	3.128658846	-1.028573438	2.963085317	-0.176284199	1.71161881	1.082378828	0.256189725	-0.256220615	0
424	1120823939	0.043059906	-0.097538789	0.604445722	0.789479194	-9.261861615	3.104112004	-1.010901946	3.062299116	0.643803155	0.935340327	1.082505128	0.257193923	-0.256770359	0
425	1120840606	0.043046819	-0.097555209	0.604164417	0.789693175	-9.272968845	3.201140234	-1.038941218	2.764547501	0.908497659	1.049494539	1.082781304	0.256948009	-0.254369385	0
426	1120857273	0.043041527	-0.097557403	0.60394691	0.789859551	-9.295000362	3.201677472	-1.042688351	2.051815638	1.001559172	0.86980364	1.083195949	0.256583682	-0.253808156	0
427	1120873940	0.043032765	-0.097542831	0.603864422	0.789924893	-9.312970457	3.180892423	-1.066440334	1.471498374	0.8729581	0.770725547	1.081720781	0.255669097	-0.252555486	0
428	1120890607	0.043060566	-0.097520647	0.603724509	0.790033055	-9.337409488	3.169472933	-1.075815081	1.362201665	0.996461358	0.517411822	1.083504974	0.257167131	-0.255332241	0
429	1120907274	0.043061464	-0.097502753	0.603646256	0.790095008	-9.334537067	3.198086365	-1.043504312	1.11522998	0.961488835	0.665578309	1.082824016	0.256488629	-0.256686859	0
430	1120923941	0.043091967	-0.097563257	0.603447232	0.790237895	-9.304475946	3.202858353	-1.04261752	0.888360935	0.867334737	0.787760614	1.082804758	0.257071004	-0.254005355	0
431	1120940608	0.043047447	-0.097520326	0.603427623	0.790260595	-9.309496333	3.171562534	-1.031647593	0.971374815	1.143139777	0.80549736	1.085314388	0.255507703	-0.252789026	0
432	1120957275	0.043020199	-0.097458583	0.603377548	0.790307928	-9.286418583	3.196337568	-1.048098148	0.884643942	1.314608368	0.616924425	1.081805934	0.258133646	-0.253618379	0
433	1120973942	0.043006175	-0.097360987	0.603344175	0.790346199	-9.260985516	3.236502223	-1.036152467	0.99261737	1.372181583	0.410963615	1.084360173	0.260715595	-0.251233226	0
434	1120990609	0.042989119	-0.097260511	0.603253054	0.790429049	-9.30784964	3.237211399	-1.059063345	1.02303016	1.579772207	0.409116357	1.082815638	0.257383921	-0.252869752	0
435	1121007276	0.042962632	-0.097190112	0.603142804	0.790523278	-9.346153184	3.272837502	-1.076078486	1.023528678	1.503909303	0.587653537	1.083416445	0.254589507	-0.250547243	0
436	1121023943	0.042860502	-0.097108186	0.603178479	0.79051167	-9.378349838	3.274227582	-1.090203416	0.802410137	1.470061293	0.951504759	1.083738085	0.258730549	-0.253731206	0
437	1121040610	0.042729002	-0.09713183	0.603152213	0.790535924	-9.328964689	3.261716657	-1.077904989	0.668151168	1.225974474	1.531768929	1.081851341	0.259300773	-0.24895516	0
438	1121057277	0.042551128	-0.097162109	0.603248389	0.79046841	-9.313820794	3.227772098	-1.087219989	0.449249491	1.045387391	1.808824311	1.082189124	0.256335746	-0.254156737	0
439	1121073944	0.042498371	-0.09719164	0.603287262	0.79043795	-9.292186439	3.229015453	-1.044610336	-0.191452266	0.964328715	1.02856581	1.082519015	0.258738034	-0.249341911	0
440	1121090611	0.042377102	-0.097242301	0.603373645	0.790372292	-9.25759465	3.207622612	-1.070796368	-0.147911469	0.94228915	1.50938387	1.082669585	0.256812921	-0.250026643	0
441	1121107278	0.042284397	-0.097242503	0.603519535	0.790265839	-9.266895462	3.256173338	-1.056800109	-0.621372976	1.091985985	1.092409623	1.082440236	0.258481247	-0.249803525	0
442	1121123945	0.042184216	-0.097273244	0.603713868	0.790118961	-9.277505649	3.293169924	-1.084503933	-1.022839846	0.926418977	1.219964206	1.081862679	0.258815115	-0.252339219	0
443	1121140612	0.042073104	-0.097363919	0.603769543	0.790071174	-9.299449229	3.287120511	-1.081134452	-0.783475755	0.992489572	1.538315888	1.083062721	0.259712322	-0.251423495	0
444	1121157279	0.041887596	-0.097407182	0.603840008	0.790021845	-9.26521675	3.290822796	-1.057164583	-0.099877082	1.272063803	1.834260664	1.08392203	0.256239846	-0.249421011	0
445	1121173946	0.041712486	-0.097456089	0.603730373	0.790108863	-9.298155762	3.271948374	-1.050666183	0.649522577	1.522277413	1.860877494	1.081630106	0.260091905	-0.250778997	0
446	1121190613	0.04152226	-0.097507746	0.603553236	0.79024783	-9.300069078	3.288774213	-1.058333198	0.97838977	1.671011796	1.986004959	1.080026244	0.257739185	-0.249110586	0
447	1121207280	0.041292173	-0.097545397	0.603458225	0.790327794	-9.311526571	3.27054658	-1.053131311	1.024883565	1.622066418	2.166354788	1.081834621	0.257435107	-0.250186695	0
448	1121223947	0.041075029	-0.097627467	0.603326123	0.790429825	-9.31742417	3.283107408	-1.049395304	1.051577643	1.423373089	2.279185985	1.083785748	0.259442702	-0.249971726	0
449	1121240614	0.04084953	-0.097697236	0.603249043	0.790491719	-9.300928938	3.291010756	-1.049413913	1.051991176	1.344939734	2.282456687	1.081851772	0.259060464	-0.247362266	0
450	1121257281	0.040597378	-0.097788061	0.60322441	0.790512277	-9.320739163	3.280077816	-1.062138069	1.014304915	1.167947409	2.52352748	1.083115335	0.258267671	-0.250483336	0
451	1121273948	0.040350246	-0.097913284	0.603178889	0.790544163	-9.31681126	3.232332671	-1.100617592	0.667698479	1.140916094	2.592715667	1.080802283	0.25685444	-0.250537323	0
452	1121290615	0.040082569	-0.098089004	0.603131588	0.790572086	-9.266254151	3.234555711	-1.094227471	0.346435371	1.048666405	2.880026971	1.079721719	0.257040708	-0.25089938	0
453	1121307282	0.039814441	-0.098252875	0.603129708	0.790566719	-9.286031693	3.19734373	-1.11440213	0.290300982	0.985520485	2.834324568	1.082648357	0.258010349	-0.247976956	0
454	1121323949	0.039574988	-0.098437783	0.603094301	0.790582752	-9.269733831	3.182972861	-1.090171696	0.227659384	0.879713911	2.752377963	1.078896604	0.26166482	-0.248323437	0
455	1121340616	0.039357281	-0.098611697	0.603038067	0.790614841	-9.274507698	3.194451857	-1.088535193	0.151354738	0.949719634	2.57384538	1.082046839	0.259541543	-0.248963152	0
456	1121357283	0.039138066	-0.098738381	0.603052559	0.790598858	-9.294949284	3.179837165	-1.064830948	0.021754301	1.039469195	2.382811638	1.082185238	0.260888732	-0.248246755	0
457	1121373950	0.038925518	-0.098857056	0.603112391	0.790548879	-9.281347905	3.157204426	-1.092435217	-0.1591274	0.971333065	2.298326621	1.080167675	0.25900556	-0.247070636	0
458	1121390617	0.038682001	-0.098975777	0.60321683	0.790466289	-9.309133345	3.154647936	-1.094704026	-0.178843506	0.951171229	2.477413972	1.081530856	0.261810496	-0.246819379	0
459	1121407284	0.038477688	-0.099170105	0.603220799	0.790448876	-9.286584857	3.182455528	-1.103595561	-0.159282924	0.681565227	2.564449322	1.081217676	0.261151042	-0.247934076	0
460	1121423951	0.038265875	-0.099350226	0.603263259	0.790404134	-9.301418699	3.208534885	-1.079576422	-0.072621265	0.633095223	2.5659508	1.082910919	0.263267348	-0.246371905	0
461	1121440618	0.038041238	-0.099531922	0.603241133	0.790409006	-9.284189112	3.213589005	-1.050991136	0.333092393	0.743383994	2.681765285	1.080886741	0.26155322	-0.245058195	0
462	1121457285	0.037789077	-0.09968135	0.603206563	0.790428654	-9.346840018	3.221051058	-1.034795791	0.546418247	1.004702493	2.723007331	1.081475041	0.259954608	-0.246911792	0
463	1121473952	0.03751384	-0.099884771	0.603082296	0.790510904	-9.338659596	3.221123407	-1.029059903	0.777508122	0.999488835	3.090760903	1.081309255	0.263507093	-0.246605855	0
464	1121490619	0.037194403	-0.10011606	0.602958138	0.790591446	-9.367998713	3.24717348	-1.026853985	0.837434673	0.991909906	3.459653726	1.082868432	0.263607965	-0.24647808	0
465	1121507286	0.036802439	-0.100351674	0.602904639	0.790620717	-9.332597279	3.235842588	-1.057918368	0.824321874	1.024564309	3.890549598	1.081592874	0.258789829	-0.247144872	0
466	1121523953	0.036420691	-0.100736748	0.602646552	0.790786175	-9.346624623	3.250057009	-1.083891997	0.834437665	0.794866649	4.428107363	1.081718066	0.268071926	-0.244006734	0
467	1121540620	0.035883985	-0.101231194	0.60226981	0.791034551	-9.356744812	3.305405071	-1.058166826	1.851049489	0.810420661	5.847108308	1.081061068	0.263394104	-0.245094546	0
468	1121557287	0.035356488	-0.101651903	0.602092089	0.791139637	-9.315854405	3.178302966	-1.039861369	1.362547146	0.706223303	5.463409646	1.081473281	0.263701204	-0.244699365	0
469	1121573954	0.034793805	-0.101997348	0.60189056	0.791273458	-9.3772931	3.334447967	-1.014755542	1.743466536	1.225899774	5.385854441	1.081251525	0.265654329	-0.243324907	0
470	1121590621	0.034087291	-0.102329069	0.601680599	0.791421048	-9.286729255	3.221629168	-1.068289173	2.006363271	1.810531773	6.152751745	1.084472211	0.264627181	-0.243717768	0
471	1121607288	0.033406888	-0.10255167	0.601453519	0.791593835	-9.2973912	3.196577882	-1.045318505	1.835373138	2.457570888	5.525040488	1.081679343	0.265157038	-0.245914433	0
472	1121623955	0.032777983	-0.102714059	0.601311861	0.791706683	-9.255062867	3.316794327	-1.070294086	1.351605377	2.484080262	4.946425783	1.083885876	0.268738446	-0.241921065	0
473	1121640622	0.032278586	-0.102780222	0.601224112	0.791785253	-9.21794561	3.354609359	-1.059781722	1.224614927	2.389227566	3.820381131	1.08268613	0.266622879	-0.244528915	0
474	1121657289	0.031949594	-0.102784031	0.601158685	0.791847777	-9.20222035	3.344705457	-1.070216706	0.513678634	2.252965513	2.532343715	1.081327358	0.26711508	-0.243106043	0
475	1121673956	0.031728951	-0.102706596	0.601195233	0.791838948	-9.216275723	3.351296238	-1.064187446	0.15775922	2.073539568	1.567873776	1.080919964	0.26712183	-0.244701627	0
476	1121690623	0.031603891	-0.102579073	0.60130494	0.791777176	-9.205901089	3.303478179	-1.090784473	-0.125466377	1.838546549	0.805308772	1.081118485	0.269353013	-0.244948998	0
477	1121707290	0.031564292	-0.102452536	0.601365333	0.791749272	-9.172937351	3.282120175	-1.114655009	-0.054043856	1.632583821	0.336678709	1.083685995	0.26880371	-0.244375288	0
478	1121723957	0.031616877	-0.102238019	0.601461783	0.791701639	-9.144852614	3.276640498	-1.076481532	0.071526747	1.609145551	-0.520293301	1.082684953	0.266319607	-0.241373085	0
479	1121740624	0.031764502	-0.101955354	0.601562804	0.791655427	-9.179725776	3.274852913	-1.086729604	0.042673549	1.61948776	-1.335254997	1.083923641	0.264516461	-0.240788595	0
480	1121757291	0.031942117	-0.101633156	0.601630355	0.791638376	-9.209407599	3.270792799	-1.044149589	0.12931603	1.810078042	-1.663901602	1.081545654	0.266960035	-0.244785478	0
481	1121773958	0.032125124	-0.101344031	0.601655933	0.791648598	-9.294958818	3.276715384	-1.030389206	0.180676091	1.718417008	-1.557452082	1.083444404	0.269072447	-0.241321376	0
482	1121790625	0.0322876	-0.101060065	0.601712081	0.791635614	-9.326676151	3.277891488	-1.055272177	0.226175528	1.649282106	-1.410056282	1.083901187	0.266589124	-0.245167142	0
483	1121807292	0.032413609	-0.100855476	0.601823199	0.791572086	-9.366233352	3.253628668	-1.078973864	-0.205008296	1.301952942	-0.918307546	1.083273908	0.266862915	-0.242196219	0
484	1121823959	0.032500291	-0.100706825	0.601976548	0.791470847	-9.307963203	3.254434077	-1.068360344	-0.323568785	1.032623886	-0.471080461	1.082416639	0.268986929	-0.244933656	0
485	1121840626	0.032542463	-0.100590643	0.602124824	0.791371093	-9.294309523	3.243631838	-1.075242936	-0.167961648	0.9819628	-0.071924534	1.081681065	0.264495921	-0.242365504	0
486	1121857293	0.032584661	-0.100485098	0.602209317	0.791318472	-9.227298317	3.225773998	-1.047933665	-0.148697035	1.127048436	-0.037402715	1.082518377	0.269103871	-0.243301546	0
487	1121873960	0.032624049	-0.100332471	0.602328744	0.791245317	-9.241128631	3.240816776	-1.036613717	-0.365838125	1.369018343	-0.239172058	1.084007118	0.268529101	-0.242079844	0
488	1121890627	0.032701213	-0.100155366	0.602368006	0.79123468	-9.242181189	3.170884234	-1.070253463	-0.058288916	1.520509237	-0.529948051	1.082532188	0.269663519	-0.243941905	0
489	1121907294	0.032722968	-0.099959042	0.60252193	0.791141404	-9.252903746	3.168526106	-1.069907144	-0.257828858	1.53746943	-0.304494575	1.082715013	0.269351628	-0.24272438	0
490	1121923961	0.032750818	-0.099796334	0.602670686	0.791047483	-9.262891578	3.227777731	-1.063140069	-0.344655528	1.365369923	-0.208020573	1.081191414	0.268893353	-0.241545207	0
491	1121940628	0.032767163	-0.099651838	0.602731808	0.791018452	-9.294916846	3.239779547	-1.031093445	0.002657825	1.474447356	-0.043145813	1.08079734	0.266920478	-0.244169229	0
492	1121957295	0.032747534	-0.0995325	0.602783482	0.790994914	-9.284990436	3.249271355	-1.013056917	0.619795768	1.284296432	0.33567068	1.084847141	0.268774782	-0.240533093	0
493	1121973962	0.03272259	-0.099499108	0.602636843	0.791111873	-9.282819725	3.247604848	-1.022223258	0.904670738	1.371371081	0.719770106	1.082439878	0.268956809	-0.239922157	0
494	1121990629	0.032625284	-0.099432237	0.602608757	0.791145693	-9.28746196	3.27445843	-1.042014725	0.96235126	1.435033137	1.01151349	1.083675235	0.266857875	-0.244669298	0
495	1122007296	0.032515482	-0.099421823	0.60253336	0.791208945	-9.28817438	3.278183177	-1.047570057	1.018228299	1.296779622	1.314227223	1.082477541	0.272137676	-0.242257236	0
496	1122023963	0.032416712	-0.099453036	0.602417697	0.791297143	-9.274723199	3.300388236	-1.031655106	0.96412256	1.164904047	1.413276346	1.083996084	0.269246486	-0.242900311	0
497	1122040630	0.0323609	-0.099463516	0.60231497	0.791376307	-9.287834973	3.323334021	-1.048381161	1.173719018	0.995445781	1.117693943	1.081605598	0.268425137	-0.24206764	0
498	1122057297	0.032332022	-0.099491947	0.602234332	0.79143528	-9.286872392	3.307591316	-1.040849403	1.010823768	0.766738202	1.029038625	1.086646771	0.270053073	-0.24041508	0
499	1122073964	0.032263194	-0.099523076	0.602266818	0.791409454	-9.258017667	3.267923306	-1.044685559	0.878041208	0.577651558	1.267345216	1.083559094	0.268656791	-0.240946789	0
500	1122090631	0.032230303	-0.099603403	0.602195832	0.791454705	-9.281260917	3.265718837	-1.02240509	1.133214427	0.405466961	1.286185205	1.086215685	0.269426448	-0.240687473	0
501	1122107298	0.032228504	-0.099621658	0.602159736	0.791479944	-9.240053684	3.287400849	-0.988361696	1.269797345	0.474714831	0.878937011	1.084526102	0.269228592	-0.243337034	0
502	1122123965	0.032309082	-0.09956844	0.602093179	0.791533987	-9.289751904	3.253186732	-1.035112455	1.197891021	0.689330078	0.107023984	1.083278615	0.270157138	-0.24217271	0
503	1122140632	0.032438965	-0.099437894	0.60203428	0.791589884	-9.302253427	3.304186786	-1.055768683	0.994331195	0.98557755	-0.513250356	1.084831996	0.270666245	-0.239869179	0
504	1122157299	0.032582703	-0.099309869	0.60194482	0.791668081	-9.302087442	3.255045676	-1.061308166	0.802332589	1.086140418	-0.609850891	1.085618056	0.27109263	-0.242332321	0
505	1122173966	0.032737456	-0.099178678	0.601876886	0.791729791	-9.302886719	3.269710323	-1.042128544	0.570348504	1.070640528	-0.708523228	1.083583858	0.269878225	-0.240097882	0
506	1122190633	0.032911833	-0.098976902	0.601929157	0.791708074	-9.238069471	3.270685633	-1.039323107	0.323678898	1.083871595	-1.116640066	1.082574964	0.269875176	-0.241040252	0
507	1122207300	0.033156004	-0.098676881	0.601965974	0.791707344	-9.23780526	3.300286276	-1.005976717	0.405648163	1.398419693	-1.909089955	1.083379212	0.269358812	-0.242065048	0
508	1122223967	0.033449552	-0.098277587	0.602015789	0.791706785	-9.245626965	3.287820025	-1.015735845	0.524334024	1.688702413	-2.581300256	1.083134217	0.269030079	-0.240439175	0
509	1122240634	0.03379287	-0.09787198	0.602045592	0.791719788	-9.283234337	3.302362288	-0.997782987	0.292106632	1.675082785	-2.916050274	1.085032361	0.27037483	-0.238633376	0
510	1122257301	0.034091351	-0.097444428	0.602233615	0.791616723	-9.309798552	3.268357054	-0.999854163	0.44183238	1.399715604	-2.706823997	1.084353085	0.269699757	-0.238553672	0
511	1122273968	0.034392639	-0.097107178	0.602287587	0.791604071	-9.303431955	3.271542711	-0.993408418	0.414924788	1.320844701	-2.37687925	1.086153129	0.27000109	-0.240925385	0
512	1122290635	0.034698308	-0.096733054	0.602319897	0.791611954	-9.250258366	3.297663464	-0.975675027	0.912839341	1.412244409	-2.499724514	1.084360684	0.269490626	-0.240088775	0
513	1122307302	0.03503475	-0.096338391	0.602300921	0.791659701	-9.268512502	3.276693372	-1.012947231	1.121956475	1.502348275	-2.740618143	1.084572141	0.271492228	-0.241217998	0
514	1122323969	0.035370969	-0.095912379	0.602292164	0.791703139	-9.280657763	3.288124463	-1.018572468	1.209880358	1.618618039	-2.85807098	1.084499608	0.269567914	-0.242282556	0
515	1122340636	0.035753846	-0.095535559	0.602074927	0.791896712	-9.311068096	3.283191704	-1.031690561	1.543824615	1.717615802	-2.914688108	1.084559478	0.268743859	-0.238920418	0
516	1122357303	0.036051335	-0.095117714	0.602062231	0.791943175	-9.296295399	3.307404486	-1.002545415	1.644021308	1.582330181	-2.555720841	1.085282233	0.271540091	-0.238021439	0
517	1122373970	0.036321051	-0.09471413	0.601997265	0.792028603	-9.268573453	3.308786037	-0.982260077	1.874727136	1.701250721	-2.327429006	1.084394944	0.273277571	-0.240049174	0
518	1122390637	0.036528581	-0.094302871	0.601786039	0.792228625	-9.26307674	3.388371244	-0.981272297	3.106869527	2.039180626	-1.896036792	1.086247875	0.27115299	-0.239918302	0
519	1122407304	0.036847511	-0.093815682	0.601602117	0.792411365	-9.205052441	3.28281984	-1.004309554	2.406671272	2.189131714	-2.91236446	1.083710324	0.26904824	-0.239981797	0
520	1122423971	0.037146206	-0.093176064	0.601494021	0.792554933	-9.274315309	3.386920647	-1.014093435	3.090440034	2.659544816	-3.338028686	1.084074081	0.268711812	-0.241851418	0
521	1122440638	0.037347105	-0.092549686	0.601267254	0.792790917	-9.244656766	3.343219379	-1.004770338	3.981469036	3.045129356	-2.661405356	1.08504408	0.268905585	-0.23969574	0
522	1122457305	0.037539862	-0.091936636	0.600946142	0.793096556	-9.255027193	3.291922172	-0.953275942	4.013267334	3.296571137	-2.579885814	1.084398055	0.268503093	-0.239255128	0
523	1122473972	0.037740758	-0.091345074	0.600615189	0.793406017	-9.277092769	3.357701969	-0.981076359	3.58631678	3.322820168	-2.590276065	1.085352724	0.268107695	-0.241833328	0
524	1122490639	0.037991212	-0.090773302	0.600309125	0.793691268	-9.303397034	3.414961807	-0.981730088	3.067717217	3.110002163	-2.839917848	1.083466595	0.270788181	-0.23927566	0
525	1122507306	0.03820161	-0.090166624	0.600167144	0.79385768	-9.276720181	3.367092475	-1.003155294	2.544080157	3.122351805	-2.790466747	1.086836828	0.270313787	-0.24151792	0
526	1122523973	0.038482825	-0.089593444	0.599989032	0.794043606	-9.266204355	3.336370901	-0.988446117	2.261587554	2.860246791	-3.086879154	1.083078254	0.267985475	-0.236880445	0
527	1122540640	0.038773648	-0.089053467	0.599765147	0.794259311	-9.273127805	3.405940593	-0.978057422	2.336155447	2.751806753	-3.004102952	1.084026578	0.269185876	-0.239325625	0
528	1122557307	0.039037649	-0.088507186	0.599573533	0.794452087	-9.277268669	3.384518939	-1.009924392	2.69678941	2.661003902	-2.830566586	1.081612296	0.268241058	-0.240741417	0
529	1122573974	0.039316193	-0.087972511	0.599362562	0.794656903	-9.282536811	3.322573416	-0.991185266	2.523204133	2.658889562	-2.889407601	1.086032462	0.267453177	-0.237493271	0
530	1122590641	0.039591399	-0.087405082	0.599253897	0.794787795	-9.290267269	3.325992721	-0.990522292	2.091833832	2.683014094	-3.035982746	1.083070362	0.267173561	-0.240140384	0
531	1122607308	0.039858363	-0.08681413	0.599185171	0.79489103	-9.263550953	3.372036142	-1.015129978	2.026969398	2.7445025	-3.086702022	1.084571869	0.268020713	-0.239141388	0
532	1122623975	0.040086357	-0.086243182	0.5990835	0.795018338	-9.281090443	3.33249341	-1.011389294	2.185243104	2.834353717	-2.777476686	1.084692747	0.267588795	-0.237243334	0
533	1122640642	0.0402987	-0.085656132	0.599026459	0.795114044	-9.265092513	3.328025499	-1.011439517	2.224764178	2.830082622	-2.742419128	1.080296004	0.265762737	-0.240232266	0
534	1122657309	0.040552136	-0.085180715	0.598826847	0.79530257	-9.23989732	3.312800574	-1.039081165	2.22352627	2.474729003	-2.542230775	1.084046457	0.264818752	-0.239964149	0
535	1122673976	0.040737806	-0.08464821	0.598763465	0.795397652	-9.239536811	3.290446527	-1.031249684	2.245627938	2.632739533	-2.367397114	1.081746392	0.266393024	-0.240258408	0
536	1122690643	0.040919567	-0.08419497	0.598514224	0.795623981	-9.244587021	3.308428885	-1.0173933	2.466475	2.703621392	-2.037872238	1.08401221	0.26883637	-0.238291371	0
537	1122707310	0.041054621	-0.08367583	0.598516865	0.795669803	-9.211822509	3.250362424	-1.016697588	2.042128006	2.61761847	-2.036861353	1.081427175	0.263537305	-0.241279783	0
538	1122723977	0.041250038	-0.083213987	0.598405435	0.795791934	-9.221005327	3.307099877	-1.02932166	1.19325491	2.707741277	-2.27184582	1.084157057	0.26469978	-0.238878056	0
539	1122740644	0.041445384	-0.082762904	0.598281323	0.795922132	-9.251317495	3.307431798	-1.03428922	1.098349851	2.718352637	-2.240694924	1.080936699	0.266015709	-0.240549367	0
540	1122757311	0.041602609	-0.082229808	0.598386473	0.795890137	-9.253191975	3.307380739	-1.029536	0.787280472	2.724350866	-2.3474318	1.080234376	0.26259305	-0.239313617	0
541	1122773978	0.041786717	-0.081769313	0.598374482	0.79593695	-9.256738041	3.306489203	-1.058212714	0.511289107	2.666442957	-2.2619209	1.083691488	0.262633498	-0.236658969	0
542	1122790645	0.041906642	-0.081213457	0.598602798	0.79581587	-9.299558819	3.3421717	-1.060042413	0.5931526	2.682584057	-2.225461291	1.080040179	0.264856229	-0.239565436	0
543	1122807312	0.042011192	-0.080740182	0.598605151	0.795856743	-9.271685652	3.317694236	-1.045005046	0.944516655	2.856785841	-1.819486645	1.080730603	0.26011937	-0.23767409	0
544	1122823979	0.042111619	-0.080338734	0.598453734	0.796005922	-9.289681822	3.309865601	-1.040591245	0.994418346	2.928119987	-1.536933032	1.079270756	0.262789903	-0.240012004	0
545	1122840646	0.04217006	-0.080013561	0.59823099	0.796202988	-9.267638131	3.340549024	-1.07179379	1.12603497	2.832750478	-0.990374415	1.08029808	0.263008607	-0.239235702	0
546	1122857313	0.042147567	-0.07961265	0.598231358	0.79624409	-9.280683803	3.336899217	-1.06862913	1.325826654	2.818478305	-0.768952871	1.07849702	0.263440502	-0.23997852	0
547	1122873980	0.042106713	-0.079273716	0.598135504	0.796352072	-9.295359643	3.347536473	-1.077635339	1.395052055	2.811806757	-0.43017027	1.08155997	0.260209229	-0.240888634	0
548	1122890647	0.042096681	-0.079041957	0.597843443	0.796594914	-9.285950288	3.332237407	-1.066599991	1.323938865	2.712802565	-0.223139429	1.081030931	0.261833551	-0.234511572	0
549	1122907314	0.042005503	-0.078705174	0.597895535	0.796593976	-9.262539106	3.302889155	-1.06939475	1.253564711	2.583872889	-0.112842817	1.081525419	0.257361557	-0.239213523	0
550	1122923981	0.042056021	-0.078677824	0.597234664	0.79708961	-9.257221044	3.276745075	-1.075017058	1.410305365	2.418472557	0.192620914	1.078788093	0.259019541	-0.23759918	0
551	1122940648	0.042005984	-0.078505063	0.597006075	0.797280502	-9.279782734	3.248102791	-1.079305128	1.333212084	2.324151615	0.266843986	1.078447897	0.258059486	-0.236105006	0
552	1122957315	0.041923874	-0.078316033	0.596926859	0.797362723	-9.245989435	3.229234225	-1.08033538	1.285839494	2.092180369	0.417175444	1.081417081	0.260489158	-0.234454708	0
553	1122973982	0.041825166	-0.078166035	0.5968865	0.797412837	-9.253784015	3.239047201	-1.069771998	1.17936337	1.849006089	0.673187859	1.080090708	0.258839365	-0.237332833	0
554	1122990649	0.041709661	-0.07800545	0.596928714	0.797403013	-9.249175297	3.227460644	-1.070835023	0.957893501	1.792653317	0.716667347	1.080130353	0.258192628	-0.235619648	0
555	1123007316	0.041614639	-0.077877564	0.596903501	0.797439351	-9.249391522	3.210851211	-1.064079694	0.869530788	1.764958076	0.709918233	1.077960503	0.261170922	-0.23437872	0
556	1123023983	0.041425154	-0.077603496	0.59727303	0.797199211	-9.242994428	3.222948475	-1.069749742	0.626595777	1.832245096	0.719623836	1.081071813	0.258632964	-0.236470314	0
557	1123040650	0.041299481	-0.077414241	0.597384663	0.797140485	-9.268023759	3.246296129	-1.040276917	0.671371217	1.880512033	0.640683527	1.083073936	0.256596253	-0.23595843	0
558	1123057317	0.041193546	-0.077262217	0.597429892	0.797126819	-9.287637196	3.292685909	-1.015938116	0.999906297	1.678602024	0.706724247	1.077966288	0.256674269	-0.234605543	0
559	1123073984	0.041136173	-0.077206793	0.597304738	0.797228936	-9.296079369	3.299799536	-1.015816086	1.22376163	1.383769007	0.814716965	1.080197426	0.256753542	-0.239237268	0
560	1123090651	0.041045865	-0.07721376	0.59723607	0.797284359	-9.316151998	3.308632843	-1.019290067	1.181416349	0.989246324	1.265964609	1.077530143	0.254904659	-0.235452802	0
561	1123107318	0.040879511	-0.077192214	0.59737286	0.797192507	-9.303080085	3.268789478	-1.055725647	1.270445095	0.781500798	1.645162527	1.07848708	0.25515328	-0.237646397	0
562	1123123985	0.040834916	-0.077395172	0.597000016	0.797454374	-9.281325598	3.286732294	-1.064179953	1.275785217	0.602172434	1.746352466	1.075705039	0.254733983	-0.236880132	0
563	1123140652	0.040812939	-0.077658294	0.596551443	0.797765548	-9.270797341	3.261084109	-1.067877438	1.100789189	0.463351174	1.826522194	1.078399746	0.254601139	-0.236004598	0
564	1123157319	0.040720401	-0.077776728	0.596475806	0.797815293	-9.268207698	3.284354253	-1.052245801	1.024477138	0.430325387	1.724869744	1.080292647	0.254913556	-0.234280847	0
565	1123173986	0.040573325	-0.077827145	0.596506349	0.797795034	-9.301667134	3.292445352	-1.058138008	1.330295752	0.60107867	1.816731832	1.07946572	0.256179368	-0.238883363	0
566	1123190653	0.040486748	-0.078055071	0.596096417	0.798083511	-9.29958452	3.294800916	-1.056496524	1.530883022	0.648001132	2.104711905	1.0763194	0.255976717	-0.237624194	0
567	1123207320	0.040340323	-0.078241646	0.595829499	0.798271953	-9.318878729	3.278460325	-1.075084837	1.476537883	0.693679185	2.302920121	1.081951916	0.254747716	-0.234386872	0
568	1123223987	0.040173355	-0.078430819	0.595583042	0.798445708	-9.309130451	3.244830663	-1.104726871	1.512955933	0.685624407	2.442516781	1.078226093	0.25213496	-0.234205804	0
569	1123240654	0.040004815	-0.078599176	0.595393069	0.798579287	-9.294379859	3.227354105	-1.099693613	1.437273217	0.656109072	2.372282959	1.07781615	0.255628467	-0.234248294	0
570	1123257321	0.039861554	-0.078748037	0.595227204	0.798695423	-9.322773297	3.259335038	-1.106246112	1.774863792	0.472523632	2.201597279	1.078725634	0.252707652	-0.234981774	0
571	1123273988	0.039645822	-0.078774323	0.59545978	0.79853019	-9.308947626	3.2500191	-1.083802805	1.771902621	0.207187371	2.215690664	1.076277842	0.254719871	-0.235194543	0
572	1123290655	0.03951328	-0.078989404	0.595165719	0.798734713	-9.295257032	3.332204598	-1.089759707	2.553803817	0.174492825	2.474596851	1.081769581	0.253905137	-0.236700694	0
573	1123307322	0.039399247	-0.079324303	0.594681097	0.799068049	-9.272308422	3.2155208	-1.104026432	2.862131054	-0.103076914	2.848603357	1.07948749	0.252558303	-0.232948434	0
574	1123323989	0.039489595	-0.07969229	0.593967528	0.799557557	-9.289776596	3.266849197	-1.113564924	2.140272844	-0.126500703	1.699217859	1.076878585	0.25430793	-0.233774329	0
575	1123340656	0.039439172	-0.079881042	0.593738956	0.799710962	-9.281299668	3.211223132	-1.163178061	2.498509623	-0.194177506	1.92842067	1.078946754	0.255581054	-0.232796777	0
576	1123357323	0.039293382	-0.080086818	0.593465603	0.799900438	-9.26429527	3.235167721	-1.154373706	3.250659142	-0.040932551	2.61012354	1.07858292	0.254867997	-0.236332857	0
577	1123373990	0.039212128	-0.080375719	0.592998002	0.800222171	-9.286821121	3.175160563	-1.128601364	2.817151255	-0.015511871	2.483101127	1.077584583	0.253326587	-0.235548902	0
578	1123390657	0.039133184	-0.080534368	0.592813316	0.800346913	-9.321409455	3.238222592	-1.137712075	2.156305314	0.064872842	1.93515495	1.079762489	0.25502458	-0.232708748	0
579	1123407324	0.039045358	-0.080653144	0.592787219	0.800358572	-9.311225596	3.244389598	-1.117333033	1.717042594	-0.012024429	1.81717686	1.079160289	0.254179404	-0.23487535	0
580	1123423991	0.039042702	-0.080932168	0.592457867	0.800574373	-9.322890522	3.241660552	-1.117471613	1.50373514	-0.244432524	1.889297382	1.077312722	0.251991595	-0.233068966	0
581	1123440658	0.039090808	-0.081346875	0.591999895	0.800868727	-9.316615575	3.242216082	-1.091091154	1.382584077	-0.785112752	2.119023094	1.078626957	0.252974226	-0.232282454	0
582	1123457325	0.039032309	-0.081642713	0.592018989	0.800827362	-9.28509236	3.224616896	-1.081385078	1.485448476	-1.224931462	2.370268544	1.076427515	0.251736861	-0.234581435	0
583	1123473992	0.039023314	-0.082004325	0.591884508	0.800890255	-9.284318083	3.184066717	-1.115268424	1.66506528	-1.38276421	2.344005948	1.078304702	0.253182504	-0.23201503	0
584	1123490659	0.039146401	-0.08245546	0.591507337	0.80111655	-9.293984389	3.20378497	-1.099091104	1.652104796	-1.648798675	1.914489089	1.078273565	0.252627143	-0.235420602	0
585	1123507326	0.039240166	-0.082800341	0.591341134	0.801199087	-9.3084934	3.227703684	-1.079633557	1.775469045	-1.635513192	1.711437246	1.075275973	0.253097032	-0.234082249	0
586	1123523993	0.039391374	-0.083172146	0.590979555	0.801419914	-9.302780541	3.185089343	-1.065661156	2.244363162	-1.564171874	1.508751174	1.077643656	0.254336537	-0.230604377	0
587	1123540660	0.039425403	-0.083325517	0.591159309	0.801269722	-9.289817209	3.174577571	-1.073212429	2.515054156	-1.647150977	1.446548001	1.075794225	0.253146794	-0.234734872	0
588	1123557327	0.039640652	-0.083716684	0.590703361	0.801554536	-9.327031379	3.189703794	-1.054133554	2.678765991	-1.786377125	1.26545494	1.079626733	0.252937749	-0.231812936	0
589	1123573994	0.039801896	-0.08395284	0.590592981	0.801603182	-9.317884084	3.197897082	-1.038285814	2.864287955	-1.836972832	1.046049239	1.078861687	0.254229054	-0.231950385	0
590	1123590661	0.040036453	-0.084298344	0.590199726	0.801844845	-9.295884922	3.214615449	-1.068541582	3.098369116	-1.947496261	1.046089758	1.07874133	0.251381103	-0.231375618	0
591	1123607328	0.040262754	-0.084649684	0.589848364	0.802055016	-9.325654439	3.179183357	-1.092773544	3.292825893	-2.153012207	1.151232679	1.078888605	0.251189339	-0.23278812	0
592	1123623995	0.04057847	-0.085003154	0.589451409	0.802293517	-9.282782233	3.218006378	-1.038706158	2.818992803	-2.208710657	0.592852903	1.076421376	0.251153596	-0.235740244	0
593	1123640662	0.040962968	-0.085492434	0.588718885	0.802759711	-9.273706601	3.181493464	-1.098780312	2.980718965	-2.265676443	0.704202559	1.079889211	0.253416485	-0.230259758	0
594	1123657329	0.041256575	-0.085778161	0.588442358	0.802916928	-9.260334589	3.231635325	-1.083380912	2.748492005	-2.085157273	0.466701515	1.077989032	0.250788933	-0.229437501	0
595	1123673996	0.041422049	-0.085834737	0.588724587	0.802695442	-9.273908464	3.247180745	-1.088925926	2.234206257	-1.836958133	0.308880539	1.078098925	0.254682624	-0.232572967	0
596	1123690663	0.041654849	-0.085967083	0.588680452	0.802701601	-9.277149079	3.273636504	-1.097878084	1.999614498	-1.425043081	0.139781962	1.080401416	0.254789221	-0.23153595	0
597	1123707330	0.041787357	-0.08604058	0.588772666	0.802619202	-9.319985446	3.289828681	-1.092960363	1.834139301	-1.058585014	0.471499809	1.078686096	0.253449346	-0.230680046	0
598	1123723997	0.041800206	-0.086039963	0.589064492	0.802404444	-9.309886487	3.298920018	-1.050883765	1.837411977	-0.78942388	0.880090987	1.074245979	0.254688202	-0.233754071	0
599	1123740664	0.041837534	-0.086198087	0.588947268	0.802471573	-9.312249074	3.301104635	-1.056960025	2.065907819	-0.59639866	1.326774341	1.078924243	0.254577014	-0.234203876	0
600	1123757331	0.041835532	-0.08639596	0.588772848	0.802578382	-9.303252126	3.268672639	-1.03170399	1.998860393	-0.469100613	1.689232082	1.082201912	0.254396164	-0.232582017	0
601	1123773998	0.041832178	-0.086577291	0.588582693	0.802698483	-9.311332464	3.278572285	-1.018203109	2.001875865	-0.318503884	1.628598925	1.077324622	0.252435163	-0.233544917	0
602	1123790665	0.041833768	-0.086725927	0.58847632	0.802760344	-9.308660604	3.307204093	-1.021715228	2.025665678	-0.424024549	1.485120607	1.077281614	0.254243358	-0.233258873	0
603	1123807332	0.041839403	-0.086865691	0.588443534	0.802768973	-9.268080154	3.281681573	-1.03544544	1.872752409	-0.565415747	1.426324061	1.080472795	0.256409135	-0.231779362	0
604	1123823999	0.041867833	-0.087072715	0.588372545	0.802797094	-9.269284995	3.298085186	-1.008596899	1.812074385	-0.90298601	1.562891427	1.077215345	0.25585243	-0.232208832	0
605	1123840666	0.041867833	-0.087224428	0.588461225	0.802715622	-9.271113819	3.293450053	-1.028214013	1.642303216	-0.915903633	1.507831262	1.078597205	0.256302569	-0.23268774	0
606	1123857333	0.041795236	-0.087270324	0.588792957	0.802471122	-9.262049504	3.288535248	-1.060029969	1.33117194	-0.671460359	1.492902814	1.079131542	0.253371233	-0.232673298	0
607	1123874000	0.041832908	-0.087503467	0.58866072	0.802540783	-9.264996023	3.270501607	-1.069650227	1.126464926	-0.652000084	1.520950422	1.078275561	0.252966419	-0.232550347	0
608	1123890667	0.041806155	-0.087554084	0.588890626	0.802367969	-9.300615495	3.282603945	-1.063584675	1.193250187	-0.51109492	1.215491057	1.07924602	0.254841309	-0.232864849	0
609	1123907334	0.041769275	-0.087597343	0.589232382	0.802114227	-9.275743035	3.308773674	-1.047702468	1.067275073	-0.736930293	1.251391581	1.077696252	0.254832339	-0.234049364	0
610	1123924001	0.041758875	-0.087636064	0.589563996	0.801866829	-9.265215345	3.309885	-1.030941258	0.999408916	-0.759334982	1.072702701	1.078510284	0.252332942	-0.233999726	0
611	1123940668	0.041802161	-0.087732851	0.589674078	0.80177304	-9.273929797	3.299813732	-1.029065965	0.79995239	-0.533578909	0.939713787	1.080068368	0.254659486	-0.236968477	0
612	1123957335	0.041850277	-0.087767908	0.589791997	0.801679954	-9.268652893	3.306555246	-1.0252722	0.78331127	-0.210682381	0.657333729	1.076774527	0.253192888	-0.236125514	0
613	1123974002	0.041903287	-0.08779039	0.589888744	0.801603538	-9.23499524	3.285338145	-1.039960176	0.721690009	-0.069098445	0.564813761	1.079162681	0.252632695	-0.233959462	0
614	1123990669	0.041916195	-0.087699409	0.590199421	0.801384109	-9.24560028	3.304186507	-1.025542218	0.717648448	0.072197845	0.367907979	1.078848364	0.253287377	-0.235303193	0
615	1124007336	0.041869994	-0.087522923	0.590621538	0.801094777	-9.253030398	3.314375775	-1.02272596	0.853024912	0.396594508	0.382142789	1.078703782	0.253117905	-0.235307931	0
616	1124024003	0.041790221	-0.087334383	0.591019372	0.800826064	-9.256922559	3.340165028	-1.041157176	0.748496084	0.717768754	0.501286214	1.078866021	0.253593738	-0.237197859	0
617	1124040670	0.041791543	-0.087303315	0.590987249	0.800853089	-9.256656935	3.320285023	-1.014155363	0.690365168	0.873608348	0.599539892	1.078849006	0.255723696	-0.234993208	0
618	1124057337	0.041709058	-0.087175925	0.591183531	0.800726386	-9.266481816	3.298544771	-1.036530411	0.769238079	1.010845107	0.729473725	1.079798599	0.251049998	-0.237193969	0
619	1124074004	0.041596942	-0.087036856	0.591476505	0.800530964	-9.265426941	3.293068103	-1.037890608	0.767697421	0.883199427	0.860060417	1.08166934	0.252704625	-0.239139434	0
620	1124090671	0.041569764	-0.086985624	0.591546415	0.800486286	-9.254792369	3.286381788	-1.032794253	0.613396572	0.804329386	0.682774547	1.081158063	0.255295977	-0.237250744	0
621	1124107338	0.041514301	-0.086838509	0.591918917	0.800229737	-9.284401136	3.29409808	-1.026118497	0.275362224	0.630389162	0.471168197	1.07866275	0.255094108	-0.241809023	0
622	1124124005	0.041566151	-0.086833064	0.591932169	0.800217834	-9.274548289	3.315496257	-1.023676656	0.267136404	0.527304558	0.376157496	1.079769993	0.253314461	-0.239234834	0
623	1124140672	0.041483134	-0.086756672	0.592234359	0.800006809	-9.292537158	3.350895993	-1.021741284	0.337572423	0.527941977	0.904443251	1.078856007	0.252139174	-0.240108642	0
624	1124157339	0.041317884	-0.086766956	0.592370448	0.799913483	-9.293287504	3.345671741	-0.996676384	0.865135389	0.692758577	1.746154085	1.081392739	0.255948245	-0.23799622	0
625	1124174006	0.041141099	-0.086398328	0.59317222	0.799368161	-9.213651655	3.233178155	-1.034326574	-0.20855133	1.197669508	0.261128398	1.081726248	0.251533125	-0.240881309	0
626	1124190673	0.04106706	-0.086123525	0.593325391	0.799287943	-9.274444692	3.390351853	-1.041854893	1.07012098	1.863903734	0.085605376	1.080744109	0.251770293	-0.239442404	0
627	1124207340	0.04090771	-0.08578826	0.593535006	0.799176532	-9.218895562	3.284284888	-1.011935478	1.772957983	2.120213374	0.405304525	1.078968807	0.249545155	-0.240448728	0
628	1124224007	0.040917424	-0.085486108	0.593462753	0.799262066	-9.234031242	3.272426771	-0.966894221	1.561891422	2.232100823	-0.487461052	1.082229233	0.251120074	-0.240252645	0
629	1124240674	0.040893329	-0.085056845	0.593751606	0.799094549	-9.267975318	3.326011889	-1.009034566	0.882579798	2.194650678	-0.824897253	1.07944364	0.254031757	-0.243128805	0
630	1124257341	0.040859964	-0.084614723	0.59418317	0.798822366	-9.276036201	3.35015384	-0.989019948	0.487823498	1.986992932	-0.843665101	1.079604648	0.252700616	-0.242471337	0
631	1124274008	0.040809188	-0.084167995	0.594741962	0.798456234	-9.275996313	3.322901572	-1.01354491	0.188541911	1.780848906	-0.775008778	1.080044384	0.250828935	-0.242007857	0
632	1124290675	0.040878608	-0.083796462	0.595065612	0.798250594	-9.289706423	3.320751684	-0.976070007	0.266419635	1.592488643	-1.17630138	1.079412511	0.253017992	-0.243730345	0
633	1124307342	0.040940971	-0.083437809	0.595470953	0.797982652	-9.283193674	3.333888625	-0.98056051	0.426814342	1.227420132	-1.046562763	1.079728156	0.251792387	-0.243248957	0
634	1124324009	0.040924824	-0.083002551	0.596127259	0.79753873	-9.243051483	3.305567539	-1.001073289	0.589683869	1.118523125	-0.852208947	1.081321893	0.248495069	-0.243231022	0
635	1124340676	0.041074465	-0.082771434	0.596185259	0.797511702	-9.2434916	3.281016619	-1.004431505	1.039238291	1.031358791	-1.014511252	1.080023777	0.249970362	-0.243072887	0
636	1124357343	0.041155786	-0.082380891	0.59655129	0.797274199	-9.242807201	3.300356869	-0.995986883	1.416279354	1.104848625	-1.178086556	1.079986552	0.250257663	-0.24632628	0
637	1124374010	0.041266367	-0.082028685	0.59675117	0.797155207	-9.266767262	3.309371048	-0.981564446	1.881466966	1.129379352	-1.170156956	1.079140716	0.248732127	-0.24726697	0
638	1124390677	0.041425402	-0.081767608	0.596601323	0.797285931	-9.281456166	3.325189071	-0.957584394	2.800262114	1.196045999	-1.037140152	1.07971676	0.249919287	-0.245017605	0
639	1124407344	0.041483915	-0.081396464	0.596799337	0.797172661	-9.293083288	3.335475415	-0.938705139	3.091904254	1.021953387	-0.814862901	1.076451574	0.248690037	-0.246658843	0
640	1124424011	0.041567436	-0.081039662	0.597011005	0.79704616	-9.250196736	3.329584216	-0.93317547	3.092922733	0.794254465	-0.895184331	1.081168505	0.248816408	-0.247230728	0
641	1124440678	0.041779899	-0.08080222	0.596966432	0.797092542	-9.208469158	3.32852012	-0.992978315	3.117199668	0.396530963	-1.170659136	1.080512999	0.249954934	-0.247448584	0
642	1124457345	0.042020671	-0.080475595	0.596889694	0.797170393	-9.260040614	3.22214201	-1.013994083	3.223490914	0.865529178	-1.69296876	1.079252059	0.246315188	-0.247712879	0
643	1124474012	0.042276996	-0.080156493	0.596593193	0.797410907	-9.275219133	3.318593511	-1.050860055	4.05522631	1.160693591	-1.705517615	1.078606979	0.248572009	-0.248056696	0
644	1124490679	0.042471681	-0.079604117	0.596724498	0.797357645	-9.25195198	3.331733131	-1.075087488	4.508000236	1.225838157	-2.17588946	1.078828392	0.245530273	-0.246519235	0
645	1124507346	0.042756468	-0.07908879	0.596716542	0.797399659	-9.263033051	3.300301651	-1.07938114	4.244281316	1.189192971	-2.585088794	1.080781011	0.250279946	-0.248292872	0
646	1124524013	0.043177506	-0.078661272	0.596505719	0.797576977	-9.237016807	3.329879936	-1.109608355	4.04547546	0.851505559	-3.046319875	1.080265642	0.245309982	-0.249124571	0
647	1124540680	0.043684832	-0.078233557	0.596315141	0.797733915	-9.210190318	3.299530366	-1.112387127	4.01899561	0.442607937	-3.527328695	1.081554718	0.247582197	-0.246805953	0
648	1124557347	0.044108666	-0.077693363	0.596441698	0.797668771	-9.253435697	3.271763167	-1.118165683	3.816559593	0.498283755	-3.471442143	1.078407924	0.245168101	-0.247578077	0
649	1124574014	0.044500995	-0.077205006	0.596491035	0.797657504	-9.290999928	3.340260165	-1.189030199	3.314395976	0.746166833	-3.164652626	1.077363352	0.247152369	-0.248173738	0
650	1124590681	0.044886868	-0.076803516	0.596425223	0.797723851	-9.293223433	3.354483736	-1.155689725	2.531911793	0.909221228	-2.887717667	1.07940853	0.244274221	-0.251368929	0
651	1124607348	0.045237788	-0.076406076	0.596447269	0.797725711	-9.307552928	3.370278519	-1.113896469	1.988875456	0.93786726	-2.726782803	1.079474184	0.248196247	-0.251391704	0
652	1124624015	0.045486769	-0.075862721	0.596979998	0.797364837	-9.276694567	3.335618243	-1.088291002	1.392468471	0.796574615	-2.70754433	1.077810304	0.245868544	-0.251805881	0
653	1124640682	0.045792977	-0.075483471	0.597137257	0.797265543	-9.247330036	3.291958103	-1.057327634	0.834895969	0.998432921	-2.506550177	1.07624219	0.246962052	-0.252289082	0
654	1124657349	0.046066377	-0.074979528	0.597449714	0.797063234	-9.249675735	3.281452574	-1.040542209	0.295375556	1.557296741	-2.867141314	1.079608079	0.24592673	-0.251537737	0
655	1124674016	0.046303183	-0.074352219	0.597887738	0.796779779	-9.235342254	3.332720454	-1.061533418	-0.05435099	2.146154675	-3.18814477	1.079299	0.245872164	-0.251653249	0
656	1124690683	0.046523378	-0.073767851	0.598208879	0.796580201	-9.280890294	3.336528669	-1.05560354	-0.591071715	2.525045054	-3.010976601	1.076817506	0.24556303	-0.250602206	0
657	1124707350	0.046612294	-0.073007189	0.599027278	0.796029877	-9.298240504	3.281957584	-1.040327465	-1.030913406	2.668318343	-2.943974506	1.077834311	0.24466183	-0.255167979	0
658	1124724017	0.04677504	-0.072363882	0.599457632	0.795755057	-9.264850341	3.300576934	-1.006458466	-1.134286213	2.937909259	-2.984565548	1.07937888	0.24441018	-0.25207966	0
659	1124740684	0.046841441	-0.07154893	0.600206315	0.795260341	-9.255350008	3.318634154	-0.988617232	-0.869826371	3.227384123	-3.049566354	1.077934882	0.242227986	-0.252624686	0
660	1124757351	0.046968306	-0.070821813	0.600666729	0.794970269	-9.27314585	3.300993731	-0.978136796	-0.432036522	3.218480608	-3.046007515	1.077435422	0.242959222	-0.253904927	0
661	1124774018	0.047107984	-0.070159368	0.600976292	0.794786763	-9.280426499	3.292473964	-0.938237407	0.096197446	3.076014018	-2.82912799	1.078484306	0.242248513	-0.255183337	0
662	1124790685	0.047286418	-0.069583834	0.601101796	0.794731851	-9.297627409	3.251754803	-0.945973565	0.905082764	2.7003809	-2.63746877	1.077413345	0.242626881	-0.255230943	0
663	1124807352	0.047480518	-0.069078663	0.601190678	0.794697117	-9.320525702	3.244560478	-0.906857637	1.648175239	2.080292682	-2.353249365	1.079233057	0.240880107	-0.252959532	0
664	1124824019	0.047696747	-0.06860908	0.601339261	0.794612426	-9.299520443	3.31813345	-0.954519889	1.912944139	1.503421124	-2.274287662	1.079696527	0.241707892	-0.255772917	0
665	1124840686	0.047934267	-0.068341981	0.601205497	0.79472236	-9.288515119	3.3435257	-0.988514073	2.067280671	1.074830827	-1.610583817	1.077456043	0.242682006	-0.256536841	0
666	1124857353	0.048098073	-0.068053555	0.601300464	0.794665364	-9.260469185	3.345871194	-1.021447844	1.973964423	0.81596347	-1.239922723	1.077077883	0.239178315	-0.256965642	0
667	1124874020	0.048334535	-0.067868387	0.601172955	0.794763319	-9.268451037	3.298312305	-1.073405429	2.077605691	0.578487388	-1.264289313	1.078863931	0.245003981	-0.256591593	0
668	1124890687	0.04848961	-0.067576256	0.601359417	0.794637691	-9.241187766	3.336206548	-1.075613859	1.787289904	0.655822479	-1.20133748	1.078922157	0.24059532	-0.25674585	0
669	1124907354	0.048663635	-0.067292873	0.601501638	0.794543454	-9.226941393	3.323748793	-1.067013927	1.206977359	0.872434485	-1.353112736	1.079905065	0.243786306	-0.256565769	0
670	1124924021	0.048783571	-0.066942716	0.601859138	0.794294916	-9.238642383	3.34442902	-1.047646375	0.905908802	0.91827348	-1.305444876	1.079565107	0.241191003	-0.257747228	0
671	1124940688	0.048902013	-0.066654936	0.602041874	0.794173341	-9.278468209	3.36631512	-1.02022184	1.475023195	0.900803012	-1.023907236	1.077407921	0.2414079	-0.258285152	0
672	1124957355	0.048979294	-0.06653546	0.601969912	0.794233144	-9.299927086	3.371748823	-1.022147722	2.302074303	0.595898226	-0.072054895	1.07834032	0.240376259	-0.260736677	0
673	1124974022	0.04916212	-0.066418494	0.601910048	0.794277007	-9.278574475	3.296269824	-1.01621139	1.29893043	0.467878866	-0.760672038	1.077946269	0.240890923	-0.25764964	0
674	1124990689	0.049279379	-0.066212756	0.602009123	0.794211829	-9.295745821	3.327448251	-1.047568526	1.564210482	0.662338341	-0.688310374	1.080841692	0.243467883	-0.258596784	0
675	1125007356	0.049301762	-0.065994132	0.602193973	0.79408849	-9.213691808	3.281031023	-1.047161643	1.489746914	0.886479878	-0.202390804	1.078752544	0.241800348	-0.256906142	0
676	1125024023	0.049420186	-0.065676661	0.60234771	0.793990843	-9.229111813	3.233837346	-1.006683789	1.527622027	1.143700238	-1.151260103	1.078437678	0.241268793	-0.258150473	0
677	1125040690	0.049576796	-0.065313363	0.602572896	0.793840167	-9.239365303	3.30006495	-1.007705337	1.528876429	1.024819846	-1.533672236	1.07868614	0.238370849	-0.259734929	0
