sep=															
DeviceTag:	Xsens_5														
FirmwareVersion:	2.2.1														
AppVersion:	2023.0.0														
StartTime:	2023-07-17 14:57:19.000 +0200														
© Movella Technologies B. V. 2005-2023															
PacketCounter	SampleTimeFine	Quat_W	Quat_X	Quat_Y	Quat_Z	Acc_X	Acc_Y	Acc_Z	Gyr_X	Gyr_Y	Gyr_Z	Mag_X	Mag_Y	Mag_Z	Status
0	1113885764	2.94E-17	1.85E-16	-0.707106781	-0.707106781	0	0	0	0	0	0	0.728515625	0.5625	-0.986816406	0
1	1113902431	0.00178348	0.001486521	-0.70540182	-0.708803839	-7.830868976	3.314184573	5.717472925	6.624906277	-3.743267764	5.402249798	0.724757696	0.568885759	-0.983183156	0
2	1113919098	0.003125285	0.004601048	-0.703712704	-0.710462872	-7.756308118	3.223099242	5.511436462	10.46608265	-1.601549194	7.016070301	0.719766586	0.572441486	-0.978950967	0
3	1113935765	0.004465019	0.007204245	-0.702206779	-0.71192261	-7.607740787	3.032493296	5.05991307	10.13289523	-0.862515487	7.072368284	0.722276218	0.577752807	-0.980150131	0
4	1113952432	0.005794028	0.00830289	-0.701302858	-0.71279155	-7.517289343	2.813095812	5.057387352	5.326581036	-1.520530175	3.93858212	0.715369115	0.580387948	-0.978742191	0
5	1113969099	0.006357545	0.008493697	-0.701701287	-0.712392267	-7.641047475	2.873986021	5.210796972	-5.353603273	-2.177860985	1.275993329	0.714350033	0.57513337	-0.978128223	0
6	1113985766	0.006771005	0.008427534	-0.702471594	-0.711629672	-7.655678906	3.127851174	5.497545642	-8.124744244	-1.059710979	1.822884964	0.712797389	0.579925045	-0.979026503	0
7	1114002433	0.007293166	0.008573649	-0.702958089	-0.711142199	-7.711829369	3.25720452	5.530905544	-5.125581599	0.90552975	2.348007366	0.713492221	0.577553659	-0.978500127	0
8	1114019100	0.008001051	0.008680467	-0.703175444	-0.710918369	-7.734940043	3.217684527	5.343368501	-2.945856141	3.200008497	1.987908881	0.712413541	0.581193257	-0.980157121	0
9	1114035767	0.008754186	0.00837263	-0.703429242	-0.710662061	-7.755934489	3.152014726	5.181709582	-3.739126818	5.029983312	-0.018527109	0.710191525	0.576975039	-0.978755913	0
10	1114052434	0.009502567	0.00770592	-0.703956646	-0.710137565	-7.861585142	3.104033398	5.03090927	-7.009099089	5.926351104	-1.265509714	0.707583827	0.579955803	-0.980016754	0
11	1114069101	0.010359924	0.006819322	-0.704581662	-0.709514517	-7.805698111	3.18607175	5.239417727	-8.319559042	6.32096077	-1.1746214	0.705233313	0.57718613	-0.981081102	0
12	1114085768	0.011336975	0.00596567	-0.705424767	-0.708669022	-7.805119048	3.19669401	5.532189744	-10.8815666	6.861141946	-0.069557554	0.70515144	0.581587143	-0.981824063	0
13	1114102435	0.012862143	0.005545657	-0.706283104	-0.707790921	-7.468995951	3.314825076	5.636453594	-10.58745329	8.05292181	4.593242796	0.702347297	0.580264239	-0.980058593	0
14	1114119102	0.014461113	0.005566032	-0.70728236	-0.706761317	-6.99409684	3.515790677	5.598699523	-11.94646772	7.491465907	6.691534577	0.699359042	0.578573527	-0.98327363	0
15	1114135769	0.015745117	0.006054215	-0.708629056	-0.705379542	-6.776844291	3.676070112	5.566884381	-15.87946056	5.141098209	6.761769206	0.697862785	0.577079729	-0.981871894	0
16	1114152436	0.016629718	0.00682434	-0.710278675	-0.703691043	-6.608328978	3.962333378	5.694944992	-19.14347162	2.910449488	5.236660126	0.695866303	0.576301943	-0.982951552	0
17	1114169103	0.01694	0.007822989	-0.71196833	-0.701963627	-6.682902043	4.001109216	5.864845655	-20.00644843	0.15372997	2.525940947	0.697580832	0.573024325	-0.97988094	0
18	1114185770	0.016994996	0.009111904	-0.714027194	-0.699852349	-6.975734311	4.187102206	6.115783596	-23.54739272	-1.763958538	1.76634052	0.699322413	0.572557404	-0.983742693	0
19	1114202437	0.01692949	0.010610975	-0.715579904	-0.698245087	-6.978210618	4.355160969	6.308412885	-18.89659562	-2.539308516	1.700269339	0.697956501	0.575991088	-0.981878707	0
20	1114219104	0.017025789	0.012042222	-0.716199841	-0.697583611	-7.182958652	4.169939196	6.080748052	-9.708954222	-0.665733271	1.40954316	0.697395032	0.573985758	-0.983226238	0
21	1114235771	0.017201294	0.013419911	-0.716907178	-0.696827181	-7.43033064	3.866105901	5.470678472	-10.81276507	0.127571887	1.504101198	0.700588281	0.577134364	-0.981600478	0
22	1114252438	0.017236278	0.014856243	-0.717975476	-0.695696355	-7.6606276	3.860159129	5.513806378	-13.99553375	-1.685695061	1.1163836	0.700376222	0.575599929	-0.980970097	0
23	1114269105	0.01727222	0.016609901	-0.71853907	-0.695073656	-7.82562732	3.878507231	6.02125141	-9.018145124	-3.668636668	3.004749807	0.701574896	0.579762855	-0.979600013	0
24	1114285772	0.017487266	0.018784474	-0.717948294	-0.695623164	-7.909821934	3.720018815	6.083827602	2.745748131	-4.840865445	6.066741079	0.70179966	0.577358196	-0.978985803	0
25	1114302439	0.018243059	0.021543043	-0.716982181	-0.696519663	-8.017470633	3.515269589	5.543830088	6.446699409	-5.062626816	11.95407141	0.701180114	0.58078105	-0.976434867	0
26	1114319106	0.019967703	0.024426313	-0.71576047	-0.697632852	-7.786419247	3.180157466	5.012303419	8.939883712	-1.427918704	17.56537675	0.699628939	0.58295238	-0.976741888	0
27	1114335773	0.021820114	0.027057343	-0.715058701	-0.698199711	-7.621612805	3.313178052	5.47732638	3.775917186	-0.3791408	17.50088072	0.697559222	0.585793124	-0.974437527	0
28	1114352440	0.023665457	0.030176442	-0.713670695	-0.699430816	-7.630586657	3.760273998	6.031619111	10.70549251	-2.828798832	20.16651235	0.695395167	0.585293464	-0.972164551	0
29	1114369107	0.025362142	0.033581563	-0.710386708	-0.702552323	-7.480260814	3.842836247	6.58267092	29.27282303	-4.183827069	21.05027836	0.697519963	0.589937209	-0.970358941	0
30	1114385774	0.02721281	0.036827629	-0.70464694	-0.708079006	-7.355907442	3.629704841	6.322392878	53.27281711	-1.485004561	20.99013892	0.694961506	0.596538528	-0.965825489	0
31	1114402441	0.028811172	0.039510094	-0.698094552	-0.714333861	-7.309326279	3.22757482	5.440373225	61.06551403	0.4638609	17.05416926	0.691677446	0.601427409	-0.961063272	0
32	1114419108	0.029570206	0.041270776	-0.69251687	-0.719612889	-7.366615692	3.305271837	5.488886657	51.95703177	0.220903788	8.518577301	0.696535345	0.604837058	-0.957741012	0
33	1114435775	0.030059263	0.043083649	-0.685207015	-0.726451365	-7.735613183	2.829162328	5.585666004	68.42086458	-0.801752038	7.598456172	0.692110476	0.61353029	-0.950929456	0
34	1114452442	0.030330146	0.044789702	-0.677776442	-0.733275569	-7.776118451	2.023466249	5.28878665	69.46498494	-1.586816634	6.230071091	0.693738702	0.620333171	-0.946013972	0
35	1114469109	0.030170472	0.045877504	-0.671492123	-0.73897451	-7.82158755	2.134726027	5.008113854	59.09361722	-1.481810711	1.407854329	0.692079	0.626419886	-0.940909094	0
36	1114485776	0.029403705	0.046293939	-0.666087606	-0.743854552	-8.173482446	2.263625649	4.833070824	51.05992598	-1.638384892	-4.363668032	0.693417575	0.631909191	-0.937080345	0
37	1114502443	0.02850296	0.046123387	-0.660783783	-0.748615393	-8.63670442	2.44736067	4.850062844	50.18010885	0.233556932	-7.396596517	0.693584034	0.63842099	-0.934974603	0
38	1114519110	0.027806964	0.045280109	-0.655362737	-0.753442876	-8.590850932	2.339606656	4.909276382	50.99187106	4.222860915	-9.006957658	0.693390693	0.636782253	-0.930799814	0
39	1114535777	0.027281341	0.043822225	-0.649861873	-0.75829736	-8.531568814	2.164484191	4.666910996	51.51397839	7.811277027	-10.55782092	0.6931205	0.642501204	-0.926633353	0
40	1114552444	0.026785461	0.041833344	-0.644170467	-0.763267266	-8.528944357	2.020718584	4.256874215	52.99954435	10.41799848	-12.38527772	0.69264197	0.6485324	-0.921999584	0
41	1114569111	0.02622851	0.039113462	-0.638370121	-0.768287571	-8.341681828	1.963150545	4.037648913	53.73927447	13.60054212	-15.57644196	0.690539952	0.652954825	-0.919662186	0
42	1114585778	0.025354905	0.035780385	-0.632724578	-0.773134206	-8.285961607	1.864752388	3.678210323	52.17280215	14.99156565	-19.64342931	0.690198602	0.655329119	-0.913435903	0
43	1114602445	0.024129466	0.031813717	-0.627735613	-0.777401863	-8.215826904	1.774677548	3.476224103	46.12953291	16.17395215	-24.02124228	0.690705058	0.660195422	-0.911408949	0
44	1114619112	0.022496771	0.026937855	-0.623697178	-0.780877761	-8.258764637	1.889785001	3.483097723	37.58742339	18.55240647	-29.92839835	0.690608565	0.660902672	-0.903466057	0
45	1114635779	0.020079609	0.020874824	-0.620826143	-0.783413015	-8.442415327	2.051379304	3.625456073	25.75139733	21.44710864	-38.0225257	0.692818607	0.666807725	-0.90253671	0
46	1114652446	0.017505936	0.013633677	-0.61926826	-0.784865904	-8.771401144	2.352029044	4.114838816	15.32007756	25.91332602	-44.74136165	0.694924186	0.667829667	-0.9005483	0
47	1114669113	0.014827981	0.005147495	-0.617853364	-0.786136664	-8.952676894	2.543400372	4.401508698	13.61923841	31.91948944	-50.45718083	0.696509572	0.673205812	-0.899181332	0
48	1114685780	0.012129799	-0.004344303	-0.616221029	-0.787467865	-8.970583266	2.535295565	4.385778143	14.86222007	37.13697492	-54.681971	0.697055414	0.671577341	-0.896141618	0
49	1114702447	0.009377232	-0.014581117	-0.614471805	-0.788748287	-8.884102992	2.509329617	4.263913984	15.24116818	40.76468951	-58.06424556	0.699621134	0.676149707	-0.896169882	0
50	1114719114	0.00667474	-0.025190052	-0.612657015	-0.789919167	-8.716791795	2.424389625	4.140398855	15.07296146	42.85588621	-59.2593304	0.701254787	0.678577288	-0.890776189	0
51	1114735781	0.003966904	-0.035913986	-0.610620566	-0.791098587	-8.607020143	2.391739099	4.135078066	16.24136929	43.33572356	-59.69754192	0.703492955	0.681669806	-0.886627836	0
52	1114752448	0.001288275	-0.046615424	-0.608319954	-0.792320753	-8.572244875	2.41579028	4.265543432	17.81260579	43.22437052	-59.40949435	0.703588077	0.683611515	-0.882644825	0
53	1114769115	0.001489908	0.057191165	0.605689452	0.793641757	-8.589539228	2.5084722	4.28613212	19.93138849	42.02430394	-59.43767566	0.706467447	0.685996082	-0.879612611	0
54	1114785782	0.004444239	0.067712545	0.602818624	0.794987401	-8.60055796	2.547748262	4.449728265	21.2380495	40.90866115	-60.21137181	0.711490008	0.690476753	-0.876886797	0
55	1114802449	0.007689649	0.077981906	0.599463378	0.796557186	-8.495671808	2.795028471	4.749425341	23.59541563	38.58045739	-60.18807998	0.711713573	0.690948905	-0.872199016	0
56	1114819116	0.011276527	0.087867151	0.595375514	0.798548809	-8.410993707	3.134804629	4.887302078	29.13105123	34.79943012	-60.86088412	0.714692145	0.695165107	-0.867186863	0
57	1114835783	0.015209096	0.097486637	0.590704979	0.800832483	-8.278085758	3.280582968	4.721353204	33.26037087	31.72524447	-62.06025847	0.71979427	0.700681209	-0.863282592	0
58	1114852450	0.019462912	0.106950468	0.585935724	0.803033075	-8.093237661	3.456966182	4.574034852	33.18121229	29.62202583	-63.35094455	0.724972718	0.706336583	-0.856738179	0
59	1114869117	0.023949281	0.11662643	0.580899809	0.805220541	-7.797563597	3.569690605	4.783656451	34.38509878	29.8411703	-65.79015542	0.73019274	0.707838444	-0.852367232	0
60	1114885784	0.029120615	0.126619783	0.575012023	0.807762709	-7.466310211	3.691237234	5.001536608	39.95255596	28.49481267	-71.59860262	0.73253184	0.711506133	-0.843913065	0
61	1114902451	0.035329865	0.136615335	0.567911974	0.810903225	-7.26208297	3.69023586	5.271205417	48.08028399	23.74402122	-78.45138365	0.741023652	0.71670145	-0.836118495	0
62	1114919118	0.042570661	0.146819519	0.559654741	0.814504966	-7.21780932	3.806478983	5.307489544	55.36373353	20.30818212	-86.13501852	0.749583358	0.720102963	-0.831726404	0
63	1114935785	0.05034806	0.157078647	0.550634921	0.818286353	-7.348905053	4.025326612	4.82487208	59.74694335	18.28737676	-90.21389194	0.758948355	0.726483214	-0.819097243	0
64	1114952452	0.058042307	0.167292064	0.541580555	0.82178766	-7.520581297	4.325743436	4.328507915	58.86881945	18.70893227	-89.85831172	0.768820647	0.730517412	-0.815044686	0
65	1114969119	0.065606724	0.177601565	0.532431114	0.825027606	-7.388351688	4.512899632	4.290709412	58.49603704	20.00732618	-89.8619513	0.779709825	0.734591181	-0.80732285	0
66	1114985786	0.073449751	0.188222645	0.523424051	0.827770882	-7.377159751	4.51219388	4.925229095	55.53615198	21.44071772	-92.81132534	0.792124733	0.741274222	-0.799689663	0
67	1115002453	0.081214274	0.198421374	0.514266588	0.830399348	-7.709046426	4.037050626	5.14696373	55.76629669	19.46904689	-91.26387437	0.799660167	0.741502417	-0.794141019	0
68	1115019120	0.088482079	0.207633132	0.505146623	0.832998376	-7.848012782	3.822077166	5.133621699	55.52185307	15.72039216	-85.00396279	0.809417246	0.748280904	-0.782460819	0
69	1115035787	0.095303023	0.215717647	0.495832375	0.835783157	-7.820798508	3.819604041	5.129669155	57.19252991	10.48879108	-78.76668727	0.81760682	0.750680503	-0.777334785	0
70	1115052454	0.101746753	0.222759991	0.486194137	0.838833026	-7.916713597	3.665764046	5.061722884	59.79842109	5.236618971	-73.42457061	0.828085735	0.751965977	-0.771154203	0
71	1115069121	0.107528158	0.228565535	0.4765908	0.842055046	-7.972724867	3.339320602	4.697156053	60.29313294	0.120403882	-65.34685086	0.835877703	0.754451468	-0.759823713	0
72	1115085788	0.112420165	0.233410139	0.468137129	0.844824859	-7.780268927	3.208559938	4.349891452	52.82199098	-0.965212624	-55.5929565	0.841640419	0.760237542	-0.756089614	0
73	1115102455	0.117026111	0.237829222	0.460275432	0.847283115	-7.345503322	3.362234929	4.570240674	48.48433163	-1.570482692	-51.86709581	0.849426	0.762504765	-0.748058984	0
74	1115119122	0.122142517	0.241719844	0.451186374	0.850343212	-7.135682704	3.652592315	5.371544942	56.25023687	-8.201903342	-54.73716496	0.857832564	0.765011458	-0.740153937	0
75	1115135789	0.127664977	0.244908019	0.440354821	0.854288796	-7.110452164	3.748411247	5.506525652	67.90441306	-16.38915077	-57.15962953	0.867050121	0.769977119	-0.729645329	0
76	1115152456	0.132976465	0.247779882	0.42923407	0.85830094	-7.118525098	3.881742956	5.142604375	69.86646923	-17.85449439	-55.46948203	0.873957918	0.770766796	-0.72149175	0
77	1115169123	0.137976997	0.250624029	0.418763192	0.861851109	-7.147916261	4.019389486	5.314705355	65.13635204	-15.63073971	-52.95014192	0.882944958	0.773478944	-0.712873502	0
78	1115185790	0.142707923	0.253214556	0.408572648	0.8652082	-7.514944771	3.793116084	6.005600352	63.10861925	-15.6633428	-50.41114838	0.890686787	0.776302194	-0.704073945	0
79	1115202457	0.147226587	0.255258067	0.397968337	0.86878585	-7.815452986	3.448358557	6.112768189	66.02261218	-18.9870048	-48.17492468	0.899250799	0.778130671	-0.694407564	0
80	1115219124	0.151649482	0.256763338	0.386761042	0.87263447	-8.008654792	3.277268476	5.854113328	70.01126346	-22.91587505	-46.93749141	0.907188194	0.777899937	-0.684239745	0
81	1115235791	0.155735128	0.258076084	0.376300929	0.876094125	-8.178867576	3.342426505	5.547002895	64.91001755	-21.63260732	-43.49087311	0.913793589	0.780546453	-0.678239277	0
82	1115252458	0.159024538	0.259174498	0.367261189	0.879010236	-8.253820435	3.352898411	5.307559624	56.13792043	-18.33816952	-36.20361667	0.91732876	0.779783839	-0.668967343	0
83	1115269125	0.16156574	0.259927419	0.35950218	0.881528463	-7.953888451	3.098175638	5.476451957	48.34718478	-16.409962	-28.96334223	0.92214979	0.78360409	-0.664096815	0
84	1115285792	0.1639183	0.260400517	0.352006519	0.883976115	-7.558173633	2.809052353	5.799031002	46.61901267	-17.1772236	-26.7302291	0.928826995	0.783227221	-0.656576343	0
85	1115302459	0.166295254	0.260818182	0.344436308	0.886387835	-7.472238489	2.908607085	5.489146658	46.91948269	-17.51039597	-26.90180753	0.932557781	0.786977442	-0.651136236	0
86	1115319126	0.168371335	0.261845632	0.338114126	0.888125439	-7.588244553	2.954671914	5.679197513	38.97780765	-10.38513208	-25.03630533	0.938399237	0.785124122	-0.643293929	0
87	1115335793	0.17023812	0.263194241	0.332208753	0.88959829	-7.766147994	3.059889761	6.462820141	36.59235776	-6.910907283	-24.05393146	0.941366758	0.785593834	-0.642153609	0
88	1115352460	0.171811306	0.264767213	0.326608722	0.890901757	-8.106885549	3.163101944	6.563065785	35.17521574	-4.098575052	-22.40964358	0.943533559	0.789184276	-0.638264537	0
89	1115369127	0.17307485	0.266466836	0.321283283	0.89208608	-8.341771335	3.083623234	6.335793901	33.97900184	-1.992356788	-20.43053252	0.948755546	0.787236814	-0.632390087	0
90	1115385794	0.173902081	0.268145279	0.316627893	0.893086196	-8.332338711	2.846832034	6.450597407	30.27132013	0.037260302	-16.68070868	0.953040406	0.792645887	-0.62923149	0
91	1115402461	0.174718465	0.269441428	0.311275739	0.894417234	-7.885306786	2.524486173	6.605962787	34.88013655	-3.663392841	-16.6396973	0.957611704	0.789662049	-0.627381433	0
92	1115419128	0.175788316	0.270507258	0.305330042	0.895934069	-7.491641494	2.354907045	6.403337283	38.24877812	-6.586870888	-18.54230078	0.961260727	0.790540342	-0.623070619	0
93	1115435795	0.176609192	0.271636633	0.300020467	0.897223747	-7.141805499	2.591443431	6.047851366	34.46113749	-4.38843852	-16.19343393	0.963214321	0.793983536	-0.616169321	0
94	1115452462	0.177084379	0.272938754	0.295554021	0.898216778	-6.960557844	2.69411174	6.260366414	29.54909488	-0.9485902	-13.18480931	0.966187644	0.793750403	-0.613544541	0
95	1115469129	0.177309113	0.274231986	0.291651427	0.899053803	-7.286424066	2.686187171	6.766420696	26.25670043	0.586885313	-10.74588871	0.973460613	0.796971017	-0.609020115	0
96	1115485796	0.177313777	0.275945175	0.288571469	0.899522424	-7.670649551	3.086734207	6.997202334	21.41998838	5.434129126	-9.108319562	0.97541609	0.794386831	-0.611136899	0
97	1115502463	0.177260578	0.278378932	0.286142612	0.899558927	-8.302090077	3.356757814	7.505659071	17.5705568	11.72718738	-9.470052627	0.977884428	0.799240191	-0.608010686	0
98	1115519130	0.17720254	0.2813039	0.283685134	0.899438781	-8.825550725	3.261943299	8.240314759	18.09383508	15.14710656	-10.64949631	0.981781281	0.798243355	-0.60671429	0
99	1115535797	0.177161619	0.283798826	0.279975417	0.899825401	-8.441968716	2.975745813	8.35750159	26.33783026	10.07275528	-11.70250175	0.986418353	0.800168612	-0.603852846	0
100	1115552464	0.177264367	0.285904095	0.275409323	0.900547554	-7.626052223	2.492861477	7.44696346	31.61263895	5.828806928	-13.07545811	0.990813201	0.798574625	-0.60001718	0
101	1115569131	0.177373503	0.288139795	0.271475544	0.90100784	-6.581412029	2.134006272	6.583738812	27.42740484	8.025195956	-12.40208925	0.992996583	0.80119427	-0.594766308	0
102	1115585798	0.177932739	0.290519035	0.267418858	0.901346651	-5.901373337	1.666736686	6.520845885	27.31959393	8.270400225	-15.8171071	0.996508479	0.801007739	-0.593006869	0
103	1115602465	0.179440008	0.292290906	0.261557826	0.902194443	-5.681868756	1.4521991	6.732935573	36.89282999	-0.335718842	-23.51322669	1.004240642	0.802345595	-0.589564596	0
104	1115619132	0.1816822	0.293446058	0.254293234	0.9034467	-5.915576304	1.719503876	6.112983066	44.19631952	-7.886364913	-29.23365675	1.007852634	0.80235139	-0.581972217	0
105	1115635799	0.183986677	0.294584784	0.247680621	0.904446249	-6.283770022	2.09312721	5.850860532	39.63485211	-6.67767613	-28.55416963	1.014262616	0.801750626	-0.576481131	0
106	1115652466	0.186217988	0.295754327	0.241936544	0.905162387	-6.68609774	2.070276951	6.134597684	33.99103179	-4.622046648	-26.7282878	1.020806921	0.802369649	-0.57099795	0
107	1115669133	0.188361284	0.296491641	0.236982409	0.905788094	-7.046649973	2.160084279	6.285118709	28.60758262	-5.908737217	-23.93730777	1.0284138	0.800994423	-0.566799181	0
108	1115685800	0.190165075	0.297350499	0.233315754	0.9060815	-7.055391528	2.388744123	6.333697339	20.95457821	-2.200310923	-19.79188878	1.029486759	0.799719137	-0.565292847	0
109	1115702467	0.191885926	0.298669065	0.230156856	0.906092933	-6.928079957	2.563592255	6.830721043	18.15875603	2.093297035	-19.31989244	1.034660667	0.800061979	-0.561288189	0
110	1115719134	0.193930136	0.299974777	0.22594295	0.906286941	-6.895262016	2.532962418	7.541793605	24.3954207	-0.179289517	-23.22468781	1.040055503	0.802022828	-0.557291314	0
111	1115735801	0.1964743	0.301281574	0.22026607	0.906702885	-6.81369267	2.782817496	7.377890834	32.9047621	-3.236976882	-29.04537077	1.0457372	0.799980924	-0.556632163	0
112	1115752468	0.199267662	0.30267737	0.213665953	0.907207622	-6.7254609	2.859686275	7.222103363	38.46170202	-4.374564743	-32.52321455	1.055556247	0.79951977	-0.549597847	0
113	1115769135	0.202300928	0.304095008	0.206597592	0.907699287	-6.497741562	2.853327086	6.981763234	40.95179611	-5.094442628	-35.04760516	1.058592352	0.796276402	-0.541729307	0
114	1115785802	0.205354191	0.305627219	0.19948472	0.908090032	-6.475082454	2.595026393	6.823052327	41.25449893	-4.155515747	-35.57563269	1.065878955	0.79399612	-0.540501969	0
115	1115802469	0.208832099	0.306719125	0.190987047	0.908755457	-6.442649325	2.576291291	7.007658043	48.82004173	-9.927186075	-40.13852897	1.073639383	0.794972907	-0.527827531	0
116	1115819136	0.212487713	0.307705753	0.182186315	0.909381267	-6.557620987	2.898603821	6.310045481	50.19914455	-11.06845967	-41.79901707	1.082895618	0.789439166	-0.521034172	0
117	1115835803	0.21582545	0.30862986	0.174563127	0.90977728	-6.697751266	3.179190098	5.973505065	43.16012911	-8.791169953	-37.58779621	1.085322283	0.790297731	-0.514453579	0
118	1115852470	0.218721064	0.309221839	0.168336457	0.910058123	-6.903404559	3.251147763	6.02812644	34.74152396	-7.980947186	-31.65356848	1.090981949	0.783578278	-0.511707509	0
119	1115869137	0.220962017	0.309504826	0.163768762	0.910253999	-7.020250055	3.350663513	5.804380752	25.19916904	-6.443050495	-23.82198836	1.093946774	0.784290188	-0.507643155	0
120	1115885804	0.222604793	0.309948668	0.160761901	0.910238727	-7.095664704	3.346083179	6.055357145	16.70886023	-1.923506976	-17.28259922	1.098217413	0.785413886	-0.506483406	0
121	1115902471	0.223895321	0.31033355	0.158503941	0.910187054	-7.204451652	3.101688761	6.449710803	12.64877253	-0.649413794	-13.49332444	1.102169124	0.782438275	-0.501772538	0
122	1115919138	0.225067669	0.31039415	0.156402342	0.910240805	-7.149224809	3.220410608	6.525140454	11.56328537	-2.49426164	-11.90690453	1.105952095	0.784645997	-0.500813697	0
123	1115935805	0.225879396	0.310320026	0.15490992	0.910320216	-7.175300854	3.431530522	6.217436105	8.363697329	-2.016319771	-8.175022529	1.107092139	0.785014364	-0.49908647	0
124	1115952472	0.225954786	0.310706447	0.155282943	0.910106118	-7.250791208	3.552400057	5.95957343	-1.331460885	5.207651182	-0.556840394	1.107782315	0.785193578	-0.499752925	0
125	1115969139	0.22558902	0.311630106	0.156663794	0.909644286	-7.317319226	3.137846105	6.366228407	-6.129101909	11.15187887	3.371648233	1.110530103	0.787466179	-0.497584939	0
126	1115985806	0.225557423	0.312023437	0.156632196	0.909522721	-7.305292237	2.77327487	6.735574296	1.5558735	4.584352316	-0.642148283	1.111345593	0.78926772	-0.496661028	0
127	1116002473	0.225603102	0.312367771	0.156055776	0.909492282	-6.95436365	3.07921645	6.071906682	4.862732273	3.197142057	-2.082825769	1.114832074	0.789184703	-0.494996129	0
128	1116019140	0.225473151	0.313196725	0.155823619	0.909279203	-6.755950443	2.983116164	5.921915551	3.660422167	7.371194942	-1.054896621	1.116303951	0.786583415	-0.498306006	0
129	1116035807	0.225551891	0.314119232	0.15486188	0.909105742	-6.763304263	2.470508701	6.463666499	7.97898326	6.543496184	-3.972618911	1.119652757	0.789035612	-0.494531821	0
130	1116052474	0.225964821	0.314606353	0.152843885	0.90917627	-6.883794331	2.727714293	6.165326141	13.49378086	1.346955156	-7.476053341	1.122748327	0.787695253	-0.490795369	0
131	1116069141	0.226279572	0.315294531	0.151157327	0.90914156	-6.885887097	2.796227556	5.897587451	11.86858589	3.480743026	-6.510567816	1.123649218	0.788336435	-0.491897532	0
132	1116085808	0.226630332	0.316259569	0.149465782	0.908998657	-7.121802838	2.636934143	6.071572117	12.16190341	5.419125948	-7.195471635	1.125464526	0.784350521	-0.487214626	0
133	1116102475	0.226712516	0.317210188	0.148176431	0.908858007	-7.313275283	2.737316839	6.320080761	10.24157111	6.243126524	-4.606836728	1.126985393	0.787610075	-0.485052594	0
134	1116119142	0.226597395	0.317893599	0.146915021	0.908852715	-7.361855295	3.071046127	6.450095954	10.25102547	4.544440974	-2.811820428	1.127369119	0.784225383	-0.483212101	0
135	1116135809	0.226434327	0.318388975	0.145546325	0.908940165	-7.455587724	3.121618945	6.620609616	10.85131912	3.077249885	-2.408889031	1.129226059	0.789100904	-0.482567038	0
136	1116152476	0.226405292	0.318556215	0.143610049	0.909196753	-7.382085021	3.210976149	6.782936722	13.79184236	-0.329051171	-3.892597661	1.133694639	0.787469739	-0.479001998	0
137	1116169143	0.226533098	0.318435098	0.141369553	0.909558406	-7.101495269	3.416975192	6.385033121	15.0339444	-2.946942481	-5.092309714	1.133833251	0.786652453	-0.475386443	0
138	1116185810	0.226688566	0.31835251	0.139612622	0.909819921	-6.890289872	3.396908492	5.935269614	11.92717773	-1.722108173	-4.418606581	1.131974673	0.782161084	-0.471291792	0
139	1116202477	0.226832486	0.318228237	0.138538881	0.909991643	-6.438599788	3.342966362	5.733307428	7.531842417	-0.685562523	-2.971449996	1.136895682	0.784431093	-0.469249568	0
140	1116219144	0.227125123	0.31804537	0.137866027	0.910084765	-6.400732969	3.325248567	5.487214197	4.537565299	-0.366534613	-3.118063542	1.134625974	0.783654315	-0.470866601	0
141	1116235811	0.227334883	0.317952418	0.138000518	0.910044487	-6.542850419	3.648598276	5.379433115	-0.32116317	1.848709134	-1.154820588	1.137365158	0.782246745	-0.467846635	0
142	1116252478	0.227313769	0.317817611	0.139023982	0.909941069	-7.017728405	4.07185036	5.379778813	-5.517535422	3.349446751	2.134234807	1.136773563	0.785853872	-0.467079424	0
143	1116269145	0.226727739	0.317639018	0.141343038	0.909792357	-7.57001825	4.241575898	5.557408215	-12.53237576	5.743996269	8.418619099	1.135916081	0.785596428	-0.466040383	0
144	1116285812	0.22595697	0.317334547	0.143529731	0.909748014	-7.968973001	3.981535441	6.074622455	-11.4282208	4.697328587	9.523481102	1.133192853	0.786717533	-0.469480733	0
145	1116302479	0.22516968	0.316718346	0.14474386	0.90996556	-8.100896301	3.920502708	5.947020313	-5.547715413	0.685291757	8.194388796	1.133710338	0.786677605	-0.469781769	0
146	1116319146	0.224230119	0.31623025	0.145504574	0.910245957	-7.764505358	3.871096866	5.580247106	-2.135212216	0.793177286	8.107057565	1.134088359	0.78904587	-0.469528407	0
147	1116335813	0.223159814	0.315942988	0.146279178	0.910484557	-7.353644751	3.699079605	5.565816863	-1.691794942	2.282720597	8.663415851	1.133253993	0.79069004	-0.469412789	0
148	1116352480	0.222112145	0.315774962	0.146714566	0.910728941	-7.016204666	3.505558265	5.539219604	0.556628545	2.474046224	7.649517865	1.13198736	0.789199442	-0.468104924	0
149	1116369147	0.221344459	0.315618178	0.146249898	0.911044874	-6.848016626	3.160016299	5.554199769	5.668185614	0.741407714	4.021074525	1.132889649	0.789846717	-0.467060014	0
150	1116385814	0.221077421	0.315282453	0.144437683	0.91151495	-6.794184476	3.047797269	5.47254329	12.912734	-3.255925185	-1.629636208	1.131663989	0.791387549	-0.463520174	0
151	1116402481	0.221097135	0.314919528	0.142331103	0.911966888	-6.994905703	3.248597888	5.287922838	14.08311469	-4.110644396	-4.068658233	1.134184337	0.788275691	-0.461368702	0
152	1116419148	0.221185767	0.314387795	0.140412006	0.912426238	-7.212936476	3.392586376	5.20974695	12.50419782	-4.969408411	-3.927539109	1.134758772	0.788352761	-0.461023415	0
153	1116435815	0.22125383	0.313708525	0.138989868	0.912861173	-7.239404409	3.436377636	5.288472477	9.169535422	-5.078379828	-2.632933465	1.131855097	0.787755453	-0.458014305	0
154	1116452482	0.221198023	0.3129617	0.138014874	0.913278875	-7.330787835	3.287445071	5.445150674	6.49935005	-4.672639835	-0.867966575	1.1324156	0.788269574	-0.455002169	0
155	1116469149	0.221060949	0.312457526	0.137379884	0.913580384	-7.317320558	3.249347032	5.487319118	4.7929033	-2.310532636	-0.040056367	1.132107505	0.786266261	-0.457896771	0
156	1116485816	0.220808512	0.312111846	0.13735277	0.913763653	-7.436118278	3.294506028	5.701569042	1.348573595	-0.032364407	1.655504993	1.130570083	0.787430323	-0.455973622	0
157	1116502483	0.220685314	0.311470266	0.137031357	0.914060541	-7.312192369	3.41411993	5.906879373	2.579663738	-2.701133673	0.660021049	1.12915485	0.789521212	-0.456493186	0
158	1116519150	0.220617125	0.310731928	0.136666035	0.914382933	-7.354914517	3.513096655	5.803538822	2.618971814	-3.467059994	0.340867995	1.129667889	0.786878285	-0.453693621	0
159	1116535817	0.220450163	0.310101623	0.13639235	0.914677996	-7.375786443	3.658039637	5.701598673	2.389896295	-2.485877701	0.999161957	1.129072438	0.786044448	-0.455902997	0
160	1116552484	0.220209432	0.309665558	0.136207553	0.914911226	-7.442427798	3.467701317	5.860549797	2.216289498	-0.920648046	1.356803574	1.130179238	0.785277334	-0.455840491	0
161	1116569151	0.219943407	0.309366051	0.136122416	0.915089194	-7.422781854	3.420190799	5.872665698	1.798232031	0.240675338	1.505196962	1.125382462	0.786038924	-0.455633293	0
162	1116585818	0.219631369	0.30911146	0.136153087	0.915245598	-7.525452833	3.466264964	5.850606724	1.216518567	0.798992015	1.956756392	1.12891344	0.78647873	-0.455938285	0
163	1116602485	0.219144059	0.308916473	0.136733078	0.915341772	-7.477958614	3.581470102	5.714855337	-1.836072832	2.303858171	4.069499642	1.124671367	0.790592601	-0.453770252	0
164	1116619152	0.218399566	0.308925235	0.138127461	0.915307398	-7.565338899	3.437325696	5.648199107	-6.23888522	5.33752492	7.011599513	1.12585396	0.787489456	-0.458372715	0
165	1116635819	0.217614381	0.308880798	0.13982589	0.915251525	-7.548697363	3.245859461	5.642224394	-8.172611496	5.541538463	7.920563837	1.123030727	0.787666746	-0.45742022	0
166	1116652486	0.216740222	0.308728581	0.14180373	0.915206011	-7.447908534	2.947888662	5.67520484	-9.894760444	5.343049831	9.190952486	1.119922866	0.790514197	-0.460666618	0
167	1116669153	0.216056636	0.308350909	0.143168182	0.915282535	-7.368577048	2.664748181	5.759773974	-6.648201887	2.565643946	7.100918555	1.121359236	0.790695043	-0.456628022	0
168	1116685820	0.215689252	0.307570352	0.143726471	0.915544279	-7.107722161	2.67769864	5.697213404	-2.641242283	-1.86837116	4.097541257	1.117455826	0.790937675	-0.459201843	0
169	1116702487	0.215628355	0.306613556	0.143693285	0.915884698	-7.118856897	2.836610103	5.412414216	0.268152992	-4.316455339	1.226486858	1.119186916	0.790947305	-0.460326287	0
170	1116719154	0.215631209	0.305851606	0.143684564	0.916140122	-7.205314203	2.850819709	5.480681639	0.19166235	-2.938958916	0.567059154	1.12019956	0.79108006	-0.45983053	0
171	1116735821	0.215730585	0.305352006	0.143578992	0.916299918	-7.440462723	2.95280044	5.602351082	0.900803424	-1.326038456	-0.63509907	1.117370283	0.79140128	-0.460430703	0
172	1116752488	0.215991071	0.304989698	0.143467464	0.916376685	-7.581085605	3.093604664	5.675872134	0.728417058	-0.458436254	-1.912670536	1.115227238	0.789244437	-0.4611047	0
173	1116769155	0.216312908	0.304751817	0.143369161	0.916395297	-7.703384532	3.111995363	5.60332303	0.647337355	0.403417563	-2.474579279	1.113150018	0.790921917	-0.462489666	0
174	1116785822	0.21671932	0.304655657	0.143033185	0.916383749	-7.67345164	3.071158977	5.638996169	2.15008779	0.912688469	-3.683442046	1.114861441	0.788995727	-0.461572506	0
175	1116802489	0.21728666	0.304712193	0.14204686	0.916384022	-7.613310457	3.105442891	5.945356596	6.152774939	0.714427831	-6.183412411	1.116221423	0.7897843	-0.460043979	0
176	1116819156	0.218074867	0.304742866	0.140225496	0.916467102	-7.780984868	3.17155033	5.945319272	11.0046576	-1.079564547	-9.166122166	1.11959907	0.786474453	-0.459912925	0
177	1116835823	0.218876667	0.30469147	0.137991201	0.916632173	-7.749243495	3.216352997	5.819676897	13.54237728	-2.400420569	-9.905334523	1.117845092	0.788671366	-0.458716727	0
178	1116852490	0.21967507	0.304789262	0.135803446	0.9167354	-7.520263908	3.186383735	5.620950016	13.42503659	-1.260208938	-10.01781559	1.116159854	0.786360016	-0.457697531	0
179	1116869157	0.220453377	0.305025058	0.133780129	0.916767636	-7.188126431	2.990180288	5.718834038	12.57353016	0.021488756	-9.779518489	1.118602634	0.784858126	-0.454299233	0
180	1116885824	0.221425235	0.305051399	0.131423656	0.916865493	-7.093490678	2.760606957	5.794229946	14.02279664	-2.111059307	-11.39969373	1.120400464	0.782524852	-0.456624819	0
181	1116902491	0.222572224	0.304988027	0.128639404	0.917003714	-7.039566859	2.73160865	5.732371638	16.2712595	-3.560953247	-13.24270806	1.119555239	0.779544126	-0.452540193	0
182	1116919158	0.22380377	0.304687397	0.125699546	0.917211582	-7.245331183	2.843666397	5.800557009	16.79205724	-5.505645167	-13.76887066	1.120258541	0.781266527	-0.449245993	0
183	1116935825	0.225020732	0.304138383	0.123017517	0.917459647	-7.603152119	2.873657859	5.870928323	14.86488787	-6.739147581	-12.84688019	1.118239379	0.779037173	-0.449319173	0
184	1116952492	0.225949909	0.30349498	0.121088717	0.917700909	-7.965237864	2.893259292	5.968417035	10.57603431	-5.912159809	-9.370401356	1.119544239	0.775511303	-0.447209497	0
185	1116969159	0.226643775	0.302808359	0.119793889	0.917926533	-8.180991537	2.900000123	6.241252107	6.999137568	-4.977269678	-6.530551518	1.119329688	0.774917427	-0.44776572	0
186	1116985826	0.227372701	0.301942718	0.118815145	0.918158598	-8.136272715	2.951956422	6.183845043	4.673306537	-5.659470503	-5.91223108	1.11741379	0.775311973	-0.44622412	0
187	1117002493	0.227926541	0.301299277	0.119103514	0.91819529	-7.885266559	3.052356067	5.712518575	-2.762085573	-1.7292537	-2.646723678	1.118579327	0.775836976	-0.445415634	0
188	1117019160	0.228196018	0.301071733	0.120690177	0.91799579	-7.523977956	2.884065754	5.586863105	-9.910294243	3.643050287	1.13296792	1.117513186	0.775510761	-0.447329152	0
189	1117035827	0.228400847	0.301139348	0.122688703	0.917657686	-7.258411644	2.667016057	5.757014927	-12.02400968	6.486282731	1.938354143	1.117503451	0.775538504	-0.44821483	0
190	1117052494	0.228830128	0.301083681	0.124127401	0.917375484	-7.216122975	2.635868535	5.699385484	-9.086386181	4.5298556	-0.428500759	1.116982982	0.775146659	-0.451131608	0
191	1117069161	0.229363298	0.300933302	0.125293817	0.917133079	-7.394720463	2.928772143	5.42731614	-7.684122354	3.33726448	-1.487606892	1.116545952	0.775320635	-0.452570243	0
192	1117085828	0.229758101	0.300842683	0.126736442	0.916865731	-7.621360245	3.017652862	5.359279072	-9.065894664	4.312526857	-0.131013865	1.114983829	0.773175539	-0.450078852	0
193	1117102495	0.229974628	0.300854739	0.128291758	0.916591142	-7.897295097	2.926255028	5.496599847	-9.256905806	5.29252248	1.128011903	1.114051461	0.774941955	-0.451973764	0
194	1117119162	0.230352717	0.30077439	0.128936968	0.916432022	-7.998814165	2.745077914	5.815844636	-3.899755099	2.870385168	-1.493827914	1.1159012	0.77413268	-0.451180901	0
195	1117135829	0.230824709	0.300572482	0.128956092	0.916376813	-7.969450069	3.009897326	5.520332548	-0.240291691	0.80253728	-3.083467014	1.113731809	0.774961553	-0.453880412	0
196	1117152496	0.231180104	0.300579246	0.129254506	0.916242953	-7.857097341	3.186957453	5.209433458	-1.500705437	2.807519454	-2.071985735	1.113208878	0.774257787	-0.456175162	0
197	1117169163	0.231339446	0.300776685	0.130244114	0.915997771	-7.803188345	2.908098804	5.211157831	-5.260032986	5.485468232	0.24241838	1.115289161	0.773523498	-0.456337089	0
198	1117185830	0.231571489	0.300991558	0.13110111	0.915746268	-7.736704274	2.700816147	5.22405998	-4.558724541	5.306948743	-0.5041839	1.113212245	0.773893698	-0.457417369	0
199	1117202497	0.231820263	0.301300574	0.132042314	0.915446425	-7.707685605	2.804511977	5.253359009	-5.01970936	6.093827288	-0.581430249	1.112742072	0.774151206	-0.457380345	0
200	1117219164	0.23218143	0.301623288	0.132622577	0.9151647	-7.813371224	2.77239752	5.554413428	-2.944303075	5.441699355	-2.006499158	1.111508071	0.773875059	-0.458513737	0
201	1117235831	0.232632539	0.301912994	0.132608895	0.914956571	-7.742822419	2.863172105	5.705521806	0.625961046	4.038197231	-3.63870285	1.112405796	0.775926396	-0.460564659	0
202	1117252498	0.233162052	0.302194379	0.132095765	0.914803106	-7.760926593	2.961452391	5.595946059	3.6474239	2.994082134	-5.059389116	1.114628476	0.774715902	-0.459051535	0
203	1117269165	0.233597401	0.302427358	0.131771722	0.914661774	-7.627751255	2.769616284	5.408966195	2.588814744	3.042648366	-4.002488485	1.112077677	0.773093272	-0.460715307	0
204	1117285832	0.234158324	0.302453972	0.131256673	0.914583599	-7.371299712	2.727722939	5.540440011	3.257597947	1.17906857	-4.886485952	1.115190922	0.771920583	-0.459259654	0
205	1117302499	0.234785062	0.302190178	0.130670937	0.914593996	-7.538592347	2.881689967	5.774973424	3.185237517	-1.008782786	-5.028667466	1.113684716	0.77186472	-0.458993288	0
206	1117319166	0.235319516	0.301669564	0.13034693	0.914674739	-7.798489989	2.957118539	6.078448043	1.387401695	-2.261055574	-3.550724603	1.113549541	0.771138371	-0.453587168	0
207	1117335833	0.235705488	0.300817941	0.130390782	0.914849569	-7.923344563	3.206478145	6.152384452	-1.058359671	-3.803699986	-1.395431612	1.115817421	0.770973592	-0.457509384	0
208	1117352500	0.235970484	0.299891837	0.130499664	0.915069754	-7.921111345	3.037871326	6.297528961	-1.292476228	-4.14435492	-0.356232308	1.114600779	0.773710487	-0.45538727	0
209	1117369167	0.236048357	0.299094157	0.130896699	0.915254015	-7.757502631	3.229601946	6.21162923	-2.531186476	-2.615335456	1.249753437	1.110564576	0.771881462	-0.458205452	0
210	1117385834	0.236026954	0.298379427	0.131656844	0.915383783	-7.511928434	3.302767235	6.003625093	-4.520312458	-1.288411644	2.45586988	1.112267974	0.771537608	-0.456305173	0
211	1117402501	0.235743725	0.297242873	0.133093145	0.915618799	-7.56459318	3.254884046	5.576135261	-8.827484485	-2.809154754	6.032818766	1.110864598	0.772681936	-0.456467652	0
212	1117419168	0.235023325	0.296186169	0.13580712	0.9157479	-7.820352652	3.348430814	5.226803596	-15.95337344	0.381760793	11.13817375	1.1079574	0.776353262	-0.459583975	0
213	1117435835	0.233749471	0.295670516	0.139692414	0.915656136	-8.409675113	2.966663347	5.350585163	-21.5544759	6.629724392	16.13052291	1.106963886	0.77645073	-0.464649859	0
214	1117452502	0.232723639	0.294825876	0.142397406	0.91577311	-8.456484745	2.468554156	5.580766359	-14.96859405	1.968410164	12.83558842	1.103432561	0.775819961	-0.463302949	0
215	1117469169	0.232225294	0.293446831	0.143030774	0.916243727	-8.034303247	2.597329005	4.990634522	-3.498584193	-5.972976245	6.442918348	1.102803076	0.776654928	-0.461467272	0
216	1117485836	0.232240082	0.292216381	0.141463322	0.91687636	-7.567789838	2.799612786	4.555255948	9.720530134	-9.420203416	-1.086523273	1.102722097	0.776624688	-0.459862697	0
217	1117502503	0.232480127	0.291618887	0.138736597	0.917422243	-7.397912932	2.730124992	4.395431066	17.48637453	-7.366139098	-5.575026729	1.105015649	0.774896002	-0.454828578	0
218	1117519170	0.232914575	0.291592473	0.135449633	0.917811542	-7.528999899	2.667975992	4.838695618	21.37889829	-4.572457276	-8.705652958	1.10399352	0.773014829	-0.454231819	0
219	1117535837	0.23371652	0.291545869	0.130380329	0.918356447	-7.726253786	2.723113164	5.183489778	31.99687116	-8.240433522	-14.30462631	1.106428085	0.771534984	-0.449354762	0
220	1117552504	0.234725264	0.291752016	0.123957464	0.918922934	-7.923572029	3.143904482	4.708680547	40.55664652	-9.073552426	-18.48865043	1.108505615	0.769397245	-0.443986729	0
221	1117569171	0.235467287	0.292770068	0.118249369	0.919161537	-7.779516445	3.350250531	4.568338729	37.58734382	-1.94765045	-16.58229563	1.111116562	0.766965124	-0.441759583	0
222	1117585838	0.235734464	0.294312237	0.113753778	0.919167911	-7.658624594	3.186591578	4.944689372	31.51392638	4.137817461	-11.94817812	1.11253509	0.765564174	-0.436693431	0
223	1117602505	0.235890334	0.295828005	0.109790129	0.919123316	-7.328304009	2.965694461	5.186191606	28.28059202	4.997262337	-10.23001394	1.109184821	0.762499847	-0.436048373	0
224	1117619172	0.235961237	0.297237416	0.106103577	0.919083372	-7.329885466	2.786217582	5.579031629	26.52979311	4.818331476	-9.036397916	1.113557817	0.759265288	-0.433770945	0
225	1117635839	0.235783748	0.298554111	0.10301559	0.919053456	-7.247691304	2.958359587	5.797074594	23.1202152	5.364405122	-6.147613666	1.115371387	0.760438889	-0.431646155	0
226	1117652506	0.235506064	0.29982063	0.100136291	0.91903058	-7.281662063	2.966897391	6.209043757	21.93899435	5.454681863	-5.034822569	1.113461548	0.75832399	-0.428849932	0
227	1117669173	0.235240971	0.3007043	0.09726243	0.919118398	-7.409217788	3.087390716	6.45446417	21.35176058	2.831343278	-4.653316771	1.11420096	0.757060345	-0.425670563	0
228	1117685840	0.234747283	0.301190299	0.095298848	0.919291165	-7.559384979	3.247386128	6.303765048	15.50102399	1.797120957	-0.920684593	1.116652184	0.755271026	-0.424905525	0
229	1117702507	0.233804503	0.301349325	0.09479374	0.919531503	-7.541629141	3.220153335	6.191929746	6.737380493	2.263908089	5.255317314	1.117839976	0.756233528	-0.424885847	0
230	1117719174	0.23265622	0.301126639	0.094902188	0.919884452	-7.729918498	3.025973644	6.082992711	2.748910127	0.758217757	8.251830401	1.113736302	0.757302405	-0.423459865	0
231	1117735841	0.231507849	0.300238885	0.095575184	0.920394541	-7.620467522	2.736154136	6.438486658	-1.778287016	-2.85693133	10.11171756	1.111815543	0.756676706	-0.424903488	0
232	1117752508	0.230459378	0.298856508	0.096574775	0.921003027	-7.823308173	2.900271392	6.220295142	-4.755412842	-5.710490159	10.64988932	1.111076183	0.755796529	-0.422800584	0
233	1117769175	0.229252687	0.297289379	0.098376035	0.921620522	-7.879583109	2.861178431	6.050869418	-9.786370102	-5.508530959	13.44606498	1.107858708	0.756073928	-0.423879327	0
234	1117785842	0.228123298	0.295426432	0.099909683	0.922334559	-7.796711588	2.684485954	5.94383133	-8.643715343	-8.046016298	12.77300467	1.104682733	0.760629319	-0.423840118	0
235	1117802509	0.227287281	0.29322078	0.100443707	0.923186399	-7.60442169	2.790215666	5.568756473	-3.335805561	-12.26386509	9.356235473	1.103590291	0.762170571	-0.42354512	0
236	1117819176	0.226676323	0.290967022	0.100165647	0.924079477	-7.737189174	3.112315596	4.967211593	1.319515899	-14.07893239	6.402873765	1.10369412	0.760584883	-0.42349062	0
237	1117835843	0.226029538	0.289019405	0.100238288	0.924840915	-7.901592948	3.140248621	4.742333972	-0.468937297	-11.32360193	6.915826851	1.101563816	0.76124022	-0.421180245	0
238	1117852510	0.225391727	0.287567184	0.100343892	0.925437619	-8.030919404	3.017647628	4.926862557	-0.063199694	-7.833831561	6.327332509	1.099856708	0.762401818	-0.423474128	0
239	1117869177	0.224686333	0.28638654	0.100314422	0.925978303	-7.982251709	3.171006197	4.839791695	1.294757397	-6.190334926	6.223034402	1.096952797	0.760960387	-0.422394547	0
240	1117885844	0.223999364	0.285408751	0.099995688	0.926480972	-7.851327242	3.160537939	4.678649258	3.366259473	-5.315242168	5.338611616	1.09471032	0.760014142	-0.419798086	0
241	1117902511	0.223160054	0.28480401	0.100029294	0.926865905	-7.680298739	3.171445618	4.563062281	1.890214126	-2.09230498	6.560436576	1.09521932	0.762335645	-0.420880019	0
242	1117919178	0.222290196	0.284599065	0.099963196	0.927144973	-7.572133761	3.020672389	4.708621415	3.102536052	0.497491496	6.11616808	1.094794099	0.761920212	-0.420932088	0
243	1117935845	0.221281423	0.284665615	0.099924317	0.927370018	-7.906235366	2.680639632	4.905249677	3.560305489	2.445647417	6.785939609	1.092328824	0.760265024	-0.419047301	0
244	1117952512	0.220241719	0.284591479	0.100005311	0.927631507	-7.866518605	2.89362805	5.128863127	2.656823682	1.652435311	7.386792639	1.092972926	0.763242025	-0.420244119	0
245	1117969179	0.219285707	0.284403595	0.100129184	0.927902215	-7.764959388	3.014675096	5.039079166	2.043844224	0.896566986	7.036983625	1.094916559	0.763017405	-0.419222197	0
246	1117985846	0.218372724	0.284364192	0.100737873	0.928063705	-7.785511504	2.758912701	5.547388309	-0.997566554	2.739922155	7.444264645	1.092228552	0.763167425	-0.417088417	0
247	1118002513	0.217817772	0.284164948	0.100833907	0.9282447	-7.867493859	2.494613113	5.965413549	1.349117791	0.658819413	4.311377225	1.091206647	0.763030498	-0.421168552	0
248	1118019180	0.217583603	0.28379417	0.100683619	0.928429348	-7.982635127	2.698762953	5.827187609	2.053694785	-1.029949984	1.9338212	1.091605598	0.760297894	-0.422195708	0
249	1118035847	0.217490025	0.283310556	0.100722101	0.928594786	-7.900784034	2.640466595	5.669134112	0.399108386	-1.530580587	1.472384269	1.08984455	0.765569076	-0.421863794	0
250	1118052514	0.217626851	0.282641664	0.100703059	0.928768613	-7.940601651	2.559973304	5.533355556	0.051379367	-2.980421725	0.050018807	1.093977627	0.763356304	-0.419296004	0
251	1118069181	0.217994665	0.282110829	0.100931943	0.9288189	-7.927093561	2.821338254	5.285948073	-1.854200464	-1.658237771	-1.201817159	1.094810065	0.7637818	-0.419921067	0
252	1118085848	0.218457311	0.281906876	0.101763806	0.928681347	-7.9828859	2.910437635	5.254871993	-5.533278493	1.615996181	-1.137222228	1.092610928	0.763018899	-0.419645026	0
253	1118102515	0.21894125	0.281871844	0.102808169	0.928462963	-7.992868424	2.894823466	5.315350023	-6.739417489	3.137326111	-1.0960662	1.092892004	0.764979992	-0.419235777	0
254	1118119182	0.219421318	0.28183527	0.103505383	0.928283255	-7.760239303	3.117538381	5.190382619	-4.4955466	2.515854517	-1.677039085	1.094350283	0.762314542	-0.420209326	0
255	1118135849	0.219939339	0.281981027	0.103505119	0.928116414	-7.617980667	3.206057096	4.978088758	0.158361176	2.561205783	-3.383725179	1.097051049	0.763261648	-0.420772611	0
256	1118152516	0.220353019	0.282515767	0.103559611	0.927849554	-7.693776971	3.171120544	4.820085861	0.517063393	5.377203782	-3.048652148	1.098434164	0.764385095	-0.421539441	0
257	1118169183	0.220592192	0.283451693	0.103908941	0.927468142	-7.700781137	3.201364422	4.813892248	-0.513126593	8.706981825	-1.830207007	1.096997555	0.766060976	-0.423630473	0
258	1118185850	0.220755749	0.284476774	0.104242012	0.927077919	-7.831412362	3.030025748	4.905364773	-0.149917748	9.298229979	-1.465997968	1.100557941	0.765725356	-0.423888632	0
259	1118202517	0.220805964	0.28562651	0.104541446	0.926678644	-7.77838608	3.098064098	5.004383428	0.458007856	10.1186833	-0.91359582	1.100464722	0.76536745	-0.425744961	0
260	1118219184	0.220809228	0.286820885	0.104453539	0.926318802	-7.716676719	3.217003527	5.182139898	3.103992778	9.75149083	-1.349817802	1.10135571	0.765297282	-0.425708522	0
261	1118235851	0.220930008	0.288170467	0.10358753	0.925968324	-7.763274204	3.156720327	5.402962484	8.06220027	9.442973671	-3.73652575	1.101373735	0.763473094	-0.425122835	0
262	1118252518	0.22115211	0.289751536	0.102101024	0.925586934	-7.70139015	2.875403776	5.684802019	12.1380778	9.95425539	-5.823325316	1.101680412	0.76290952	-0.425339899	0
263	1118269185	0.2215181	0.291362623	0.10017705	0.925203822	-7.662488835	2.97532738	5.79723804	14.6870578	9.383423692	-7.625131089	1.105691699	0.763595293	-0.423932708	0
264	1118285852	0.221932272	0.292852796	0.098269983	0.924838536	-7.695229888	3.00951436	5.721903709	14.32001293	8.573211719	-7.782833865	1.107225748	0.763067784	-0.423706718	0
265	1118302519	0.222432881	0.294161874	0.096446338	0.924494732	-7.676236595	2.993448132	5.574761087	13.35695223	7.449512517	-8.00289344	1.111617929	0.762222443	-0.419832133	0
266	1118319186	0.223046387	0.295469139	0.095016058	0.924078052	-7.921357807	2.733091355	5.577081283	10.5813351	8.109372027	-8.033085535	1.111712511	0.75933755	-0.420886458	0
267	1118335853	0.223587855	0.296589095	0.09425769	0.923665994	-7.803923567	2.886652676	5.664943337	6.179562145	7.980526445	-6.066364276	1.114147137	0.760348675	-0.421470876	0
268	1118352520	0.224089875	0.297444219	0.093836121	0.923312215	-7.687747981	3.022123592	5.56887692	3.75650772	6.720659689	-4.86228033	1.114999136	0.757194835	-0.421801987	0
269	1118369187	0.224426788	0.298262067	0.09420271	0.922929144	-7.625599508	3.15470483	5.493389128	-0.984240575	7.864364031	-2.224296554	1.118954156	0.759094391	-0.422058862	0
270	1118385854	0.224730505	0.299091574	0.094651677	0.92254078	-7.620133857	3.046344774	5.576394127	-1.426303565	8.097990853	-1.866690328	1.117411362	0.759410701	-0.422383494	0
271	1118402521	0.225078628	0.299639707	0.09502632	0.922239478	-7.732087627	2.999373009	5.571987839	-1.422923747	5.991770872	-1.987055893	1.118968212	0.758893869	-0.424977679	0
272	1118419188	0.225494375	0.300017532	0.094978131	0.922020022	-7.703508422	3.064104682	5.599268917	0.909909659	4.042272395	-3.04756264	1.118656364	0.759566482	-0.423226647	0
273	1118435855	0.225895407	0.300163235	0.094967395	0.921875529	-7.726830256	3.126152622	5.40060971	0.392333311	2.484403878	-2.608786943	1.120869644	0.75987136	-0.423473773	0
274	1118452522	0.226172354	0.300408033	0.094968832	0.921727726	-7.66432651	3.009679805	5.547968085	0.719430375	3.213501712	-1.870176347	1.11953204	0.759667112	-0.424441355	0
275	1118469189	0.226379915	0.300290028	0.095295684	0.921681488	-7.540576537	3.089699962	5.470982109	-1.696857224	1.255943486	-0.364092948	1.12236518	0.760033862	-0.426364615	0
276	1118485856	0.226525259	0.300369042	0.095278471	0.921621809	-7.708403297	3.129026148	5.311131241	0.907917162	2.037898674	-0.833225893	1.117902171	0.757414729	-0.42572453	0
277	1118502523	0.226652622	0.300642194	0.095311759	0.921497981	-7.63227871	3.258856053	5.282049403	0.881302495	3.484156295	-0.847487955	1.126082987	0.761429918	-0.425693103	0
278	1118519190	0.22706218	0.300727567	0.094302473	0.921473136	-7.746634113	3.089498343	5.452306541	6.670063228	0.271761182	-4.517989859	1.122969746	0.758718809	-0.424073108	0
279	1118535857	0.227457726	0.300784451	0.092921016	0.921497358	-7.800831867	3.046945878	5.372601562	9.042279179	-0.586917433	-5.101269141	1.123549468	0.760673809	-0.42200149	0
280	1118552524	0.227716242	0.300856996	0.091693205	0.921532819	-7.64229251	3.245914149	5.067760457	8.381638336	-0.192890018	-3.905678388	1.124180663	0.75864025	-0.423336407	0
281	1118569191	0.227709189	0.301164375	0.091063396	0.92149661	-7.677622226	3.165715277	5.119054198	5.454526168	2.5354052	-1.252961555	1.124751456	0.756744282	-0.422280479	0
282	1118585858	0.227581043	0.301377547	0.090593176	0.921504921	-7.665647237	2.956882353	5.249471481	4.566733986	2.161571032	-0.031503913	1.128355971	0.7582953	-0.421106545	0
283	1118602525	0.227229182	0.301623648	0.090581678	0.921512362	-7.638480184	3.205153786	5.337393476	2.170317085	3.221413807	2.316800096	1.126461802	0.759382194	-0.420513676	0
284	1118619192	0.226712783	0.301789067	0.091202876	0.921524122	-7.57218904	3.259331838	5.229581419	-1.626414207	3.789563923	4.72036332	1.127400762	0.759313511	-0.421925442	0
285	1118635859	0.226152877	0.302119887	0.091961724	0.921477884	-7.753225766	2.91653692	5.446454021	-2.19527474	5.195253945	5.075375219	1.126801982	0.759688602	-0.425116305	0
286	1118652526	0.225816734	0.30219265	0.092066577	0.92152599	-7.840408207	2.872060728	5.583904606	1.142230233	2.202592737	2.614396525	1.123180173	0.760310014	-0.424588782	0
287	1118669193	0.225671496	0.302016367	0.091910738	0.921634909	-7.851527258	2.977950283	5.484344906	2.049088676	-0.028261583	1.123738101	1.126260785	0.759995624	-0.425529609	0
288	1118685860	0.225297842	0.30178424	0.092864751	0.921706728	-7.746892907	3.073430655	5.382048749	-4.621044986	1.557728039	4.856345868	1.126105591	0.759813604	-0.424662223	0
289	1118702527	0.224898617	0.301470779	0.094375798	0.921753324	-7.667446061	3.031872605	5.628818516	-8.245153474	1.970626043	6.181699401	1.126188085	0.761758643	-0.42587517	0
290	1118719194	0.224396491	0.301250536	0.096215533	0.921757506	-7.809185461	2.967564162	5.625930006	-9.999125519	3.230032879	7.386732675	1.126895456	0.762692613	-0.427707394	0
291	1118735861	0.224150133	0.300769402	0.097355731	0.92185484	-7.775211229	2.964572033	5.812606936	-6.437134169	0.137967186	4.636409626	1.127659901	0.763905366	-0.428297284	0
292	1118752528	0.224130067	0.300328202	0.097624025	0.921975181	-7.731521124	3.065435893	5.711555265	-1.296254535	-1.145801629	1.410657733	1.127215482	0.760934247	-0.430128588	0
293	1118769195	0.224184647	0.299884045	0.097829096	0.922084742	-7.807092312	3.10181124	5.462936151	-1.057795805	-1.286839031	0.790978814	1.126373153	0.764326123	-0.428159777	0
294	1118785862	0.224133382	0.299525131	0.098556104	0.922136442	-7.811820255	3.030229484	5.511442976	-4.068077178	0.249182217	2.394819758	1.127101649	0.763812059	-0.427794695	0
295	1118802529	0.224206902	0.299107509	0.099165413	0.922188801	-7.789352508	2.999724193	5.420829315	-3.665367618	-0.394345455	1.4007916	1.125345958	0.760304909	-0.428547709	0
296	1118819196	0.224314828	0.298765074	0.099592248	0.92222756	-7.813712652	2.947320452	5.350308677	-2.465975996	-0.202594416	0.728712599	1.127782941	0.764849706	-0.428967992	0
297	1118835863	0.224494446	0.298368139	0.099800114	0.922289887	-7.79285235	3.102866752	5.210827578	-1.29304113	-0.989534231	-0.098518656	1.127583505	0.764406412	-0.42945014	0
298	1118852530	0.224649099	0.298116134	0.100265948	0.922283195	-7.778677843	3.081731523	5.151017659	-2.717355116	0.47971207	0.387848699	1.125567237	0.765764661	-0.431235206	0
299	1118869197	0.224794236	0.297981726	0.100938309	0.922217924	-7.852197156	3.01486294	5.258778936	-3.886409484	1.666722794	0.707893076	1.125276078	0.768074541	-0.431829244	0
300	1118885864	0.225044707	0.297784371	0.101247307	0.922186711	-7.790691823	3.00324465	5.364420726	-1.881856617	0.556140882	-0.601059969	1.129037254	0.76445509	-0.431184171	0
301	1118902531	0.225503644	0.297493728	0.100890381	0.922207525	-7.799100571	3.037250923	5.274441582	1.842857083	-1.339417119	-3.168357416	1.131238062	0.76380629	-0.427875552	0
302	1118919198	0.226085145	0.29732057	0.10003658	0.922214004	-7.801568091	2.987483102	5.22189811	4.856449492	-1.406983341	-5.017197545	1.129765755	0.764927742	-0.428246541	0
303	1118935865	0.226747824	0.29715961	0.098707087	0.922246443	-7.874320593	2.993045672	5.309183771	7.76664629	-2.199640433	-6.487717416	1.130324903	0.764871774	-0.427321622	0
304	1118952532	0.227473632	0.296942514	0.09711495	0.922306661	-7.847463024	2.991331676	5.341637445	9.24776355	-3.081146691	-7.348304198	1.129648863	0.762762534	-0.427580457	0
305	1118969199	0.228253908	0.296667828	0.095181003	0.922403886	-7.865936208	2.88654109	5.51362504	11.23754375	-4.100898304	-8.286812124	1.132126299	0.764289715	-0.427509886	0
306	1118985866	0.229023003	0.296385789	0.092949081	0.922531515	-7.670444742	3.024292238	5.467945365	13.16671806	-4.67769855	-8.762722971	1.13723861	0.761607911	-0.422648514	0
307	1119002533	0.229913254	0.29599323	0.090414706	0.922687967	-7.594797865	3.018755423	5.318069733	14.68313462	-5.994350121	-10.02314191	1.135349332	0.762623797	-0.420227432	0
308	1119019200	0.230722672	0.295625932	0.088114871	0.922826162	-7.663387745	3.032128268	5.283752282	13.38509097	-5.379924795	-9.071292589	1.134111837	0.758509934	-0.422111957	0
309	1119035867	0.231395401	0.295266558	0.086301044	0.922944179	-7.609967437	2.971130935	5.352588876	10.57815847	-4.44232978	-7.249044235	1.137187352	0.756727947	-0.418562435	0
310	1119052534	0.231931565	0.294864834	0.084945274	0.9230638	-7.685377324	2.956577867	5.442263047	7.881730626	-3.907350333	-5.419405301	1.138466872	0.759454758	-0.419751399	0
311	1119069201	0.232360905	0.294542658	0.083889956	0.923155191	-7.602402736	2.997496095	5.569660015	6.306410103	-2.807389488	-4.221053165	1.136800461	0.758029441	-0.419705507	0
312	1119085868	0.232847807	0.294131573	0.082496992	0.9232891	-7.577183157	3.039035324	5.651987086	8.217655144	-4.028316627	-5.147255575	1.138374766	0.757099534	-0.416716584	0
313	1119102535	0.233364621	0.293694764	0.080845819	0.923443714	-7.664562087	3.10425755	5.5510418	9.771800619	-4.661560218	-5.809675126	1.138391596	0.758243341	-0.416740102	0
314	1119119202	0.233960759	0.293218072	0.078833649	0.923618309	-7.698323871	2.937479132	5.540465334	11.85202972	-5.57814499	-6.984555928	1.139745992	0.756200881	-0.411252543	0
315	1119135869	0.234665618	0.29259547	0.076462586	0.923836247	-7.827875777	2.85153075	5.452200114	13.70358777	-7.230628189	-8.239295004	1.14031644	0.75488478	-0.412318685	0
316	1119152536	0.235349323	0.291936204	0.074195727	0.924055703	-7.761432085	3.051447128	5.216724494	13.02857239	-7.294483077	-7.862004167	1.141007154	0.753716934	-0.409472514	0
317	1119169203	0.235900939	0.29140243	0.072288783	0.924234658	-7.670792437	3.063537447	5.162426169	11.18704759	-5.774881798	-6.424949102	1.141574213	0.754229286	-0.406904724	0
318	1119185870	0.236422544	0.290953023	0.070277143	0.924398097	-7.703504451	2.857036893	5.420615077	12.0390528	-5.373140872	-6.508276819	1.140418896	0.751131221	-0.406111175	0
319	1119202537	0.236969547	0.290313102	0.068001691	0.924629389	-7.604952319	3.086125184	5.268947931	13.38947521	-7.165664332	-6.984374423	1.14232266	0.752086387	-0.406300424	0
320	1119219204	0.237376839	0.289847722	0.06615781	0.924804671	-7.645833395	3.29544891	5.117771007	11.18198669	-5.181829014	-5.405399438	1.142555461	0.748590427	-0.402791681	0
321	1119235871	0.237568067	0.289579176	0.065174542	0.924909505	-7.600811104	3.261609624	5.096943053	6.422263604	-2.294987078	-2.528502335	1.143345315	0.748932453	-0.401392339	0
322	1119252538	0.237631451	0.28941492	0.06516319	0.924945434	-7.703029672	3.138010886	5.053125533	0.629929792	0.142952671	0.051597929	1.14241189	0.751224991	-0.404984017	0
323	1119269205	0.237380602	0.289246942	0.066950557	0.924934743	-7.684670911	3.288747853	4.980359772	-10.21867123	3.284289274	5.546543553	1.142584809	0.750733237	-0.405009519	0
324	1119285872	0.236773399	0.289448731	0.069476241	0.924840982	-7.592263768	3.115491921	5.565298969	-13.6509787	7.162147435	8.959747171	1.140481548	0.752094859	-0.408691955	0
325	1119302539	0.236236965	0.289485089	0.07139562	0.924820602	-7.750242212	3.036502085	5.682571171	-10.17180759	4.949913241	7.495439836	1.144046082	0.750229884	-0.40640574	0
326	1119319206	0.235743116	0.289172014	0.073005399	0.924918884	-7.750189103	3.261103389	5.375421475	-8.796895807	1.975245529	6.969622134	1.142443012	0.754217081	-0.410182121	0
327	1119335873	0.235160837	0.289065277	0.074568699	0.92497576	-7.696226164	3.305683818	5.384387307	-8.016123347	3.337587973	7.257931061	1.140635758	0.754000969	-0.409521355	0
328	1119352540	0.234438377	0.288901527	0.076226124	0.925075204	-7.783830482	3.07267892	5.382306971	-8.414776938	3.115893955	8.425030844	1.141489439	0.75582736	-0.412665961	0
329	1119369207	0.233646298	0.288558596	0.078248594	0.92521376	-7.701159556	3.100358006	5.290251117	-10.86869364	2.522951865	9.744248255	1.137981246	0.756087549	-0.414159892	0
330	1119385874	0.232666182	0.288375571	0.080981979	0.925282604	-7.668182004	3.176247461	5.259765739	-14.80963716	4.923402792	12.14759535	1.137767223	0.758610118	-0.415145844	0
331	1119402541	0.231678312	0.288123358	0.083409002	0.925393446	-7.851485299	2.929345973	5.537457602	-12.94013439	3.914414231	11.68685144	1.138482722	0.758692916	-0.418810718	0
332	1119419208	0.230919488	0.287639289	0.084725617	0.925614066	-7.84533634	2.960947762	5.606458305	-6.602094355	0.310532962	8.313108943	1.135406425	0.76192015	-0.419203494	0
333	1119435875	0.230458344	0.286972812	0.084942878	0.925915906	-7.861587992	3.138985002	5.511206622	-0.454183579	-2.920914686	4.4975607	1.135659585	0.760592946	-0.419096095	0
334	1119452542	0.229962221	0.286352676	0.084970287	0.926228682	-7.773140242	3.254885828	5.250326363	0.879425874	-2.920605898	4.352987444	1.136542612	0.76149943	-0.417374913	0
335	1119469209	0.229365431	0.285825913	0.085522119	0.926488539	-7.747888637	3.089967469	5.28601495	-2.122622983	-1.348850531	5.859053245	1.133832324	0.762095562	-0.417982285	0
336	1119485876	0.228939306	0.285194804	0.085938528	0.926749852	-7.853656966	2.837283908	5.411495129	-1.816769391	-2.312368769	4.609566882	1.135383119	0.763230549	-0.418804734	0
337	1119502543	0.22868744	0.284499605	0.085923718	0.927027046	-7.934049731	2.924458907	5.375818174	0.522562158	-3.547445862	2.705821634	1.136580134	0.760784196	-0.417954734	0
338	1119519210	0.228477044	0.283946967	0.08598802	0.927242375	-7.861398846	3.156914869	5.265955811	0.181612002	-2.446759915	2.373571507	1.134042432	0.763730068	-0.416429812	0
339	1119535877	0.228243626	0.283486698	0.08628892	0.927412724	-7.928930578	3.137958367	5.292890014	-1.363639171	-1.3114572	3.009533465	1.133179271	0.7627968	-0.416434352	0
340	1119552544	0.227930008	0.283133759	0.086882072	0.927542285	-7.875071871	2.958921125	5.307131767	-2.771358804	-0.110613917	3.835438802	1.133236788	0.763108649	-0.416349717	0
341	1119569211	0.227751904	0.282732296	0.087114365	0.927686696	-7.780219553	2.922025664	5.320670533	-0.875491373	-1.072198613	2.380487906	1.132213159	0.762863137	-0.420062732	0
342	1119585878	0.227718745	0.282329474	0.087141465	0.927814963	-7.88684374	2.931345068	5.145085905	-0.042625114	-1.386458792	1.181516726	1.132554263	0.764324154	-0.416802477	0
343	1119602545	0.227602932	0.282001926	0.087677103	0.927892529	-7.873129771	3.1126119	5.103520131	-2.905546747	-0.027751839	2.465777713	1.132727042	0.762416771	-0.418891905	0
344	1119619212	0.227424918	0.281822926	0.088645781	0.927898524	-7.886020075	3.005878351	5.260723429	-5.590295483	1.857254056	3.676691184	1.132759988	0.765142861	-0.419566321	0
345	1119635879	0.22731544	0.28160594	0.089580945	0.927901417	-7.877167998	2.975373788	5.347960365	-6.17207709	1.762858659	3.6691486	1.133061197	0.765703241	-0.421015866	0
346	1119652546	0.227234358	0.281435003	0.090644925	0.927869809	-7.783895471	3.101244359	5.424212544	-6.857093199	2.247434245	3.541528306	1.13272176	0.76537687	-0.42091992	0
347	1119669213	0.227249979	0.281183078	0.091538993	0.927854588	-7.797179318	3.085031357	5.387414322	-6.260525878	1.447037195	2.812814415	1.131450936	0.765782906	-0.421637156	0
348	1119685880	0.227247172	0.28086002	0.092594094	0.927848428	-7.800265705	3.123690981	5.272351529	-7.098712206	1.137539852	3.090745421	1.128919232	0.766224753	-0.422321188	0
349	1119702547	0.227236073	0.280549957	0.094004762	0.927803101	-7.79440429	3.192933504	5.111138054	-10.24551811	2.211583446	4.458281858	1.132623832	0.76599871	-0.424878404	0
350	1119719214	0.22705696	0.280384291	0.096239625	0.927667893	-7.864918152	3.071284187	5.127140736	-15.20968247	4.773888799	7.028435093	1.133635426	0.768755389	-0.426752367	0
351	1119735881	0.226911658	0.279993843	0.098347296	0.927600322	-7.793341972	2.977369225	5.287697662	-14.53467442	2.88774586	6.624266408	1.130533366	0.771228394	-0.425247218	0
352	1119752548	0.226873947	0.279202861	0.099968087	0.927674704	-7.765848912	2.999845974	5.390443397	-10.790674	-1.331934678	4.399114762	1.132551205	0.770181264	-0.426579607	0
353	1119769215	0.227062093	0.278101599	0.100654543	0.927885214	-7.727802758	3.173521555	5.320997207	-6.21931466	-4.966412447	2.036325796	1.132990084	0.770193529	-0.426411724	0
354	1119785882	0.227112111	0.277257049	0.101642199	0.928018039	-7.834792985	3.279073083	5.164176577	-6.887317829	-2.874029398	2.678260046	1.128059155	0.771597501	-0.428860587	0
355	1119802549	0.227145046	0.276525054	0.102483896	0.928135806	-7.960123526	3.016005425	5.353750116	-5.547921186	-2.435892111	2.228623302	1.131526739	0.773018414	-0.427777532	0
356	1119819216	0.227383958	0.27572549	0.10272736	0.928288252	-7.933072733	2.939029714	5.344921684	-2.383357352	-3.946296556	0.023021451	1.131782922	0.771472612	-0.426393951	0
357	1119835883	0.227633413	0.275140466	0.103060549	0.928363763	-7.808511076	3.162733713	5.041135531	-2.519876498	-2.371268032	-0.280531276	1.131816769	0.770417559	-0.429467179	0
358	1119852550	0.227660786	0.274877935	0.104170172	0.928310973	-7.719970419	3.269549286	4.978907103	-6.859299061	1.37762569	2.337202154	1.132150019	0.771931557	-0.430723342	0
359	1119869217	0.227583173	0.274768175	0.105615464	0.928199183	-7.628303409	3.229083586	5.14219253	-8.616219566	3.059466493	3.432657357	1.131443245	0.772380067	-0.431556117	0
360	1119885884	0.227427102	0.274788339	0.107314397	0.928036585	-7.542759734	3.235720985	5.181480342	-9.81683564	4.393804248	4.142921614	1.130568256	0.772269857	-0.43320532	0
361	1119902551	0.227218028	0.275039562	0.109092561	0.927806025	-7.590667371	3.191276889	5.212078537	-10.04615907	6.211302428	4.445620506	1.131930288	0.776205597	-0.433979973	0
362	1119919218	0.227123502	0.275151983	0.110052547	0.927682455	-7.673628952	3.060242469	5.528733482	-5.122758132	3.733489451	2.383430477	1.130976195	0.773997716	-0.434637231	0
363	1119935885	0.227258823	0.274960108	0.109876427	0.927727081	-7.659783675	3.250954645	5.340631923	1.358643633	-0.476127454	-0.75168489	1.130491132	0.774939811	-0.434028861	0
364	1119952552	0.227168669	0.274957214	0.110189073	0.927712938	-7.66502056	3.482096241	5.071811573	-1.082081004	1.772434377	1.367790976	1.131345049	0.774534678	-0.43478824	0
365	1119969219	0.226834728	0.275084752	0.110960397	0.927664905	-7.731740823	3.296354486	5.17552748	-3.376875032	3.565255032	3.62415591	1.12994668	0.777185118	-0.434398953	0
366	1119985886	0.22641574	0.275138724	0.111800969	0.927650332	-7.783113819	3.134570415	5.378216945	-3.757156733	3.204407332	4.402098452	1.132112493	0.775603155	-0.438721134	0
367	1120002553	0.226018373	0.274977265	0.112309494	0.927733678	-7.706988584	3.217330075	5.341269819	-1.965744887	1.121892864	3.969863078	1.132015208	0.775916732	-0.438553789	0
368	1120019220	0.22554622	0.274883426	0.113023948	0.927789627	-7.670380196	3.247565936	5.268347615	-3.034437279	1.97282565	4.71695405	1.127739431	0.778728943	-0.439771166	0
369	1120035887	0.225007039	0.274838974	0.114163752	0.927794163	-7.672589977	3.124177655	5.314930742	-5.592527579	3.097840871	5.825543225	1.12842071	0.779129446	-0.439697457	0
370	1120052554	0.224456987	0.274721046	0.115584838	0.927786372	-7.698213229	2.956809404	5.424064207	-7.48755028	3.095603236	6.456528257	1.128069841	0.780598573	-0.441052519	0
371	1120069221	0.224084224	0.274488623	0.116800877	0.927792979	-7.755198245	3.015889244	5.530283649	-6.68465432	1.883712526	5.054898087	1.127688146	0.781480736	-0.442944921	0
372	1120085888	0.22381424	0.274214554	0.117943124	0.927794688	-7.814521481	3.181319768	5.529475055	-6.469537859	1.433873338	4.2799675	1.128344815	0.779695372	-0.440750572	0
373	1120102555	0.223620989	0.273850822	0.119183371	0.927790227	-7.867862401	3.158817963	5.443792453	-7.379449234	0.962087328	4.030384011	1.12980846	0.777639884	-0.443812414	0
374	1120119222	0.223361977	0.273562188	0.120928881	0.927711896	-7.955489296	3.124245773	5.365051635	-10.43138016	2.414236871	5.225586155	1.128745893	0.780842984	-0.442507207	0
375	1120135889	0.223079759	0.273205148	0.122768192	0.927643433	-7.926289204	3.124049991	5.465394678	-11.09575378	2.125558225	5.625551589	1.12738946	0.782178545	-0.447708869	0
376	1120152556	0.222862678	0.272649932	0.12435145	0.927648079	-8.036709637	3.132895309	5.595837959	-9.819081674	0.272382094	4.997529442	1.127983966	0.782412144	-0.446116682	0
377	1120169223	0.222693709	0.271973878	0.125712686	0.927703639	-7.916575682	3.18340663	5.477838757	-8.635805583	-0.974572395	4.453877146	1.124960256	0.782601322	-0.449804208	0
378	1120185890	0.222555504	0.27130953	0.126978013	0.927759004	-7.810463024	3.129633026	5.38706961	-8.066984026	-1.072431907	4.066401101	1.126041291	0.785367807	-0.447805426	0
379	1120202557	0.222450364	0.27060086	0.12824523	0.927816884	-7.772265525	2.971970075	5.377491325	-8.208967494	-1.384463919	3.896764464	1.125210712	0.786097798	-0.452444274	0
380	1120219224	0.222461762	0.269912537	0.129304371	0.927867645	-7.604260042	2.950099369	5.315736121	-7.071557062	-1.663184174	2.736969217	1.121895028	0.784996089	-0.453713929	0
381	1120235891	0.222652169	0.269132071	0.130032415	0.927946934	-7.672918679	2.955024632	5.234205078	-5.41025007	-2.967319587	1.108824159	1.126148154	0.784157614	-0.452193476	0
382	1120252558	0.222832021	0.268453316	0.130823296	0.92798921	-7.729207328	3.011443971	5.13971402	-5.668803473	-2.145986725	1.144441336	1.122937075	0.785755883	-0.454108568	0
383	1120269225	0.222954045	0.267813759	0.131730855	0.928016307	-7.81487397	3.002135838	5.196347852	-6.262153855	-1.64184096	1.669242948	1.122306931	0.786077232	-0.455625694	0
384	1120285892	0.223010286	0.267192527	0.132736226	0.928038609	-7.890529757	2.954846705	5.181278348	-6.744720003	-1.309667348	2.245170612	1.120182822	0.785419525	-0.454522431	0
385	1120302559	0.223081237	0.266526978	0.133556309	0.928095277	-7.880467802	2.947744505	5.234133429	-5.627588931	-1.959314545	1.906592756	1.121494405	0.788620332	-0.454871096	0
386	1120319226	0.223173708	0.265972612	0.134248415	0.928132226	-7.866137344	3.023320442	5.191668498	-4.700121158	-1.432930838	1.404420808	1.122653545	0.788082754	-0.454767114	0
387	1120335893	0.223282907	0.265507527	0.134838578	0.928153573	-7.797084605	3.147911928	5.18156998	-3.959315454	-1.011687805	1.005797847	1.122062819	0.78662296	-0.455067312	0
388	1120352560	0.223417982	0.265178813	0.135383749	0.928135681	-7.772437355	3.080754805	5.268519632	-3.548573549	-0.166894332	0.568769988	1.121562113	0.784718728	-0.454965086	0
389	1120369227	0.223608611	0.264889921	0.13563368	0.928135779	-7.793963675	3.048278289	5.267821681	-1.689477564	-0.452899666	-0.333602592	1.118460104	0.789271559	-0.457640762	0
390	1120385894	0.223788275	0.264670568	0.135780986	0.928133515	-7.74607167	3.04091661	5.19720495	-0.91149083	-0.155599167	-0.519601813	1.122938326	0.788361081	-0.45879436	0
391	1120402561	0.223938845	0.264557878	0.136018372	0.928094567	-7.690361948	3.097190776	5.155108056	-1.303577839	0.753797901	-0.325968779	1.124469589	0.789035356	-0.453978379	0
392	1120419228	0.224096285	0.264543207	0.136309437	0.928018041	-7.683608208	3.094221139	5.184494944	-1.543167047	1.519637256	-0.425775283	1.121274335	0.786291134	-0.455000816	0
393	1120435895	0.224213007	0.26456021	0.136775224	0.927916462	-7.732177667	3.092939293	5.24115219	-2.561031222	2.072730543	0.082146369	1.122362631	0.788293866	-0.458429821	0
394	1120452562	0.224322763	0.26459226	0.137176181	0.927821604	-7.709313048	3.10979302	5.31239688	-2.106219668	2.060712691	0.003339623	1.12209295	0.787942297	-0.458062451	0
395	1120469229	0.224410985	0.264641133	0.13748438	0.92774071	-7.720273556	3.119890787	5.284705954	-1.43700692	2.019543746	-0.024680487	1.119069703	0.789021504	-0.458267991	0
396	1120485896	0.224513137	0.264685247	0.137650645	0.927678754	-7.736012795	3.103189891	5.357641922	-0.5476409	1.720207121	-0.340357655	1.123639738	0.786016667	-0.460741333	0
397	1120502563	0.224674287	0.264644563	0.137532611	0.927668853	-7.764219915	3.120551923	5.383511444	1.076385621	0.590774883	-1.073571212	1.121839477	0.787830555	-0.458778649	0
398	1120519230	0.224874805	0.264581391	0.137262021	0.927678364	-7.7252131	3.098052673	5.34340147	1.961115062	0.136906357	-1.551247161	1.122043817	0.787606076	-0.460040176	0
399	1120535897	0.225107951	0.26445056	0.136933704	0.927707644	-7.76397771	3.078761474	5.366539373	2.185120889	-0.450336161	-1.770823518	1.121503278	0.789131379	-0.458391169	0
400	1120552564	0.225377451	0.264265532	0.13654506	0.927752219	-7.794903635	3.144096689	5.328630107	2.434878531	-0.953718809	-2.036328229	1.122957565	0.786004079	-0.458208563	0
401	1120569231	0.225604995	0.264073458	0.13637343	0.927776849	-7.780620219	3.2002901	5.289768779	1.09605325	-0.588064139	-1.398725147	1.122062513	0.785193932	-0.459755036	0
402	1120585898	0.22584971	0.263949064	0.136322641	0.927760172	-7.869701762	3.12683655	5.356818523	0.360357303	0.087402571	-1.420073154	1.121825812	0.786612446	-0.46019684	0
403	1120602565	0.22610337	0.263856786	0.136217055	0.927740145	-7.890733763	3.061478031	5.476548602	0.7406477	0.202489308	-1.612793326	1.12021986	0.789114591	-0.45805288	0
404	1120619232	0.22640741	0.263744208	0.135984534	0.927732119	-7.824736744	3.190486025	5.380811891	1.438800762	-0.192996267	-2.12410875	1.120207591	0.786481967	-0.458124789	0
405	1120635899	0.226705848	0.26369155	0.135966601	0.927676834	-7.775876569	3.192055381	5.273307932	0.127567326	0.612004228	-1.829663312	1.122123452	0.788044057	-0.459374229	0
406	1120652566	0.226920703	0.263779148	0.136339949	0.927544594	-7.752229714	3.150158668	5.227021274	-2.069531913	2.332072109	-0.842344931	1.120198005	0.787033323	-0.458412945	0
407	1120669233	0.227096155	0.263901239	0.136832907	0.927394322	-7.718615064	3.081913221	5.36401143	-2.72442903	2.80563212	-0.438830919	1.12133463	0.784869343	-0.462086942	0
408	1120685900	0.227321527	0.263899595	0.137086615	0.927302101	-7.686752805	3.114335199	5.361469434	-1.427409741	1.490379153	-0.985746474	1.120622196	0.786147923	-0.45911496	0
409	1120702567	0.227506166	0.263916184	0.137443343	0.927199288	-7.689992497	3.149871215	5.231396639	-2.000688007	1.829533429	-0.567771229	1.119125103	0.784964656	-0.461468852	0
410	1120719234	0.227678248	0.263948935	0.137807025	0.927093738	-7.749630171	3.107937163	5.29078618	-1.99851875	1.957081055	-0.499415545	1.120503008	0.786757487	-0.461554235	0
411	1120735901	0.227850387	0.263848956	0.137989309	0.927052793	-7.800423891	3.156282822	5.360782142	-0.984597382	0.70601441	-0.607840405	1.122364408	0.786240246	-0.461693201	0
412	1120752568	0.228017071	0.263729321	0.138068187	0.927034107	-7.802834913	3.227110135	5.238127616	-0.32227067	0.382023099	-0.71076062	1.1240847	0.784973699	-0.461006948	0
413	1120769235	0.228062949	0.263719296	0.138432778	0.926971299	-7.779783928	3.188270754	5.230391604	-1.809633016	1.726433952	0.41006432	1.121109369	0.787307213	-0.461771627	0
414	1120785902	0.228080922	0.263722696	0.1386574	0.926932337	-7.761686015	3.10505113	5.39094477	-0.819601778	1.569713289	0.351581021	1.120714238	0.784184083	-0.461563738	0
415	1120802569	0.228163517	0.263550423	0.138475785	0.926988156	-7.804417411	3.124737341	5.308639905	1.46593248	-0.419817117	-0.479620281	1.119058222	0.784388932	-0.460766179	0
416	1120819236	0.228313229	0.263275098	0.137774833	0.927133964	-7.839688807	3.136136871	5.311915703	4.586575208	-2.123596499	-1.613606403	1.121807793	0.782531024	-0.462467564	0
417	1120835903	0.228458498	0.263040989	0.136661684	0.927329357	-7.878497602	3.095441505	5.352290017	7.334446816	-2.597332138	-2.291315783	1.120821082	0.784623787	-0.46165947	0
418	1120852570	0.228593052	0.262802885	0.135158433	0.92758399	-7.791225125	3.103578394	5.384899291	9.873717782	-3.327666257	-2.814006206	1.119790477	0.786157976	-0.457360486	0
419	1120869237	0.228692801	0.262538963	0.133417425	0.927886139	-7.721680457	3.180571404	5.198839136	11.56943689	-3.966830087	-3.004872268	1.119810497	0.783472778	-0.457184248	0
420	1120885904	0.228676147	0.262382405	0.132043637	0.92813101	-7.710066189	3.248440841	4.931190394	9.432938142	-2.449705965	-1.695245295	1.118200638	0.783188982	-0.455770815	0
421	1120902571	0.228544195	0.262291347	0.131195946	0.928309444	-7.768471365	3.167097376	5.004313613	6.38736986	-1.013344465	-0.22562645	1.120313282	0.782389543	-0.454147498	0
422	1120919238	0.228332239	0.262239149	0.130673235	0.928450065	-7.789968221	3.066827813	5.068841731	4.370800885	-0.075770109	0.859474302	1.119591826	0.782296025	-0.455535773	0
423	1120935905	0.228077235	0.262159594	0.130340407	0.928581984	-7.77375202	3.043312735	5.134156248	3.240983339	0.074023031	1.445210208	1.118187747	0.781769968	-0.454188263	0
424	1120952572	0.227806509	0.262150819	0.1301084	0.928683448	-7.813719721	3.074438137	5.219707812	2.771946664	0.722798446	1.568618504	1.117028515	0.783604305	-0.455253777	0
425	1120969239	0.227474422	0.262169232	0.130074607	0.928764382	-7.860949243	3.09369475	5.193694481	1.637327823	1.297326701	2.263739797	1.117606264	0.779651543	-0.453956876	0
426	1120985906	0.227104426	0.262289427	0.130379031	0.928778308	-7.864776287	3.113328479	5.075877749	-0.871582829	2.835622221	3.308993758	1.115558755	0.781537803	-0.455255867	0
427	1121002573	0.226607098	0.262551547	0.131351314	0.928688721	-7.879036285	3.007886804	5.142532542	-4.380897967	4.920058795	4.731835944	1.116491397	0.782872283	-0.456679905	0
428	1121019240	0.226201192	0.262663134	0.132093899	0.928650796	-7.887879505	2.914148985	5.37123456	-3.786072771	3.630360586	4.341125511	1.11402695	0.784418491	-0.457577902	0
429	1121035907	0.225897397	0.262614545	0.132580092	0.928669202	-7.836281884	2.925754661	5.367067806	-1.988627399	1.794765341	3.051806784	1.118278757	0.783137772	-0.459356403	0
430	1121052574	0.225674122	0.262572408	0.132987899	0.928677091	-7.770687088	3.010439982	5.375313397	-1.333858248	1.538269777	2.150048749	1.116253748	0.784245526	-0.457132839	0
431	1121069241	0.225489597	0.262554399	0.13346777	0.928658163	-7.837984793	3.028149468	5.315050788	-1.99682604	1.876835516	2.078435825	1.115362184	0.778283577	-0.457732963	0
432	1121085908	0.225330583	0.262529488	0.133983762	0.9286295	-7.89507615	3.043660235	5.273605141	-2.586047438	2.000668416	2.194033167	1.114874584	0.782703277	-0.459404765	0
433	1121102575	0.225210577	0.26244067	0.134496329	0.928609621	-7.905821814	3.055421659	5.339314712	-2.552269051	1.46371524	1.880265781	1.113684904	0.783316016	-0.459840378	0
434	1121119242	0.22512169	0.262324574	0.135033648	0.928585998	-7.888534522	3.077210262	5.299281773	-2.73750986	1.273505854	1.688999885	1.115214372	0.782230714	-0.458247761	0
435	1121135909	0.22502381	0.262205626	0.135647267	0.928553883	-7.839118538	3.148066348	5.266182339	-3.063465238	1.331058958	1.751590662	1.113283745	0.781873338	-0.460280248	0
436	1121152576	0.224917369	0.262150508	0.136278458	0.928502811	-7.791185781	3.123247013	5.312034748	-3.188299856	1.850037016	1.83036255	1.111016909	0.784302877	-0.462154198	0
437	1121169243	0.224796343	0.262068594	0.136860709	0.928469602	-7.820694947	3.176795814	5.196770914	-2.534642491	1.447137268	1.62903423	1.113993739	0.784442895	-0.45985766	0
438	1121185910	0.224667165	0.261984497	0.13741994	0.928442001	-7.756198291	3.192354609	5.172330325	-2.460504265	1.427159653	1.712070591	1.112117791	0.783002217	-0.463777751	0
439	1121202577	0.224566196	0.261895122	0.137861463	0.928426188	-7.756930682	3.228484404	5.131853164	-2.181414126	1.334022055	1.65940367	1.109740212	0.784178291	-0.461264329	0
440	1121219244	0.224439655	0.26181031	0.138278539	0.928418682	-7.753298668	3.221929106	5.201548066	-2.001259713	1.345292902	1.807829551	1.111534238	0.784004777	-0.463328234	0
441	1121235911	0.224267069	0.261742157	0.138682635	0.92841933	-7.764803874	3.246837481	5.15587685	-1.71569649	1.421907923	2.005216455	1.111903717	0.783512456	-0.465006621	0
442	1121252578	0.224078381	0.261731195	0.138973363	0.928424507	-7.768765852	3.246648354	5.180060903	-0.987550173	1.665030572	1.938940386	1.110048172	0.785310606	-0.462193084	0
443	1121269245	0.223875308	0.261656518	0.139131204	0.928470905	-7.822980342	3.225953059	5.199459665	-0.183942758	0.995137339	1.918193185	1.111368784	0.785689294	-0.465504392	0
444	1121285912	0.223631333	0.261584117	0.139309337	0.92852339	-7.815798572	3.238664942	5.189481988	-0.210877821	1.05703533	2.204754591	1.109457238	0.786094168	-0.464077356	0
445	1121302579	0.223302108	0.261582697	0.139633455	0.928554338	-7.831410169	3.239495655	5.217454392	-0.796658828	1.810460626	2.825161479	1.109792155	0.786176455	-0.463771029	0
446	1121319246	0.222959299	0.261593514	0.139939915	0.928587532	-7.79363429	3.180751751	5.243599005	-0.704294302	1.892910052	2.917537146	1.109419735	0.786661448	-0.46453434	0
447	1121335913	0.222632911	0.261598709	0.14007635	0.928643806	-7.805226117	3.134896051	5.286991336	0.436474791	1.508024798	2.490622799	1.107186459	0.786041645	-0.466082523	0
448	1121352580	0.222342721	0.261593356	0.140124092	0.928707634	-7.783048289	3.152868441	5.214895221	0.687966474	1.354329684	2.301117775	1.108638817	0.785737446	-0.466614652	0
449	1121369247	0.222039889	0.26158452	0.140384349	0.92874327	-7.833127188	3.142901868	5.232242871	-0.478491996	1.635372812	2.570846585	1.106275871	0.78375041	-0.464254989	0
450	1121385914	0.221679797	0.261563985	0.140911498	0.928755242	-7.834859132	3.105612035	5.215973724	-2.123635605	2.064568105	3.391322643	1.109523589	0.784541508	-0.467081777	0
451	1121402581	0.2213901	0.261461253	0.14136577	0.928784235	-7.847120727	3.037875698	5.360151049	-1.768168285	1.277350796	2.819903366	1.11034626	0.785846046	-0.464719263	0
452	1121419248	0.221129095	0.261174141	0.141638085	0.9288857	-7.833867653	3.096258557	5.309524931	-0.803961952	-0.36034174	2.551352639	1.107059717	0.788150044	-0.466598015	0
453	1121435915	0.22085059	0.260918899	0.142076868	0.928956677	-7.757437544	3.168710651	5.199881523	-1.999910519	0.240731162	3.021327648	1.10660374	0.788386916	-0.466348167	0
454	1121452582	0.220533999	0.260757755	0.14276817	0.92897115	-7.834286653	3.117775798	5.312623942	-3.446403959	1.357985994	3.527415844	1.105355718	0.786098356	-0.467771551	0
455	1121469249	0.220244498	0.260510486	0.143258907	0.929033656	-7.82157981	3.061761843	5.417183851	-2.214685882	0.357814787	3.08815143	1.106158046	0.786360907	-0.466439087	0
456	1121485916	0.220057408	0.260096696	0.143147485	0.929211087	-7.807931389	3.101372953	5.332190845	1.302486925	-1.921820281	1.700608683	1.105732141	0.787115801	-0.468643434	0
457	1121502583	0.219809894	0.259686108	0.143147954	0.929384419	-7.768672098	3.16713075	5.159063156	0.616954071	-1.63293803	2.336057924	1.104900547	0.784883076	-0.467377036	0
458	1121519250	0.21947339	0.259333965	0.143408012	0.929522172	-7.785758258	3.192242825	5.104209659	-0.805748329	-0.7273989	3.236584703	1.103329819	0.78684851	-0.468706827	0
459	1121535917	0.219043291	0.258943306	0.143914132	0.929654303	-7.853403994	3.137160578	5.189742248	-2.209786457	-0.532050354	4.248493806	1.1020017	0.786334152	-0.468230486	0
460	1121552584	0.218589231	0.258477201	0.144476093	0.929803712	-7.837319317	3.217749	5.100573536	-2.72726285	-0.89500625	4.678223836	1.102226174	0.789636271	-0.466802284	0
461	1121569251	0.218056305	0.258073371	0.145329873	0.929907958	-7.832504981	3.187847932	5.130780951	-4.429313741	0.106122734	5.584095751	1.099937202	0.786206447	-0.469872845	0
462	1121585918	0.21753273	0.257693256	0.14602199	0.930027567	-7.827462607	3.141304892	5.27721987	-3.366037861	-0.022652326	5.23530379	1.09957713	0.78843986	-0.470495887	0
463	1121602585	0.217124022	0.257190467	0.146185559	0.930236532	-7.838628558	3.136972846	5.323649178	-0.322105207	-1.857597184	3.847852104	1.102730841	0.788560841	-0.471350103	0
464	1121619252	0.216741177	0.256675162	0.146071061	0.930486092	-7.830263054	3.218676633	5.117953964	1.442602875	-2.454326126	3.255826315	1.097672409	0.788995504	-0.469974672	0
465	1121635919	0.216209265	0.25633328	0.146426852	0.930648151	-7.81587634	3.163165324	5.075213461	-1.202616569	-0.315751684	4.782244072	1.097343126	0.790427013	-0.470301113	0
466	1121652586	0.215625961	0.25602726	0.146837073	0.930803073	-7.860661633	3.130454988	5.241165333	-1.287183953	0.004790013	5.06205976	1.096227879	0.787150036	-0.469427287	0
467	1121669253	0.215150769	0.255651313	0.146998089	0.930990932	-7.892825666	3.096785386	5.24780965	-0.027885053	-0.952039558	4.104011562	1.095416085	0.787568801	-0.469531831	0
468	1121685920	0.214699996	0.25534495	0.147296405	0.931131912	-7.850834015	3.248889509	5.152672935	-0.852619513	-0.264418351	4.018649732	1.093949558	0.792230598	-0.470855869	0
469	1121702587	0.21423705	0.255180483	0.147821572	0.931200403	-7.854390371	3.145247385	5.215451314	-2.092642596	1.093045462	4.198031761	1.093784701	0.790338151	-0.470867798	0
470	1121719254	0.213763162	0.255016012	0.148330547	0.931273426	-7.822206757	3.042717294	5.260414032	-2.006132034	1.086677811	4.27303405	1.092787776	0.788432574	-0.473541431	0
471	1121735921	0.21337901	0.254712488	0.148638708	0.931395448	-7.862991982	3.056155023	5.300798554	-1.022153271	-0.281025118	3.553535271	1.090455902	0.790357751	-0.472593127	0
472	1121752588	0.213094858	0.254309545	0.148873984	0.931533023	-7.904577549	3.114467249	5.260957128	-0.871860863	-1.149453552	2.918836332	1.093101534	0.789724218	-0.47273105	0
473	1121769255	0.212786336	0.253937677	0.14926661	0.931642158	-7.90198041	3.115206258	5.274481797	-1.812541934	-0.651212405	3.268488629	1.091534862	0.790053507	-0.473168509	0
474	1121785922	0.212519353	0.253557218	0.149614044	0.931750986	-7.833770484	3.070689717	5.359774199	-1.633882258	-0.805026172	2.950215448	1.091403864	0.791699004	-0.474959074	0
475	1121802589	0.212328951	0.253231673	0.149785902	0.931855311	-7.757508706	3.035586693	5.28360363	-0.547363798	-0.788549714	2.076808881	1.089838247	0.789138719	-0.473725244	0
476	1121819256	0.212157952	0.253058231	0.150057846	0.931897622	-7.742347732	3.06587979	5.222652081	-1.076273911	0.425896852	1.888376817	1.090061283	0.792248439	-0.474845876	0
477	1121835923	0.212044584	0.252947537	0.150392111	0.931899593	-7.834987473	3.047152184	5.145524989	-1.511623992	0.922664731	1.492269106	1.091064143	0.789366058	-0.47344474	0
478	1121852590	0.211950621	0.252932565	0.1508824	0.931845777	-7.869394949	3.037942067	5.11115054	-2.442139262	1.829869508	1.443673167	1.091544774	0.790611807	-0.474070238	0
479	1121869257	0.211916597	0.252930208	0.151321459	0.931782958	-7.962850319	2.933230245	5.197743986	-2.244102281	1.799452779	0.968658171	1.088458463	0.790841847	-0.476486539	0
480	1121885924	0.211949512	0.252877081	0.151568992	0.931749659	-7.941114271	3.04154434	5.229085481	-1.148161429	1.059286418	0.284569338	1.089987824	0.78900259	-0.474919797	0
481	1121902591	0.212031169	0.252868286	0.151882486	0.931682416	-7.889666813	3.125275106	5.113357811	-1.625441659	1.445901533	-0.007883805	1.091059681	0.791078668	-0.476214007	0
482	1121919258	0.21209594	0.252990317	0.152368533	0.931555174	-7.888447532	3.048318592	5.096156313	-2.60438061	2.665036906	0.196580512	1.091585528	0.791858135	-0.477340377	0
483	1121935925	0.212172355	0.253112792	0.152787337	0.9314359	-7.844120861	2.982035068	5.153741261	-2.191553399	2.543262997	0.021088609	1.090578175	0.792092022	-0.478957703	0
484	1121952592	0.212291313	0.253212312	0.153165496	0.93131963	-7.817063291	3.039289301	5.116439322	-2.03204069	2.283656274	-0.295516791	1.088127439	0.792792157	-0.479270413	0
485	1121969259	0.212416231	0.253329826	0.153591769	0.931188978	-7.825298659	3.018174657	5.099581137	-2.300969003	2.469404289	-0.318802635	1.090493739	0.794017661	-0.477667414	0
486	1121985926	0.212560735	0.253435491	0.153992972	0.931060981	-7.789689583	3.062973196	5.121439528	-2.2003964	2.332970521	-0.462549425	1.089093582	0.79264717	-0.480355117	0
487	1122002593	0.212733447	0.253501591	0.154386856	0.930938302	-7.816073741	3.130453896	5.176188144	-2.289938057	2.042143448	-0.582863968	1.091322597	0.793345548	-0.480406046	0
488	1122019260	0.212887917	0.253611279	0.154683525	0.930823861	-7.810521454	3.142814707	5.212273825	-1.574000251	2.18686061	-0.662502608	1.087774216	0.791376737	-0.479224307	0
489	1122035927	0.213009766	0.253806412	0.15509028	0.930675104	-7.766387354	3.180877534	5.162985674	-2.118196181	2.981113135	-0.416065022	1.091370972	0.793793078	-0.480903489	0
490	1122052594	0.213059807	0.254080989	0.155607727	0.93050234	-7.789207678	3.174481399	5.147858089	-2.599151434	3.763853946	0.104437253	1.090710046	0.792341632	-0.480632244	0
491	1122069261	0.213091328	0.254326846	0.156080711	0.930348726	-7.783825297	3.174544769	5.213812267	-2.32118461	3.505559468	0.212637093	1.090359759	0.791439607	-0.481396852	0
492	1122085928	0.2131392	0.254557018	0.156441159	0.93021426	-7.797284301	3.206849825	5.19566496	-1.625265342	3.185724384	-0.050468616	1.092204378	0.794024052	-0.483156687	0
493	1122102595	0.213202408	0.254795489	0.156710209	0.93008919	-7.804239956	3.178957937	5.260126631	-1.036772625	3.066756022	-0.313990255	1.090034428	0.793374995	-0.486394272	0
494	1122119262	0.213211562	0.255034267	0.15698213	0.929975787	-7.770398704	3.227629915	5.280994134	-0.931849602	3.103483484	0.03994077	1.091990465	0.790449676	-0.48413433	0
495	1122135929	0.213194267	0.255249207	0.157291878	0.929868438	-7.791610156	3.196380421	5.297538466	-1.166668713	3.028759322	0.314189052	1.092169234	0.793011565	-0.481974108	0
496	1122152596	0.213150029	0.255476286	0.157662001	0.92975353	-7.807055108	3.229903001	5.282022641	-1.539144404	3.255323405	0.597688784	1.091871895	0.792936039	-0.484162493	0
497	1122169263	0.21310108	0.255607952	0.157960827	0.929677837	-7.818197884	3.206463753	5.324254308	-1.183004003	2.481378527	0.667000483	1.091562887	0.793270059	-0.488409804	0
498	1122185930	0.213107574	0.255658525	0.157892423	0.929674063	-7.790776165	3.122159118	5.388045482	1.053030833	1.226836507	-0.159084725	1.090889273	0.791381819	-0.487481586	0
499	1122202597	0.213136716	0.255622458	0.157722233	0.929706188	-7.770064975	3.141615524	5.346952491	1.61800611	0.419460704	-0.367020189	1.093930807	0.795118147	-0.483546685	0
500	1122219264	0.213141126	0.25564356	0.157782165	0.929689205	-7.788424737	3.220599744	5.297732977	0.119496869	1.277902962	0.135623114	1.093701701	0.792646765	-0.486617653	0
501	1122235931	0.213096429	0.255708255	0.15810121	0.929627457	-7.844918648	3.189428634	5.331540915	-1.283679189	2.006457606	0.678385303	1.092980371	0.793360022	-0.487291429	0
502	1122252598	0.213100239	0.255730787	0.158363343	0.929575766	-7.859654759	3.11069414	5.344478578	-1.164238634	1.627719532	0.406027381	1.092184227	0.793730965	-0.486086039	0
503	1122269265	0.213128575	0.255735531	0.158639172	0.929520931	-7.84116492	3.057488622	5.287533468	-1.297925042	1.501993207	0.268467368	1.092959504	0.795671452	-0.48566774	0
504	1122285932	0.213143869	0.255716914	0.159018269	0.929457767	-7.797546808	3.108851591	5.273009988	-1.926347962	1.511509226	0.50897602	1.092705469	0.796550554	-0.489611874	0
505	1122302599	0.213202486	0.255727936	0.159341897	0.929385863	-7.808512051	3.083283957	5.2393884	-1.811814585	1.667895988	0.232569452	1.092002568	0.794949118	-0.488134448	0
506	1122319266	0.213262597	0.255711438	0.159786454	0.929300282	-7.86690064	3.108106288	5.207580432	-2.512742597	1.637545075	0.350747815	1.094981847	0.794597556	-0.489035512	0
507	1122335933	0.213298358	0.255719805	0.160363969	0.929190287	-7.847282187	3.125196228	5.202276047	-3.243594846	2.033392452	0.626818809	1.090793222	0.794718693	-0.489873159	0
508	1122352600	0.213295352	0.255756833	0.161147242	0.929045264	-7.83720889	3.101862378	5.164349507	-4.505894247	2.628075747	1.165337069	1.090176913	0.793399308	-0.490676526	0
509	1122369267	0.213320182	0.255797102	0.161789925	0.928916768	-7.806146886	3.035743972	5.250396743	-3.662399304	2.39167813	0.779587638	1.09513245	0.794879842	-0.492492212	0
510	1122385934	0.213372223	0.255870332	0.162274819	0.92880006	-7.84399664	3.037130146	5.268163101	-2.56439253	2.290493846	0.251917367	1.091834992	0.793822311	-0.490268728	0
511	1122402601	0.213490704	0.255883006	0.162533545	0.928724099	-7.796300105	3.194043698	5.236247208	-1.36757497	1.460122326	-0.3772235	1.092667839	0.79368293	-0.492654709	0
512	1122419268	0.213636955	0.255993651	0.162763707	0.928619663	-7.860395806	3.155678672	5.136092204	-1.067213625	2.039214085	-0.799110812	1.092045867	0.798081211	-0.492006439	0
513	1122435935	0.213698619	0.256236242	0.163245347	0.928454008	-7.844986976	3.132167364	5.143412846	-2.42588063	3.462097476	-0.035230707	1.090789909	0.796402875	-0.492589518	0
514	1122452602	0.213732669	0.256453796	0.16369805	0.928306386	-7.829328633	3.145790897	5.168389938	-2.210535622	3.257103073	0.142393661	1.091782155	0.795580905	-0.496250071	0
515	1122469269	0.213756653	0.256685145	0.164243735	0.92814052	-7.828684552	3.109107274	5.088096172	-2.890495836	3.56536895	0.401373417	1.092792721	0.794074586	-0.493746197	0
516	1122485936	0.213772813	0.256979452	0.164891188	0.927940538	-7.802821284	3.094735034	5.130441944	-3.518451631	4.202681248	0.541252125	1.090291585	0.79370963	-0.492869461	0
517	1122502603	0.213868722	0.257269129	0.165266555	0.927771378	-7.788070384	3.062430349	5.261486311	-1.794747227	3.584717857	-0.472835411	1.094281734	0.796863429	-0.495869259	0
518	1122519270	0.213989168	0.257604962	0.165590383	0.927592661	-7.729560443	3.143470879	5.184387691	-1.437225572	3.78670851	-0.797079646	1.094366656	0.795518468	-0.494523049	0
519	1122535937	0.214155978	0.258075337	0.16587348	0.927372809	-7.746547578	3.132582136	5.19593694	-1.072554929	4.589098673	-1.407204725	1.092821414	0.796537658	-0.497662202	0
520	1122552604	0.21431317	0.258576987	0.166092125	0.927157599	-7.788667881	3.075582676	5.306943382	-0.379770492	4.610178696	-1.645205438	1.094285503	0.794666714	-0.495129949	0
521	1122569271	0.214547583	0.259068292	0.166079194	0.92696853	-7.778382857	3.176080178	5.250678327	0.701607614	4.178192192	-2.301035981	1.096800108	0.795500883	-0.497531154	0
522	1122585938	0.214713235	0.259657942	0.166339935	0.926718407	-7.837483622	3.229536329	5.202928553	-0.830446352	5.389044358	-1.589341737	1.096682148	0.795184549	-0.500652897	0
523	1122602605	0.214843203	0.260347945	0.166727781	0.926424952	-7.814182479	3.199187698	5.296001955	-1.465501788	6.327707622	-1.327596989	1.095548558	0.793526092	-0.49882032	0
524	1122619272	0.215021637	0.261046542	0.166785284	0.926176586	-7.789084688	3.117344613	5.461089102	0.680354576	5.731811637	-2.217111516	1.097343132	0.796267637	-0.498294649	0
525	1122635939	0.215331227	0.261633843	0.166359228	0.926015552	-7.725882193	3.228962265	5.350486588	3.421503975	4.019324313	-3.634703	1.095916669	0.795969978	-0.500783752	0
526	1122652606	0.215584659	0.262319148	0.166185396	0.925793894	-7.727302437	3.278020498	5.167519018	1.939826175	5.211959519	-2.988629963	1.098927842	0.796965001	-0.496075784	0
527	1122669273	0.215742515	0.263095474	0.166407711	0.925496846	-7.725526054	3.241016097	5.198612384	-0.452031739	6.658900136	-1.819829058	1.097179316	0.795732558	-0.501243997	0
528	1122685940	0.215836233	0.263850953	0.166828384	0.925184136	-7.789816011	3.177838351	5.31351147	-1.603179097	6.903170565	-1.086856696	1.099272667	0.796174486	-0.499375975	0
529	1122702607	0.215958556	0.264484632	0.167045023	0.924935534	-7.766815097	3.225708177	5.392089737	-0.348478686	5.629929141	-1.490893141	1.098657468	0.794191522	-0.501165282	0
530	1122719274	0.21612065	0.265046959	0.166955371	0.924752874	-7.728613004	3.219167089	5.372154298	1.435889543	4.58281346	-2.077549516	1.096952966	0.794535541	-0.503277631	0
531	1122735941	0.216241444	0.265635353	0.166922735	0.924561679	-7.676461496	3.268647457	5.278600125	1.277456867	4.855740659	-1.827797764	1.099273987	0.793086934	-0.501623676	0
532	1122752608	0.216329469	0.266349981	0.167069083	0.924309023	-7.662393047	3.212473511	5.297944223	0.252063515	6.100640457	-1.485746773	1.100229531	0.796679438	-0.500416178	0
533	1122769275	0.216396599	0.266978774	0.167237652	0.924081389	-7.772844153	3.143355648	5.373366079	0.197543002	5.507759234	-1.284331367	1.102569134	0.794233442	-0.502844777	0
534	1122785942	0.216520024	0.267226694	0.167150245	0.923996628	-7.816296457	3.196381061	5.364249785	1.152677646	2.448609559	-1.342271457	1.100548284	0.79480797	-0.504030523	0
535	1122802609	0.216673234	0.267249701	0.166801827	0.924017022	-7.714456446	3.289228642	5.261527228	2.644096505	0.362215007	-1.669171728	1.099742324	0.794339489	-0.503649784	0
536	1122819276	0.216769318	0.267340708	0.166533114	0.924016629	-7.699852745	3.313092903	5.225747456	2.235901056	1.050709727	-1.210472612	1.100454664	0.794348238	-0.501504053	0
537	1122835943	0.21684287	0.267468789	0.166293441	0.92400547	-7.664834684	3.252582598	5.328773419	2.145760152	1.371182308	-1.082469162	1.098677595	0.795574296	-0.502329932	0
538	1122852610	0.216810087	0.267668988	0.166264983	0.92396031	-7.663816683	3.291165702	5.368176198	1.160927043	2.290710419	-0.220362415	1.098360571	0.795185402	-0.502441726	0
539	1122869277	0.216762548	0.26787281	0.166183193	0.923927109	-7.680360764	3.288657467	5.368177057	1.446400124	2.270519349	-0.143028419	1.09706451	0.792337915	-0.504193955	0
540	1122885944	0.216681994	0.268073936	0.166167587	0.923890476	-7.76266869	3.262324663	5.304414157	1.197624131	2.350894581	0.099114605	1.098256115	0.793508081	-0.5042741	0
541	1122902611	0.216536779	0.268274439	0.166337395	0.923835764	-7.725934768	3.285885471	5.316441051	0.035481694	2.763171573	0.880667078	1.098770924	0.792959639	-0.500013098	0
542	1122919278	0.216372356	0.268462045	0.166625277	0.92376791	-7.764959026	3.245973828	5.319734393	-0.748236529	2.916943385	1.237312605	1.098016962	0.792561304	-0.504017056	0
543	1122935945	0.216148216	0.268617525	0.16702236	0.923703473	-7.734135298	3.219084399	5.306980661	-1.121329933	2.835671196	1.674625997	1.094633518	0.793432782	-0.508216008	0
544	1122952612	0.216022783	0.268743766	0.167079804	0.923685707	-7.738222319	3.212051462	5.28209958	0.350709822	2.154347957	0.889325261	1.097251609	0.792662397	-0.506123738	0
545	1122969279	0.215851338	0.268884356	0.167326298	0.923640251	-7.78602938	3.200811077	5.209938364	-0.183390522	2.38876802	1.046491593	1.093502123	0.791831135	-0.507366609	0
546	1122985946	0.215649083	0.268984998	0.167602854	0.923608048	-7.799071961	3.153071431	5.22588863	-0.390199272	2.202979163	1.381163478	1.092786495	0.792662164	-0.507189627	0
547	1123002613	0.215461913	0.269116664	0.167829438	0.923572231	-7.8249164	3.169984639	5.165471322	-0.363883724	2.437974796	1.368874557	1.094110517	0.792509657	-0.505722063	0
548	1123019280	0.215235999	0.269312744	0.168229917	0.923494887	-7.819204413	3.180316048	5.203869862	-1.248011909	3.182390998	1.727364618	1.092556935	0.792537893	-0.506852974	0
549	1123035947	0.215063209	0.269547168	0.168485076	0.923420229	-7.816563222	3.124726236	5.226607185	-0.461354983	3.183084791	1.148406364	1.092375916	0.794729757	-0.506431532	0
550	1123052614	0.214879261	0.269882127	0.168809636	0.923305934	-7.819625077	3.101698246	5.134062404	-0.684948018	3.971446124	1.103605213	1.092589614	0.793589676	-0.51081255	0
551	1123069281	0.214724543	0.270365851	0.169145865	0.923138859	-7.790581684	3.080794172	5.172170017	-0.655791362	4.995984876	0.690407216	1.092221247	0.793610749	-0.50932903	0
552	1123085948	0.214702348	0.270780855	0.1691061	0.923029662	-7.860442731	3.027065133	5.238146062	1.312870286	3.79726018	-0.586566449	1.095295832	0.792863674	-0.510140249	0
553	1123102615	0.214745041	0.271126078	0.168856155	0.922964147	-7.870299736	3.092692271	5.143869586	2.802684116	2.752188894	-1.477273549	1.092480463	0.789792445	-0.509073119	0
554	1123119282	0.214814142	0.271525421	0.168556201	0.922885495	-7.899823575	3.096501376	5.062871021	2.726362909	3.180066378	-1.526388041	1.090790499	0.791407738	-0.50750219	0
555	1123135949	0.214779736	0.272028449	0.168586725	0.922739781	-7.896551811	3.070257793	5.104226691	0.976607492	4.535385543	-0.527556334	1.089688273	0.78961424	-0.510677937	0
556	1123152616	0.214759678	0.272441196	0.168540496	0.922631116	-7.889220348	3.078331315	5.16766755	1.033569721	3.887157199	-0.377291221	1.092137503	0.791745454	-0.510193226	0
557	1123169283	0.214731496	0.272850282	0.168506312	0.922523025	-7.826962751	3.126520883	5.150770824	1.241297004	3.777909632	-0.494177048	1.091606231	0.791609194	-0.510096481	0
558	1123185950	0.214696526	0.273263928	0.168390605	0.922429852	-7.843408547	3.14266435	5.192599869	1.865809772	3.635073555	-0.638136088	1.091306931	0.791596654	-0.511838913	0
559	1123202617	0.214686222	0.273673931	0.168172115	0.922350555	-7.851004641	3.092998308	5.243536741	2.698742286	3.315919488	-1.118147467	1.0914777	0.790043907	-0.509875096	0
560	1123219284	0.214767014	0.274033425	0.167628207	0.922324019	-7.862758807	3.037051114	5.259695192	4.615241637	2.295589891	-2.196611688	1.091301225	0.791112297	-0.510348387	0
561	1123235951	0.214834171	0.274393571	0.167213239	0.922276629	-7.811953763	3.152650403	5.166461789	3.580878907	2.633816028	-1.738221764	1.091672402	0.795649715	-0.509938942	0
562	1123252618	0.214850002	0.274753416	0.167021884	0.922200481	-7.815048584	3.206459265	5.148406444	2.285434405	3.04762543	-1.075454105	1.090462912	0.78972807	-0.509555873	0
563	1123269285	0.214906048	0.275003706	0.166690818	0.922172719	-7.785182422	3.147144386	5.260234754	2.540630289	2.191162321	-1.077228317	1.089982792	0.789096522	-0.51093309	0
564	1123285952	0.214916805	0.275276433	0.166522921	0.922119173	-7.735301289	3.173050013	5.273142558	2.22626688	2.418130403	-0.996767392	1.090200573	0.787499699	-0.510017873	0
565	1123302619	0.214947617	0.275529855	0.166251351	0.922085305	-7.780625413	3.165695112	5.384621855	2.68802246	2.143216375	-1.160802926	1.093085853	0.790796971	-0.511577944	0
566	1123319286	0.215027869	0.27571731	0.16575641	0.922099665	-7.840093844	3.19440419	5.356474596	3.882727785	1.283469606	-1.687399318	1.090680177	0.788749532	-0.510613307	0
567	1123335953	0.215044112	0.275931533	0.165353085	0.922104211	-7.806323563	3.296925344	5.205666935	3.432064861	1.688544582	-1.138976692	1.090338039	0.788142476	-0.513063894	0
568	1123352620	0.215013846	0.276142597	0.16513921	0.922086413	-7.851325152	3.226596829	5.231392401	2.091188476	2.121927451	-0.374778121	1.089333623	0.789339522	-0.509191878	0
569	1123369287	0.214974076	0.276249165	0.164854678	0.922114678	-7.860522711	3.140874945	5.311832927	2.442341235	1.283170789	-0.253529809	1.089800151	0.789498536	-0.509709756	0
570	1123385954	0.214983196	0.276174028	0.164342179	0.922226534	-7.807029602	3.189523725	5.292725306	3.787209923	-0.488917943	-0.783701551	1.090549187	0.790071699	-0.511608973	0
571	1123402621	0.214921476	0.275990504	0.163888135	0.922376648	-7.802977011	3.219721027	5.176527646	3.859584419	-1.253174937	-0.347146233	1.089822264	0.788850252	-0.509153945	0
572	1123419288	0.214770375	0.275899199	0.163645276	0.922482272	-7.803751632	3.193666462	5.243353764	2.949566584	-0.243966778	0.325334842	1.087875193	0.78947538	-0.510749179	0
573	1123435955	0.214731849	0.275732502	0.163066259	0.922643602	-7.822700316	3.150669789	5.353962859	4.450445096	-1.301299388	-0.595518457	1.088189478	0.787166516	-0.512506541	0
574	1123452622	0.214869937	0.275503294	0.161860211	0.922892257	-7.841599758	3.170257503	5.268701526	6.79781201	-2.460514444	-1.772362772	1.088945342	0.784379787	-0.50800517	0
575	1123469289	0.214982273	0.275260948	0.160601651	0.923158244	-7.870015433	3.169473801	5.144472157	8.645351132	-3.220072678	-2.709539951	1.085947064	0.786147775	-0.508100095	0
576	1123485956	0.215082041	0.275106728	0.15936033	0.923396063	-7.866417288	3.164820574	5.113017839	8.218158913	-2.391950995	-2.421013565	1.088726918	0.788905711	-0.505508444	0
577	1123502623	0.215035696	0.275071646	0.158609733	0.923546529	-7.897475184	3.223473363	5.020028805	5.745471357	-0.702898673	-1.025311138	1.088071061	0.785462893	-0.508658638	0
578	1123519290	0.214915931	0.275130842	0.158047403	0.923653171	-7.901681053	3.166523313	5.088073612	4.338411653	0.513075357	-0.056732556	1.088316099	0.785277487	-0.506591936	0
579	1123535957	0.214737	0.275218299	0.157541634	0.923755131	-7.905727538	3.11477877	5.156294537	4.657792633	0.630380983	0.010901829	1.087760575	0.784443454	-0.50496606	0
580	1123552624	0.214605125	0.275248088	0.156612491	0.923934878	-7.858437152	3.131476796	5.228203676	8.116604761	-0.908692304	-1.521654807	1.086493603	0.785542931	-0.50350775	0
581	1123569291	0.214529632	0.27545825	0.155591314	0.924062299	-7.827772019	3.158794065	5.0985599	8.868901207	0.112392688	-2.367763298	1.086793836	0.783812787	-0.505508738	0
582	1123585958	0.214593159	0.275770751	0.154598102	0.92412104	-7.945261775	3.034644302	5.081131922	6.802933504	1.471063649	-2.19306895	1.085349128	0.785375307	-0.505090039	0
583	1123602625	0.214428027	0.276096309	0.154339395	0.924105405	-8.003743006	3.070280111	5.065746855	3.056979783	2.799305408	0.140024363	1.086437524	0.784249843	-0.504913026	0
584	1123619292	0.214235532	0.276365124	0.15383345	0.924154059	-7.925519897	3.082540063	5.137021112	4.615968619	1.996895293	0.036813971	1.085889104	0.783805743	-0.503841518	0
585	1123635959	0.214188679	0.276653704	0.152844847	0.924242604	-7.909296033	2.992352456	5.30053497	7.068411002	1.344488469	-1.473249812	1.084679899	0.782151946	-0.503838015	0
586	1123652626	0.214215333	0.276811976	0.15153091	0.924405379	-7.861297918	3.186705679	5.231252084	9.446621996	-0.410273323	-2.709110536	1.085525517	0.784894913	-0.503798772	0
587	1123669293	0.214200177	0.277040435	0.150372905	0.92452954	-7.937048901	3.215836492	5.067854203	8.330841079	0.488499539	-2.083611003	1.0851714	0.780897922	-0.502440145	0
588	1123685960	0.213818493	0.277317637	0.150399774	0.924530415	-7.846639953	3.153495367	5.218892821	2.525010494	2.715567732	1.498301911	1.085558573	0.783815498	-0.504197533	0
589	1123702627	0.213535729	0.277439583	0.150120576	0.924604555	-7.887269095	2.892287019	5.378300242	3.325607469	1.361548962	1.127096807	1.084643353	0.782344356	-0.502319325	0
590	1123719294	0.213375406	0.277292818	0.149496557	0.924786683	-7.910565961	2.942495518	5.20987795	4.636605973	-1.036686991	0.392437388	1.082454962	0.783165694	-0.501121395	0
591	1123735961	0.213196006	0.277104961	0.149148025	0.924940631	-7.794009069	3.026822683	5.124511265	2.850800822	-0.829059122	1.028958923	1.0843275	0.783176923	-0.501172674	0
592	1123752628	0.21295407	0.276905929	0.149389442	0.925017008	-7.757639344	3.016894833	5.164143918	-0.231038528	-0.08528278	1.989690937	1.082930042	0.785378189	-0.500829255	0
593	1123769295	0.212673471	0.276657803	0.150025776	0.925052821	-7.746234059	2.966076256	5.303925985	-2.32818881	0.113970498	2.654056083	1.082812508	0.781246351	-0.50441464	0
594	1123785962	0.212610504	0.276343406	0.150311211	0.925114931	-7.796373269	2.912171794	5.347557481	-1.690240761	-0.644128223	1.499944568	1.084595197	0.783271607	-0.499996235	0
595	1123802629	0.212706482	0.276012321	0.150331458	0.925188416	-7.838810986	2.989897962	5.298741803	-1.771622086	-0.736262249	1.057174722	1.083923358	0.78599998	-0.502609409	0
596	1123819296	0.212807864	0.275693924	0.150441254	0.925242186	-7.831223047	3.119390647	5.239665434	-1.526542276	-0.824105044	0.56267403	1.083711104	0.785611603	-0.501842461	0
597	1123835963	0.212898959	0.275456253	0.150617847	0.925263287	-7.902660357	3.075468925	5.248451517	-1.763587783	-0.174973241	0.564008141	1.081783332	0.783123728	-0.504060563	0
598	1123852630	0.212948124	0.275231014	0.150863925	0.92527891	-7.851225721	3.093504051	5.284221993	-1.151981084	-0.329293435	0.257564308	1.081478073	0.785132063	-0.502183749	0
599	1123869297	0.21313016	0.274993013	0.15063225	0.925345505	-7.831754334	3.115045692	5.21934277	0.771781482	-0.98110257	-0.763229501	1.085458859	0.784021186	-0.502332912	0
600	1123885964	0.213280474	0.274732443	0.150473095	0.925414163	-7.818289362	3.166877743	5.049506831	0.946402318	-1.237146176	-0.828767483	1.083044091	0.783209208	-0.502074038	0
601	1123902631	0.213344059	0.274577956	0.150608176	0.925423382	-7.846852176	3.215911542	4.98903602	-0.401986763	-0.036733924	-0.108110214	1.079904107	0.783431197	-0.502562248	0
602	1123919298	0.213437277	0.274443454	0.150710128	0.925425187	-7.845141492	3.113607063	5.114163587	-1.109404447	0.380940991	0.234902108	1.084616305	0.783820562	-0.503161559	0
603	1123935965	0.213604779	0.274230782	0.150494384	0.925484693	-7.871509347	3.074308385	5.168121516	0.825445683	-0.816400944	-0.74718735	1.087398803	0.783693596	-0.500328944	0
604	1123952632	0.213733554	0.274135151	0.150167339	0.925536416	-7.830226926	3.169912036	5.233051289	2.12401389	-0.327082502	-1.092126377	1.084518139	0.782731863	-0.502726921	0
605	1123969299	0.213897757	0.274189275	0.149618252	0.925571375	-7.78573956	3.243916201	5.252032492	3.580239931	0.33300917	-1.849866652	1.085658554	0.784797895	-0.50320716	0
606	1123985966	0.21405613	0.2743692	0.149126645	0.925560781	-7.837189367	3.182792584	5.148520562	2.596419197	1.621573508	-1.354518526	1.084939926	0.780122906	-0.500886828	0
607	1124002633	0.214162255	0.27455138	0.148788077	0.925536697	-7.833753785	3.189064255	5.077772059	2.225816774	1.728405337	-1.122436986	1.084829483	0.785116075	-0.500717169	0
608	1124019300	0.2142359	0.274766783	0.148564406	0.925491659	-7.8590789	3.087546383	5.142763499	1.461911967	2.22874707	-0.677068427	1.084939208	0.781752976	-0.50218389	0
609	1124035967	0.214211326	0.274996846	0.148682134	0.925410106	-7.788749862	3.146020796	5.195781492	-0.223476928	2.865719816	0.297767894	1.083248662	0.782857427	-0.502682556	0
610	1124052634	0.21430683	0.275242302	0.148500816	0.925344134	-7.744704728	3.167327025	5.206696941	-0.668426503	3.24584668	0.509895637	1.087652397	0.781422908	-0.500782534	0
611	1124069301	0.214286809	0.275515017	0.148746935	0.925228074	-7.763846646	3.112163561	5.214571539	-1.298525806	3.497825358	0.613180743	1.085940045	0.783845689	-0.50408316	0
612	1124085968	0.214430898	0.275706042	0.148610758	0.925159668	-7.746704205	3.054167439	5.239236178	-0.721266673	2.755883522	0.044410691	1.085230214	0.783664916	-0.502086476	0
613	1124102635	0.214546169	0.275857556	0.148643056	0.925082586	-7.829586123	3.072058083	5.202968591	-0.811205018	2.397918659	-0.131905827	1.089283005	0.784786805	-0.501664465	0
614	1124119302	0.214568181	0.275959573	0.149078098	0.924977043	-7.745025136	3.130800048	5.170857649	-2.720841526	2.589825512	0.824383121	1.0861472	0.78320859	-0.50230832	0
615	1124135969	0.214654903	0.276094449	0.149384108	0.924867296	-7.792755661	3.031702461	5.281489767	-2.88324645	2.918768797	0.767317973	1.086358345	0.784296868	-0.505286446	0
616	1124152636	0.215018233	0.276141346	0.148918394	0.924844002	-7.778958635	3.068457222	5.410028737	-1.03854781	1.784188925	-0.464223502	1.089506085	0.783657628	-0.500712924	0
617	1124169303	0.215112507	0.276198826	0.149088313	0.924777537	-7.837385461	3.155712957	5.367572531	0.543916518	1.068397102	-1.27192733	1.08804435	0.785059934	-0.501703366	0
618	1124185970	0.215369849	0.276190406	0.148717776	0.924779817	-7.828397577	3.205049282	5.248887671	1.095624776	0.584420413	-1.354117218	1.088541232	0.78587808	-0.502657902	0
619	1124202637	0.215812009	0.27626617	0.147874681	0.924789305	-7.791720558	3.169201652	5.234145082	0.324416207	1.657099812	-0.978033154	1.091294849	0.783103078	-0.501315849	0
620	1124219304	0.216088285	0.276405947	0.147510176	0.924741236	-7.713113408	3.159324513	5.316041243	-0.279384433	2.204871292	-0.644569653	1.092015536	0.784288799	-0.502568528	0
621	1124235971	0.216458723	0.276538098	0.146870405	0.924716922	-7.717254074	3.16546212	5.241551717	-0.498469984	2.340811815	-0.444731316	1.092565881	0.782140233	-0.499562645	0
622	1124252638	0.216702111	0.276682591	0.146522677	0.924671857	-7.693617853	3.171319169	5.23760066	-0.128699882	2.216154482	-0.534772444	1.094593405	0.784421766	-0.497465281	0
623	1124269305	0.21708309	0.276768285	0.145812877	0.924669051	-7.800900331	3.176075957	5.206890901	0.254786248	1.734234832	-0.831858729	1.094852597	0.782419277	-0.496110648	0
624	1124285972	0.217431875	0.276866537	0.145298593	0.924638642	-7.77743755	3.234513557	5.097403259	-2.162032369	2.685830373	0.561848779	1.092641842	0.780889592	-0.497881613	0
625	1124302639	0.217709541	0.276917126	0.145071209	0.92459386	-7.781204762	3.177820881	5.208730159	-4.15905189	3.004338667	1.73978522	1.097653094	0.781891996	-0.493492381	0
626	1124319306	0.21801968	0.276942828	0.14476976	0.924560331	-7.793598012	3.088974797	5.245370342	-4.824137245	3.101732231	2.177205464	1.097679229	0.783238859	-0.493528176	0
627	1124335973	0.218435649	0.276886113	0.144193651	0.924569164	-7.753528946	3.107283205	5.33053516	-3.797042836	2.161242577	1.435199833	1.099281771	0.779490023	-0.490989589	0
628	1124352640	0.218872381	0.276723724	0.143574933	0.924610783	-7.838047603	3.164207785	5.292513352	-3.040293102	1.079730195	0.91318533	1.100420713	0.779701522	-0.491797846	0
629	1124369307	0.219495867	0.276510831	0.142486444	0.924695051	-7.894269351	3.213131951	5.21270087	-3.705623037	1.10947533	1.259188666	1.10566352	0.782506334	-0.486700637	0
630	1124385974	0.220211916	0.276285017	0.141231657	0.924784797	-7.848209909	3.135782713	5.284035523	-6.026785606	1.958720879	2.638320564	1.107384215	0.780184117	-0.482238722	0
631	1124402641	0.22093453	0.275956732	0.140160623	0.924873405	-7.814402096	3.144402179	5.248642178	-8.221361612	1.930478769	3.650713968	1.107908042	0.780435301	-0.480017804	0
632	1124419308	0.221439066	0.275600292	0.139969332	0.924887996	-7.742711641	3.162513776	5.189918963	-12.0002906	2.833671527	5.540814631	1.111437551	0.780782857	-0.478290087	0
633	1124435975	0.222048289	0.275225447	0.139920637	0.924860922	-7.729826027	3.180213175	5.153165695	-17.54652395	4.686875907	8.193271035	1.113468064	0.78034882	-0.473537672	0
634	1124452642	0.222983969	0.274856554	0.139669613	0.924783447	-7.756060218	3.221086587	5.116367277	-26.47605964	8.06981095	12.42112918	1.117185817	0.779049404	-0.470406096	0
635	1124469309	0.222433272	0.274600062	0.14439802	0.924265902	-7.779621432	3.300299533	5.036178872	-38.5507439	11.79263128	18.41918606	1.115751308	0.782498328	-0.4693564	0
636	1124485976	0.221224465	0.274370674	0.152026058	0.923400534	-7.842558776	3.41807628	4.728247431	-55.51457109	17.47873532	27.13045004	1.115236413	0.782268684	-0.477372913	0
637	1124502643	0.218761048	0.27429017	0.164125674	0.921938864	-7.936948493	3.563323469	4.474488648	-74.17629234	24.50108284	36.94246854	1.112161574	0.787405607	-0.485743514	0
638	1124519310	0.215536855	0.274329182	0.179282028	0.919861576	-8.063605042	3.46254392	4.679310513	-92.03850804	31.63061297	45.99545677	1.106309312	0.790379082	-0.503118521	0
639	1124535977	0.211724532	0.274370456	0.196578701	0.917197029	-7.983057448	3.280315827	5.259986967	-105.218174	36.65827225	52.84371043	1.101681168	0.796607598	-0.517681547	0
640	1124552644	0.207675233	0.27393849	0.214580394	0.914212205	-7.894975275	3.014286685	5.605028878	-110.3605379	35.63569032	55.7970076	1.101088233	0.805766932	-0.534887267	0
641	1124569311	0.203587718	0.273067941	0.232444446	0.911018946	-7.808304798	2.914809814	5.611074998	-110.37208	33.14233337	56.08441232	1.092611456	0.809253024	-0.551687934	0
642	1124585978	0.199578365	0.271757715	0.249640214	0.907742246	-7.622743359	3.051319422	5.638402648	-107.099347	29.49586002	54.88499185	1.084782994	0.814554336	-0.563382169	0
643	1124602645	0.195791021	0.270106483	0.265837427	0.904454988	-7.63603764	3.059267547	5.647216273	-101.7854289	25.64491354	52.16379574	1.080821977	0.816657797	-0.578074661	0
644	1124619312	0.191981052	0.268431142	0.281704179	0.900961017	-7.625612397	3.159563146	5.631308261	-100.1171729	25.48498381	51.41878327	1.074836962	0.819992473	-0.594402672	0
645	1124635979	0.188240393	0.266943897	0.297230604	0.897195897	-7.636156757	3.237836976	5.639900481	-98.4303455	26.57259216	49.59757134	1.068177894	0.819786527	-0.608135285	0
646	1124652646	0.184685452	0.26545078	0.312311737	0.893246072	-7.747090225	3.166544541	5.666904623	-96.42679417	25.92443821	47.36936864	1.061817948	0.823925211	-0.620750963	0
647	1124669313	0.18118385	0.263695375	0.327114915	0.889175457	-7.778188226	3.204361089	5.515958155	-95.42878763	24.07005619	46.90756792	1.059116361	0.827537326	-0.631176805	0
648	1124685980	0.177409567	0.262001692	0.342513886	0.884627151	-7.709673162	3.34682332	4.924938453	-99.59230045	26.66896055	48.88133372	1.045122945	0.82635611	-0.647630147	0
649	1124702647	0.173143164	0.260710885	0.359450401	0.879116994	-7.805310559	3.358270642	4.532059584	-109.8565338	33.88165064	52.47926499	1.043231602	0.826113285	-0.663374159	0
650	1124719314	0.16841891	0.259720921	0.37777247	0.872621381	-7.783635392	3.113396634	4.961360166	-119.5152019	40.23410863	55.76388489	1.034172325	0.824202763	-0.683361063	0
651	1124735981	0.163505923	0.258582196	0.396300891	0.865648118	-7.719163413	2.938732062	5.428176883	-121.8570444	40.91379398	57.05580199	1.02303908	0.825494698	-0.698602767	0
652	1124752648	0.158399992	0.257099674	0.414705501	0.858387178	-7.649158804	3.0848299	5.551477306	-121.9695342	39.75710428	58.5512731	1.017364303	0.822821803	-0.714354281	0
653	1124769315	0.15322414	0.255593017	0.43271857	0.850852051	-7.749757797	3.329108194	5.148905117	-120.365677	39.86206756	57.99713755	1.008559307	0.817693379	-0.733877692	0
654	1124785982	0.147519806	0.254207749	0.45179493	0.842316846	-8.101624388	3.240566055	4.264857275	-128.53756	45.0086083	61.49574464	0.999159403	0.815917866	-0.7480277	0
655	1124802649	0.141495448	0.253093684	0.472202812	0.83243446	-8.026599249	2.933008684	4.803946261	-139.6338957	51.2485986	63.4199067	0.988994482	0.811285657	-0.76902017	0
656	1124819316	0.135796612	0.251538549	0.491399674	0.82268706	-7.869537481	2.898089173	5.943420845	-133.2851141	46.22785571	60.96747479	0.978184349	0.804540801	-0.785419961	0
657	1124835983	0.13040665	0.249099848	0.508525072	0.813846191	-7.722542819	3.227640897	6.010087267	-119.8891884	36.66889815	59.43284949	0.968353209	0.80238782	-0.799123729	0
658	1124852650	0.125475266	0.246404845	0.523700506	0.805778127	-7.643262585	3.336543653	5.640627178	-107.3078598	30.54594807	55.07647135	0.963734167	0.793002828	-0.813538552	0
659	1124869317	0.120916846	0.243920021	0.537802673	0.797903769	-7.66209242	3.372712131	5.465371325	-101.1372597	29.0957836	50.56884226	0.955451303	0.79037131	-0.822908848	0
660	1124885984	0.116651411	0.241629901	0.550999058	0.790194582	-7.585845811	3.428144932	5.595430434	-95.90724106	28.03378773	46.82643772	0.949555975	0.784608912	-0.835438416	0
661	1124902651	0.112845423	0.239518384	0.562882383	0.782981659	-7.527457187	3.470785513	5.560906294	-87.53049795	25.36914927	41.8395663	0.940619132	0.776005666	-0.844660128	0
662	1124919318	0.10954116	0.237555276	0.573511834	0.776306899	-7.589770766	3.479701336	5.398327616	-79.42577036	22.35293144	36.88975699	0.936755415	0.774927715	-0.852244066	0
663	1124935985	0.106547227	0.235752099	0.583374207	0.769898156	-7.764026262	3.42702419	5.057144207	-74.68409387	20.95480864	33.52517934	0.930641706	0.769089197	-0.860886448	0
664	1124952652	0.103515866	0.23390897	0.593076294	0.763434063	-7.924272101	3.21678325	4.839846128	-74.04269332	20.84553935	33.55849684	0.925374033	0.757216265	-0.867142277	0
665	1124969319	0.100484555	0.232079816	0.602571887	0.756933904	-7.881685908	3.133178242	4.963846902	-73.11103467	20.80685657	33.12444774	0.921296248	0.755272006	-0.876849849	0
666	1124985986	0.097444833	0.23016741	0.611766781	0.750512407	-7.860090139	3.221790537	5.157069123	-71.28072433	20.0536254	33.06919595	0.91190422	0.749236375	-0.884428203	0
667	1125002653	0.094415811	0.228177861	0.620576646	0.74424804	-7.873151835	3.373340937	5.139415079	-68.71514056	19.08257883	32.81687932	0.908484667	0.744164122	-0.890355594	0
668	1125019320	0.091424405	0.226118927	0.628974742	0.738175171	-7.914307029	3.339710389	4.937782225	-65.90918794	17.97987329	32.37884094	0.901099993	0.736663964	-0.897884383	0
669	1125035987	0.088529979	0.224172524	0.637072296	0.732152998	-7.929052618	3.228361939	4.910087973	-64.25893141	17.842222	30.94841019	0.898710812	0.728562355	-0.903991944	0
670	1125052654	0.085832917	0.222371783	0.644586064	0.72642433	-7.797966368	3.266875911	5.048541646	-60.26325479	16.88185229	28.57987525	0.894123215	0.723775166	-0.910728201	0
671	1125069321	0.083146451	0.220583566	0.651853829	0.720774683	-7.914672403	3.312791523	4.924843231	-58.70593976	16.61167171	28.12809296	0.887883664	0.71894382	-0.913547342	0
672	1125085988	0.080111331	0.218710478	0.659474511	0.714731607	-7.991035176	3.25499985	4.803934368	-61.75118726	18.5301424	30.53139864	0.883865027	0.712521371	-0.9219592	0
673	1125102655	0.076803037	0.217040823	0.667532122	0.708092819	-7.996991804	3.086455077	4.749150639	-66.09304294	21.87972581	31.26841164	0.875676795	0.705143964	-0.926737032	0
674	1125119322	0.073433669	0.215617638	0.675701252	0.701102238	-7.9029349	3.081975213	5.05105818	-68.04250238	23.91668677	30.40131291	0.873149768	0.69881136	-0.934564763	0
675	1125135989	0.070322808	0.214390495	0.683100096	0.694597492	-7.745516117	3.328862273	5.290874192	-62.36997688	22.52896311	27.33672165	0.86806826	0.695558203	-0.938074513	0
676	1125152656	0.067512384	0.213093394	0.689569502	0.688859336	-7.867245119	3.415994321	5.12583359	-54.81877736	19.18815439	25.21851805	0.864476638	0.688064977	-0.941810765	0
677	1125169323	0.064708885	0.211626097	0.695703952	0.683390933	-7.991526095	3.317792728	4.854882303	-52.05425207	17.77924	25.61562018	0.858625117	0.682952643	-0.944473166	0
678	1125185990	0.061733326	0.210247508	0.702149597	0.67747393	-8.020169427	3.105991865	4.732629219	-55.38525963	19.78765996	26.24405865	0.859154905	0.679108166	-0.951996206	0
679	1125202657	0.058504761	0.209077845	0.709287483	0.670652604	-7.955921727	2.952572342	4.835021795	-62.53299297	23.55590782	27.02082393	0.851642861	0.671457992	-0.957135719	0
680	1125219324	0.055426182	0.208116644	0.7161798	0.66385382	-7.748222854	3.192115235	5.337920172	-61.43699128	23.631383	24.96281703	0.84454543	0.664390308	-0.960982141	0
681	1125235991	0.052487475	0.206940488	0.722097828	0.658023879	-7.804073046	3.323958073	5.370950797	-52.51004966	20.1862437	24.34766419	0.844040314	0.66138219	-0.96482556	0
682	1125252658	0.049584153	0.205621706	0.727418239	0.652781611	-7.833718232	3.315645159	5.097026508	-47.00120999	18.29747107	24.25123337	0.840733407	0.654252037	-0.967060127	0
683	1125269325	0.046584032	0.204227551	0.732896299	0.647289773	-8.040614286	3.061146625	4.635967961	-48.85700891	18.83009588	25.19294453	0.837184002	0.648781182	-0.966813258	0
