"sep=,",,,,,,,,,,,,,,,
"DeviceTag:,Xsens_1,,,,,,,,,,,,,,,,,",,,,,,,,,,,,,,,
"FirmwareVersion:,2.2.1,,,,,,,,,,,,,,,,,",,,,,,,,,,,,,,,
"AppVersion:,2023.0.0,,,,,,,,,,,,,,,,,",,,,,,,,,,,,,,,
"StartTime:,2023-07-17 14:57:19.000 +0200,,,,,,,,,,,,,,,,,",,,,,,,,,,,,,,,
"© Movella Technologies B. V. 2005-2023,,,,,,,,,,,,,,,,,,,",,,,,,,,,,,,,,,
PacketCounter,SampleTimeFine,Quat_W,Quat_X,Quat_Y,Quat_Z,Acc_X,Acc_Y,Acc_Z,Gyr_X,Gyr_Y,Gyr_Z,Mag_X,Mag_Y,Mag_Z,Status
0,1113757131,4.03584796632196e-17,3.95100948075883e-16,-0.707106781186547,-0.707106781186547,0,0,0,0,0,0,1.02880859375,-0.00756835937500005,-0.322021484375,0
1,1113773798,0.00123188229576023,0.000490409311261629,0.707072575915681,0.707139741743229,-9.24782823209565,3.46674551649608,-0.833264028724101,1.56008648360566,0.571368122165579,-4.53428357093827,1.02693430288777,-0.00735310679153002,-0.321677811272475,0
2,1113790465,0.00241057788033881,0.000762815442023021,0.706998020250434,0.707211005703991,-9.26597403009205,3.48790531471045,-0.865175625763423,2.3291313246186,0.429567258426941,-4.5807052740528,1.0278183853795,-0.00817687112272508,-0.318652421832327,0
3,1113807132,0.00329357085146881,0.00109291584262868,0.706860291441917,0.70734467292025,-9.25656756724372,3.47390222236989,-0.853847108534018,3.49916235528715,0.289740099192731,-4.54391880532498,1.02684494422621,-0.00761301560768204,-0.317853772084053,0
4,1113823799,0.00430376942118181,0.00162237627566404,0.706858890192877,0.707339631873744,-9.19730786004172,3.28799061844909,-0.867034755579593,2.32461865822768,-0.183243207456411,-6.40127205123751,1.02826868864123,-0.0098596772466552,-0.318860671876858,0
5,1113840466,0.00557287992077104,0.0025049700611257,0.706459549656838,0.707727046842948,-9.25023020706492,3.45633650470848,-0.954476426758607,4.37119545030756,-0.0337282896739474,-7.0530514583658,1.02892101135633,-0.0104406953162231,-0.317812974449391,0
6,1113857133,0.00657369105246465,0.00349287098453405,0.705878181835415,0.708294133003345,-9.11884265328979,3.36775427289906,-0.944352240545676,5.89617165706711,0.238290312530804,-7.28282729368779,1.02673190108087,-0.011307771473417,-0.320496120919151,0
7,1113873800,0.00769274924992599,0.00463780879246546,0.705189198344555,0.70896227464989,-9.12838261057835,3.30693752393538,-0.906156955979311,5.33487586287297,0.233248253461651,-8.98783213676868,1.02765666940741,-0.0139929640721037,-0.320057128845077,0
8,1113890467,0.0089518924850411,0.00583818609605459,0.704526841895924,0.709596863192193,-9.13768550325189,3.42318370711583,-0.978470370028867,4.47906400772915,-0.00436540893774197,-9.72989894594552,1.02526477375479,-0.0130303841115744,-0.318266704508176,0
9,1113907134,0.0102449018252146,0.00712460346020197,0.703897487135473,0.710191952655403,-9.15457837111917,3.43958532421806,-0.998760852912353,4.6186282502598,-0.386406855267591,-10.8677037872858,1.02874100551697,-0.0123684027210598,-0.320913041031831,0
10,1113923801,0.0115894678846629,0.008439108416441,0.703256777340483,0.710791369396087,-9.20458253241491,3.43096116072854,-0.962604136825225,4.57262497359621,-0.771324553680224,-11.6894784599789,1.02683430280068,-0.0124559780919402,-0.319398578117289,0
11,1113940468,0.0130355896408114,0.00978062269078891,0.702654320985792,0.711344725166703,-9.21598927853566,3.45813267553245,-0.95389433712445,4.37489362286269,-1.17449818277213,-12.4766707647464,1.0268702955674,-0.0147456124794613,-0.320229050373658,0
12,1113957135,0.0145778214433349,0.0110635175769321,0.702058009983501,0.711884566709237,-9.22011362528906,3.51075800959182,-0.967631542474071,3.63762200038194,-1.59588153882131,-12.9343579957877,1.02540114965743,-0.0129234102934356,-0.318345786305486,0
13,1113973802,0.0160588253351679,0.0123616434939829,0.701594843446307,0.712287848800283,-9.15994069806048,3.52504446826567,-0.995808841826065,3.15173382803701,-1.46464091769872,-12.9300921274169,1.02535912071559,-0.0121538092600036,-0.318526305876301,0
14,1113990469,0.017472217745073,0.01366986134856,0.701201118366645,0.712618304633796,-9.03332952872335,3.52713886326976,-1.02886340363097,2.60545785319838,-1.1746635408358,-12.9296831462638,1.02549205352579,-0.0123803916995931,-0.316876523421523,0
15,1114007136,0.0187669749680984,0.0150577389246572,0.700837310300626,0.712915233137578,-8.91950991388873,3.47363557999442,-1.03618084063153,2.49134527000068,-0.390257724320624,-13.0252743201236,1.02423878716619,-0.0148801182983581,-0.32019743905501,0
16,1114023803,0.0199631463567608,0.0164639569055915,0.700329912155838,0.71335014197121,-8.85970541391578,3.45744035060014,-1.05879307169692,2.50791431514749,0.550764884775317,-12.9529528717412,1.02264742313101,-0.0127787647258662,-0.319454885694376,0
17,1114040470,0.0210387536449706,0.0180159909818673,0.69978269233807,0.713818589291487,-8.92786034850776,3.48246709518156,-1.08756310550621,3.4273498366,1.52080946701153,-13.1540401296352,1.02357001837563,-0.0122564268421659,-0.320079964363029,0
18,1114057137,0.0220290611098385,0.0195188756531964,0.699198605461233,0.714321387108717,-9.12069073318566,3.53262413367897,-1.13617178431369,3.69460148237907,1.60143078536208,-12.6043808676456,1.02226859697077,-0.0120682608652624,-0.322967387958034,0
19,1114073804,0.0229177571787797,0.0208470543554678,0.698695996602392,0.714747564572546,-9.28728433004415,3.5995522835148,-1.19372414079423,3.57787337060774,0.892529566052068,-11.2371024131628,1.02107541051449,-0.0104053903690686,-0.322053141567804,0
20,1114090471,0.0235698355556189,0.0218338656697004,0.69817098890762,0.715209770213995,-9.36607010473507,3.67308419651329,-1.21178589544202,3.83948339993677,0.221737318807201,-8.46326678209129,1.02047358328289,-0.011333550542312,-0.321291757457401,0
21,1114107138,0.0239573922352388,0.0224486744371554,0.697651197966877,0.715684921141058,-9.39275556490834,3.63829586348143,-1.18588498231749,3.61067673132208,-0.33505801750379,-5.4676037554542,1.01921732992317,-0.0111906995633886,-0.324512894907644,0
22,1114123805,0.0241940572473916,0.0227560144902197,0.697118893494586,0.716185771801782,-9.41731771821312,3.80156750436319,-1.10894586495053,3.49499961114233,-1.05131323296037,-3.28619261264505,1.02020014818614,-0.0109367852777134,-0.32066668471249,0
23,1114140472,0.0243106119835157,0.0227558658164194,0.69658387238288,0.716702220906287,-9.38686636538784,3.75380165190312,-1.03202392719683,3.91584326951747,-2.04973400407173,-1.33260472355963,1.01936532862303,-0.00951630506363777,-0.323124090392385,0
24,1114157139,0.0244441337282096,0.0225654185499232,0.696051665535607,0.717220583305479,-9.29232336083387,3.85064613019797,-0.897149036978265,3.87365781532884,-2.92509565798421,-0.593767280001123,1.02021369974839,-0.00606140251436198,-0.323018651214741,0
25,1114173806,0.0245966545991487,0.0220410785199335,0.695468088951804,0.717797556898833,-9.2056498748258,3.86952645202036,-0.788514748969269,3.74466922520363,-4.21931461366505,0.682540588653041,1.01986048942173,-0.0079397490735625,-0.321105750757124,0
26,1114190473,0.0246914285846537,0.0212689905314871,0.695153603157374,0.718122156331039,-9.10998246832306,3.9005703467473,-0.689286947736722,2.81880474240874,-5.42450878032741,2.13993451292105,1.01855027650737,-0.00700992763615044,-0.322035027252195,0
27,1114207140,0.0247895385004529,0.0202247972585295,0.694841806799217,0.718450624525294,-9.03339268807316,3.89284546719285,-0.691157807060742,1.69427951349303,-6.08147317174782,3.13868367115852,1.02028890129122,-0.00610186639842184,-0.323533458933709,0
28,1114223807,0.024809821864652,0.0191497052599467,0.694710056704336,0.718606776089232,-8.9748083111031,3.92719289449353,-0.755354650025535,0.775955029118076,-5.86489692423615,3.58756509155039,1.01799418452366,-0.00650711544014828,-0.322254311357581,0
29,1114240474,0.0247314454801066,0.0181341138572324,0.694670584609854,0.718673979212328,-9.0106128714311,3.87837800506822,-0.827978171768818,-0.13308552290621,-4.89503384328738,3.63073265512183,1.01789268412212,-0.00212327163894504,-0.322985066038772,0
30,1114257141,0.0245163208034709,0.0173460390674631,0.694806650289738,0.718569261558053,-9.02062395908631,3.82820832442936,-0.915476422993679,-1.29481133603436,-3.1557054084075,3.17128496653625,1.01761177359422,-0.00197056332278083,-0.323168137182378,0
31,1114273808,0.0241975418143219,0.0168456346778504,0.69506008466876,0.71834683980839,-9.08997268063137,3.78305694995003,-0.961300023162566,-2.47142002277787,-1.14414434525513,2.25553316566302,1.02063491723455,-0.000947564833298713,-0.32287080974338,0
32,1114290475,0.0237494033423077,0.0166339189321734,0.695491418682586,0.717949138254742,-9.16870434966853,3.80214027954414,-0.940289726578708,-3.45166124700165,0.696698184065877,1.57670416428387,1.01938620170715,0.00115944060486942,-0.32319462501046,0
33,1114307142,0.0231431961812731,0.0165596223245014,0.696051195783774,0.717427978424986,-9.20392586364126,3.78868749863563,-0.889798645576023,-4.59973195202406,2.16560763617324,1.71324106730838,1.01739873525058,0.00126530566831143,-0.324021587799218,0
34,1114323809,0.0224068090116369,0.0165171769136557,0.696723969525762,0.716799015111617,-9.23541037899787,3.75968408078944,-0.886861899392835,-6.3690713031972,3.2801411750489,2.15315233156381,1.01886740026308,0.00341458572457586,-0.32499630591785,0
35,1114340476,0.0215190519103016,0.016594753493973,0.697675971105284,0.715897886505928,-9.2678296663002,3.79037459189233,-0.892079207271643,-8.44988111753102,4.49230762005214,2.41004200880375,1.01725846348626,0.000845938815618383,-0.325314600991681,0
36,1114357143,0.0206311262421386,0.0167617214070242,0.69875121998938,0.714870711309959,-9.24562107379526,3.7728893936865,-0.899833834918,-10.4960805889077,5.31088264072982,1.92484070588841,1.01716469630373,0.00430198883893697,-0.325358110053802,0
37,1114373810,0.019667631023843,0.0171468011730216,0.700227359524609,0.713442931475698,-9.28481384762527,3.78921183866389,-0.926815305637527,-12.4545125964451,6.15666376564821,1.45605995867734,1.02038301768642,0.00331992196935123,-0.32447759715711,0
38,1114390477,0.0187310382891541,0.0176163310201846,0.701787244564256,0.711922380918669,-9.33662403561907,3.7709618589496,-0.970415826862322,-14.4104873411746,6.88944689769592,0.839711072245592,1.0185513178882,0.00410213802979064,-0.324654972247921,0
39,1114407144,0.0178203993710808,0.0182011744377382,0.703501906594241,0.710236733796282,-9.35445572243508,3.76752577746025,-0.952740603804155,-16.4287364684836,7.5406115875616,0.147590313198106,1.02106680172753,0.00430841427425781,-0.324006078393797,0
40,1114423811,0.0169453987019455,0.0189802318516011,0.705532379543072,0.708220774672689,-9.31329986590099,3.71085854404371,-0.98135160304411,-18.4879398022494,7.99916516653853,-0.820445705117369,1.01873429013345,0.00636774509552116,-0.327762484318501,0
41,1114440478,0.0163039702754337,0.0200066222714123,0.707612226979899,0.70612948660079,-9.10381896509456,3.65975972266878,-1.02265993198816,-20.1034776614662,8.4570078695309,-3.20877343894866,1.01900028966253,0.0055715264674177,-0.325473381601905,0
42,1114457145,0.0159162461392094,0.0213900693307969,0.709823118113382,0.703875187113919,-8.90264171106664,3.50775797839711,-0.977785487383016,-20.932609513739,8.74419680304157,-6.0787448616672,1.01452873264887,0.00768838097354906,-0.326763826925452,0
43,1114473812,0.0158246186078766,0.0229394838457269,0.712047491910843,0.701578029010519,-8.78693740578086,3.35214919915002,-1.06362974425825,-22.5749461628458,8.5975765729487,-8.39923912312377,1.0154978017414,0.00860859770591304,-0.326721108831222,0
44,1114490479,0.015811214576552,0.0247897747998378,0.714795921262993,0.698714722547605,-8.75010832344649,3.26723030873323,-1.30944429079927,-24.7321977628534,8.59381677110862,-9.84220457453733,1.01462701195867,0.00786487276429149,-0.32705866433348,0
45,1114507146,0.015755115850184,0.0266616632598877,0.717407969643318,0.695964609106681,-9.13693352400983,3.11946716908706,-1.60246904807693,-24.7215743925451,9.22628190135662,-9.7806257259895,1.01897525929573,0.00891521187823809,-0.327881192966412,0
46,1114523813,0.0154953951333093,0.0285154748908615,0.719789663769738,0.693433198189746,-9.5221168834395,2.94254790507357,-1.82694056192194,-23.6223116412099,10.3427212641367,-8.69609452309326,1.0152168403933,0.00662258842330367,-0.327512708906869,0
47,1114540480,0.0149698629894564,0.0303595359429113,0.722051899267011,0.69101031580166,-9.92819708976695,2.80729289716149,-1.86012894965495,-21.4226769253927,10.9960455000443,-7.0846854169651,1.01752481274691,0.00938606157619125,-0.327091607722992,0
48,1114557147,0.0144188297861087,0.0318162542524899,0.723802802830892,0.689122141515628,-10.0319657208122,2.86470579222887,-1.73369206661562,-18.8619365320883,9.88622212134329,-5.0920320165009,1.01573842701882,0.011505703111543,-0.327204489251333,0
49,1114573814,0.0138340742629215,0.0329610718251648,0.725592284739015,0.687195767202215,-10.0126225285421,2.88660382674869,-1.53708089158296,-16.0874921716161,7.27076500536709,-2.85131972711136,1.01505053190065,0.0112123700975915,-0.329529744905223,0
50,1114590481,0.0133294420900634,0.0333859077713205,0.726819578698191,0.685887022152217,-9.9371452296277,2.91760815437808,-1.2298632429442,-12.4163636811671,3.95281831225637,0.285934764194673,1.01336771820059,0.0126614003749399,-0.327461226678625,0
51,1114607148,0.012728428614942,0.0332602826511815,0.728120396581245,0.684523504918077,-9.73344700792734,2.97265678241308,-1.04799049386785,-8.78031757087293,0.251688654752367,4.07998355598315,1.01375221170144,0.0119161985186164,-0.329309694551524,0
52,1114623815,0.012220442995745,0.032255748867114,0.72860374294928,0.684066380695842,-9.45564846609132,3.01738295939686,-0.991958302068427,-4.85865696932636,-2.95470045451249,7.62210706760029,1.01436950547789,0.013584295202064,-0.329956235299091,0
53,1114640482,0.011891332198351,0.0309781198918568,0.729183283674571,0.683513490076153,-9.18855212241814,2.89829002567107,-1.05548683009165,-3.71740492448877,-5.86706627102015,8.45241045777353,1.01382083335402,0.016457149618993,-0.328782664660214,0
54,1114657149,0.0117124727951,0.0294677523918737,0.729426206117147,0.683324139321553,-9.11258124574321,2.955456354016,-1.22236001577883,-0.265603630431958,-7.83448470975652,8.95792727996356,1.01313584550236,0.0158884289466449,-0.330435923259254,0
55,1114673816,0.0115828711620515,0.0277001798532226,0.729122783164013,0.683723997094519,-9.04527356903031,2.91806006066019,-1.3643464965931,3.63774416734095,-8.87000803457124,9.85420880156331,1.01476936325791,0.0156923450190069,-0.3328387449636,0
56,1114690483,0.0115232377072809,0.0259490118572933,0.72873799710996,0.684203767414749,-9.09512553306817,2.82880966919167,-1.44762264665708,5.13213682649241,-9.47334419862196,9.5602529295496,1.01548785086463,0.0178845786246785,-0.328672426710654,0
57,1114707150,0.01146149187608,0.0241802346845672,0.728270058548499,0.684767604575699,-9.25087746628338,2.89304356131602,-1.55454707335492,5.79931445737682,-9.56055464442718,9.70402703468469,1.01395687714863,0.0213747055427672,-0.330616318350321,0
58,1114723817,0.011359033473896,0.0224638883923428,0.727803787995388,0.685323275729345,-9.34478743367836,2.91744592330619,-1.57878207271748,6.45125914104399,-9.42630258833927,9.76323530316727,1.01278850029687,0.0208564254404311,-0.32537226309621,0
59,1114740484,0.0111730954875401,0.0206677604508638,0.727186968352356,0.686037257496764,-9.3593156927137,2.9848898228824,-1.55084488076071,7.14810314050429,-9.1746895916127,10.525587772514,1.01181652932522,0.0227494082587157,-0.330773216958548,0
60,1114757151,0.0108871450625549,0.0187317976731258,0.726438372935075,0.686890005863939,-9.39123399852042,2.99317655257011,-1.41421246309847,8.56506286018544,-9.44820680060101,11.745293046082,1.01303783364281,0.0230769042177337,-0.331869236029987,0
61,1114773818,0.0105145426507065,0.016586573801589,0.725476449218374,0.687966751806998,-9.36548191640014,3.00915521238177,-1.28985452656277,10.4386679440095,-9.98006361229399,13.2064864975632,1.01592434945959,0.0208708904980701,-0.331646325373335,0
62,1114790485,0.0100544261672356,0.014210688606571,0.724261313668024,0.689305820639608,-9.30543477668782,2.93562548323438,-1.20967831089473,12.9419524035403,-10.6870261710273,14.7978061194487,1.01684316728029,0.0229873068290704,-0.329178813446938,0
63,1114807152,0.00964203710522081,0.0116738819827015,0.722842462588277,0.690846962705367,-9.22742292751326,2.8470869742548,-1.14680678618191,15.1194486921656,-11.7984559491423,15.4274737104479,1.01657898987848,0.0238857921477335,-0.329494258258763,0
64,1114823819,0.00934873664146351,0.00906419395541741,0.721231945187523,0.692571240200002,-9.20186842423622,2.86737733498318,-1.20898592483955,16.9736634317427,-12.7678085085797,15.2691938613156,1.01373900728104,0.0245877366368451,-0.327075894353866,0
65,1114840486,0.00917694807172962,0.00648006487193541,0.719433547441609,0.694470419239672,-9.16932230122941,2.90127733324089,-1.32468184520982,18.7274096924697,-13.2676819993602,14.6019101553818,1.01422489921821,0.0278473060644364,-0.330973701186098,0
66,1114857153,0.00902996526673721,0.00387848195654008,0.71747368708628,0.696516277946046,-9.18335164122328,2.85166324510446,-1.43614858457824,20.1937168012454,-13.491947759838,14.6007244092543,1.01250103154819,0.0308503492021206,-0.326730808788181,0
67,1114873820,0.00885983855310752,0.00131641779557205,0.715367953122801,0.698690533748593,-9.18222801754252,2.78297063739337,-1.4710434169571,21.7556211281433,-13.3139087739071,14.5785588414107,1.01269446272107,0.030084160727124,-0.328326167577752,0
68,1114890487,0.00866226647961986,-0.00115075388124992,0.713120613719587,0.700986898018173,-9.12248571800972,2.75250321795403,-1.47575456167863,22.8738913694474,-12.7014758874421,14.2760460977126,1.01486867152757,0.0320491801363093,-0.330148036490909,0
69,1114907154,0.00850375970471952,-0.00353985303908123,0.710895266501274,0.703237566955456,-9.13090039334067,2.688819787212,-1.563395808178,22.5714778193559,-12.5549484827548,13.745799669303,1.01211897679582,0.0354154024684613,-0.327979802182791,0
70,1114923821,0.00832426448150149,-0.00589035859163726,0.708680162718079,0.705456190890959,-9.15635669529133,2.61535950926154,-1.5818783924792,22.4482016903765,-12.3379798711483,13.7116131364496,1.0171731473782,0.0347652410577684,-0.327691072451436,0
71,1114940488,0.00818296202117235,-0.00801940368923539,0.706510090826121,0.707610217462902,-9.13122565434011,2.62250610985562,-1.57164889880365,21.9465798100074,-11.4976579581875,12.4976076107313,1.01491790277801,0.0376512421467452,-0.330045974288135,0
72,1114957155,0.00808285486162482,-0.00986874278836617,0.704373636772952,0.709714770307276,-8.97320268888907,2.67345152456645,-1.71077349360699,21.5759078268582,-10.3840296458304,10.9857562773138,1.01690775100061,0.0376155546941571,-0.329494370600296,0
73,1114973822,0.00806609558106396,-0.0112976585683371,0.702315506588806,0.711730447724319,-8.78961960254294,2.73365295472531,-1.78396022707863,20.7622151052447,-8.78284770858477,8.56628093982124,1.0170603712831,0.0399642619670963,-0.329466775503493,0
74,1114990489,0.00802721848837684,-0.0123641448974989,0.700359905603416,0.713637649166205,-8.74682232565007,2.68800361701421,-1.8212888595136,19.670385141501,-6.93816010080533,6.92641895862872,1.01660672071732,0.0378406594088987,-0.330579883238528,0
75,1115007156,0.00800137959172141,-0.0130330053275098,0.698452129021952,0.715493355777303,-8.86478663509898,2.74091601795486,-1.75286053276975,19.2517672529978,-5.13482243905905,4.96882711776795,1.01867680212081,0.0392856377329722,-0.332608780191446,0
76,1115023823,0.00811732437658355,-0.0133218545433225,0.696551187876445,0.717337493725516,-8.94529997808944,2.83908836540083,-1.60034050381591,19.1435886227699,-3.98343806864204,2.46468555309964,1.01832057156381,0.0418158925293036,-0.330608086830938,0
77,1115040490,0.0084159979089339,-0.0133318022595506,0.694540702022851,0.719280645687978,-9.04305947450789,2.9795983165378,-1.40395766205373,20.1807872510762,-3.51509873610069,0.257423679463071,1.01859769285493,0.0444597318010098,-0.33430663435721,0
78,1115057157,0.00878545621407088,-0.0132925729226552,0.69231839285171,0.72141622256741,-9.26842507417066,2.90782623556068,-1.20522419096159,22.2016572975601,-3.63560124191293,-0.2870619614881,1.01929507337977,0.0478023108442659,-0.335203180523553,0
79,1115073824,0.00926126042446469,-0.0133187442337927,0.68969698609608,0.723916367736888,-9.47145295839753,2.81861515651195,-0.989434310832626,25.8844899364552,-4.43627913004157,-0.430714296090397,1.02117344948999,0.0490744080023311,-0.331447934826188,0
80,1115090491,0.00984612417010088,-0.0133635294422735,0.68654427807755,0.726898496461953,-9.46724298904473,2.87609316700766,-0.783768039366901,30.8833641996726,-5.02879054971283,-0.768328518872245,1.02229024738429,0.0501862436562612,-0.33213727960068,0
81,1115107158,0.0105257126657793,-0.013443810552596,0.682986668257289,0.730231253996644,-9.40855081885579,2.9657535743124,-0.730803838718623,34.5193146493926,-5.58079848545361,-0.993119420126198,1.02236758361252,0.0535498041008844,-0.33616449656715,0
82,1115123825,0.011342457606036,-0.0135359878923241,0.679246881231078,0.733697349065055,-9.55197226961191,3.01666211459667,-0.782551607149733,36.081457408408,-6.23812442984751,-1.58398191486859,1.02335957243845,0.0546768840895775,-0.335409279328268,0
83,1115140492,0.0123062398936416,-0.0135647325621117,0.675400270284358,0.737223866535814,-9.47363921651135,3.1781709012054,-0.905197840507495,36.9766632304254,-6.58388386182967,-2.58726083280569,1.02589536384451,0.0527066851841097,-0.335220766658094,0
84,1115157159,0.013413216919279,-0.0136025621763037,0.671497636338564,0.740760406815752,-9.44548972639264,3.22941696974755,-0.993753095441961,37.3064574541859,-7.26359215781268,-3.26800830911667,1.02636792689709,0.0583042361422305,-0.336159152778305,0
85,1115173826,0.0146298784020343,-0.0135948615583657,0.667636479756993,0.744219508810969,-9.30952164886536,3.2924770461069,-0.902106586382006,36.8016436165859,-7.54124714171624,-4.04809339746937,1.02620077538401,0.0598540826598875,-0.338108505456483,0
86,1115190493,0.0158108393198544,-0.0135205094987835,0.663844433556857,0.747581287365107,-9.32314671149883,3.30598582882929,-0.755434564687346,36.0690532607659,-7.03573782609202,-4.19763715497665,1.02596642621591,0.0593240138041501,-0.339714857762108,0
87,1115207160,0.0169185156043231,-0.0133559147315149,0.66011524617888,0.750855009395041,-9.3665645522183,3.31786019089808,-0.593138385054752,35.2600559349162,-6.16861607743613,-4.27116164326561,1.02608467441799,0.0643532511633639,-0.339136374467527,0
88,1115223827,0.0179966670703864,-0.0132213873073193,0.656466859598464,0.754024255008391,-9.46124402023894,3.41050066199052,-0.370916719238814,34.3918549873362,-6.14848267594142,-4.01455740242416,1.02946042738225,0.0664754800659113,-0.340717684961747,0
89,1115240494,0.0191055499478541,-0.0132225779175851,0.652952670619822,0.757042238798369,-9.63972128642541,3.50442260481517,-0.183247870455728,32.9712688448324,-6.90541523050306,-3.61356983788204,1.03190504022184,0.069216400201664,-0.341012397250379,0
90,1115257161,0.0202982961655045,-0.0132912574608054,0.649611916647747,0.759878726769692,-9.72994521480015,3.60179616476907,0.0380463243751645,31.2374974598159,-7.5331936393917,-3.80858137874389,1.03011084398649,0.0694245242266747,-0.343393333421443,0
91,1115273828,0.021568991686879,-0.0133907794725539,0.646569207288079,0.762432768058662,-9.78376408804134,3.75277345445726,0.134039681471186,28.5089399814197,-7.95293710172132,-4.16131346074902,1.03207147867301,0.0695032951547279,-0.341021914867277,0
92,1115290495,0.0228324412156259,-0.0135659338024911,0.643861815353345,0.764680722784417,-9.80171056902807,3.98450915417486,0.135781312168792,25.3749299293499,-8.18250704403317,-3.89799623694326,1.03429788670787,0.0781686114557317,-0.345262558487858,0
93,1115307162,0.0239982246246964,-0.0137661748599252,0.64146084065256,0.766656746891267,-9.65205463023265,4.24887431366709,0.20901246212503,22.5635397786018,-7.75414986967674,-3.39196965719663,1.03494257744429,0.0760969342479213,-0.346580590137071,0
94,1115323829,0.0249833346658909,-0.0139980157784217,0.639332579644269,0.768396864353729,-9.48061898033321,4.42154748741094,0.272174413970573,20.1479187378894,-7.01934884115643,-2.43116442305564,1.03622715522713,0.0810330202002538,-0.345366817452977,0
95,1115340496,0.025664837196575,-0.0143649236620963,0.637320643445654,0.770037247500322,-9.33165144468056,4.47337741948371,0.424933560651355,19.0047189383481,-6.25783398462901,-0.355904391386511,1.03772530314409,0.07981044370639,-0.348308390782301,0
96,1115357163,0.0261081445615478,-0.0149360487264537,0.635564917277873,0.771461285588308,-9.37523012165281,4.41504996490876,0.564620017739122,16.7736912070258,-6.19628286610983,1.65539017777004,1.03764703859299,0.0836615412581536,-0.348261161271492,0
97,1115373830,0.0264246353206599,-0.0156265668433985,0.634050138080296,0.772682322469731,-9.55369471283348,4.3438027935262,0.637938677886076,14.5810784231537,-6.12126350176807,2.70259531578262,1.03913734636547,0.0889461614130902,-0.349862952316961,0
98,1115390497,0.0266173211736172,-0.0163035016626965,0.632481672804548,0.773946152915974,-9.96622305991649,4.35753038115246,0.651790676659592,14.9626876246904,-5.34710061485044,3.23331807271821,1.04289417563591,0.0936649477842784,-0.350118695093277,0
99,1115407164,0.0268456226581888,-0.0169021298620477,0.630576541848901,0.775478468701808,-10.3720687215616,4.38753184041969,0.798116052325657,17.9612210742907,-4.98706272396049,2.7309105305855,1.04370761864876,0.0939457348133973,-0.351971016523251,0
100,1115423831,0.0273209549405817,-0.0175162708171055,0.628278173365299,0.777311573663071,-10.4791930763963,4.41363491348012,0.976946455996934,21.4977666659862,-6.06970204810052,1.542096340805,1.03882157287912,0.0945647776721028,-0.353446387166421,0
101,1115440498,0.0279947172391719,-0.0184725284148882,0.625755922018059,0.779297496184858,-10.4376101624708,4.31729120889238,1.08160173443681,23.4478213400271,-8.667765669175,1.98122572007284,1.04540313126065,0.0983029580590784,-0.352200101428525,0
102,1115457165,0.0289604920318758,-0.0198227780482127,0.623488115204901,0.781044760285838,-9.98274367490006,4.09941702736939,1.01502415917039,20.9746920229515,-11.8338896588874,1.99081431877994,1.04631978389925,0.0986913646369305,-0.352586418939383,0
103,1115473832,0.0299748285329684,-0.0214900967639704,0.621294243190763,0.78270885313347,-9.5064585823201,4.36781619536088,0.754219923801303,20.2355133605916,-13.6121375039991,3.03389422648816,1.04632957791317,0.101835240881249,-0.350164771300652,0
104,1115490499,0.0306506244768151,-0.0235267913464193,0.618747993111763,0.784638738737955,-8.90189309618279,4.27738924916025,0.470577753115884,23.1195447892965,-14.050883501812,6.47494857670828,1.04383560267987,0.105913766870912,-0.35405387663645,0
105,1115507166,0.0312251238457011,-0.0253619256589648,0.61583326933348,0.786848872878221,-8.42337611026319,4.0563970506885,0.349748331077536,26.3676527387467,-12.4829713896573,6.21212294828958,1.04806928290351,0.107147151638475,-0.352457484904189,0
106,1115523833,0.0317939085785384,-0.0270294986109528,0.612672672054287,0.789234281123165,-8.10882411376249,3.94440102737315,0.337265352811212,27.4937802736844,-11.1230100483602,5.4491804606011,1.04758540961077,0.111549639847697,-0.353445854315487,0
107,1115540500,0.0324262893782396,-0.0285593293111089,0.609434620966879,0.791657971117208,-8.05118890994333,3.89384950831899,0.355467318537313,28.1474414654453,-10.5865672545354,4.48269980401587,1.04673559160096,0.114239865962359,-0.353450496265583,0
108,1115557167,0.0331984646656707,-0.0300690761172769,0.606350460328878,0.793935030001986,-8.16963281816684,3.78071923783481,0.356050073856238,26.757650702424,-10.9928055621323,3.514708266117,1.04690322307316,0.111084064632017,-0.353746815930339,0
109,1115573834,0.0340659853538735,-0.0316778421812786,0.603591301123613,0.795935653281414,-8.43277464790923,3.76276534828833,0.372922835780091,23.8573922645282,-11.8472618646925,3.22857278778312,1.04936700941417,0.116920608983903,-0.351868858150346,0
110,1115590501,0.0349457796024731,-0.0333957509122422,0.601225436801002,0.79761612975944,-8.71763053063432,3.74971995485373,0.372519062141499,20.3826067553365,-12.4062473329499,3.41643622166931,1.04840013059853,0.121057119615699,-0.352140593656164,0
111,1115607168,0.0357967478324458,-0.0351030877780321,0.59922405045138,0.799009952024197,-8.94346104795237,3.78291774820954,0.363690419209773,17.2221648082567,-12.1379737786226,3.3505329664394,1.04923152683865,0.123521958170673,-0.348690263029432,0
112,1115623835,0.0366216958492291,-0.0367646832443931,0.597589339772956,0.800121359825363,-9.1158350683835,3.76018392586336,0.3113028126194,14.0763026192347,-11.6885389903043,3.12361758092897,1.04943039483613,0.127028380450163,-0.353801688443647,0
113,1115640502,0.0373608713029038,-0.0383825149999077,0.596434446140904,0.800872586179826,-9.30703956337681,3.82729488638897,0.282248892923635,9.97264000768913,-11.0006992276896,3.18722923522833,1.05262813792978,0.12721659387969,-0.353390414901963,0
114,1115657169,0.0378716547950372,-0.0399952019980635,0.595830435580366,0.80121920447299,-9.43169608894626,3.93163939397722,0.243512408880681,5.24536564615336,-9.93624718706374,4.15937558712082,1.05333592233964,0.130720390764759,-0.351636995009976,0
115,1115673836,0.0380564727096505,-0.0415480576834047,0.59572255657588,0.801211644557375,-9.38803087635649,3.99756230917098,0.184079572662449,1.01198138840333,-8.1767169590157,5.46237215754593,1.05245961658796,0.132851949480511,-0.349583753152279,0
116,1115690503,0.0378577292823079,-0.0429605383332968,0.595988115059505,0.800949031579113,-9.25028014324321,4.0831893950953,0.105323905456219,-2.13912647542269,-5.74973348386933,6.80260337378178,1.05353614595028,0.135730895348368,-0.348692728293311,0
117,1115707170,0.0372518764500572,-0.0441201276650819,0.596468460799511,0.800556735845267,-9.10969020052967,4.07826101300888,0.0304017771203819,-3.88583499116962,-2.62061009666357,7.87946671626493,1.05223592340545,0.136584960601278,-0.352789416334733,0
118,1115723837,0.0363920135224244,-0.0448908817384584,0.597086008547872,0.800092949903259,-8.9042947304764,4.02146839701806,0.0195469131735677,-4.89244101804436,0.61990173409011,7.58749810093834,1.05325309688617,0.141308519598868,-0.350740031447584,0
119,1115740504,0.0354488861644787,-0.0453182413732712,0.597750880822298,0.799614605885047,-8.78933014470571,3.97505813055462,0.0793230319735174,-5.1330108909178,2.90056569919511,6.5827839502354,1.05324139919544,0.144827168272497,-0.350786160617972,0
120,1115757171,0.0345726468768429,-0.0454157536042467,0.598408194959022,0.799155662945819,-8.89940156829792,4.01510320562508,0.131715345149623,-4.88950775218319,4.48877627592352,4.83054584357625,1.05704737212663,0.150458027136621,-0.351107986712956,0
121,1115773838,0.0336832713659066,-0.0454689244195698,0.598970829379126,0.798769027751515,-8.9405134435957,4.00557067628924,0.142640768473983,-4.04415887583647,4.83443425807708,4.73412969314902,1.05487690561899,0.149638028506406,-0.34898130322093,0
122,1115790505,0.0330170487167654,-0.0453941190776524,0.599582352652228,0.798342189061319,-8.93684275410296,3.91073006020431,0.147271467211106,-4.35772650818368,4.66674925637881,2.92502689007063,1.05490528479456,0.152586973889385,-0.350151163564302,0
123,1115807172,0.0325148855944608,-0.0452518713275245,0.600137719780807,0.797953487148487,-8.94244537072077,3.90952373190965,0.206427787283072,-3.80578374114754,4.40757293496853,1.74902809003499,1.05670058085018,0.157273294687308,-0.346595829430902,0
124,1115823839,0.0321151643251668,-0.0451272536365643,0.600519526799211,0.797689441532505,-9.08489298867264,3.86719798601909,0.202338937381296,-2.28976862288174,3.93985807052103,1.31867534171904,1.05597952240846,0.160786716004266,-0.346018698340971,0
125,1115840506,0.0318092145541201,-0.0450523124454091,0.60080452885992,0.797491304726378,-9.18644499665894,3.87470883616638,0.159944708710587,-1.44842826282196,3.33151349741196,1.03636412409694,1.05958800787783,0.16388257680833,-0.345882201663499,0
126,1115857173,0.0316708222737408,-0.0450057566971668,0.601044311129463,0.797318742373168,-9.15272200052099,3.81575801037916,0.173300298106931,-1.02913175798869,2.53052495101894,0.239357052176295,1.05996681123902,0.162274349751989,-0.346115271537749,0
127,1115873840,0.0317409611148025,-0.0449968294981464,0.601286930779922,0.797133504248745,-9.1516615060363,3.83544070032143,0.153507161961482,-1.02177817506571,1.50736409838689,-0.763603720244236,1.05982452943625,0.167165408896965,-0.342345015108766,0
128,1115890507,0.0319618081784749,-0.0449467274575253,0.601498439074276,0.796967917986684,-9.14216709524757,3.78114349329589,0.128342704697075,-0.696998169545538,1.15806537240049,-1.75745404418514,1.0594431370446,0.171550174162907,-0.342122977475325,0
129,1115907174,0.0322554898921673,-0.0447721238286355,0.601732821930402,0.796788962844846,-9.11346445635021,3.80846892493606,0.0639101615836786,-0.809195008545414,1.58430139854895,-2.69156552845571,1.05784452453942,0.172013233691472,-0.341926760752125,0
130,1115923841,0.0326420590547636,-0.0444249934209943,0.601985615154327,0.796601679063933,-8.93597046744756,3.79143662780442,0.0447188197825776,-0.862987056303986,2.18688342267012,-3.93324571057259,1.05646267634478,0.171126546808064,-0.339352543532075,0
131,1115940508,0.0331272997269078,-0.0439066284159908,0.602150292150282,0.796485916797826,-8.90599631990259,3.70797113652278,0.00352186341545302,5.06195279913121e-05,2.75567324905907,-5.15464111260831,1.05746864822139,0.177064651789133,-0.338439452276015,0
132,1115957175,0.0336795841068231,-0.0432072774756332,0.602235878125803,0.796436289909983,-8.89524306268503,3.6563914074279,0.00684521130359972,0.782168800942913,3.50497727977334,-6.23995124277239,1.05855756518181,0.176370819854244,-0.33849593833307,0
133,1115973842,0.03430402081006,-0.0423776461718551,0.602324118789531,0.796387484322557,-8.78095357283358,3.66133401569356,0.0908420153273547,0.836244589237678,3.95400955459368,-7.18338828986811,1.05832608765481,0.180628524554183,-0.337591112541067,0
134,1115990509,0.0349455990687882,-0.0415215779875747,0.602376038057545,0.796365413890659,-8.86922401757924,3.63465037792062,0.0976609253118708,1.17173708143922,4.06504530520679,-7.37943978786241,1.05939353435793,0.181006679303813,-0.332797396554196,0
135,1116007176,0.0355655510159882,-0.0407010621580372,0.602340116631068,0.796407495580628,-9.12773628423893,3.59612005586359,0.142569784925863,1.91826444889315,3.99588885891036,-7.07930367889831,1.05860753650572,0.182894335091694,-0.331072759028698,0
136,1116023843,0.036233653716791,-0.0399733698481015,0.602368618299612,0.796392679354309,-9.3078789551575,3.6756444780911,0.118714836886429,1.33615052825848,3.3290272812826,-6.98695563571234,1.05730521185813,0.186228733434617,-0.332635816722822,0
137,1116040510,0.0369362807353506,-0.0394269253989764,0.602589522489886,0.796220507211686,-9.40244560466267,3.82495335013344,0.0107219714142739,-0.388806617029999,2.24067487052581,-6.51534199873837,1.05838918991642,0.185333708803384,-0.33054700156722,0
138,1116057177,0.0375800344370408,-0.0391389071881093,0.602906147052667,0.795964864049878,-9.49754314211103,3.97976533200563,-0.196376770810632,-1.32854001983135,1.1061244106831,-5.1754143879086,1.05745766993426,0.188306268331846,-0.329164491838933,0
139,1116073844,0.038066815557249,-0.0390432978725228,0.603321714627461,0.795631476943659,-9.26536623222781,4.06202846296131,-0.543108583958891,-2.27353490479846,0.73212648711145,-3.57696204132128,1.05664376909064,0.189886360543164,-0.324892130917035,0
140,1116090511,0.0383745658948334,-0.0388972323809967,0.603745982082717,0.795301947139864,-8.93778941835243,4.12936529679191,-0.748683690223902,-2.33744876872306,1.75643450525474,-2.83412941402729,1.05848094867671,0.191346917728297,-0.324044196826537,0
141,1116107178,0.0385001586662842,-0.0385570652279537,0.604080981237963,0.795058022165841,-8.67263089082931,4.08418489693612,-0.894040242156036,-1.49223277042405,3.56093837893915,-2.63333485586156,1.06095127092367,0.191082025225532,-0.326949327837605,0
142,1116123845,0.0385045559100651,-0.0379286243054671,0.604297386440633,0.794923573290843,-8.56943572177968,3.91591154091834,-1.04288542800744,-0.349388417165805,5.6156799056307,-3.14737045765838,1.05521186474657,0.194368627246789,-0.323704988556962,0
143,1116140512,0.0384811466984118,-0.0369436424928192,0.604349043466932,0.794931822415446,-8.63290116628305,3.91382043419843,-1.13414179501633,1.22394654577241,7.64060447131491,-4.42953309528497,1.05766033745596,0.196185133771396,-0.320675807241057,0
144,1116157179,0.0387530691791567,-0.0355048397299694,0.604500098809737,0.794869320406796,-8.84397426265532,3.77482475881156,-1.14587572451722,0.571912139450074,8.86421244233489,-8.00523726449643,1.0553420750348,0.200412370008865,-0.320168989303098,0
145,1116173846,0.0390776811135721,-0.0337831297887665,0.604366500131569,0.795030042513602,-9.20133501100597,4.0024762088523,-1.11187218033807,3.1333247441749,10.1326482784531,-9.35716081790561,1.05568439971704,0.198525784514953,-0.318467272345187,0
146,1116190513,0.0394376479889832,-0.0320767301793473,0.603994007537023,0.79536594983785,-9.3135802847598,3.90969269555814,-1.08258637531268,5.16340615777327,9.84734170168178,-9.4065082066968,1.05365830545593,0.19900547338842,-0.31901835649892,0
147,1116207180,0.0398696957179927,-0.0305416527306579,0.60372507807887,0.795608977394358,-9.41809013473421,3.82990088954671,-1.01453671582685,4.17212594169997,8.58712695797356,-9.15238036675276,1.05302685802006,0.200634146657679,-0.316999171834811,0
148,1116223847,0.0401643601697743,-0.0295336925363136,0.603689086522295,0.795659520141122,-9.51677891075162,3.86734690330007,-1.00793736698001,1.91764721371911,6.27355779758837,-6.32136567015367,1.05345765357933,0.20159554682664,-0.312379939454903,0
149,1116240514,0.0402225557520389,-0.0291579229226503,0.603846015672857,0.795551350256931,-9.49357302397279,3.94889823819105,-0.936749172236951,-0.0266568684967108,3.79464114381644,-2.49441323968631,1.0533299887187,0.199991381488133,-0.312507232865977,0
150,1116257181,0.0400491566277819,-0.0293377716086025,0.60418671085492,0.795294774682167,-9.28538073443649,3.94078541683284,-0.863895935498454,-1.85431380607962,1.72090195373673,0.988780694265138,1.05619938207042,0.201540102719909,-0.314737710297897,0
151,1116273848,0.0397281142608769,-0.0298869045530473,0.604628912965662,0.794954292698312,-8.9964820590003,3.89492575638487,-0.819841509041082,-2.89275683110478,0.314158894451833,3.26881987343602,1.05182204887603,0.201826940148991,-0.310742004394792,0
152,1116290515,0.0392974984985394,-0.0305873281881832,0.605049045116834,0.794629331807777,-8.8297070901906,3.89989668081624,-0.808219529332047,-2.77389771002835,-0.0713969945066293,4.48673743044863,1.05276914907663,0.204910657786082,-0.310752612582131,0
153,1116307182,0.0387754136984716,-0.0312261581537312,0.605382742599462,0.794375937011075,-8.72125797194442,3.80068299452149,-0.876544965220174,-2.00936201430276,0.626457412953768,4.74308031331891,1.0528311517503,0.205678135570873,-0.308394010533085,0
154,1116323849,0.0382394961266653,-0.0316868051217533,0.605627849759878,0.794196823786384,-8.66525917121441,3.71020031118127,-0.954411441595687,-1.17524416135541,1.6323927820624,4.09598888201547,1.05230149175904,0.206685749260856,-0.305748204315787,0
155,1116340516,0.0377162326899886,-0.0319979064934114,0.605796693828272,0.794080591324614,-8.75323736566357,3.70905021516383,-0.975220530047653,-0.461771906819239,2.37036426964792,3.4207454902112,1.05244237094232,0.204470558767132,-0.308645213512432,0
156,1116357183,0.0371527355412427,-0.0323001905408039,0.605875113324634,0.794035086747866,-8.85010582451671,3.78877264304902,-1.05432018089981,0.313962107814827,2.5557610872978,3.62663700875065,1.05330080605974,0.207334448824038,-0.305548039752139,0
157,1116373850,0.0365071502893878,-0.0326802456970283,0.605876027008629,0.794048782767891,-8.97691002848079,3.80757677943521,-1.09454043943741,0.937169906614499,2.44242048446304,4.41536354869969,1.05448733988935,0.206282820709284,-0.304523490871237,0
158,1116390517,0.0357910141362833,-0.0331780029218652,0.605823915881266,0.794100501432596,-8.99658821669362,3.84836224808016,-1.12581490486019,1.33017639358087,2.06292415921441,5.29618423023396,1.05371060906255,0.208409656258229,-0.305575831640511,0
159,1116407184,0.0350002214865456,-0.0338531587122947,0.605734095440677,0.794175770067154,-9.00922454066019,3.83585163470739,-1.09836328384861,1.56382844951775,1.37377236072278,6.44012328090735,1.05252730372581,0.211000076888937,-0.304899178213679,0
160,1116423851,0.0341965496642339,-0.0347187710098086,0.605571452960874,0.794297436914841,-9.03731101924712,3.84921739173926,-1.06722730772804,2.09811775324558,0.357158076331798,7.31618177644145,1.05326335561699,0.208851521555725,-0.3038148329519,0
161,1116440518,0.0334170319065327,-0.0358138029903679,0.605400113650227,0.794412598015802,-9.07940686063139,3.78865096061202,-1.00988677995722,2.06120699408925,-1.02281673500468,8.12435714562364,1.05034194315791,0.208624591650259,-0.304014466172196,0
162,1116457185,0.0327634076918196,-0.036967905792545,0.605370958980117,0.794409173588288,-9.12233936069148,3.85185723812328,-0.905090614384439,0.80216047980375,-1.88534180535995,7.60882449697341,1.0538131174663,0.2135037237166,-0.300136335587546,0
163,1116473852,0.0321595083103908,-0.0381937345199537,0.6053972270205,0.794355841033817,-9.10826221375168,3.80129296142513,-0.923160297337223,0.283475060004496,-2.49550902234206,7.59752878872551,1.05308982755105,0.213618096372054,-0.303180724189678,0
164,1116490519,0.031668826842783,-0.039297869007225,0.605509422548095,0.794236175267385,-9.12751413013077,3.74541275267208,-0.932695067302313,-0.409467632227839,-2.31379791901053,6.42412855994078,1.05419140477805,0.211134836652124,-0.301914213862509,0
165,1116507186,0.0313536794871685,-0.0402111263795784,0.605666905506652,0.794082874561527,-9.10916736540167,3.66926196604538,-0.88682262501421,-0.713503922862972,-2.01591327807551,4.64445316955713,1.05376877148311,0.214620352812347,-0.301666122462877,0
166,1116523853,0.0312277334727597,-0.0409078704308462,0.605817137041416,0.793937636887123,-9.09089468879182,3.64067634880809,-0.808461982614438,-0.546078763277668,-1.63207455430276,2.71035115425926,1.05335794390419,0.212538038088813,-0.300876075399026,0
167,1116540520,0.031316441659301,-0.0414180471390232,0.605936300402278,0.793816745671058,-9.09169771617589,3.56874086357937,-0.783662889445055,-0.177262486322167,-1.51530677074638,0.77569877480857,1.05379549306315,0.210303593253238,-0.302455478888825,0
168,1116557187,0.0315148384760042,-0.0418549051832379,0.605944587427285,0.793779653830653,-9.10930846678889,3.55327980181309,-0.756318032041764,0.821608442241008,-1.57866913951753,-0.0764691771549872,1.05351971611527,0.209669983022455,-0.301257633339244,0
169,1116573854,0.0317017238428844,-0.0423250802056924,0.60582291213835,0.793840152309758,-9.01398998765968,3.55712430381251,-0.720492624483945,1.9242104592237,-1.71651246258179,0.188605836635114,1.05615032000913,0.210095064429222,-0.301946239350877,0
170,1116590521,0.0317947658394773,-0.0428916269287516,0.605618861698257,0.793961709127036,-8.93894949850065,3.52700749029093,-0.744577419575061,2.57739095779615,-1.85539919118147,1.14283694163082,1.0546482822771,0.213134272189638,-0.301088191012641,0
171,1116607188,0.0318283529458019,-0.0434938332230849,0.605362822950084,0.794122846296607,-8.92366586813221,3.52474241801561,-0.811784016002771,2.99839916489993,-1.80623609361976,1.6420823467571,1.05391410705528,0.213001822530246,-0.300807740626923,0
172,1116623855,0.0318993779335153,-0.0440166457397915,0.605059620752679,0.794322239346159,-8.87996684884676,3.53331835032466,-0.807403778827327,3.44015487941832,-1.53595720364661,1.13152803748737,1.05491329146946,0.210271698790186,-0.300578412136576,0
173,1116640522,0.0320625786646438,-0.0444275356305188,0.604756873805742,0.794523321691616,-8.95558510161106,3.5430660564152,-0.852654566244774,3.49315061783379,-1.31592071969579,0.162964137607413,1.05301636978124,0.209725608946686,-0.300560857911137,0
174,1116657189,0.0322797496089953,-0.0447825238111063,0.604481031364474,0.794704489761339,-9.06551244278253,3.55723391029757,-0.862076418558221,3.28876805221028,-1.24578468597538,-0.374612030072824,1.05646132400198,0.209717523815743,-0.299798669191755,0
175,1116673856,0.0325279875794352,-0.0450937488255316,0.604182104932826,0.794904062085377,-9.23158342867035,3.66969883764434,-0.811146410241656,3.50656286903965,-1.14589061410718,-0.712673704893986,1.05509465422107,0.209022404694287,-0.302049470660764,0
176,1116690523,0.0327425524213139,-0.045439118298978,0.603922670108931,0.795072713855562,-9.24411821912178,3.67910396300118,-0.707379019767945,3.14061008570699,-1.1990219271689,-0.404243353216772,1.05587287187063,0.207208736714727,-0.301597308929311,0
177,1116707190,0.0328296873475904,-0.0459614412828228,0.60366809186682,0.795232414081404,-9.57650001983895,3.60436779604153,-0.761583573606588,2.99725088436494,-1.63968584771469,1.02425313930955,1.05511659252971,0.206757215702378,-0.300924190155523,0
178,1116723857,0.0328798297922047,-0.0465406426514972,0.603502323872988,0.795322469476578,-9.56514770070503,3.71253723467166,-0.756123720229393,2.1955142985837,-1.80091792195393,1.42896980179734,1.05678670093201,0.204943772760243,-0.302159975161661,0
179,1116740524,0.0329345856729121,-0.0471763006031733,0.603483240940224,0.795297232254857,-9.41826876296713,3.76069154198897,-0.746439312979547,0.901724390265672,-2.13394698487516,1.56946385972643,1.0555052479532,0.204928779216604,-0.303182696200512,0
180,1116757191,0.0329459284532721,-0.0478860385983054,0.60357466514403,0.795184957542574,-9.34271372199657,3.67726173192079,-0.712455596234031,-0.0949280743206706,-2.36333347821812,2.05789924522252,1.05659017690052,0.205626328714273,-0.303485672324992,0
181,1116773858,0.0328897659264762,-0.0485984632856713,0.603633274719487,0.79509956754799,-9.16762443108273,3.59664119282292,-0.653969560629302,0.171965061250964,-2.09645973049816,2.45755889071486,1.05400133832057,0.203309396870274,-0.302100383411385,0
182,1116790525,0.0327741800828417,-0.0492904219945225,0.60359344083784,0.795091985619926,-9.04944452364852,3.53141985452793,-0.569252934911236,1.01835723861288,-1.73137915232705,2.75073564731721,1.0579397372081,0.20036649772269,-0.30431815771519,0
183,1116807192,0.0326906505499708,-0.0499335952136058,0.603403452118356,0.795199491578883,-8.94312127840209,3.47712882026232,-0.463072797090267,2.33887759162108,-1.58693376121075,2.45422631248834,1.05688320379558,0.202129241360194,-0.303979450829227,0
184,1116823859,0.0326664280856368,-0.050575783696745,0.603074585260222,0.795409353221847,-9.0133950390787,3.38559189806626,-0.376525027997252,3.5466713350927,-1.81251502275191,2.20332480256741,1.05632885220723,0.202905687934939,-0.305260948472004,0
185,1116840526,0.0327667889081929,-0.0511637436648308,0.602692338619176,0.795657309303819,-9.14984413419248,3.33402563186103,-0.391721104154069,4.05637662978289,-2.01529668997942,1.33617836641268,1.05685297805602,0.203955209353886,-0.302609641964159,0
186,1116857193,0.0330418707674407,-0.0517088775886154,0.602335171587229,0.795881126691478,-9.4157419434386,3.40117497456674,-0.430634705438572,3.89337367662369,-2.49442068331119,0.205709496569653,1.05698574013565,0.202368388670376,-0.303586900679975,0
187,1116873860,0.0334048404625595,-0.0521828364667994,0.601981191345214,0.796102828457824,-9.68485068897241,3.43339407750656,-0.577742292378832,3.91768998662223,-2.45577443202307,-0.55155693157212,1.05602641055922,0.198059159829207,-0.303122934291911,0
188,1116890527,0.0339462950725515,-0.0524303068373774,0.601986586673341,0.796059584102324,-9.71316649446343,3.25387475763215,-0.739703386341197,0.971130081368427,-1.96026691552258,-2.63526814490343,1.05404924289635,0.198028662174591,-0.304449948550057,0
189,1116907194,0.0344898355657191,-0.0524097796653445,0.602109789873448,0.795944386987327,-9.63511738130898,3.43770404641274,-0.805778638589872,0.0880901242470137,-0.504006849999268,-3.78572002061601,1.05665969207192,0.199985405230634,-0.304245777427296,0
190,1116923861,0.0347757504031934,-0.0523538490973347,0.602245050623589,0.795833286981626,-9.47608845307254,3.28916055002294,-0.866512035975131,-0.049204037931009,0.754027825142454,-2.50565055216651,1.05535089676905,0.196326770301963,-0.301749910907363,0
191,1116940528,0.0348594339743279,-0.0521758690132256,0.602511248775232,0.795639801452275,-9.29353354075502,3.20883921817583,-0.750718945954333,-1.15580600942756,2.25175039043326,-1.94914403971914,1.05545037805373,0.195387103417486,-0.30266273827398,0
192,1116957195,0.0347562717805306,-0.0519987758370811,0.602966736132523,0.795310784537124,-9.23991572722826,3.2115394627492,-0.719591438056099,-2.82488535054394,3.01263795548395,-1.00270883371366,1.05501104465905,0.195248018420261,-0.304534354839117,0
193,1116973862,0.0346428557842124,-0.0518388536509973,0.603671297421459,0.79479152641731,-9.1824471190941,3.21069114619221,-0.611469998235735,-4.98600200437799,2.94977573534082,-0.989468572493326,1.05586975106754,0.19400529406493,-0.303030111571732,0
194,1116990529,0.0345637609650382,-0.0517311141867044,0.604516711148546,0.794159168048256,-9.17306655084561,3.21260778619773,-0.532652618621926,-6.22705691457081,2.51693654530364,-1.01941600959985,1.05879739522895,0.193959218526595,-0.305948617282026,0
195,1117007196,0.0345901442810065,-0.0516530640703828,0.605399020138909,0.793490711543373,-9.28589562028649,3.19930971393351,-0.525657026888159,-6.54721312976559,1.91832576337742,-1.4745904244289,1.05759864203369,0.194439612934207,-0.302643684887554,0
196,1117023863,0.0347039472448472,-0.0516073532653962,0.606267473462646,0.792825370277583,-9.35985952893274,3.16252747967887,-0.593812533459599,-6.43521733637682,1.38307993443738,-1.78949357232424,1.05322620895131,0.195177061021496,-0.302789867747558,0
197,1117040530,0.0348917543554028,-0.0515600264565046,0.607065417048765,0.792209384300145,-9.4916265971624,3.16253440794707,-0.702631775674116,-5.81892317111654,1.08735804731089,-2.13915839297372,1.05661125441285,0.192006049069878,-0.305207621084742,0
198,1117057197,0.0351074716978626,-0.0514883805622837,0.607879347315627,0.791580135681275,-9.50045948597451,3.18319678869553,-0.774324454665385,-5.94613146715104,1.09895346350972,-2.37479868667612,1.05440595589692,0.192685473910636,-0.302411312115889,0
199,1117073864,0.0352817886113412,-0.0513787522544125,0.60873044751017,0.79092519335474,-9.49493870659526,3.22152844473224,-0.789306553781693,-6.26599670501428,1.47395578459673,-2.30354110238773,1.0578688047768,0.192675031966427,-0.302035386156563,0
200,1117090531,0.0353782343649584,-0.0511918719227147,0.609505113594822,0.790336187507588,-9.46247298789955,3.2515367014486,-0.826232290620307,-5.58895301230546,2.21847675142372,-2.1385068985741,1.05786203810939,0.189663298532953,-0.302079407598321,0
201,1117107198,0.0353813145570394,-0.0509317352680666,0.610201738920523,0.789815142132112,-9.43299120637891,3.27943069902157,-0.806197411944055,-4.90153127904221,3.00560915267249,-1.87458066790032,1.05697328256855,0.190214166090113,-0.302025253948546,0
202,1117123865,0.0353447017153743,-0.0506101779062318,0.610861623989761,0.789327206099944,-9.32858692241413,3.25462562196081,-0.766288895994355,-4.56542852240197,3.50187581285557,-1.87837086100898,1.05435225140729,0.191297516427494,-0.300405145340865,0
203,1117140532,0.0353499407374606,-0.0502759158906626,0.611453223368023,0.788890150530521,-9.29649859615487,3.16661278938595,-0.714577372868254,-3.95659488946713,3.38682075677853,-2.10563686903772,1.0557379212841,0.189046245279332,-0.302908513434836,0
204,1117157199,0.0354442477557237,-0.0499318231747622,0.611975976682294,0.788502328658088,-9.31257785741478,3.12669842676603,-0.680089588267429,-3.3187625246073,3.05245462931522,-2.57217813577079,1.05680188766952,0.189209030238276,-0.30035466334255,0
205,1117173866,0.0356929418501281,-0.0496574749793043,0.612404115285352,0.788175963007201,-9.12108787513653,3.21474114706547,-0.641224182664219,-2.54278317691546,2.03218537578761,-3.04859340935818,1.05495645572429,0.189540118026259,-0.302824383845704,0
206,1117190533,0.0359337564374088,-0.0496866833298685,0.612732549479144,0.787907876249985,-9.32196395854859,3.20097426771583,-0.617444920730473,-1.85407783696812,0.422807906237471,-1.6655342775034,1.05430300694914,0.187378883931576,-0.299802626194974,0
207,1117207200,0.0361961217005222,-0.0498799672267235,0.613032821356056,0.787650042584609,-9.43335443942422,3.29881051320751,-0.652256360907462,-1.6866484876973,-0.559924660131839,-1.05998851965569,1.0564477209504,0.191428140577521,-0.302969287249084,0
208,1117223867,0.0365042985776863,-0.0501264891565358,0.61320276352014,0.787487867894772,-9.43046283064201,3.26548307987583,-0.739264545474973,-0.493604167857162,-1.07091533494404,-0.989298801795324,1.05504801343168,0.189338741211442,-0.300606155789138,0
209,1117240534,0.0368801815762694,-0.0502461401682266,0.61324482540284,0.787429972582792,-9.5165933401444,3.22592966543919,-0.715634097662485,0.640132726384944,-0.650489252107811,-1.80928201588973,1.05484429285278,0.187531687859281,-0.303881767941593,0
210,1117257201,0.0373335706365087,-0.0503852031015852,0.613199378708261,0.787435113367282,-9.52992119173531,3.13598443410501,-0.678048610379337,1.30035853224079,-1.04620110176936,-2.08943502719403,1.05569695012551,0.187346217262246,-0.299333247706106,0
211,1117273868,0.037833304529255,-0.050607203974862,0.613130170228928,0.787450916774683,-9.52520111600732,3.08392352461323,-0.679903333317917,1.39410463124557,-1.66707789814886,-1.9624827443709,1.05330067710262,0.189638509029185,-0.299702635761181,0
212,1117290535,0.0383363530536382,-0.0508392821222289,0.613001422130898,0.787511871588829,-9.55690160402168,3.1756595238298,-0.703937526737505,2.11176456454831,-1.81507836787416,-1.85640360837159,1.05514465608642,0.190467123824604,-0.300384632856217,0
213,1117307202,0.0388039445447766,-0.0511290125977313,0.612781725720088,0.78764118390423,-9.49852456468972,3.2671038723349,-0.710166122987389,2.74247044818997,-1.93301521620949,-1.35982538503386,1.05450393992215,0.187886196935683,-0.298915205066835,0
214,1117323869,0.0392496266037571,-0.0514926584388276,0.612551093479146,0.787774797017441,-9.37568293687594,3.28322077719464,-0.721690243964788,2.7159039972344,-2.21655132963002,-0.914527133451705,1.05396899759976,0.187644205456353,-0.300076550934019,0
215,1117340536,0.0396309262913076,-0.0521301316663568,0.612414984898834,0.787819602018826,-9.25666436934632,3.21622243046916,-0.833576693156443,1.75187019299017,-3.44406191719684,0.546682451680986,1.0565544585592,0.186926530091365,-0.298187401490485,0
216,1117357203,0.0398140553551591,-0.0531876657507772,0.612252864712093,0.7878656883378,-9.29612175153249,3.19999728829667,-0.835923642717114,1.51426189632603,-4.82763926146489,3.39394833902811,1.05600088644532,0.186900402372857,-0.296562769396023,0
217,1117373870,0.0397721944065047,-0.0543727067285485,0.61218236390611,0.787841693893785,-9.40862816789606,3.30095759621116,-0.847548631464371,1.21363234849311,-4.80733582411596,5.17339449295502,1.05585172583481,0.18637254488945,-0.295242334259643,0
218,1117390537,0.0395751457723719,-0.0555302075065049,0.612075836029815,0.787853650648255,-9.52144702700786,3.29747056537822,-0.850085835983937,0.887921483285304,-3.77770790640707,5.87254171722236,1.05472712633339,0.189540137014964,-0.296945097648729,0
219,1117407204,0.0391830051769842,-0.0566534497245481,0.612020258778336,0.787836456115422,-9.57304826131647,3.24228207391398,-0.781587818028864,0.765020246175919,-2.90387026911547,6.80620185471342,1.05677067297947,0.186730647908706,-0.295813044711486,0
220,1117423871,0.0386030419337144,-0.0578066665021865,0.611977924082836,0.787814200745728,-9.44146939055451,3.17203478457628,-0.805328574028188,0.545297441823171,-2.26105209255257,7.95766765976836,1.05434639510321,0.18758916263384,-0.293855009488685,0
221,1117440538,0.0379354684307894,-0.0589208593071243,0.611920990011361,0.78780831079455,-9.24906242954763,3.09773679289921,-0.826793011024444,0.785586037864887,-1.72768613867308,8.30722025282181,1.05502617335421,0.190318268526036,-0.295503999042656,0
222,1117457205,0.0372532444522341,-0.059897482298667,0.611798645692362,0.7878622370193,-9.09315876986232,2.93007695648283,-0.82752480379493,0.998154469202269,-0.76638245399193,7.82468076726598,1.0538246608201,0.191445495389677,-0.29470471851033,0
223,1117473872,0.0367516853909531,-0.0606787750644635,0.611747960969013,0.787865364213871,-9.14235264341712,2.90991083083138,-0.832734614244101,0.656144861389188,-0.529937195226058,6.0187496729475,1.05277446043245,0.1871666519067,-0.293985396241798,0
224,1117490539,0.0364967169492858,-0.0614001167959019,0.611860590877695,0.787733859015957,-9.19864655529107,2.9803570798406,-0.824216847543535,-0.625495651275434,-1.28583414301364,4.36005251667418,1.05168486990183,0.189597873146665,-0.294294245101313,0
225,1117507206,0.036411996240485,-0.0621444149809657,0.612135627631108,0.787465689158027,-9.24533640914884,2.99951949550634,-0.833256968608029,-2.0510025654525,-2.13803440280539,3.44799859399087,1.05377911038117,0.188070272150504,-0.294659252083259,0
226,1117523873,0.0362807109995398,-0.0628829456723628,0.61243843428905,0.787177622496036,-9.32836749819725,3.03897203301399,-0.787809186886822,-2.35200629923099,-1.90291802729393,3.67653864738735,1.0528990278157,0.190434887483057,-0.294012234473779,0
227,1117540540,0.035997456324828,-0.0635885198703549,0.612674158379624,0.786950480610221,-9.34662814018972,3.01840767555994,-0.762557214526692,-1.85500120378763,-1.05769753216376,4.41639579110827,1.05368745045558,0.194408853182697,-0.292489114863898,0
228,1117557207,0.0355459822665568,-0.0641857943223549,0.613012042340749,0.786659330903243,-9.34923699452672,3.03084266845434,-0.797105354484155,-1.70970003515834,-0.14860816335781,4.93238385563072,1.05441850968184,0.191683464399105,-0.29262466531754,0
229,1117573874,0.0349920860430513,-0.0647958449893308,0.613177026369177,0.786505554156821,-9.39787961916527,3.03770609667048,-0.795473977354509,-1.16133501978102,0.56838751773891,5.57926986785729,1.05598245639737,0.192880844018584,-0.292766753905463,0
230,1117590541,0.034355682761284,-0.0654391257367407,0.613403123008257,0.786304022988903,-9.46248173006551,3.00711524876047,-0.829522618505395,-1.51721983903409,0.642994709110922,6.16967083007029,1.05198218276952,0.192460470049198,-0.290393083602545,0
231,1117607208,0.033576251065688,-0.0661879259237007,0.613651076713648,0.786081516049368,-9.50087834831418,3.07314591154114,-0.873293221709786,-1.69757877099902,0.621713802889544,7.40602291097115,1.05667987570664,0.197590731100122,-0.29159382431576,0
232,1117623875,0.0327860867512901,-0.0670101769994209,0.614010773365302,0.785764264194667,-9.45125784664806,2.95199496200957,-0.881166669685409,-2.43932951972837,0.138521182124246,7.74947785545308,1.05623914335367,0.192638716400409,-0.290942371928529,0
233,1117640542,0.0322205672115646,-0.0677187092111789,0.614489010232233,0.7853529574498,-9.41043176632946,2.99750436320175,-0.94553705238733,-3.850947375375,-0.0339151006827514,5.95215228299099,1.0539024449133,0.197012532024266,-0.290278531977213,0
234,1117657209,0.0316033012180857,-0.0685611326579684,0.61483453393554,0.785034456773104,-9.3285960054141,2.91306317837283,-0.99365620102856,-2.8045816924636,-0.534982513129108,6.90027017684059,1.05744193963924,0.19521056056041,-0.287699660334136,0
235,1117673876,0.0310960503297,-0.0693246254218151,0.615185091662806,0.784712963420283,-9.27410946310689,2.78432901105412,-1.01982727365039,-2.71018613995144,-0.612419320908135,5.99691038631522,1.05668518776858,0.196214484926881,-0.289760478601873,0
236,1117690543,0.0306133324389401,-0.0701176521959812,0.615654001363802,0.784293624436822,-9.33220256301127,2.8392669164073,-1.15147162771034,-3.86098884334844,-0.875836798759251,5.92982722496496,1.05778770095589,0.196299038330326,-0.288945320521823,0
237,1117707210,0.030204667165223,-0.0708365770817459,0.616211931268208,0.783806553424686,-9.21058029114599,3.08659568585243,-1.12118339335867,-4.58891622894632,-0.821700906976588,5.18287383047635,1.05977985204444,0.198616158330496,-0.287951678614464,0
238,1117723877,0.0301550598631595,-0.0712226001951944,0.616870331266073,0.78325539129314,-9.0654917460692,3.06769258185256,-0.948254705370322,-5.03980395300628,-0.623298053607042,1.79691709814708,1.05752343229375,0.198720431879172,-0.286956117204788,0
239,1117740544,0.0304975467538553,-0.0711846255367266,0.617528693982403,0.7827266194768,-9.04696436451754,3.22401921268064,-0.880478904637622,-4.80144731535696,0.0453706373516361,-2.11133338505498,1.0560839933488,0.198496719029752,-0.287360771028459,0
240,1117757211,0.0310735847200245,-0.0708239306789965,0.618192022996393,0.782212903166044,-9.11572362894709,3.38475148719675,-0.889708719254364,-4.58440489713736,0.790370242304823,-4.73530989014517,1.05651586283955,0.201054123102266,-0.287628202820317,0
241,1117773878,0.0316980796750932,-0.0703343981686719,0.618789447054458,0.78175950547032,-9.19898360356405,3.50133464536833,-0.922975591441053,-3.8614919019628,1.26088202772746,-5.49588820956983,1.05692582235371,0.200036134208719,-0.285295929398938,0
242,1117790545,0.0323405209548945,-0.0698086217748232,0.619333055189204,0.781349738452808,-9.26395831567852,3.50016330562939,-0.884555559898303,-3.46628531513635,1.41444294353955,-5.72585248714347,1.05891025571585,0.20337976835147,-0.286263221934015,0
243,1117807212,0.032975424391732,-0.0692845747666813,0.619885693744727,0.78093149237062,-9.3290815192101,3.5567971973188,-0.871871877353914,-3.54901212941918,1.42557418007967,-5.68964617415302,1.05937538004989,0.201633418718178,-0.284121557675024,0
244,1117823879,0.0334973099736648,-0.0687785157482621,0.62049082245322,0.780473308478465,-9.363201969998,3.66450641955755,-0.845064981973758,-4.02281188152395,1.78335328661582,-5.04316815342275,1.06021371321932,0.203426793951756,-0.285822424169744,0
245,1117840546,0.0338303909246843,-0.0684087560671847,0.621026001299623,0.780065671884761,-9.35936413129524,3.63635696091233,-0.881606615568687,-3.55311607426467,1.86098871937008,-3.4135371378989,1.05885071956009,0.201857198217776,-0.284187998207894,0
246,1117857213,0.0340016168764011,-0.0681454760962522,0.621394494830139,0.779787769801631,-9.37959655735605,3.51635366618098,-0.880290784943774,-2.21269995690863,1.99954942160865,-1.99275010361914,1.05935742902695,0.206883444852993,-0.285380899855294,0
247,1117873880,0.0340116969601631,-0.0679801118292281,0.621655674068115,0.779593568319091,-9.38661933430877,3.34232565965192,-0.908647077119589,-1.41530460476744,2.18516350276609,-0.64730440888872,1.05753198539445,0.208264076536106,-0.285590981242904,0
248,1117890547,0.0339247311834482,-0.0678886397841104,0.621923549842982,0.779391649527436,-9.32856183793039,3.28688770862871,-0.958241362372364,-1.49790951242306,2.17544693155475,0.191617771813633,1.05768653530921,0.204729683127445,-0.283435553693782,0
249,1117907214,0.0338035652368102,-0.0678893356235007,0.622087145251898,0.779266283627249,-9.22180233591354,3.20422197660932,-1.07281321502284,-0.661021279133953,1.83419591959556,0.839527805212758,1.05840499614088,0.206893509227689,-0.282818719097266,0
250,1117923881,0.0337664190968025,-0.0678368956942902,0.622175391558946,0.779202006325968,-9.1330763371863,3.13068525763337,-1.0899721314898,0.0491160120873058,1.75505358956002,0.218265452709556,1.06014865221064,0.207262365296225,-0.283397960403448,0
251,1117940548,0.03398914065909,-0.0676413065544021,0.622263080776247,0.779139300939006,-9.04284250455303,3.33395530235839,-1.00722930779272,0.209860679600763,1.39653151799517,-1.77758583503737,1.0591342764269,0.206267672766832,-0.282426173109539,0
252,1117957215,0.0346152309545597,-0.0672795478082842,0.622375164170818,0.779053530417534,-9.00304552128448,3.3441882294113,-0.926659354201183,0.203870797612827,0.5430172902417,-4.66648061001224,1.05966852377462,0.206018912347846,-0.283667183910744,0
253,1117973882,0.0355997347644607,-0.0667022080351369,0.622561862910003,0.778909623241339,-9.23151976956466,3.37699574204364,-0.939408372266724,-0.229422965305038,0.146111073647402,-7.55990333633798,1.06092529743407,0.206759216960544,-0.282021794513509,0
254,1117990549,0.0366331984139995,-0.0661790942408753,0.622767613490242,0.778741828751407,-9.34800206205614,3.38904596987414,-0.944655115193159,-0.43277255559155,-0.366828544772964,-7.60461037190406,1.06121771628155,0.207997876363301,-0.281775006595725,0
255,1118007216,0.0375724588223483,-0.0657919134864718,0.622964340953011,0.778572517084191,-9.44076489971398,3.37696551731378,-0.921576895098375,-0.460383618289583,-0.70559963347055,-6.51159025997551,1.05980363387811,0.207067942682615,-0.283007410914386,0
256,1118023883,0.038359520460386,-0.0655248187416873,0.623079991124128,0.778464109628488,-9.45859931491688,3.46013142044334,-0.833928407624019,0.131446053404378,-0.694734763877817,-5.12670427126734,1.06100198764372,0.208583728643094,-0.281090123494818,0
257,1118040550,0.03895074120679,-0.0653130319874199,0.623065764189254,0.77846393693434,-9.45117331589898,3.46625230814198,-0.759875080752507,1.17669522636366,-0.137561317915343,-3.75499867087583,1.05964148926636,0.208015690244814,-0.284025732654957,0
258,1118057217,0.0393491387390087,-0.0650550914563559,0.623003756429254,0.77851512498547,-9.4515285477023,3.433243044425,-0.772416664371636,1.56727213732635,0.95081999424198,-2.8863292682079,1.06212822356381,0.210159540612227,-0.281325992853749,0
259,1118073884,0.0395381114241505,-0.0648011770212215,0.622911008770269,0.778600937807348,-9.40715722788694,3.40420199830325,-0.827906220961427,1.78990878236557,1.83197393019182,-1.72299097826113,1.06124142678274,0.208274681189099,-0.28467003391548,0
260,1118090551,0.0395865752831109,-0.0645523535696236,0.622789905183142,0.778716014159173,-9.26450519669689,3.34854582970291,-0.799613269850752,2.00856424844847,2.4067873456746,-0.92641056831247,1.06528565210117,0.208412522154885,-0.282482777840906,0
261,1118107218,0.0396222483967609,-0.0642180383896368,0.622638129818349,0.778863197406118,-9.25320179958393,3.36443719945513,-0.754430595001796,2.35060356206961,2.91433272105694,-1.19746813594802,1.0607765552177,0.212063032995337,-0.281630476286452,0
262,1118123885,0.0397009647084319,-0.0637464195583596,0.622468785910901,0.779033271408428,-9.24942366857174,3.3047081669233,-0.759377488016144,2.58949074382381,3.47453975477658,-2.00230039793922,1.06100954222078,0.208718389332245,-0.282043599298992,0
263,1118140552,0.0398207489899589,-0.0631498614325771,0.62228832744073,0.779219892252465,-9.22592607414647,3.32910380573151,-0.796190462825242,2.75576516747021,3.97719220070386,-2.74537428477828,1.06131272005114,0.210014601893181,-0.285269376779263,0
264,1118157219,0.0399854443912581,-0.0625429804394797,0.622145404693967,0.779374515398573,-9.30030183712171,3.28080895563232,-0.879155091659569,2.45058186838153,3.83129504624366,-3.05309839350229,1.05997443789356,0.209419877107478,-0.282035810760378,0
265,1118173886,0.0401273797312034,-0.0620317595529022,0.622067893939479,0.779469941391187,-9.33259540746262,3.2806575454301,-0.948159644459811,1.80992938695891,3.40199336465185,-2.56083267110842,1.06120572558301,0.21008328604234,-0.28110687190265,0
266,1118190553,0.0402524491649946,-0.0616030550214006,0.622009876890326,0.77954378773686,-9.31110825952731,3.30673926195599,-1.0084442115347,1.58706569175707,3.01817361521763,-2.12671423685408,1.06311681857374,0.211038686441863,-0.282974856185975,0
267,1118207220,0.0404138644192149,-0.0612109379601731,0.621964169667657,0.779602791353625,-9.32696594429222,3.28432569921989,-0.95397575493958,1.44911296692859,2.65929878176262,-2.17306545816555,1.06525882489803,0.210239044484686,-0.282582541956815,0
268,1118223887,0.0405797683506603,-0.0608399506064795,0.621961816275043,0.779625090608722,-9.28037578727951,3.24112625350471,-0.980361500028864,1.06550717692458,2.51106324702062,-2.12930922745222,1.0608448738153,0.210285666130108,-0.282918262061996,0
269,1118240554,0.0407368044437361,-0.0604635365272222,0.621984298510825,0.77962824853922,-9.24195454051873,3.22438770872269,-0.986598925503142,0.823499910784854,2.57681917748455,-2.11794618161558,1.06500882098977,0.21050092182662,-0.28124998013678,0
270,1118257221,0.0409183892438847,-0.0600734257301224,0.622022993074351,0.779618025079948,-9.23709651899578,3.2407879913435,-1.019306134708,0.683723849412116,2.53743384971022,-2.31438719866331,1.06100784121508,0.213143924234123,-0.281190650706603,0
271,1118273888,0.0411637639138177,-0.0596703706461649,0.622049012205446,0.779615301172075,-9.27501591162289,3.2670511216124,-0.996314491973762,0.842870652414573,2.31194808341243,-2.69525807840125,1.06299890514781,0.212551017156965,-0.282698619222904,0
272,1118290555,0.0415067732815507,-0.0593195954943452,0.62207914605495,0.779599839280182,-9.30798100224395,3.27377173694873,-0.96681759420761,0.783093464756263,1.60382375266144,-2.99870699191772,1.06442435263966,0.210195242354793,-0.281179845865051,0
273,1118307222,0.0418084428315886,-0.0590925292161776,0.622046013116254,0.779627401176361,-9.3370220195844,3.26327182156527,-0.96715917198225,1.22468630598497,1.11991114031556,-2.20772679409942,1.05909576705335,0.212532537143945,-0.279180082549491,0
274,1118323889,0.0419917589645078,-0.0590544333487146,0.621935754993348,0.779708395967225,-9.31076970322876,3.1780760112156,-0.930289574343782,1.81245784157118,0.587242884685371,-0.707870235055347,1.05935618882022,0.212783109567986,-0.283356498943896,0
275,1118340556,0.0423136639467191,-0.0589238541237505,0.621972479128797,0.77967157730995,-9.29538170446068,3.15035890152741,-0.960678264391433,0.572667122429607,0.490229303299328,-1.9357609091495,1.06232215859356,0.210853562845582,-0.281771153353285,0
276,1118357223,0.0425534754396962,-0.0589038629342789,0.621802691426069,0.77979545368944,-9.34111592793575,3.18950185378648,-0.996342865273358,2.29510828746036,0.24758020086553,-0.883696990481883,1.06734582295573,0.211445140042355,-0.280996147716331,0
277,1118373890,0.0427729131161983,-0.0589570963150848,0.621534312660199,0.779993356948418,-9.28718165137789,3.06502600141704,-0.936506615015862,3.1149393341526,-0.0666221900266381,-0.391304086686416,1.06358897407433,0.210546089681474,-0.280729155073052,0
278,1118390557,0.0430000273112802,-0.0590809086988703,0.621233094268498,0.78021143702469,-9.31900508563571,3.07804210838963,-0.934003125485972,3.35779290015413,-0.485602448343985,-0.0994923977795092,1.06533972487733,0.213230632383173,-0.279221132208559,0
279,1118407224,0.0431305505234207,-0.0592720183183785,0.620882632505008,0.780468666962143,-9.36534903545947,3.09826305392851,-0.921978307267288,3.70735076827627,-0.430603053434786,0.746764052738083,1.06547075783745,0.216649986600603,-0.278837334249843,0
280,1118423891,0.0431955123978104,-0.0595071532918283,0.62057672238636,0.780690449568839,-9.37926120775879,3.06065820273026,-0.915095083891562,3.32181579877242,-0.409597829379097,1.2741968831462,1.0654829158051,0.21298291452984,-0.280951303219365,0
281,1118440558,0.0431391991012006,-0.0598541521657307,0.620220773971518,0.780949858507958,-9.4110832155731,3.09003984740933,-0.971133951482429,3.61787968971019,-0.478770341880628,2.44166487136689,1.06557947407002,0.213475781819224,-0.280848746973422,0
282,1118457225,0.0429643588357915,-0.0602895503265142,0.61983824232524,0.781229663634461,-9.37863511401017,3.13579479625201,-1.0109051502584,3.78747184262089,-0.459523443272763,3.485828750091,1.06508656660651,0.21524830329964,-0.280598883223615,0
283,1118473892,0.0427109273678174,-0.0607278961458557,0.619445444861675,0.781521106658803,-9.34057550337255,3.18358407200377,-0.961023998807818,3.84679416710866,-0.142454332141127,3.93542800212465,1.06634854029539,0.218256022762067,-0.279408323606796,0
284,1118490559,0.0424451023456839,-0.0611018477348764,0.619039554489007,0.781827990972631,-9.2608335607839,3.22637263763007,-0.967058148267465,4.01767096122674,0.244954269123397,3.74840565274478,1.06647671618412,0.217290585414576,-0.278921541022966,0
285,1118507226,0.0422176797698815,-0.0614072025835623,0.618686086523741,0.782096125375677,-9.23123221813884,3.27743776796671,-0.988927314740519,3.58383105561738,0.451857832448707,3.21793222145373,1.06427977479163,0.216215287382404,-0.279358986094397,0
286,1118523893,0.0420093385933536,-0.0616340483500944,0.618378302024358,0.782332880007225,-9.23726335699357,3.27949588892846,-0.983421651656323,3.24649434635973,0.781719675845891,2.75778337868121,1.06623298042543,0.217748447218037,-0.278138233470148,0
287,1118540560,0.0418480120083755,-0.0618258607316741,0.618099912136815,0.782546359937989,-9.24017796561359,3.2740805680026,-0.999031057648659,3.01488777179232,0.762894060267656,2.33830517502501,1.06508109166292,0.216948751510686,-0.278930531715878,0
288,1118557227,0.0417232917987151,-0.0620101738464698,0.617863787218626,0.782724885068098,-9.30231398746655,3.22745717363617,-1.00963939334891,2.64795772525563,0.642121360683106,2.08223525797184,1.06824160569181,0.220986403387555,-0.280671945608625,0
289,1118573894,0.0416195016994323,-0.0622027732907415,0.61768799659351,0.782853863078881,-9.30040159694405,3.25996918004294,-0.998302337166144,2.10763441647584,0.501316475974573,1.9685538081491,1.06932672096999,0.217617404931163,-0.27941224808179,0
290,1118590561,0.0415567275709756,-0.0624271148146653,0.617575355873064,0.78292820459335,-9.31817114687236,3.3149243578506,-0.995293162204926,1.54100444266447,0.144521075532578,1.84341042867125,1.06755090153713,0.221683729285132,-0.280743278246883,0
291,1118607228,0.0415460307765172,-0.0626742340206039,0.617470580355217,0.782991666694122,-9.30629059335715,3.31091830157201,-0.931435584570459,1.48077702826892,-0.2116418549391,1.6552411852928,1.06981939439508,0.220315085150043,-0.278622359402894,0
292,1118623895,0.041526090493589,-0.0629710079609243,0.617266533181879,0.783129786803138,-9.33060621720348,3.29099858397166,-0.900953672738883,2.30052693354449,-0.43534630976655,1.98197398435077,1.07007319830228,0.221520999713992,-0.276343376931592,0
293,1118640562,0.0416038838081992,-0.0632242470271976,0.617104238490985,0.783233151926283,-9.34949126244123,3.26668591248311,-0.845499392616531,1.9865251096727,-0.623642495018613,1.24533190900633,1.06996917864323,0.220535312195606,-0.277608959458712,0
294,1118657229,0.0416589980411319,-0.0635696135054315,0.616922625489354,0.783345330157971,-9.34138922160902,3.25818180455373,-0.901867233605493,2.08675064560285,-1.02335190903623,1.77244960584069,1.07069386236659,0.220777823809482,-0.274551860373919,0
295,1118673896,0.0418335660610515,-0.0639086081866593,0.616810704463136,0.783396577353993,-9.3533300708557,3.3342841942609,-0.898291255762995,1.50527435362528,-1.50382853008563,1.05863733510071,1.0669074030839,0.222359912477656,-0.277011478132177,0
296,1118690563,0.0420087431984151,-0.0643521357746086,0.61668922319886,0.783446533023488,-9.35988682625914,3.36103636367562,-0.936166910457794,1.51570748028837,-2.07405621966355,1.50317419115037,1.07089554244196,0.223976553620093,-0.275104205738062,0
297,1118707230,0.0422139875626858,-0.064825400484269,0.616562402269415,0.783496299170507,-9.33512829742383,3.32981391790681,-0.94297733665462,1.55146360431478,-2.36803258906173,1.47119091130395,1.06841311463196,0.225658992978325,-0.275845027674716,0
298,1118723897,0.0424259000118995,-0.0653262321846888,0.61639595337027,0.783574217968846,-9.30854638989948,3.33982990471159,-0.948366722894392,1.88365435190844,-2.54870374183048,1.58067358937196,1.07091054996003,0.223853135221366,-0.276372439913691,0
299,1118740564,0.0426173522360674,-0.0657934734488431,0.616185695054386,0.783690097774794,-9.28311544961889,3.32156089267635,-0.951409029413031,2.27433453942268,-2.27940780857213,1.57976145630666,1.07162556455371,0.225149078768219,-0.275452907434422,0
300,1118757231,0.0427811098169142,-0.0662088731518943,0.61595283698858,0.783829231634359,-9.28253665090769,3.33869088895194,-0.965396670796271,2.50123090971001,-1.88376237218753,1.52771919684994,1.0713485790497,0.224893407368426,-0.274666072582041,0
301,1118773898,0.0428963165492551,-0.0666274634578028,0.61570816441077,0.783979683038793,-9.31099609555759,3.29964915127871,-0.975987758150407,2.58553424225721,-1.69673945441453,1.81234724076361,1.06953829555596,0.230017951755589,-0.277434775966855,0
302,1118790565,0.0429883064931476,-0.0670306082427046,0.615446245215413,0.78414591901872,-9.32514851660164,3.28530795223064,-0.977206106181364,2.73982957011986,-1.51887797910906,1.88790771969529,1.06854998603296,0.226516392636314,-0.275401750722491,0
303,1118807232,0.0430438376139284,-0.0674497684054053,0.615140728591869,0.784346633073023,-9.31484062913099,3.26559649149009,-0.973793552208236,3.09441395290086,-1.450801976561,2.18460551988235,1.06997336066801,0.225663880576378,-0.271850091868995,0
304,1118823899,0.0431270645226127,-0.0678702893255309,0.614781460216484,0.784587430632571,-9.30065921891143,3.2629314387106,-0.940286940741393,3.56351490737481,-1.57570416175275,2.08103544180499,1.06971611107985,0.227064922931257,-0.274806257788907,0
305,1118840566,0.043313726527263,-0.0682676205663151,0.614433049854275,0.784815570897589,-9.29027636366803,3.25956061530433,-0.91567202311252,3.50537978114481,-1.89476613695051,1.42096623548554,1.06901907653491,0.22808083478012,-0.276010588230551,0
306,1118857233,0.0435686255292192,-0.0687027683162237,0.614043559444891,0.785068284673015,-9.32084284973558,3.25450258748081,-0.885224333971672,3.85152519703141,-2.38988093825694,1.24143876440179,1.07140835920555,0.228051355867475,-0.27732244365921,0
307,1118873900,0.0438157849815388,-0.0691946228158476,0.613669140911768,0.78530405999997,-9.32779919003227,3.25373349909746,-0.89966458170251,3.6763990424218,-2.66875175064436,1.51549561551512,1.07201970075762,0.226005799043357,-0.273509544440161,0
308,1118890567,0.0440594159240311,-0.0697543777614544,0.613291636615354,0.785535780922299,-9.3171136557483,3.23148947536772,-0.904162324025637,3.6526078730166,-3.02422199725732,1.82532777243672,1.07268239010869,0.227832945204481,-0.274738807296984,0
309,1118907234,0.0443292868552128,-0.0703849159009331,0.612906988773745,0.785764532829541,-9.29185356282929,3.23808241611529,-0.918146028557944,3.6701439749858,-3.52306559091011,1.99050991106073,1.07320430509395,0.228409670473784,-0.274639369882441,0
310,1118923901,0.0445954464036472,-0.0710623439252896,0.612515707516436,0.785993573435269,-9.27262552995443,3.2469941741956,-0.924041979411752,3.68808628162783,-3.76432617105994,2.21502059210567,1.07156961449957,0.231094271771183,-0.275060462656761,0
311,1118940568,0.0448101517833655,-0.0717555031261269,0.612138788569938,0.786211995327212,-9.25387325894521,3.22679144235912,-0.910896786077896,3.52732677011943,-3.63364139403984,2.55236392973053,1.07162835848896,0.228274997020595,-0.274903499543226,0
312,1118957235,0.0449923804547247,-0.0724127113904495,0.611758956669216,0.786436942078062,-9.27737767162087,3.18814597309062,-0.910668384378253,3.56686267484328,-3.30222234600003,2.5844237262289,1.07274806146797,0.228152257959687,-0.274233326404303,0
313,1118973902,0.0451172754130513,-0.0729925107656447,0.61142483116686,0.78663600264926,-9.30843003256757,3.19191326399427,-0.947737311274707,3.20932029832401,-2.64548600697604,2.54482226280757,1.07304711549061,0.231045225809355,-0.271082485431293,0
314,1118990569,0.0452145137565216,-0.0735125750233205,0.611104612523139,0.786830796049662,-9.30834347213209,3.14705958365049,-0.957427536266725,3.11826916238156,-2.20749430688411,2.43937161075207,1.07209992646643,0.229624309147872,-0.273478974349691,0
315,1119007236,0.0452781634225123,-0.0740201630067985,0.6107747189165,0.787035670168768,-9.31242851671999,3.14307504860565,-0.929176972329641,3.19410746023198,-1.99730436795326,2.58234414412471,1.07087539515536,0.229305147528316,-0.273152200497631,0
316,1119023903,0.0453393032149357,-0.0745239634086908,0.610479196598077,0.787213869912624,-9.33829691125292,3.18984240641448,-0.92842901841914,2.89728090650847,-1.97253761613696,2.56092342307997,1.07244397593707,0.232501600265052,-0.272218073861426,0
317,1119040570,0.0453528166507853,-0.0750818136880492,0.610217697696121,0.787362816428105,-9.32355155834003,3.20584383171993,-0.92213272795614,2.54289585959966,-2.0706119945901,3.02436841202765,1.0732739384196,0.2295778764875,-0.270731544756671,0
318,1119057237,0.0452833709320984,-0.075702152509448,0.610000582062129,0.787475644262301,-9.34551531113894,3.22073822998031,-0.945630178415214,2.09222355124583,-2.06809888283018,3.70568307742578,1.07329152229641,0.232932734724962,-0.272663639894341,0
319,1119073904,0.0451154147346851,-0.07635182363176,0.609758931721512,0.787609702560387,-9.30608598141954,3.27210921525763,-0.964399517668226,2.25502273414645,-1.81462823917349,4.38709379428669,1.07543435646857,0.232177281341087,-0.273896452960173,0
320,1119090571,0.0448410275807064,-0.077073606752149,0.609496553521497,0.787758143488938,-9.27180129952291,3.16661722598685,-0.976254638365197,2.34521359504669,-1.75982424494768,5.28224426419465,1.07361093434385,0.234252126496085,-0.270274418573277,0
321,1119107238,0.0446126637888674,-0.0777094534772134,0.609440916461622,0.787751687026028,-9.31453774126983,3.19936037581929,-0.980545750535826,0.631017106423553,-1.51018532457271,4.52085425307671,1.07366820428907,0.233782635549403,-0.272738941125086,0
322,1119123905,0.0442723350503204,-0.0783671514080581,0.609397597734819,0.787739244804022,-9.28921471511965,3.12998839841525,-1.01907027857274,0.462900048302106,-1.15922324209125,5.21404657822561,1.07504131329319,0.235201278791159,-0.273611279849003,0
323,1119140572,0.0437761001779855,-0.0790035557317116,0.609373943118355,0.787721707637501,-9.25141630100511,3.1675279548362,-0.959096114297951,0.253253701187511,-0.390999300331242,5.96092404510815,1.07518292930413,0.236734958290892,-0.272654130239136,0
324,1119157239,0.0432079266471271,-0.07959633885326,0.60944540084598,0.787638115700158,-9.25358554342717,3.10553710833099,-0.937347501953024,-0.567168812463997,0.137160303266028,6.10004433084594,1.07792659563579,0.235352702055834,-0.269667526432205,0
325,1119173906,0.0426554810765413,-0.0800501734064371,0.609579150847446,0.787518722649712,-9.24377024164722,3.17935101391619,-0.927080789205004,-1.01124872950004,0.822751713236387,5.39089400963556,1.07657379063539,0.239838353903173,-0.271385520398918,0
326,1119190573,0.0421529274847921,-0.0804215778782413,0.609761996352303,0.7873663748983,-9.26641354449153,3.20027062627111,-0.916575764190115,-1.36459330627279,1.05525898469033,4.74148093218259,1.0780903487484,0.236469316845335,-0.271148424779269,0
327,1119207240,0.0416748740225351,-0.0807950335315746,0.610014189353663,0.787158215493576,-9.28310505901248,3.2217155456382,-0.915569767501622,-1.95641329344362,0.927117555401286,4.56554979346513,1.07521038066642,0.238590702166382,-0.269423596034628,0
328,1119223907,0.0412674572516124,-0.0811165892928032,0.61026912391999,0.786948976937779,-9.32463451773073,3.17701822375499,-0.876803778004858,-1.92449046730172,0.911264924550658,3.9653181029057,1.07582576457883,0.239819677893453,-0.268821568396237,0
329,1119240574,0.0408781356364788,-0.0814534804318932,0.61050628884049,0.786750519439695,-9.29800999601454,3.20359457886111,-0.863795315086828,-1.78299870194404,0.755608786952717,3.94736576120977,1.07641136562221,0.240820593776721,-0.26925387476176,0
330,1119257241,0.040524321054368,-0.0817457551246093,0.61068836128895,0.786597188088291,-9.3265393048328,3.2132773610135,-0.891333003101991,-1.26192252148107,0.857195035278034,3.61279785350436,1.07695531484043,0.242641348524376,-0.268180312918073,0
331,1119273908,0.0401835910474682,-0.0820555117507899,0.610787399286742,0.786505514840413,-9.36306406767998,3.29068485998562,-0.89068510455389,-0.5529970172521,0.718691261362264,3.68233650279174,1.07549595867151,0.241860800756957,-0.26908572538748,0
332,1119290575,0.0398125257950063,-0.0824154807778897,0.610829912339169,0.786453730050086,-9.31642780454755,3.29936775978101,-0.894181659019294,-0.112162192963491,0.581854716197644,4.1008372652224,1.07684348822615,0.239922043335562,-0.264663222860541,0
333,1119307242,0.0394288408860537,-0.0827999029829254,0.6107661686453,0.78648218658196,-9.31709707652529,3.30497815217892,-0.889270546465036,0.782104707279837,0.520008241510223,4.35339755676052,1.07717509743125,0.244093550028557,-0.268230563503349,0
334,1119323909,0.0390784556976709,-0.0831953043898053,0.610619704508446,0.786571670030005,-9.2922199435663,3.26827731964581,-0.937667454477033,1.50495178079348,0.331194523029491,4.28447523917426,1.07512613812863,0.244994350913535,-0.267337396980252,0
335,1119340576,0.0387500903720454,-0.0836178642134864,0.610446883155641,0.786677243935591,-9.28096094076801,3.28841286123598,-0.970347316356741,1.71604303302587,0.0936599501286169,4.29919175918226,1.07523867901485,0.243754050449544,-0.268093611828641,0
336,1119357243,0.0385038761794768,-0.0840450342268081,0.610258420422777,0.786790025384198,-9.27220372413744,3.34088629468933,-0.998477546648755,1.87544231200366,-0.279294572944638,3.88582157982321,1.0767468810671,0.244347540277273,-0.266956472890036,0
337,1119373910,0.0383208541798426,-0.0844362342681843,0.610003895816173,0.786954434237858,-9.30158609894328,3.38283096943558,-0.992839525918469,2.49257944280423,-0.339692140119922,3.44450689779167,1.07927481694603,0.244497582027014,-0.271057766204559,0
338,1119390577,0.038146798082645,-0.0848275376896744,0.609690452775413,0.787163682114501,-9.3308481997447,3.42537901672808,-1.01857931791421,3.00325275831303,-0.371212607608152,3.44082395852863,1.07940657105773,0.246977876704133,-0.263906154016572,0
339,1119407244,0.0380289217787785,-0.0852048504505988,0.609451187351944,0.787313904871076,-9.31637780811844,3.34531228077828,-1.00052537258575,2.38928075910971,-0.549032244203049,3.01735438219135,1.07720615442485,0.245823366975821,-0.266007579431719,0
340,1119423911,0.0379001896114514,-0.0855796125338618,0.60926920810007,0.787420305559289,-9.2962418492101,3.29887565751959,-1.02380356595848,1.88821499881133,-0.50314124779197,3.01931580491286,1.07914254426209,0.245537772160717,-0.269258432828675,0
341,1119440578,0.0378256036765693,-0.0859398557832964,0.609101611646537,0.787514311986798,-9.2668841472801,3.28430590228599,-1.0129679794377,1.79169196925263,-0.659029859322299,2.65456123252084,1.07869781210554,0.246414728308661,-0.266392921641126,0
342,1119457245,0.0378162003855803,-0.0862785819946703,0.608950858277968,0.787594307673635,-9.28152962284689,3.25701499235494,-0.993223427013826,1.68339822164291,-0.822016889029092,2.19794975425407,1.07731170780444,0.248226502611601,-0.265156710358858,0
343,1119473912,0.0378645926127838,-0.0865840853277753,0.608801981847802,0.787673546396227,-9.3000525495981,3.28125229225551,-0.975626722529503,1.71106480148119,-0.887585912162629,1.74649260122118,1.08239392764996,0.249326808487517,-0.266269755433634,0
344,1119490579,0.0378951321056819,-0.0868712152969735,0.60863820703158,0.787767023844552,-9.3074251835439,3.29106181144139,-0.965952079395421,1.84575632434894,-0.711031779878076,1.78027471775002,1.07910331882252,0.248130697568618,-0.263347581917242,0
345,1119507246,0.0379217509476045,-0.0871458665305329,0.608477920567537,0.787859225327416,-9.29153523155815,3.23639698849875,-0.994004373151583,1.82120264205847,-0.629738439466636,1.74790172576821,1.08097956946287,0.248268069104873,-0.265859602930421,0
346,1119523913,0.0379279348364795,-0.087393128840458,0.6083031399767,0.787966498453457,-9.28652238037923,3.2296540069539,-1.03082494422584,1.95629326352993,-0.393466296867122,1.75903057459381,1.07996172300811,0.248556688339627,-0.265054400801071,0
347,1119540580,0.0379267022492416,-0.0876024602037769,0.608123017396911,0.788082337027559,-9.30894311643324,3.21992672300505,-1.0804671378894,2.02439066532192,-0.157514075784515,1.64873588535176,1.07721003828362,0.250105389428838,-0.266067499360894,0
348,1119557247,0.0379390085172634,-0.087825231903916,0.607973481076559,0.788172320359832,-9.31186034497327,3.23166004656216,-1.11811331474541,1.75398786865406,-0.298799500831948,1.60851108269078,1.07867855374599,0.252203619358792,-0.261802523460532,0
349,1119573914,0.0379683999035018,-0.0880664326333357,0.607850489074784,0.788238851480662,-9.29828791427073,3.23823426866641,-1.11646507246044,1.51526883188107,-0.484033154627439,1.57240393821115,1.07699084620127,0.250422757725375,-0.263457834437225,0
350,1119590581,0.0380431840666131,-0.0883161993442174,0.607778900874316,0.788262502426365,-9.24187261903024,3.2092932979747,-1.11839629437509,1.07890636757033,-0.737693343798602,1.32259993561615,1.08000309433327,0.251174572393846,-0.26276166555676,0
351,1119607248,0.0382453050473601,-0.0885217141833353,0.607793731639081,0.788218232813806,-9.2249869538291,3.20758799796145,-1.10773695757052,0.413236274024836,-1.05434966744683,0.378702175469545,1.07853088443669,0.249060383950189,-0.264787506064786,0
352,1119623915,0.0385518492813567,-0.088645743314982,0.607825271945892,0.78816503721811,-9.21902171589004,3.19356433279853,-1.1138299646606,0.368898340023625,-1.0558869921963,-0.538541956692743,1.0812195928943,0.253653416099676,-0.263938568637507,0
353,1119640582,0.0389244028898556,-0.0886617410333068,0.607806455857852,0.788159437394572,-9.24567158064261,3.20846497480631,-1.04822195132333,0.911413322111722,-0.738412377433777,-1.30151778445755,1.07734865278951,0.252144604096302,-0.262329586487078,0
354,1119657249,0.0393737640290842,-0.0885688184052614,0.607707196778481,0.788224101443313,-9.29881880480564,3.23767538048411,-1.01875557718238,1.71285551910243,-0.450897531195152,-2.10365726038777,1.08100865348627,0.253395705987995,-0.265549941835356,0
355,1119673916,0.0398511859633859,-0.0883864733357365,0.607593722461024,0.788308050659473,-9.34465655283885,3.30329610055436,-1.00936247284656,1.91216290174374,-0.080128966574386,-2.61309668236691,1.08019999168792,0.252176087372988,-0.264398474004473,0
356,1119690583,0.0402822304986006,-0.0881236884761862,0.607444271813851,0.788430728774539,-9.3620753826232,3.34392909836435,-1.00759881122132,2.26118419643399,0.561457613980552,-2.66469795647168,1.07994803609182,0.25324663922269,-0.263209489328628,0
357,1119707250,0.0406120254414081,-0.0878375904364349,0.607248264578465,0.788596706981654,-9.36990121470428,3.35276576624151,-1.01821492849587,2.64204144616631,1.1190845937568,-2.17235555717539,1.08129277632519,0.25304026300008,-0.262778901861289,0
358,1119723917,0.0408736586021285,-0.0875546204897387,0.6070544867644,0.788763831931071,-9.33580067069222,3.36122810765827,-1.02444141877226,2.59027310162576,1.38627990832684,-1.79232657728822,1.0796278246728,0.253767486674353,-0.262744772644763,0
359,1119740584,0.0410907412571009,-0.0873284035318451,0.606928754177747,0.788874380539619,-9.32287079588,3.37732498345816,-1.02928607792279,1.94327588524336,1.24500886563508,-1.37023744037177,1.07794600492648,0.253510766733375,-0.262492222005605,0
360,1119757251,0.0412424997294641,-0.08719718126136,0.606899518978379,0.788903467897024,-9.30190753151815,3.37893166696584,-1.02370514838348,1.01313131602265,0.978428152910992,-0.702366327977822,1.08006977039351,0.253996567052758,-0.264196613754808,0
361,1119773918,0.0413322262046984,-0.0871613652798818,0.606945150819231,0.788867623480982,-9.25196458784918,3.35484287191584,-0.979876467020098,0.270515548550481,0.699064946909182,-0.0335891096861149,1.08251677709457,0.253579874196144,-0.259672090167712,0
362,1119790585,0.041357564255495,-0.0871467011374862,0.60703391620275,0.788799612664243,-9.22600847018106,3.33568761248017,-1.003166224358,-0.140826114993027,0.844075174825357,0.366828575049524,1.08243315380675,0.256126764334584,-0.262338115673909,0
363,1119807252,0.0413090411657915,-0.0871502264774381,0.60713817074675,0.788721524218266,-9.23044747505562,3.32029658412358,-1.02983070497428,-0.31941895982374,1.05064928064093,0.830058049718673,1.08081325651084,0.255639939903156,-0.263132724933855,0
364,1119823919,0.0411581208469545,-0.08718339869972,0.607274097249741,0.788621097162018,-9.2528167748316,3.26480228337894,-1.05400391477922,-0.652913536183938,1.30848178525874,1.48234324981971,1.08057804590742,0.253089352790229,-0.26464094611459,0
365,1119840586,0.0409208618476581,-0.08720236886959,0.607436280362508,0.788506433219499,-9.24510580716329,3.23406068478259,-1.08279149532564,-0.904475584651403,1.74195114134026,1.87127740403503,1.08300432651152,0.252602141481634,-0.26014518071361,0
366,1119857253,0.0406431980041822,-0.0871509182995135,0.607636284996424,0.788372369538208,-9.25972127560998,3.24996269940559,-1.09583387755769,-1.19733361358726,2.28884371961812,1.76716858485994,1.07994954505109,0.256205000533964,-0.262113400810047,0
367,1119873920,0.0403588687401642,-0.0870736211775655,0.607866649000903,0.788217916087583,-9.25805204300961,3.21449657221887,-1.11497641026463,-1.44188968765662,2.44794531471855,1.67182293955976,1.08196634566597,0.257897650963571,-0.262981008812969,0
368,1119890587,0.0400522735053368,-0.0869585851108382,0.608095694610855,0.788069569301034,-9.25000479678777,3.19559692022156,-1.09588871438414,-1.4183091608714,2.74524554580566,1.63836051915681,1.08374490790512,0.256298825575036,-0.262048659359672,0
369,1119907254,0.039759157221746,-0.0867867675186456,0.60829990537519,0.787945741483014,-9.24338477961729,3.23088609397427,-1.08220808382504,-1.15792819927652,2.99989513813231,1.34994962171027,1.0832088779675,0.258857573294796,-0.261731123783256,0
370,1119923921,0.0394841660389556,-0.0866295255036547,0.608498867234858,0.787823238116974,-9.27619814568014,3.24135818676908,-1.02863905818148,-1.11842453369377,2.84098030748617,1.31624365665632,1.08280633710161,0.257560241039007,-0.261096732047365,0
371,1119940588,0.0391960392092646,-0.086492020307081,0.608656967346015,0.787730599275322,-9.31331793276568,3.2979553624442,-1.040868962856,-0.786933401536975,2.7924523004711,1.50275230565359,1.08270212918657,0.256549362833815,-0.262108378279712,0
372,1119957255,0.0387826116113103,-0.0865073223598695,0.608698353452601,0.787717402828467,-9.35147520111292,3.35011082914865,-1.06084457400492,0.0619691968509329,2.50368545291373,2.91216428578388,1.08260125574019,0.256809514514321,-0.260950707613968,0
373,1119973922,0.0383863906456942,-0.0865063305509206,0.608962207375991,0.78753296424694,-9.30716080194506,3.30881202995775,-1.08545842996088,-1.84638237685606,2.47409654355587,2.56988149286356,1.08410715174,0.261769040198443,-0.262938928400637,0
374,1119990589,0.0379392754430898,-0.0865084784180672,0.609210855517107,0.787362069229118,-9.28461505842713,3.33032888973881,-1.11570786468795,-1.74081324603633,2.67177796845417,2.8700069890192,1.08344107041727,0.257701087625169,-0.260626260693374,0
375,1120007256,0.0374472903570053,-0.0865298799522347,0.609318673584018,0.787299837636324,-9.22999584205416,3.32672132355269,-1.03570681191082,-0.549402279545131,2.77710627624246,3.30548530297701,1.08360136733459,0.258432964630124,-0.264058885385624,0
376,1120023923,0.0369836999681047,-0.0865615742277536,0.609332930417068,0.787307233367781,-9.30025086753477,3.26980437563006,-0.99850256886992,0.25439931412983,2.62028993293372,3.2656485619626,1.08375489295855,0.2574706143366,-0.26144640454063,0
377,1120040590,0.0366785863872147,-0.0866320659474438,0.609370363992615,0.787284780710146,-9.31108437912051,3.34882152866034,-1.00649032728268,0.0853088632208783,1.73446749654671,2.54886830625483,1.08486079460218,0.259993041193835,-0.259992281594129,0
378,1120057257,0.0365936024024101,-0.0867859041850444,0.609502555949661,0.787169454049653,-9.33726719471928,3.328305459321,-1.01641073457743,-0.706216934946193,0.326860085888329,1.62513077288821,1.08542843774861,0.259886243891909,-0.260423246921629,0
379,1120073924,0.0366454078618094,-0.0870267459351441,0.6096844187785,0.786999599157017,-9.32934384299501,3.27866904618547,-0.96650645918789,-1.1433931241262,-0.738286930946088,1.2060244844608,1.08418025294921,0.260586664156608,-0.261135198445624,0
380,1120090591,0.0368431771582556,-0.087275628175275,0.609898376578225,0.786796997497285,-9.30574733140723,3.26497732328853,-0.952987021028023,-1.36963411492799,-1.40564806680138,0.423160528097635,1.08456678333084,0.260682892041598,-0.261739290952686,0
381,1120107258,0.0371430810860063,-0.0875493994608543,0.610055524698866,0.786630631850726,-9.27872851945798,3.3158394582506,-0.926442758593864,-0.855956649555634,-1.9614199625743,0.0191986710694162,1.08329480460073,0.262145889352341,-0.262555085292586,0
382,1120123925,0.0375172430905793,-0.0877533069616627,0.610109975136311,0.786547920871541,-9.23713803862362,3.28166869353506,-0.881289729222191,0.115465685071381,-1.87172869384941,-0.592322004608401,1.0856507537025,0.260761748363281,-0.263171130640845,0
383,1120140592,0.0379465396566618,-0.0878846701552685,0.610121218567977,0.786503937391868,-9.24249909317426,3.2807409672787,-0.861209067249175,0.564762504860188,-1.69825515594451,-1.15840224913857,1.08408619009376,0.261406253151485,-0.261870407184596,0
384,1120157259,0.0382996175467294,-0.0880248045429847,0.610086449227673,0.786498123042715,-9.25835417416905,3.25113472619032,-0.87149798760676,0.924339133530468,-1.41238249583733,-0.671294437505501,1.0845610371207,0.261329941840452,-0.2622976815489,0
385,1120173926,0.0385699523770055,-0.0881643957855536,0.609972675557263,0.786557520568533,-9.23119325343646,3.22957654940662,-0.912435743611104,1.57630000187605,-1.04261784819463,-0.160084771872617,1.0853708112489,0.260830163875788,-0.26212015666109,0
386,1120190593,0.0387908671496056,-0.0882987663894109,0.609835012543575,0.786638324743886,-9.25081194811028,3.2492347800711,-0.954084309036909,1.76890319698085,-0.80150252840108,0.107770854920819,1.08493051889234,0.264045291385745,-0.261770020524652,0
387,1120207260,0.0389969471895894,-0.0884167852507954,0.609664590258974,0.786746971764216,-9.27560560097112,3.26158600079494,-0.944820982596856,2.05775398572854,-0.643594907616163,0.14749237586736,1.08551663432171,0.260997916811627,-0.26011772115033,0
388,1120223927,0.0391900598100162,-0.0885536517940467,0.609470669172596,0.786872221764331,-9.2866176349783,3.27896321819288,-0.946265601300201,2.24132375621356,-0.687927242208283,0.317074662890823,1.08711239776472,0.259849458059525,-0.260332915481732,0
389,1120240594,0.039374809681427,-0.0887584639718432,0.609276928514543,0.786989951534195,-9.29499507067515,3.27454299670969,-0.97385626654665,2.18255257154209,-1.02443775554867,0.645874112938432,1.08237875019474,0.261586134308563,-0.261857934242766,0
390,1120257261,0.0395172747448007,-0.0890667574796984,0.609111628735416,0.787075931183317,-9.30874770437856,3.26684661125932,-0.972269933832978,1.83751757384453,-1.41789483134595,1.28309064850983,1.08445695727364,0.261033773614138,-0.26195455536525,0
391,1120273928,0.0397008040900969,-0.089420266155242,0.609037299653036,0.787084131326927,-9.29757815851125,3.21461113578376,-0.934746077391009,1.03924956588766,-1.86108745644361,1.17615491786732,1.08599927316856,0.259407312363293,-0.261311461416982,0
392,1120290595,0.0398409539261199,-0.0898544095876898,0.609003573919274,0.787053702374531,-9.24314749224362,3.24938387624202,-0.968512479573774,0.592895760556954,-2.12242420643806,1.71231120104181,1.0832894220518,0.260912401133952,-0.260064246235715,0
393,1120307262,0.0400162419140183,-0.0902748639437719,0.609012570372315,0.786989732113144,-9.22231821678446,3.27809433893374,-0.98352717110124,0.254764478252621,-2.20884574372834,1.43223222661866,1.08491102572182,0.260563823293859,-0.261328106017612,0
394,1120323929,0.0401762495423426,-0.0906869768822268,0.609051237714997,0.78690427056568,-9.24598123782368,3.344666553422,-0.93201733498028,0.00272716512793653,-2.10758276999892,1.45641714756035,1.08382448907487,0.262727669712884,-0.259635236961445,0
395,1120340596,0.0403106988722278,-0.0910588135587878,0.609081286849548,0.786831192848502,-9.28831730489042,3.35488724470938,-0.922123586396301,0.099034030629023,-1.77752109711923,1.43342999176331,1.08314763103305,0.263442092845272,-0.261173738273322,0
396,1120357263,0.040348931699603,-0.09146229895173,0.609055792163019,0.786802169299147,-9.30751235054664,3.35062975758172,-0.943387117962427,0.514178001449399,-1.53382287877677,2.13228545990574,1.08471173774842,0.263866611335484,-0.261708341726239,0
397,1120373930,0.040308630375236,-0.0919432834854434,0.608975675643602,0.786810188936065,-9.31390371794038,3.31409415149879,-0.950029574450045,0.892835454898231,-1.61512869203688,2.92600097439998,1.08450031192485,0.262400167966548,-0.259234666864814,0
398,1120390597,0.0401838646189713,-0.0924502634436328,0.608842938167738,0.786859887436615,-9.31881654251239,3.32816352109797,-0.971445124440866,1.29850067712622,-1.39380348553819,3.53836435672919,1.08569797987468,0.261887861676261,-0.258130782996291,0
399,1120407264,0.0400339721516912,-0.0929981733281346,0.60867736374992,0.786931056503577,-9.27301274568045,3.32176232599969,-0.965147548268482,1.52829240797034,-1.50065558705004,3.87081715142284,1.08247876353485,0.259853850612652,-0.258231274981041,0
400,1120423931,0.0398726063109743,-0.0935538080570593,0.608482879639357,0.787023789633953,-9.28319450502825,3.32148756777285,-0.958482871776378,1.75232412311911,-1.48596495549555,3.98852697739043,1.08724152925108,0.259901589030521,-0.260144732333562,0
401,1120440598,0.0397141808816487,-0.094120502701896,0.608220312791241,0.78716717787022,-9.24645149005883,3.32649940889778,-0.97220214193586,2.34738474193352,-1.55019797366718,4.07907344558571,1.08354415897406,0.261635364172478,-0.258764377824101,0
402,1120457265,0.0396011215263404,-0.0946528928023682,0.607914882518388,0.787344954051687,-9.22502294133433,3.29240126669402,-0.963387752882558,2.74779428429708,-1.5390815764369,3.72563937147657,1.08733976972325,0.260973522634303,-0.259159525042253,0
403,1120473932,0.0395675555997288,-0.0951250550701826,0.607626571658087,0.787512274099139,-9.21827703615255,3.29357613165952,-0.967519900301191,2.68919048328261,-1.55101019687048,3.03145315288575,1.08371914628337,0.261162421856247,-0.259891477143225,0
404,1120490599,0.0396307862999364,-0.0955060611547091,0.607354808497606,0.787672603087601,-9.21008269090543,3.28089864897842,-0.968188916955899,2.65234653762084,-1.46193722942228,2.11352699848944,1.08377478003013,0.260416003381245,-0.258612088698974,0
405,1120507266,0.0397859824734252,-0.0957737390890717,0.607081671607873,0.787842820934045,-9.24241095183181,3.30381674425104,-0.960543448547801,2.78453269740142,-1.22362393334214,1.14517385289138,1.08768800852552,0.263087452462552,-0.257465174664602,0
406,1120523933,0.0400198194328917,-0.0959682491524491,0.606846234722326,0.787988677971015,-9.23242175511974,3.3141704408007,-0.966963830168808,2.63231783020553,-1.19121692597348,0.392642213481839,1.08421111295475,0.259395759667975,-0.257372703357561,0
407,1120540600,0.0403437758940511,-0.0961050049443064,0.606647890363035,0.788108206332953,-9.28253291477871,3.29936200878763,-0.975628855137364,2.35284618371523,-1.24774698975019,-0.373642789606268,1.08546092673707,0.25901468531653,-0.25541748085482,0
408,1120557267,0.0407254279501994,-0.0962330843296452,0.606515883276666,0.788174546868777,-9.30302198271048,3.30530878916555,-0.962752636062379,1.76813995841911,-1.44172386885329,-0.785374575758303,1.08647500274281,0.258903008316661,-0.258259466809027,0
409,1120573934,0.0410849345595704,-0.0963649553220313,0.606407872996218,0.788222884155377,-9.32637643024496,3.29364650586005,-0.95549426078227,1.52690624059041,-1.3695410776431,-0.67200348962223,1.08317983574192,0.259275440652199,-0.259774090067361,0
410,1120590601,0.0413670981388075,-0.0964940329143374,0.606325937526746,0.788255366163665,-9.29789743442605,3.27567771273209,-0.965839452585199,1.4177182259826,-1.0882634397472,-0.26849788065199,1.08630507373789,0.256974018634215,-0.25578805346914,0
411,1120607268,0.0415711149598903,-0.0965888545010572,0.606298186304786,0.788254365589365,-9.27652301628314,3.25872696012688,-0.978420107571472,1.40232700693749,-0.751228331896661,0.0244682149072114,1.08322969824247,0.258927045253783,-0.257166940253963,0
412,1120623935,0.0417598382616861,-0.0966600939987914,0.606213884735159,0.788300493524398,-9.24898208850584,3.24818104127677,-0.994851453109729,1.48613287306058,-0.395304400784039,0.0105892987218406,1.08259015057217,0.25898172445899,-0.257866383419087,0
413,1120640602,0.0419652234797235,-0.0966531045621292,0.60608985908278,0.788385806641529,-9.28007691663828,3.22691662300007,-0.972531653293695,1.78274434311191,0.0139960981643677,-0.381058310125611,1.08345413336023,0.259007811847795,-0.256283261218973,0
414,1120657269,0.0421702714219773,-0.0966344208973376,0.605988376955279,0.788455162898399,-9.29107807371714,3.18634964321511,-0.987458184539888,1.57972771748923,0.0797192569163475,-0.448054004115354,1.08361528828321,0.255905987549408,-0.25778546029574,0
415,1120673936,0.0423678565315649,-0.0966152197456841,0.605851251838868,0.788552296738581,-9.31615402339004,3.17466083442736,-1.00230668010711,1.48535851633817,0.265197567185665,-0.423837444744119,1.08437734099356,0.257488802007267,-0.257361825543004,0
416,1120690603,0.0425755915037695,-0.0965723828469586,0.605752777261029,0.788622004968106,-9.31968834102649,3.17185609265736,-1.01791300437396,1.51374274101807,0.219214111056627,-0.566425912420802,1.08735669193235,0.258700735408536,-0.257924203630917,0
417,1120707270,0.0427747071159093,-0.0965421349037655,0.605647397853436,0.788695866663908,-9.32912551689169,3.17668685063455,-1.00796680271857,1.62994971472643,0.159984146086516,-0.449161255268158,1.08181889785141,0.257890497281844,-0.257863965974173,0
418,1120723937,0.0429528238875375,-0.0965525443030764,0.605530585270022,0.788774601144859,-9.32778068075308,3.20826498755504,-1.01001797611851,1.5822965537432,0.0635850793582898,-0.167850852143507,1.08320401555749,0.257218761728696,-0.255107766886497,0
419,1120740604,0.0430212436520556,-0.096594669069201,0.605480713631603,0.788803998419257,-9.33599037864795,3.21910709793249,-1.01522023110795,1.57966281448844,0.0992073393630858,0.581687897660499,1.0810883225912,0.256259806650542,-0.255084360865727,0
420,1120757271,0.0429318526418903,-0.0968532190965441,0.605256570723655,0.788949170463606,-9.37180437305053,3.21278615052536,-0.999488980135613,2.3558238387733,-0.22039032037426,2.43188495277292,1.08390322937137,0.257690229681064,-0.255420318197048,0
421,1120773938,0.042986941858035,-0.0971129546696267,0.605181786152362,0.788971610753179,-9.28524341061019,3.05219942507544,-1.00136816421007,1.06230976831437,-0.840366552079963,1.51038805248322,1.08353071522507,0.255440022466074,-0.256951548723686,0
422,1120790605,0.0430442781350004,-0.0973329637076666,0.605006427193088,0.78907585652507,-9.33783141802381,3.23017203782827,-1.03728824614481,2.1562063527723,-0.681906578007713,1.45397029494334,1.08432444172012,0.25633915740504,-0.255328388008012,0
423,1120807272,0.0430370966067466,-0.0975093655742557,0.604745152186986,0.789254732546664,-9.22470111648791,3.12865884609265,-1.02857343813464,2.96308531716639,-0.176284198737915,1.71161881040775,1.08237882816735,0.256189725261711,-0.256220615005323,0
424,1120823939,0.04305990571358,-0.0975387886881294,0.604445722199973,0.789479194238419,-9.26186161468009,3.1041120044736,-1.0109019457395,3.06229911563651,0.643803155177073,0.935340327202047,1.08250512780264,0.257193922740714,-0.25677035886542,0
425,1120840606,0.0430468185743505,-0.097555208659819,0.60416441665286,0.789693174799223,-9.27296884531171,3.20114023432531,-1.03894121761776,2.76454750120061,0.908497659442885,1.04949453936855,1.08278130365305,0.256948009321464,-0.254369385116033,0
426,1120857273,0.0430415270461055,-0.0975574028955955,0.60394690977553,0.789859550972446,-9.29500036217826,3.20167747199746,-1.0426883506391,2.05181563762498,1.00155917154443,0.869803640188223,1.08319594942835,0.256583682200297,-0.253808155645162,0
427,1120873940,0.0430327648829374,-0.0975428310764448,0.603864422422625,0.789924893002057,-9.31297045684361,3.1808924233433,-1.0664403339489,1.47149837435513,0.872958100184833,0.770725546590578,1.08172078082134,0.255669097316795,-0.252555486404939,0
428,1120890607,0.0430605660374451,-0.0975206471536322,0.60372450948926,0.790033054797851,-9.33740948760011,3.16947293292753,-1.07581508072434,1.36220166465011,0.99646135799696,0.51741182197207,1.08350497350854,0.257167131357607,-0.255332240887558,0
429,1120907274,0.0430614637211299,-0.097502752509917,0.603646255684411,0.790095007953711,-9.33453706670845,3.19808636527595,-1.04350431179297,1.11522998001751,0.961488834907701,0.665578309174466,1.08282401625021,0.25648862855275,-0.256686858828143,0
430,1120923941,0.0430919673731482,-0.0975632570683632,0.603447231975574,0.790237895471447,-9.30447594642804,3.20285835345473,-1.0426175197709,0.888360934955539,0.867334736721981,0.787760614498881,1.08280475842167,0.257071004390708,-0.254005354714321,0
431,1120940608,0.0430474473693565,-0.0975203258334419,0.603427622704312,0.790260594665926,-9.30949633340262,3.17156253384451,-1.03164759344867,0.971374814510165,1.14313977684909,0.805497359682279,1.08531438797536,0.255507703410217,-0.252789026395418,0
432,1120957275,0.0430201987277126,-0.0974585833491867,0.603377548186092,0.790307928201368,-9.28641858305742,3.1963375683622,-1.04809814760277,0.884643941895738,1.31460836846955,0.616924424561649,1.08180593359275,0.258133645578378,-0.253618378513223,0
433,1120973942,0.0430061754916497,-0.0973609868116303,0.603344174982033,0.790346198593944,-9.26098551640845,3.23650222316225,-1.03615246725811,0.992617369522748,1.37218158309289,0.410963615087325,1.08436017302362,0.260715595474584,-0.25123322632645,0
434,1120990609,0.0429891190808801,-0.0972605111190475,0.603253054235983,0.790429048790889,-9.30784963993783,3.23721139935862,-1.05906334525182,1.02303016007653,1.57977220662113,0.409116357419995,1.08281563807145,0.257383921108733,-0.252869751870075,0
435,1121007276,0.0429626322048565,-0.09719011201801,0.603142803948386,0.790523277585951,-9.34615318438628,3.27283750216781,-1.07607848629686,1.02352867757062,1.50390930254291,0.587653537253415,1.08341644539963,0.254589506755106,-0.25054724348696,0
436,1121023943,0.0428605016190015,-0.0971081861566731,0.603178479206178,0.790511669619653,-9.37834983766942,3.27422758174235,-1.09020341589775,0.802410137387696,1.47006129324051,0.951504758641318,1.08373808525929,0.25873054910753,-0.253731206066023,0
437,1121040610,0.0427290021550424,-0.097131829519726,0.603152213312293,0.790535924323157,-9.32896468854725,3.26171665687319,-1.07790498855011,0.668151168180428,1.22597447366931,1.53176892858378,1.08185134081086,0.259300773380376,-0.248955160326811,0
438,1121057277,0.0425511280455616,-0.0971621093407094,0.603248389378061,0.790468409693448,-9.31382079387373,3.22777209834842,-1.0872199889329,0.449249490731064,1.04538739110272,1.80882431064227,1.08218912352108,0.256335746336036,-0.254156736641381,0
439,1121073944,0.0424983707866588,-0.0971916403460518,0.603287262476227,0.7904379497856,-9.29218643929571,3.2290154530065,-1.04461033599733,-0.191452265612619,0.964328715146999,1.02856581042636,1.08251901507968,0.258738033603842,-0.249341911063023,0
440,1121090611,0.0423771021808732,-0.0972423012368669,0.60337364533765,0.790372292133818,-9.25759465001061,3.20762261220182,-1.07079636828004,-0.14791146889069,0.942289150109788,1.50938387013764,1.08266958526835,0.256812920660271,-0.250026643141898,0
441,1121107278,0.0422843965001649,-0.0972425032796212,0.603519534580453,0.790265839289744,-9.26689546237533,3.25617333751059,-1.05680010885275,-0.621372975698273,1.09198598468077,1.09240962304741,1.08244023612862,0.258481246596119,-0.249803524669959,0
442,1121123945,0.0421842158698371,-0.0972732435573833,0.6037138684375,0.790118961344114,-9.27750564893625,3.2931699244533,-1.0845039325833,-1.0228398461767,0.926418976500013,1.21996420594938,1.08186267862949,0.25881511514488,-0.252339218915323,0
443,1121140612,0.0420731043426458,-0.0973639190256952,0.603769543029081,0.790071174055468,-9.29944922856099,3.28712051050222,-1.08113445233754,-0.783475754926984,0.992489571712908,1.53831588840946,1.08306272119885,0.259712321894649,-0.251423495332966,0
444,1121157279,0.0418875959786873,-0.0974071819198149,0.603840007961779,0.790021844633606,-9.26521674963999,3.29082279571495,-1.05716458262104,-0.0998770816143737,1.27206380310157,1.83426066406937,1.08392203022727,0.256239845926922,-0.249421011313181,0
445,1121173946,0.0417124855229069,-0.0974560890804568,0.603730372871523,0.790108863464431,-9.29815576209897,3.27194837427602,-1.05066618276313,0.649522577215379,1.52227741274581,1.86087749409616,1.08163010586991,0.260091905080529,-0.250778996882718,0
446,1121190613,0.0415222601154048,-0.0975077460356517,0.603553235791818,0.790247830078122,-9.30006907774113,3.28877421324111,-1.05833319812442,0.978389769643123,1.67101179597285,1.98600495944001,1.08002624417586,0.257739185153881,-0.249110586118123,0
447,1121207280,0.0412921726329401,-0.0975453970904892,0.603458224976729,0.790327794458506,-9.31152657103504,3.27054658020189,-1.05313131053538,1.02488356549125,1.62206641783105,2.1663547876674,1.08183462088797,0.257435107218714,-0.250186694930704,0
448,1121223947,0.0410750288665149,-0.0976274672742741,0.603326123071302,0.790429825384252,-9.31742417040509,3.28310740821864,-1.0493953044399,1.05157764293802,1.42337308882629,2.27918598531844,1.08378574796543,0.259442701802782,-0.249971726488523,0
449,1121240614,0.0408495297374239,-0.0976972364728785,0.603249043021209,0.790491719121579,-9.30092893801824,3.29101075575304,-1.04941391333639,1.05199117610589,1.34493973425709,2.2824566867961,1.08185177156433,0.259060463953449,-0.247362266485905,0
450,1121257281,0.040597378265116,-0.097788060954175,0.603224409548074,0.790512276778925,-9.32073916330134,3.28007781597479,-1.06213806899768,1.01430491530652,1.16794740882401,2.5235274795199,1.08311533473759,0.258267670526935,-0.250483336001619,0
451,1121273948,0.0403502464075355,-0.0979132843591466,0.603178889203506,0.790544163206636,-9.31681126040556,3.23233267119135,-1.10061759178912,0.667698478673638,1.14091609402849,2.59271566653302,1.08080228311489,0.256854439794988,-0.250537322780354,0
452,1121290615,0.0400825692218408,-0.0980890039007517,0.603131587767775,0.790572085767679,-9.26625415128397,3.23455571105071,-1.09422747056953,0.346435370658729,1.04866640517148,2.88002697130591,1.07972171876234,0.257040708264863,-0.250899380117266,0
453,1121307282,0.039814440953901,-0.0982528753800799,0.603129708106704,0.790566719493173,-9.28603169257696,3.19734372996744,-1.11440212957642,0.290300982476203,0.985520484539001,2.83432456790832,1.08264835694464,0.258010349207683,-0.247976956155563,0
454,1121323949,0.0395749884325061,-0.098437783315351,0.603094300584192,0.79058275196806,-9.26973383066657,3.18297286079132,-1.09017169560977,0.227659384335144,0.879713911047991,2.75237796305624,1.07889660355124,0.261664820470273,-0.248323437262149,0
455,1121340616,0.0393572810031438,-0.098611696818599,0.60303806720981,0.790614841233362,-9.27450769822669,3.19445185681118,-1.08853519269687,0.151354738214313,0.94971963414726,2.57384538021597,1.08204683911223,0.259541542750727,-0.248963152108319,0
456,1121357283,0.0391380664869631,-0.0987383810518087,0.60305255930284,0.790598858193726,-9.29494928366887,3.17983716504028,-1.06483094775404,0.0217543005782226,1.03946919488493,2.38281163824948,1.08218523776662,0.260888732493707,-0.248246755046348,0
457,1121373950,0.0389255184666158,-0.0988570564039446,0.603112390852221,0.790548879204677,-9.28134790488134,3.15720442628645,-1.09243521676506,-0.159127399760189,0.971333064523931,2.2983266206109,1.08016767533308,0.259005560491008,-0.247070636287084,0
458,1121390617,0.0386820006153033,-0.0989757769481633,0.603216830113093,0.790466289144716,-9.30913334458984,3.15464793570555,-1.09470402570807,-0.178843506487241,0.951171229499516,2.4774139717422,1.08153085580168,0.261810495930977,-0.246819379477669,0
459,1121407284,0.038477688214077,-0.0991701048778208,0.603220798894463,0.790448876012452,-9.28658485693452,3.18245552801859,-1.10359556087607,-0.159282923833057,0.68156522722927,2.56444932223947,1.08121767615456,0.261151041778582,-0.247934076289615,0
460,1121423951,0.0382658746045412,-0.0993502261917104,0.603263259365036,0.790404134159659,-9.30141869934749,3.20853488487476,-1.07957642248109,-0.0726212648716352,0.633095223167958,2.56595080016004,1.08291091899325,0.263267348322528,-0.246371904918681,0
461,1121440618,0.0380412377313629,-0.0995319217350471,0.603241133007484,0.790409005664436,-9.28418911171958,3.21358900512949,-1.05099113580925,0.333092393319448,0.743383993951718,2.68176528465505,1.08088674061807,0.261553219983877,-0.245058194822678,0
462,1121457285,0.0377890767544967,-0.0996813496554414,0.603206562505324,0.790428654060202,-9.34684001806738,3.22105105797154,-1.03479579081562,0.546418247258717,1.00470249325625,2.72300733108873,1.08147504067011,0.259954608155845,-0.246911792167091,0
463,1121473952,0.0375138397338626,-0.0998847708999167,0.603082295765135,0.790510903723249,-9.33865959553782,3.22112340666493,-1.02905990292841,0.777508121704218,0.999488835144292,3.09076090324274,1.08130925463885,0.263507093045338,-0.24660585547868,0
464,1121490619,0.037194403059319,-0.100116059998682,0.602958138028418,0.790591446131758,-9.36799871289255,3.24717348017997,-1.02685398451806,0.837434673162498,0.991909906288941,3.45965372578389,1.08286843187539,0.263607964759874,-0.246478079665788,0
465,1121507286,0.0368024389454417,-0.100351673911026,0.602904638689483,0.790620717333935,-9.33259727875872,3.23584258776688,-1.05791836756075,0.824321874319462,1.02456430920883,3.89054959844015,1.08159287384852,0.258789829335502,-0.247144872146512,0
466,1121523953,0.0364206910470434,-0.100736747926453,0.602646552155724,0.790786174674088,-9.34662462293476,3.25005700939252,-1.08389199696967,0.83443766507685,0.794866649385302,4.42810736318527,1.08171806571596,0.268071926288978,-0.244006734090787,0
467,1121540620,0.035883984582389,-0.101231194413065,0.602269810355325,0.79103455073894,-9.35674481157389,3.30540507100537,-1.05816682583265,1.85104948897929,0.810420660812996,5.84710830792343,1.0810610682103,0.263394104184063,-0.245094546088209,0
468,1121557287,0.0353564877955779,-0.101651902765236,0.60209208916432,0.791139637232716,-9.3158544053625,3.17830296605436,-1.03986136907892,1.36254714613603,0.706223303353345,5.4634096459788,1.08147328065693,0.263701204078981,-0.244699365405304,0
469,1121573954,0.0347938051740211,-0.101997347659972,0.601890560419852,0.791273458084701,-9.3772931002349,3.33444796729853,-1.0147555423706,1.74346653581108,1.22589977350757,5.38585444130967,1.0812515253187,0.265654328823791,-0.243324906934359,0
470,1121590621,0.0340872912859804,-0.102329069091075,0.601680599269628,0.791421047644223,-9.28672925477161,3.2216291677734,-1.0682891729668,2.00636327102671,1.81053177274667,6.15275174479474,1.08447221110357,0.264627180528759,-0.243717768006953,0
471,1121607288,0.0334068882405522,-0.102551670383574,0.601453518515202,0.791593835110725,-9.29739119978473,3.19657788228369,-1.04531850456503,1.83537313825852,2.45757088802577,5.52504048752907,1.08167934265304,0.265157038272449,-0.245914432998252,0
472,1121623955,0.0327779827669472,-0.102714059324942,0.60131186074268,0.791706683054335,-9.25506286690049,3.31679432658643,-1.07029408564652,1.35160537707247,2.48408026196221,4.94642578318903,1.08388587647364,0.268738446278327,-0.241921065338181,0
473,1121640622,0.0322785857991815,-0.102780222143031,0.601224111515545,0.791785252809989,-9.21794561048547,3.3546093593513,-1.05978172194886,1.22461492689085,2.38922756621709,3.82038113134615,1.08268613041781,0.266622879108219,-0.244528914771174,0
474,1121657289,0.0319495938273856,-0.102784030977568,0.601158684869141,0.791847777061143,-9.20222035034183,3.34470545693712,-1.07021670575542,0.513678633576127,2.25296551304814,2.53234371460703,1.08132735826421,0.267115080390648,-0.243106043091733,0
475,1121673956,0.0317289511735245,-0.102706595574685,0.601195233329309,0.791838948464272,-9.21627572289591,3.35129623771874,-1.06418744620101,0.157759219533533,2.0735395680301,1.56787377556804,1.08091996371542,0.267121829754832,-0.244701627477316,0
