sep=,
DeviceTag:,Xsens_3,,,,,,,,,,,,,,,,,
FirmwareVersion:,2.2.1,,,,,,,,,,,,,,,,,
AppVersion:,2023.0.0,,,,,,,,,,,,,,,,,
StartTime:,2023-07-17 14:57:19.000 +0200,,,,,,,,,,,,,,,,,
© Movella Technologies B. V. 2005-2023,,,,,,,,,,,,,,,,,,,

PacketCounter,SampleTimeFine,Quat_W,Quat_X,Quat_Y,Quat_Z,Acc_X,Acc_Y,Acc_Z,Gyr_X,Gyr_Y,Gyr_Z,Mag_X,Mag_Y,Mag_Z,Status,
0, 1113944863, 0.09409263, -0.7083911, 0.19451527, -0.6719319, 0.0, 0.0, 0.0, 0.0, 0.0, 0.0, -0.9697265625, -0.4638671875, -0.009033203125, 0, 
1, 1113961530, 0.09463377, -0.7086161, 0.1940783, -0.671745, 9.146709442138672, -3.9564318656921387, -0.7513290047645569, 0.7329779863357544, -4.623963832855225, 0.3969648480415344, -0.969482421875, -0.467041015625, -0.007568359375, 0, 
2, 1113978197, 0.09520215, -0.7088099, 0.19367686, -0.67157626, 9.12718677520752, -3.9655425548553467, -0.7449477314949036, 0.7545182108879089, -4.58076810836792, 0.1813059151172638, -0.966552734375, -0.466064453125, -0.00732421875, 0, 
3, 1113994864, 0.09571492, -0.70893073, 0.19335946, -0.67146707, 9.074810028076172, -3.931962490081787, -0.7743417024612427, 1.2575771808624268, -4.0960469245910645, -0.14633816480636597, -0.968994140625, -0.46435546875, -0.00439453125, 0, 
4, 1114011531, 0.096142665, -0.70914495, 0.19303331, -0.67127365, 9.03094482421875, -3.8363940715789795, -0.8171311616897583, 0.5659958124160767, -3.475719928741455, -0.3361794650554657, -0.968017578125, -0.46533203125, -0.004150390625, 0, 
5, 1114028198, 0.09617292, -0.7095175, 0.1928338, -0.6709329, 9.026902198791504, -3.822657346725464, -0.8181125521659851, -0.9731289744377136, -3.4083073139190674, -0.31542038917541504, -0.966796875, -0.4677734375, -0.002197265625, 0, 
6, 1114044865, 0.09609681, -0.7099163, 0.19259182, -0.67059135, 9.045849800109863, -3.8791120052337646, -0.820213794708252, -1.3530420064926147, -2.872361660003662, -0.41173696517944336, -0.969970703125, -0.46826171875, -0.001953125, 0, 
7, 1114061532, 0.09604071, -0.71026725, 0.19238552, -0.67028683, 9.079155921936035, -3.884971857070923, -0.7831162810325623, -0.8827544450759888, -2.566699981689453, -0.4432661533355713, -0.96875, -0.468505859375, -0.002197265625, 0, 
8, 1114078199, 0.09600526, -0.7105328, 0.19219548, -0.67006487, 9.114214897155762, -3.8379626274108887, -0.837733268737793, -0.3424290418624878, -2.302722692489624, -0.40897080302238464, -0.967529296875, -0.4697265625, -2.44140625E-4, 0, 
9, 1114094866, 0.095978096, -0.7108247, 0.19196348, -0.6698257, 9.09925651550293, -3.8231422901153564, -0.8569881916046143, -0.5289022922515869, -2.2477707862854004, -0.3439401686191559, -0.966552734375, -0.46875, 0.00146484375, 0, 
10, 1114111533, 0.09597155, -0.7110874, 0.19170925, -0.6696207, 9.024473190307617, -3.797714948654175, -0.8970011472702026, -0.28319960832595825, -1.8296558856964111, -0.2335621863603592, -0.966552734375, -0.46923828125, 9.765625E-4, 0, 
11, 1114128200, 0.095999725, -0.711275, 0.19144112, -0.6694941, 8.906094551086426, -3.780775308609009, -0.9058752059936523, 0.592594563961029, -1.0892952680587769, -0.14741387963294983, -0.968505859375, -0.471923828125, 0.003173828125, 0, 
12, 1114144867, 0.0960988, -0.71137315, 0.19113794, -0.6694622, 8.801963806152344, -3.75797176361084, -0.9533640742301941, 0.9544251561164856, 0.01486176811158657, -0.0631353035569191, -0.966796875, -0.470703125, 0.00390625, 0, 
13, 1114161534, 0.096088454, -0.71140367, 0.19096246, -0.66948134, 8.777544975280762, -3.735901355743408, -0.9474270939826965, 0.06310328841209412, 1.0531365871429443, -0.08347179740667343, -0.968994140625, -0.472412109375, 0.002197265625, 0, 
14, 1114178201, 0.095836625, -0.71140134, 0.19099411, -0.66951084, 8.831019401550293, -3.7597827911376953, -0.8907322287559509, -1.5400277376174927, 1.6648063659667969, -0.30115416646003723, -0.968017578125, -0.47265625, 0.00390625, 0, 
15, 1114194868, 0.09551572, -0.711397, 0.19096652, -0.66956925, 8.912155151367188, -3.833592653274536, -0.8678938150405884, -1.8749264478683472, 1.9395408630371094, -0.9983317255973816, -0.96875, -0.47412109375, 0.00146484375, 0, 
16, 1114211535, 0.095095925, -0.7113693, 0.19085568, -0.6696901, 8.968729019165039, -3.9069533348083496, -0.8431264758110046, -1.5275412797927856, 2.153074026107788, -2.0611817836761475, -0.9697265625, -0.470703125, 9.765625E-4, 0, 
17, 1114228202, 0.09464966, -0.71137995, 0.1905862, -0.6698187, 8.977585792541504, -3.9548659324645996, -0.8514083623886108, -1.0038259029388428, 1.8170610666275024, -3.2214889526367188, -0.967529296875, -0.4755859375, -9.765625E-4, 0, 
18, 1114244869, 0.09413105, -0.71142817, 0.1901701, -0.66995883, 8.960853576660156, -4.0077314376831055, -0.8339124321937561, -0.2799724340438843, 1.4168882369995117, -4.598363876342773, -0.96630859375, -0.474853515625, -4.8828125E-4, 0, 
19, 1114261536, 0.09367852, -0.7115271, 0.18954161, -0.6700953, 8.93244457244873, -4.033010005950928, -0.8347597718238831, 0.6520929336547852, 0.9709839820861816, -5.629531383514404, -0.964111328125, -0.481689453125, -2.44140625E-4, 0, 
20, 1114278203, 0.09335694, -0.711668, 0.1886965, -0.67022914, 8.92050838470459, -3.994696617126465, -0.8210043907165527, 1.9050793647766113, 0.5225439667701721, -6.364692211151123, -0.9658203125, -0.481201171875, 7.32421875E-4, 0, 
21, 1114294870, 0.09313606, -0.7118508, 0.18774815, -0.67033184, 8.807854652404785, -3.9418933391571045, -0.8146960139274597, 2.8067867755889893, -0.09481821209192276, -6.611713886260986, -0.96484375, -0.483154296875, -0.002685546875, 0, 
22, 1114311537, 0.09291084, -0.71206665, 0.18695745, -0.67035496, 8.753134727478027, -3.934340000152588, -0.7746374607086182, 2.811051607131958, -0.9516527056694031, -6.07003116607666, -0.966796875, -0.487060546875, 0.00146484375, 0, 
23, 1114328204, 0.092832744, -0.7123783, 0.1861571, -0.6702574, 8.788647651672363, -3.943354606628418, -0.730627179145813, 2.514213800430298, -1.906661033630371, -5.53855562210083, -0.9658203125, -0.489501953125, 0.00146484375, 0, 
24, 1114344871, 0.092835486, -0.71279675, 0.1853837, -0.6700264, 8.949712753295898, -3.986405611038208, -0.6590249538421631, 2.7766668796539307, -3.342982769012451, -5.210622787475586, -0.966552734375, -0.48974609375, -2.44140625E-4, 0, 
25, 1114361538, 0.09303347, -0.7133076, 0.18448007, -0.6697047, 9.143179893493652, -4.053285121917725, -0.6372578144073486, 4.273344993591309, -4.76010799407959, -5.089820384979248, -0.96630859375, -0.49365234375, 0.002685546875, 0, 
26, 1114378205, 0.093487926, -0.7138838, 0.18331298, -0.66934794, 9.314725875854492, -4.084423065185547, -0.6499008536338806, 6.563980579376221, -5.856141567230225, -5.304174900054932, -0.963134765625, -0.494873046875, 0.006591796875, 0, 
27, 1114394872, 0.09414173, -0.714477, 0.18193784, -0.6689983, 9.435327529907227, -4.077969074249268, -0.7207927107810974, 8.609077453613281, -6.4771599769592285, -5.460360527038574, -0.964599609375, -0.496826171875, 0.00732421875, 0, 
28, 1114411539, 0.09495831, -0.71500254, 0.18040107, -0.6687376, 9.471701622009277, -4.056210041046143, -0.8117621541023254, 10.27299690246582, -6.1036505699157715, -5.4562506675720215, -0.966796875, -0.5, 0.009521484375, 0, 
29, 1114428206, 0.09596996, -0.7154263, 0.1787975, -0.66857046, 9.448282241821289, -3.9705679416656494, -0.9059684872627258, 11.731474876403809, -5.475062847137451, -4.786722183227539, -0.965576171875, -0.4990234375, 0.012451171875, 0, 
30, 1114444873, 0.097170666, -0.7156582, 0.17726094, -0.66855806, 9.463411331176758, -3.906050682067871, -0.9867538809776306, 13.002519607543945, -4.107011795043945, -3.41443133354187, -0.962890625, -0.501953125, 0.015380859375, 0, 
31, 1114461540, 0.09855758, -0.71569073, 0.17592739, -0.6686725, 9.508551597595215, -3.8634138107299805, -1.0881900787353516, 12.963191032409668, -2.4427742958068848, -1.2774726152420044, -0.96533203125, -0.50439453125, 0.01904296875, 0, 
32, 1114478207, 0.100107856, -0.7155369, 0.17488481, -0.6688804, 9.576313972473145, -3.8719568252563477, -1.142244815826416, 12.678004264831543, -0.9997410178184509, 1.176641583442688, -0.96826171875, -0.502197265625, 0.0185546875, 0, 
33, 1114494874, 0.10194096, -0.715179, 0.1740099, -0.66921437, 9.566915512084961, -3.9801013469696045, -1.188356637954712, 13.999150276184082, 0.3054637014865875, 3.5304763317108154, -0.96484375, -0.504150390625, 0.021728515625, 0, 
34, 1114511541, 0.10422206, -0.71463424, 0.17302434, -0.6697002, 9.555119514465332, -4.078038215637207, -1.1851638555526733, 16.945716857910156, 1.4749279022216797, 5.226500511169434, -0.967529296875, -0.499267578125, 0.02294921875, 0, 
35, 1114528208, 0.106895536, -0.7139801, 0.171924, -0.6702597, 9.520857810974121, -4.045048236846924, -1.1291537284851074, 19.712507247924805, 1.8611433506011963, 6.5510663986206055, -0.969970703125, -0.495849609375, 0.02294921875, 0, 
36, 1114544875, 0.1098111, -0.7132601, 0.17081225, -0.670839, 9.50473690032959, -4.032906532287598, -1.117772102355957, 21.115665435791016, 2.028228282928467, 7.697262763977051, -0.968017578125, -0.495849609375, 0.022705078125, 0, 
37, 1114561542, 0.11276573, -0.71253645, 0.16973856, -0.67139006, 9.404149055480957, -4.0337815284729, -1.126283049583435, 21.49325180053711, 1.8145029544830322, 8.097066879272461, -0.9716796875, -0.492431640625, 0.02734375, 0, 
38, 1114578209, 0.11589061, -0.7118038, 0.16860498, -0.6719205, 8.9949312210083, -4.034450054168701, -1.1532845497131348, 22.388700485229492, 1.6882197856903076, 8.665261268615723, -0.969482421875, -0.4912109375, 0.02685546875, 0, 
39, 1114594876, 0.119112246, -0.71099263, 0.1674923, -0.67249393, 8.605525970458984, -3.925480842590332, -1.1704357862472534, 23.291425704956055, 2.0978574752807617, 9.227590560913086, -0.971923828125, -0.487060546875, 0.029541015625, 0, 
40, 1114611543, 0.12228419, -0.7102361, 0.16643356, -0.672987, 8.348893165588379, -3.7824008464813232, -1.1092257499694824, 22.667278289794922, 1.6687796115875244, 9.248144149780273, -0.9736328125, -0.486083984375, 0.030517578125, 0, 
41, 1114628210, 0.12545983, -0.70960164, 0.16519356, -0.67337704, 8.292041778564453, -3.8850817680358887, -1.085456371307373, 23.434429168701172, 0.48458051681518555, 8.321341514587402, -0.970947265625, -0.480712890625, 0.03125, 0, 
42, 1114644877, 0.12889835, -0.70911163, 0.16332461, -0.6736995, 8.468201637268066, -4.181580066680908, -1.039085865020752, 27.574298858642578, -1.3336633443832397, 6.333217620849609, -0.97412109375, -0.480224609375, 0.03369140625, 0, 
43, 1114661544, 0.13306428, -0.7087911, 0.16008589, -0.6740041, 8.79867172241211, -4.513619899749756, -0.9553824663162231, 37.36697006225586, -4.208719730377197, 2.7775065898895264, -0.976318359375, -0.478515625, 0.03857421875, 0, 
44, 1114678211, 0.13824339, -0.7085698, 0.15498942, -0.6743856, 9.077526092529297, -4.652009010314941, -0.9912299513816833, 51.241634368896484, -7.22956657409668, -1.8809183835983276, -0.9765625, -0.477294921875, 0.04248046875, 0, 
45, 1114694878, 0.14443655, -0.7083377, 0.14799878, -0.67490166, 9.031310081481934, -4.720574378967285, -1.0866602659225464, 65.25408172607422, -9.432694435119629, -6.6221699714660645, -0.97607421875, -0.478759765625, 0.047119140625, 0, 
46, 1114711545, 0.15125373, -0.70811397, 0.13973849, -0.67540383, 8.768619537353516, -4.4033098220825195, -1.126295566558838, 74.27982330322266, -11.425474166870117, -10.01307201385498, -0.97900390625, -0.476806640625, 0.05908203125, 0, 
47, 1114728212, 0.15789343, -0.7079774, 0.1309857, -0.6757813, 8.435761451721191, -3.997922658920288, -1.1669676303863525, 75.64645385742188, -12.76830005645752, -13.249981880187988, -0.981201171875, -0.47998046875, 0.065673828125, 0, 
48, 1114744879, 0.16366652, -0.70812535, 0.12282394, -0.6757856, 8.199997901916504, -3.859515428543091, -1.138350009918213, 68.04654693603516, -14.39016342163086, -14.252274513244629, -0.97998046875, -0.484130859375, 0.07861328125, 0, 
49, 1114761546, 0.1684388, -0.7085076, 0.11557206, -0.67549145, 8.116809844970703, -3.8705825805664062, -0.9964175820350647, 58.567665100097656, -15.026305198669434, -14.340746879577637, -0.983154296875, -0.486572265625, 0.08837890625, 0, 
50, 1114778213, 0.17279193, -0.7091111, 0.10856902, -0.6749204, 8.18089771270752, -4.086039066314697, -0.8856156468391418, 53.10893249511719, -15.9534912109375, -14.889168739318848, -0.98486328125, -0.48974609375, 0.091552734375, 0, 
51, 1114794880, 0.17689501, -0.70993453, 0.10149907, -0.67409134, 8.353767395019531, -4.238100528717041, -0.8163008689880371, 51.752471923828125, -18.0987491607666, -16.291059494018555, -0.985595703125, -0.494140625, 0.104248046875, 0, 
52, 1114811547, 0.18080682, -0.71099085, 0.09395241, -0.67303336, 8.423213005065918, -4.280420780181885, -0.817057728767395, 52.581172943115234, -20.729032516479492, -19.46268653869629, -0.989013671875, -0.499267578125, 0.113037109375, 0, 
53, 1114828214, 0.18480176, -0.7124625, 0.08542018, -0.67152745, 8.562553405761719, -4.56840705871582, -0.9413215517997742, 56.73585891723633, -26.10930824279785, -23.684795379638672, -0.9833984375, -0.50537109375, 0.126953125, 0, 
54, 1114844881, 0.18933281, -0.7142224, 0.0754996, -0.66958165, 8.802122116088867, -4.703250885009766, -0.9761638641357422, 65.14132690429688, -31.6513671875, -27.742835998535156, -0.9853515625, -0.51123046875, 0.141845703125, 0, 
55, 1114861548, 0.19495368, -0.7158903, 0.063812606, -0.66739964, 8.867595672607422, -4.571444034576416, -1.1375768184661865, 78.6119155883789, -35.236106872558594, -31.177757263183594, -0.986083984375, -0.517578125, 0.15966796875, 0, 
56, 1114878215, 0.2012414, -0.7176683, 0.05069342, -0.66474396, 8.783292770385742, -4.406702995300293, -1.2669262886047363, 88.10454559326172, -40.254642486572266, -34.69721221923828, -0.9892578125, -0.5224609375, 0.176513671875, 0, 
57, 1114894882, 0.20744677, -0.719837, 0.036956348, -0.66138875, 8.928206443786621, -3.9928009510040283, -1.4470241069793701, 89.72947692871094, -46.279911041259766, -37.39384841918945, -0.988525390625, -0.53076171875, 0.200927734375, 0, 
58, 1114911549, 0.21355516, -0.7218751, 0.023038289, -0.6578449, 9.088019371032715, -3.9560163021087646, -1.7888776063919067, 90.20935821533203, -46.79554748535156, -38.47293472290039, -0.98828125, -0.536376953125, 0.222412109375, 0, 
59, 1114928216, 0.22039287, -0.7234907, 0.008282527, -0.6541556, 8.848224639892578, -4.237477779388428, -1.8798635005950928, 98.22554016113281, -46.860836029052734, -39.09648132324219, -0.986328125, -0.542724609375, 0.242431640625, 0, 
60, 1114944883, 0.22791502, -0.72504663, -0.00784548, -0.6498467, 8.948713302612305, -3.915262460708618, -1.755339503288269, 107.85942840576172, -51.707889556884766, -42.014705657958984, -0.986328125, -0.5458984375, 0.26806640625, 0, 
61, 1114961550, 0.23571211, -0.7264305, -0.024723677, -0.6450794, 9.188745498657227, -3.355478048324585, -1.8656842708587646, 112.86357116699219, -54.3333625793457, -43.893646240234375, -0.98779296875, -0.5546875, 0.297119140625, 0, 
62, 1114978217, 0.2438669, -0.72728974, -0.042004358, -0.6401674, 9.198041915893555, -3.4220244884490967, -2.076942205429077, 117.3014907836914, -53.26908874511719, -44.17637634277344, -0.98583984375, -0.553466796875, 0.325439453125, 0, 
63, 1114994884, 0.2526503, -0.7276691, -0.05996481, -0.63487774, 9.185211181640625, -3.5554189682006836, -2.107937812805176, 124.34396362304688, -53.93943786621094, -44.34400177001953, -0.983642578125, -0.560302734375, 0.353759765625, 0, 
64, 1115011551, 0.26239756, -0.72717047, -0.079209335, -0.6293621, 9.211764335632324, -3.408862590789795, -2.1000990867614746, 136.37794494628906, -53.021461486816406, -46.59678649902344, -0.980224609375, -0.558837890625, 0.383056640625, 0, 
65, 1115028218, 0.2729509, -0.7258041, -0.09910113, -0.6236066, 9.282837867736816, -2.9895167350769043, -2.1381685733795166, 144.88848876953125, -51.160701751708984, -46.44547653198242, -0.979248046875, -0.556884765625, 0.4150390625, 0, 
66, 1115044885, 0.2834603, -0.7237723, -0.11849437, -0.6178696, 9.314929008483887, -2.5825014114379883, -2.082810640335083, 143.7524871826172, -47.28323745727539, -44.652687072753906, -0.97900390625, -0.55615234375, 0.442138671875, 0, 
67, 1115061552, 0.2930856, -0.7215253, -0.13629656, -0.6123117, 9.222378730773926, -2.387932300567627, -1.987776279449463, 132.8541717529297, -43.07973861694336, -40.990142822265625, -0.97119140625, -0.54833984375, 0.467041015625, 0, 
68, 1115078219, 0.30123055, -0.7193666, -0.15183325, -0.6072222, 9.220975875854492, -2.265920639038086, -1.728764533996582, 115.34204864501953, -37.93528366088867, -36.80499267578125, -0.9716796875, -0.546142578125, 0.49072265625, 0, 
69, 1115094886, 0.30734572, -0.71753716, -0.16395326, -0.6031571, 9.245339393615723, -2.0282387733459473, -1.4811010360717773, 89.27296447753906, -29.2913818359375, -30.104015350341797, -0.968994140625, -0.540771484375, 0.512451171875, 0, 
70, 1115111553, 0.31136084, -0.7162989, -0.17233524, -0.60022587, 9.08313274383545, -2.1958811283111572, -1.5780887603759766, 60.8735237121582, -20.637680053710938, -22.0157413482666, -0.96875, -0.539794921875, 0.525146484375, 0, 
71, 1115128220, 0.31325644, -0.7158949, -0.17723693, -0.59829086, 9.010136604309082, -2.5648462772369385, -1.5888792276382446, 33.10638427734375, -14.227079391479492, -14.699047088623047, -0.968017578125, -0.539306640625, 0.533203125, 0, 
72, 1115144887, 0.31397447, -0.71587044, -0.18037876, -0.59700376, 9.112497329711914, -3.2253024578094482, -1.3918757438659668, 18.466320037841797, -10.22447681427002, -11.7855224609375, -0.96923828125, -0.542236328125, 0.5390625, 0, 
73, 1115161554, 0.31508678, -0.7156597, -0.18378048, -0.59563106, 9.332586288452148, -3.4546737670898438, -0.9052221179008484, 21.974315643310547, -9.952152252197266, -11.53246021270752, -0.969482421875, -0.544189453125, 0.5458984375, 0, 
74, 1115178221, 0.31652492, -0.715234, -0.18718523, -0.5943184, 9.534452438354492, -2.934709310531616, -0.7076054215431213, 23.957683563232422, -8.424762725830078, -10.676970481872559, -0.96533203125, -0.54541015625, 0.55078125, 0, 
75, 1115194888, 0.31695318, -0.71543914, -0.18949714, -0.5931093, 9.616076469421387, -2.6548404693603516, -0.6909286975860596, 12.999932289123535, -9.487371444702148, -8.844145774841309, -0.968505859375, -0.544189453125, 0.553466796875, 0, 
76, 1115211555, 0.31641147, -0.7163678, -0.1908707, -0.59183574, 9.843084335327148, -2.8824985027313232, -0.6270824670791626, 2.8910608291625977, -12.042067527770996, -7.070371150970459, -0.96630859375, -0.545654296875, 0.556396484375, 0, 
77, 1115228222, 0.31529397, -0.71762365, -0.19141242, -0.5907348, 9.97555160522461, -2.756927967071533, -0.5571169257164001, -4.289687633514404, -11.538432121276855, -5.250741004943848, -0.968505859375, -0.552001953125, 0.560791015625, 0, 
78, 1115244889, 0.31330496, -0.719347, -0.19056866, -0.58996916, 10.069689750671387, -2.3923277854919434, -0.6404034495353699, -15.691876411437988, -9.997780799865723, -2.0382802486419678, -0.966552734375, -0.557373046875, 0.56591796875, 0, 
79, 1115261556, 0.3097253, -0.7217411, -0.1873352, -0.589971, 10.243549346923828, -2.046579599380493, -0.7927448749542236, -35.7154541015625, -5.9190263748168945, 2.6211774349212646, -0.969970703125, -0.563720703125, 0.563232421875, 0, 
80, 1115278223, 0.30493474, -0.72447944, -0.18230592, -0.5906851, 10.195910453796387, -2.0475237369537354, -1.0123640298843384, -50.662174224853516, -1.5587069988250732, 5.653504371643066, -0.96484375, -0.56982421875, 0.56005859375, 0, 
81, 1115294890, 0.299286, -0.7274498, -0.17607243, -0.5918135, 9.821202278137207, -2.1251871585845947, -1.1663163900375366, -60.8295783996582, 0.9934017062187195, 7.692479133605957, -0.966796875, -0.5810546875, 0.553955078125, 0, 
82, 1115311557, 0.2936667, -0.7301786, -0.16974166, -0.5931162, 9.575596809387207, -2.482093334197998, -1.085831880569458, -60.78636169433594, 3.0823307037353516, 7.734746932983398, -0.9697265625, -0.58837890625, 0.54541015625, 0, 
83, 1115328224, 0.28911486, -0.73206675, -0.1641624, -0.5945938, 9.641899108886719, -2.377549648284912, -0.7655547261238098, -50.866329193115234, 7.10710334777832, 7.024681091308594, -0.968017578125, -0.598388671875, 0.537841796875, 0, 
84, 1115344891, 0.28581208, -0.73312014, -0.15979913, -0.5960794, 9.72024917602539, -2.066166639328003, -0.7855250239372253, -37.962223052978516, 9.505144119262695, 5.099644660949707, -0.969482421875, -0.604736328125, 0.53076171875, 0, 
85, 1115361558, 0.28381112, -0.73348236, -0.15693903, -0.59734845, 9.998174667358398, -2.313234806060791, -0.6706237196922302, -23.644577026367188, 9.671927452087402, 2.5921778678894043, -0.9736328125, -0.607666015625, 0.523193359375, 0, 
86, 1115378225, 0.28274727, -0.733463, -0.15503652, -0.5983729, 10.302491188049316, -1.7249566316604614, -0.6404742002487183, -13.984651565551758, 9.081445693969727, 1.7217066287994385, -0.97265625, -0.61181640625, 0.51904296875, 0, 
87, 1115394892, 0.28120342, -0.73354375, -0.15264879, -0.5996137, 10.603610038757324, -1.2252002954483032, -0.80206298828125, -18.82952880859375, 10.118935585021973, 1.9765032529830933, -0.975341796875, -0.615478515625, 0.514404296875, 0, 
88, 1115411559, 0.2787622, -0.7337551, -0.14898428, -0.6014141, 10.612493515014648, -1.2236741781234741, -0.8954073190689087, -29.45406723022461, 13.868202209472656, 3.9148902893066406, -0.974365234375, -0.619384765625, 0.50634765625, 0, 
89, 1115428226, 0.2760482, -0.73392606, -0.14467677, -0.6035051, 10.4446382522583, -1.3219202756881714, -0.8908370733261108, -33.700984954833984, 16.405580520629883, 5.570943832397461, -0.978271484375, -0.62353515625, 0.494873046875, 0, 
90, 1115444893, 0.273373, -0.733882, -0.13987416, -0.605904, 10.182171821594238, -1.142370581626892, -0.8891055583953857, -35.45179748535156, 19.78443717956543, 7.556617259979248, -0.978759765625, -0.62890625, 0.484619140625, 0, 
91, 1115461560, 0.27049232, -0.73380756, -0.13445392, -0.6085085, 9.903278350830078, -0.8155893683433533, -0.9622693657875061, -39.1939582824707, 21.871957778930664, 9.530389785766602, -0.984619140625, -0.634033203125, 0.47314453125, 0, 
92, 1115478227, 0.2676067, -0.7336382, -0.12882677, -0.61120003, 9.873370170593262, -1.015514850616455, -0.9701033234596252, -39.977386474609375, 23.057823181152344, 10.452163696289062, -0.9853515625, -0.635009765625, 0.46044921875, 0, 
93, 1115494894, 0.26564038, -0.7330648, -0.12423536, -0.6136912, 10.189607620239258, -1.383367657661438, -0.6243790984153748, -30.056900024414062, 22.625892639160156, 9.228201866149902, -0.98876953125, -0.638916015625, 0.4501953125, 0, 
94, 1115511561, 0.26464874, -0.7320825, -0.12068232, -0.61599684, 10.75156021118164, -0.9636116623878479, -0.5429004430770874, -19.86036491394043, 22.297311782836914, 8.195771217346191, -0.988037109375, -0.64013671875, 0.440673828125, 0, 
95, 1115528228, 0.2634244, -0.7311589, -0.11706404, -0.6183124, 11.391197204589844, -0.7103238701820374, -0.7689849138259888, -21.424516677856445, 21.95990562438965, 7.706569194793701, -0.992431640625, -0.642822265625, 0.4296875, 0, 
96, 1115544895, 0.26135156, -0.7304519, -0.11287904, -0.62080115, 11.81964111328125, -0.8866276144981384, -0.7704141736030579, -28.62894058227539, 22.204957962036133, 6.976778507232666, -0.993408203125, -0.642822265625, 0.417724609375, 0, 
97, 1115561562, 0.25917, -0.7298867, -0.109180346, -0.62303764, 11.655220031738281, -1.2040969133377075, -0.624448299407959, -27.157197952270508, 19.324861526489258, 4.792654514312744, -0.998291015625, -0.64599609375, 0.4052734375, 0, 
98, 1115578229, 0.25721484, -0.7294447, -0.10635302, -0.62485224, 10.963168144226074, -1.0047063827514648, -0.49601712822914124, -22.197574615478516, 15.244548797607422, 2.361471176147461, -0.99658203125, -0.651123046875, 0.400634765625, 0, 
99, 1115594896, 0.25505194, -0.7292184, -0.10374053, -0.62644, 10.086909294128418, -0.7933174967765808, -0.31790512800216675, -22.537811279296875, 12.59260082244873, 1.0752619504928589, -0.997314453125, -0.6533203125, 0.39208984375, 0, 
100, 1115611563, 0.2528462, -0.7290448, -0.10138092, -0.6279208, 9.325217247009277, -0.9653310179710388, -0.12105204910039902, -21.688167572021484, 11.296594619750977, -0.030716095119714737, -0.996337890625, -0.656494140625, 0.385986328125, 0, 
101, 1115628230, 0.2511079, -0.72866267, -0.09991112, -0.6292958, 8.88981819152832, -1.1398743391036987, -0.07222551107406616, -15.079784393310547, 10.380020141601562, -2.3462865352630615, -0.99853515625, -0.660888671875, 0.382080078125, 0, 
102, 1115644897, 0.2495178, -0.72835916, -0.09900803, -0.63042164, 8.703465461730957, -0.9372679591178894, -0.16256046295166016, -11.863214492797852, 7.854037284851074, -3.993849039077759, -0.99853515625, -0.66162109375, 0.373046875, 0, 
103, 1115661564, 0.24788927, -0.7281633, -0.09824424, -0.63140893, 8.660845756530762, -1.029225468635559, -0.2570990324020386, -11.55135440826416, 6.377604961395264, -4.47313928604126, -1.0, -0.66650390625, 0.373046875, 0, 
104, 1115678231, 0.24661015, -0.72785336, -0.09760207, -0.6323661, 8.72177791595459, -1.2945544719696045, -0.30332043766975403, -9.067046165466309, 6.709979057312012, -3.525352716445923, -0.998779296875, -0.671142578125, 0.3681640625, 0, 
105, 1115694898, 0.24582107, -0.72731656, -0.097201206, -0.63335204, 8.84798526763916, -1.2812515497207642, -0.4818612337112427, -5.208318710327148, 7.722929954528809, -2.758040428161621, -0.9990234375, -0.67236328125, 0.364013671875, 0, 
106, 1115711565, 0.24526672, -0.72663647, -0.09686187, -0.6343985, 9.17014217376709, -1.1986490488052368, -0.6309472322463989, -3.570315361022949, 8.680939674377441, -2.1947081089019775, -1.001220703125, -0.675048828125, 0.3603515625, 0, 
107, 1115728232, 0.2446277, -0.72584045, -0.096138515, -0.6356654, 9.651382446289062, -1.1319172382354736, -0.7755628824234009, -5.621151447296143, 10.866768836975098, -1.0353235006332397, -1.002197265625, -0.677978515625, 0.359130859375, 0, 
108, 1115744899, 0.24403617, -0.7248334, -0.09536308, -0.6371568, 10.04372501373291, -1.279781699180603, -0.9977582097053528, -5.4057111740112305, 13.02369499206543, -1.0142955780029297, -0.9990234375, -0.67822265625, 0.354736328125, 0, 
109, 1115761566, 0.2438512, -0.72351414, -0.094945475, -0.6387874, 10.372886657714844, -1.4422322511672974, -1.0326961278915405, -1.3774199485778809, 14.763785362243652, -1.3886127471923828, -0.998779296875, -0.680419921875, 0.34716796875, 0, 
110, 1115778233, 0.24403186, -0.72188264, -0.095037565, -0.64054805, 10.481461524963379, -1.5405707359313965, -0.9649430513381958, 3.120846748352051, 16.183656692504883, -2.681530475616455, -1.00146484375, -0.68115234375, 0.340576171875, 0, 
111, 1115794900, 0.24454525, -0.7200879, -0.09572116, -0.6422684, 10.422135353088379, -1.4090545177459717, -0.8939933776855469, 7.678670406341553, 15.943999290466309, -4.136916637420654, -1.002197265625, -0.68212890625, 0.3388671875, 0, 
112, 1115811567, 0.24519822, -0.71834636, -0.09663663, -0.6438305, 10.238298416137695, -1.351697564125061, -0.8805840015411377, 9.407690048217773, 14.64273738861084, -4.308406352996826, -1.002685546875, -0.681640625, 0.334228515625, 0, 
113, 1115828234, 0.24587944, -0.71677107, -0.09784607, -0.64514244, 9.991662979125977, -1.6408324241638184, -0.8013496994972229, 10.735676765441895, 12.214670181274414, -5.0448808670043945, -1.005126953125, -0.681884765625, 0.334228515625, 0, 
114, 1115844901, 0.2468051, -0.7153157, -0.099497214, -0.64615095, 9.845527648925781, -1.6009485721588135, -0.7241410613059998, 13.90238094329834, 9.624800682067871, -5.510941982269287, -1.00537109375, -0.681396484375, 0.330322265625, 0, 
115, 1115861568, 0.24727954, -0.7142309, -0.100684226, -0.6469853, 9.667277336120605, -1.4060672521591187, -0.6886966824531555, 9.112772941589355, 7.61843729019165, -4.651697635650635, -1.00927734375, -0.6865234375, 0.33154296875, 0, 
116, 1115878235, 0.24705389, -0.7136905, -0.101020105, -0.64761513, 9.484655380249023, -1.4825198650360107, -0.610080361366272, 1.1067122220993042, 5.170385360717773, -2.8223090171813965, -1.008056640625, -0.684814453125, 0.332275390625, 0, 
117, 1115894902, 0.24681237, -0.71334153, -0.10126483, -0.64805335, 9.588248252868652, -1.8023432493209839, -0.49409958720207214, 0.4322912096977234, 3.5313003063201904, -1.9555747509002686, -1.008056640625, -0.69091796875, 0.329345703125, 0, 
118, 1115911569, 0.24711399, -0.7129034, -0.10206866, -0.6482945, 9.590683937072754, -1.713018536567688, -0.4145951271057129, 5.87678337097168, 2.396298885345459, -1.9961836338043213, -1.01171875, -0.690185546875, 0.3310546875, 0, 
119, 1115928236, 0.24771383, -0.71250117, -0.10325049, -0.64832044, 9.578054428100586, -1.6623249053955078, -0.3595317304134369, 9.112014770507812, 0.7492740750312805, -2.11442494392395, -1.009521484375, -0.6923828125, 0.331298828125, 0, 
120, 1115944903, 0.24843352, -0.7121782, -0.104461215, -0.6482061, 9.577491760253906, -1.5041484832763672, -0.3346389830112457, 9.792417526245117, -0.25564682483673096, -1.4096273183822632, -1.01123046875, -0.688720703125, 0.333984375, 0, 
121, 1115961570, 0.24901581, -0.71202564, -0.10538923, -0.648, 9.638564109802246, -1.3963850736618042, -0.36180585622787476, 7.634685516357422, -1.0836927890777588, -0.33171653747558594, -1.014892578125, -0.692626953125, 0.33642578125, 0, 
122, 1115978237, 0.24964848, -0.71186155, -0.10630821, -0.6477866, 9.778606414794922, -1.5053009986877441, -0.3442066013813019, 7.8657636642456055, -1.0186748504638672, -0.024876337498426437, -1.013671875, -0.692138671875, 0.3369140625, 0, 
123, 1115994904, 0.25028548, -0.7117105, -0.10707827, -0.64757997, 9.839797019958496, -1.4068710803985596, -0.2108490914106369, 7.197079658508301, -0.7881091833114624, 0.7496964931488037, -1.015869140625, -0.692626953125, 0.340087890625, 0, 
124, 1116011571, 0.25059226, -0.7117998, -0.10748485, -0.6472957, 9.885184288024902, -1.2541837692260742, -0.1744428426027298, 3.603886127471924, -1.8695415258407593, 1.4034607410430908, -1.014404296875, -0.6923828125, 0.34375, 0, 
125, 1116028238, 0.25055298, -0.71204734, -0.10740594, -0.6470518, 9.86359977722168, -1.3512828350067139, -0.12698131799697876, -0.554726243019104, -1.8133469820022583, 2.331613779067993, -1.018798828125, -0.696533203125, 0.34326171875, 0, 
126, 1116044905, 0.2502659, -0.7125069, -0.107148305, -0.64669955, 9.745800971984863, -1.5535271167755127, -0.17584213614463806, -2.8512120246887207, -3.1846001148223877, 2.4846112728118896, -1.019775390625, -0.694091796875, 0.344482421875, 0, 
127, 1116061572, 0.24983129, -0.71303904, -0.10668697, -0.6463572, 9.59072494506836, -1.5000815391540527, -0.2470320165157318, -4.614205360412598, -3.235640048980713, 2.8855783939361572, -1.01953125, -0.697021484375, 0.345458984375, 0, 
128, 1116078239, 0.24920107, -0.71371996, -0.106034614, -0.6459563, 9.493817329406738, -1.4516066312789917, -0.2701539397239685, -6.634592533111572, -4.014797687530518, 3.188218116760254, -1.021728515625, -0.697509765625, 0.34814453125, 0, 
129, 1116094906, 0.2485256, -0.7144507, -0.10529346, -0.6455298, 9.37989330291748, -1.5909700393676758, -0.3576630651950836, -7.317568302154541, -4.257491111755371, 3.5291616916656494, -1.020263671875, -0.70068359375, 0.347412109375, 0, 
130, 1116111573, 0.24836089, -0.71511495, -0.1049478, -0.6449136, 9.19609260559082, -1.8921496868133545, -0.25388187170028687, -2.8007168769836426, -5.209334850311279, 4.1453776359558105, -1.024169921875, -0.698486328125, 0.351806640625, 0, 
131, 1116128240, 0.24863192, -0.7157594, -0.10471123, -0.64413226, 9.265562057495117, -1.7453789710998535, -0.1328396201133728, -0.02268645539879799, -5.81802225112915, 5.803121566772461, -1.02392578125, -0.6982421875, 0.355224609375, 0, 
132, 1116144907, 0.24879496, -0.716591, -0.104083076, -0.6432458, 9.500741004943848, -1.6097710132598877, -0.23094305396080017, -2.533827066421509, -6.594350337982178, 7.5707902908325195, -1.02392578125, -0.694580078125, 0.3583984375, 0, 
133, 1116161574, 0.24868275, -0.71762407, -0.103059195, -0.64230186, 9.881937026977539, -1.9333299398422241, -0.41707706451416016, -5.9447550773620605, -7.308183670043945, 8.563994407653809, -1.029052734375, -0.693115234375, 0.361083984375, 0, 
134, 1116178241, 0.24907993, -0.7184589, -0.10253358, -0.64129806, 10.411652565002441, -2.362380266189575, -0.3962268531322479, -0.8470059633255005, -7.227399826049805, 8.322093963623047, -1.0263671875, -0.6953125, 0.362060546875, 0, 
135, 1116194908, 0.25034255, -0.71890855, -0.103249915, -0.64018625, 10.579216957092285, -2.576390504837036, -0.26190826296806335, 9.639806747436523, -7.588810920715332, 5.903282642364502, -1.029296875, -0.69482421875, 0.365966796875, 0, 
136, 1116211575, 0.25212827, -0.7191336, -0.10466596, -0.639002, 10.266020774841309, -2.421692371368408, -0.26569557189941406, 15.740571022033691, -7.805484771728516, 4.688704013824463, -1.0283203125, -0.69140625, 0.373291015625, 0, 
137, 1116228242, 0.25388008, -0.7195222, -0.106391616, -0.6375843, 9.679691314697266, -2.549114227294922, -0.14027473330497742, 16.81640625, -10.251715660095215, 3.514547824859619, -1.03515625, -0.6904296875, 0.3798828125, 0, 
138, 1116244909, 0.25592628, -0.7198418, -0.10866987, -0.6360194, 9.314691543579102, -2.746835947036743, 0.13762491941452026, 20.91911506652832, -11.444950103759766, 2.245802879333496, -1.035400390625, -0.690673828125, 0.388916015625, 0, 
139, 1116261576, 0.25854927, -0.71998525, -0.11166155, -0.6342755, 9.1762056350708, -2.491748094558716, 0.20562906563282013, 27.331140518188477, -12.416301727294922, 1.3708984851837158, -1.0361328125, -0.685791015625, 0.396728515625, 0, 
140, 1116278243, 0.26073343, -0.7202466, -0.11429064, -0.6326143, 9.386093139648438, -2.214517116546631, 0.07913912087678909, 23.29549789428711, -12.249835968017578, 1.1598995923995972, -1.033935546875, -0.684814453125, 0.406494140625, 0, 
141, 1116294910, 0.26229072, -0.72061056, -0.11619457, -0.63120747, 9.768156051635742, -2.1526520252227783, -0.05984054505825043, 16.646432876586914, -10.662818908691406, 1.6355524063110352, -1.034912109375, -0.68359375, 0.409912109375, 0, 
142, 1116311577, 0.26328382, -0.7210188, -0.11738974, -0.6301057, 10.213747024536133, -2.300410270690918, -0.18177852034568787, 10.447284698486328, -8.546866416931152, 2.1792960166931152, -1.03857421875, -0.681396484375, 0.418212890625, 0, 
143, 1116328244, 0.26411533, -0.7212505, -0.1185695, -0.6292712, 10.288100242614746, -2.4147167205810547, -0.19046622514724731, 9.677526473999023, -6.586423873901367, 0.9231780767440796, -1.03662109375, -0.679931640625, 0.4228515625, 0, 
144, 1116344911, 0.26518092, -0.7211686, -0.12014308, -0.62861806, 10.022503852844238, -2.3063552379608154, -0.14073538780212402, 12.957326889038086, -4.881847858428955, -0.6137574911117554, -1.038330078125, -0.680419921875, 0.42626953125, 0, 
145, 1116361578, 0.26619473, -0.7209092, -0.12167198, -0.6281927, 9.646139144897461, -2.2054390907287598, -0.0574946254491806, 12.635974884033203, -2.9742636680603027, -1.186355471611023, -1.037353515625, -0.679443359375, 0.433837890625, 0, 
146, 1116378245, 0.26693743, -0.720571, -0.122865036, -0.6280336, 9.377516746520996, -2.002375841140747, -0.07558982819318771, 9.754246711730957, -0.9591189622879028, -1.254459023475647, -1.036865234375, -0.67724609375, 0.43115234375, 0, 
147, 1116394912, 0.26776367, -0.71994555, -0.124131426, -0.62815017, 9.258464813232422, -2.006098508834839, 0.017532244324684143, 10.771668434143066, 1.5525528192520142, -2.0053021907806396, -1.03955078125, -0.677978515625, 0.435546875, 0, 
148, 1116411579, 0.2685377, -0.7192415, -0.12537438, -0.6283793, 9.224414825439453, -1.9337797164916992, -0.019991807639598846, 10.449992179870605, 2.4128901958465576, -2.3924193382263184, -1.03857421875, -0.677490234375, 0.4384765625, 0, 
149, 1116428246, 0.2689448, -0.7187049, -0.12634054, -0.6286258, 9.330892562866211, -1.7820353507995605, -0.1706884652376175, 7.107384204864502, 1.939035415649414, -2.495208501815796, -1.037841796875, -0.6767578125, 0.43603515625, 0, 
150, 1116444913, 0.2687143, -0.718405, -0.12688747, -0.6289567, 9.427972793579102, -1.9198023080825806, -0.2230556160211563, 1.62758469581604, 1.5287325382232666, -3.11946702003479, -1.038818359375, -0.67919921875, 0.4375, 0, 
151, 1116461580, 0.26859638, -0.71799517, -0.12763402, -0.6293239, 9.443473815917969, -2.196063995361328, -0.13543492555618286, 3.2130749225616455, 1.8919334411621094, -3.778123140335083, -1.03515625, -0.681884765625, 0.4375, 0, 
152, 1116478247, 0.26849654, -0.71749437, -0.12837683, -0.6297865, 9.37629222869873, -2.1652636528015137, -0.21036559343338013, 3.3642666339874268, 2.7549021244049072, -3.951610803604126, -1.0380859375, -0.68017578125, 0.436279296875, 0, 
153, 1116494914, 0.2681062, -0.7170432, -0.12897368, -0.6303443, 9.333708763122559, -2.1372735500335693, -0.38389644026756287, 1.1175013780593872, 3.004030466079712, -4.63515567779541, -1.0361328125, -0.6806640625, 0.43603515625, 0, 
154, 1116511581, 0.26749727, -0.71667117, -0.12940511, -0.6309374, 9.437073707580566, -2.4394068717956543, -0.3834628760814667, -0.8566296696662903, 2.936950922012329, -4.774745941162109, -1.038818359375, -0.68408203125, 0.43408203125, 0, 
155, 1116528248, 0.2667614, -0.7163286, -0.12967494, -0.6315823, 9.473564147949219, -2.5479178428649902, -0.3862678110599518, -2.2873294353485107, 3.2405896186828613, -4.628586292266846, -1.033447265625, -0.68603515625, 0.434814453125, 0, 
156, 1116544915, 0.2661104, -0.7159307, -0.13016762, -0.63220644, 9.50888729095459, -2.5948073863983154, -0.37851089239120483, -0.7844594717025757, 3.0381405353546143, -5.405055522918701, -1.03564453125, -0.686767578125, 0.43408203125, 0, 
157, 1116561582, 0.2656286, -0.7154916, -0.13088946, -0.63275695, 9.50610637664795, -2.5112197399139404, -0.28065887093544006, 1.182999610900879, 2.5807745456695557, -5.739941596984863, -1.033447265625, -0.6904296875, 0.43212890625, 0, 
158, 1116578249, 0.2652506, -0.71509594, -0.13160947, -0.63321316, 9.52961254119873, -2.5485105514526367, -0.2659837603569031, 1.687441349029541, 2.0145926475524902, -5.10323429107666, -1.0341796875, -0.68994140625, 0.427978515625, 0, 
159, 1116594916, 0.26507336, -0.71475816, -0.1323, -0.6335248, 9.58759593963623, -2.584886074066162, -0.266607403755188, 2.5678274631500244, 1.2756150960922241, -3.8073348999023438, -1.0322265625, -0.690673828125, 0.430419921875, 0, 
160, 1116611583, 0.2649118, -0.7144553, -0.13300373, -0.6337866, 9.728975296020508, -2.286715507507324, -0.5150144100189209, 2.680830240249634, 0.8597159385681152, -3.7205970287323, -1.02978515625, -0.693359375, 0.43212890625, 0, 
161, 1116628250, 0.2646659, -0.7141764, -0.13356541, -0.63408536, 9.807965278625488, -2.200571298599243, -0.6551135182380676, 1.5698792934417725, 1.1203252077102661, -3.455697774887085, -1.029541015625, -0.69384765625, 0.429443359375, 0, 
162, 1116644917, 0.2644336, -0.71386933, -0.13393068, -0.6344511, 9.773962020874023, -2.143040418624878, -0.7075828909873962, 0.7725815176963806, 1.9528144598007202, -2.594022274017334, -1.029296875, -0.69287109375, 0.426513671875, 0, 
163, 1116661584, 0.2639337, -0.7136853, -0.13378058, -0.6348977, 9.575529098510742, -1.890005111694336, -0.8206563591957092, -3.084876537322998, 2.516665458679199, -1.2767738103866577, -1.03125, -0.693603515625, 0.426513671875, 0, 
164, 1116678251, 0.26301506, -0.71373504, -0.1329618, -0.6353949, 9.415243148803711, -1.9340136051177979, -0.9020161032676697, -8.525579452514648, 2.5912115573883057, 0.2993869483470917, -1.030517578125, -0.696044921875, 0.423583984375, 0, 
165, 1116694918, 0.2619522, -0.7138156, -0.13189134, -0.6359664, 9.353409767150879, -2.2826178073883057, -0.8288559317588806, -10.451733589172363, 3.1680233478546143, 0.7925212383270264, -1.027099609375, -0.697265625, 0.42041015625, 0, 
166, 1116711585, 0.26130733, -0.7137598, -0.13121428, -0.63643414, 9.288798332214355, -2.204785108566284, -0.7468463182449341, -6.337460517883301, 2.9474847316741943, 0.7276185750961304, -1.02734375, -0.697021484375, 0.41845703125, 0, 
167, 1116728252, 0.2609118, -0.7137685, -0.13084543, -0.6366626, 9.211908340454102, -2.135084867477417, -0.7276099324226379, -3.6624951362609863, 1.1788246631622314, 0.7718388438224792, -1.026123046875, -0.697021484375, 0.41943359375, 0, 
168, 1116744919, 0.26055625, -0.7139705, -0.13070698, -0.63661003, 9.312065124511719, -2.128790855407715, -0.6515100598335266, -2.548341989517212, -1.407373070716858, 0.4764602482318878, -1.026611328125, -0.697265625, 0.416748046875, 0, 
169, 1116761586, 0.26052293, -0.7142534, -0.13115907, -0.6362131, 9.483416557312012, -2.2286312580108643, -0.6848040819168091, 1.7847570180892944, -4.207545757293701, -0.3396179676055908, -1.026611328125, -0.699462890625, 0.415771484375, 0, 
170, 1116778253, 0.2606081, -0.714608, -0.13181649, -0.63564414, 9.640718460083008, -2.1960153579711914, -0.8296364545822144, 3.2952280044555664, -5.614131450653076, -0.47565987706184387, -1.027587890625, -0.697509765625, 0.417724609375, 0, 
171, 1116794920, 0.2608503, -0.7148377, -0.13258943, -0.6351255, 9.67602252960205, -1.9926337003707886, -0.767248809337616, 4.753870964050293, -4.8646392822265625, -0.5765483379364014, -1.02587890625, -0.699951171875, 0.419921875, 0, 
172, 1116811587, 0.26125023, -0.71512216, -0.13381146, -0.63438416, 9.657692909240723, -2.032956600189209, -0.8558114171028137, 7.599751949310303, -6.844682693481445, -1.6487860679626465, -1.02734375, -0.699951171875, 0.424560546875, 0, 
173, 1116828254, 0.26209545, -0.715321, -0.13570572, -0.6334081, 9.801313400268555, -1.9781084060668945, -0.7958200573921204, 13.095541000366211, -8.40174674987793, -2.674870729446411, -1.02099609375, -0.701171875, 0.425048828125, 0, 
174, 1116844921, 0.26331273, -0.71540976, -0.13832967, -0.63223445, 10.075735092163086, -1.8065288066864014, -0.7185670137405396, 18.491361618041992, -9.845300674438477, -4.390913963317871, -1.021240234375, -0.70068359375, 0.43017578125, 0, 
175, 1116861588, 0.26473936, -0.7153271, -0.14129497, -0.63107544, 10.166650772094727, -1.7728307247161865, -0.8201963901519775, 21.304624557495117, -9.437459945678711, -5.338254928588867, -1.0234375, -0.698486328125, 0.435791015625, 0, 
176, 1116878255, 0.26600683, -0.71526694, -0.1440821, -0.6299794, 10.016470909118652, -1.7929983139038086, -0.6885616779327393, 19.65191650390625, -9.041484832763672, -5.232600212097168, -1.022216796875, -0.700927734375, 0.439697265625, 0, 
177, 1116894922, 0.2669797, -0.7153411, -0.14673823, -0.6288698, 9.646228790283203, -1.6866012811660767, -0.6064882874488831, 17.406696319580078, -9.735318183898926, -5.697021961212158, -1.017822265625, -0.701904296875, 0.44677734375, 0, 
178, 1116911589, 0.26777777, -0.71559954, -0.14921333, -0.62765265, 9.468814849853516, -1.613748550415039, -0.6293797492980957, 15.536966323852539, -10.90301513671875, -5.171128273010254, -1.018798828125, -0.697998046875, 0.452880859375, 0, 
179, 1116928256, 0.26846057, -0.7159288, -0.15134245, -0.62647456, 9.322000503540039, -1.585831880569458, -0.500696063041687, 13.30936336517334, -10.495262145996094, -3.955500841140747, -1.01416015625, -0.696044921875, 0.45849609375, 0, 
180, 1116944923, 0.26863185, -0.7165933, -0.15266009, -0.6253207, 9.320610046386719, -1.5114963054656982, -0.576227605342865, 6.6526336669921875, -10.860719680786133, -1.8519080877304077, -1.0146484375, -0.69921875, 0.461669921875, 0, 
181, 1116961590, 0.26851723, -0.71734023, -0.15334962, -0.624344, 9.562806129455566, -1.5344438552856445, -0.623046875, 2.207623243331909, -9.487363815307617, -0.21647222340106964, -1.0146484375, -0.69580078125, 0.462158203125, 0, 
182, 1116978257, 0.26840094, -0.71798414, -0.15374833, -0.6235554, 9.950607299804688, -1.5241762399673462, -0.7299208641052246, 0.9439945816993713, -7.586630344390869, 0.7671900987625122, -1.0146484375, -0.700439453125, 0.468017578125, 0, 
183, 1116994924, 0.26819906, -0.7185245, -0.15379389, -0.6230084, 10.463312149047852, -1.579900860786438, -0.7913703918457031, -1.0554673671722412, -5.3915696144104, 1.6046357154846191, -1.01318359375, -0.698486328125, 0.466064453125, 0, 
184, 1117011591, 0.26797596, -0.7188371, -0.15377559, -0.6227482, 10.697125434875488, -1.662042260169983, -0.9286578297615051, -1.3153849840164185, -2.9071500301361084, 1.0786916017532349, -1.013671875, -0.700439453125, 0.4697265625, 0, 
185, 1117028258, 0.26771834, -0.7189773, -0.15379864, -0.6226914, 10.671847343444824, -1.7896727323532104, -0.9874870777130127, -1.2037392854690552, -1.273866891860962, 0.18699830770492554, -1.009765625, -0.699951171875, 0.467041015625, 0, 
186, 1117044925, 0.2673958, -0.7189312, -0.15372223, -0.6229022, 10.281182289123535, -1.7705602645874023, -0.9861056804656982, -1.8893080949783325, 0.9668474197387695, -0.27914002537727356, -1.012939453125, -0.699462890625, 0.46484375, 0, 
187, 1117061592, 0.26680708, -0.71892065, -0.15348151, -0.62322605, 9.713140487670898, -1.7073169946670532, -0.8992593288421631, -4.091596603393555, 1.403242826461792, -0.7705132365226746, -1.012451171875, -0.699951171875, 0.46484375, 0, 
188, 1117078259, 0.26653758, -0.7187075, -0.15376087, -0.6235181, 9.398818969726562, -1.8129247426986694, -0.8991270065307617, 0.12089195102453232, 1.5020310878753662, -2.1259500980377197, -1.011474609375, -0.700439453125, 0.46435546875, 0, 
189, 1117094926, 0.26732874, -0.71805626, -0.15508053, -0.6236031, 9.385825157165527, -1.8562992811203003, -0.8665723204612732, 10.844345092773438, 1.5802916288375854, -2.8093624114990234, -1.006591796875, -0.70263671875, 0.462158203125, 0, 
190, 1117111593, 0.26857495, -0.7171907, -0.15660438, -0.62368274, 9.401385307312012, -1.5093064308166504, -0.9176656007766724, 14.367082595825195, 2.593684673309326, -2.0936412811279297, -1.01220703125, -0.700439453125, 0.46435546875, 0, 
191, 1117128260, 0.2693575, -0.71657014, -0.15744366, -0.62384737, 9.542207717895508, -1.2144944667816162, -1.0732709169387817, 8.602533340454102, 2.7375566959381104, -0.5885543823242188, -1.011474609375, -0.698486328125, 0.464111328125, 0, 
192, 1117144927, 0.2694891, -0.71623796, -0.15766992, -0.6241148, 9.841584205627441, -1.5987637042999268, -1.177534580230713, 2.1251044273376465, 2.456007957458496, -0.21111266314983368, -1.009521484375, -0.698486328125, 0.464599609375, 0, 
193, 1117161594, 0.2695468, -0.7159369, -0.15789756, -0.6243774, 10.15692138671875, -1.7587755918502808, -1.1784738302230835, 1.718253493309021, 2.238562822341919, -0.4835869371891022, -1.0087890625, -0.69921875, 0.462158203125, 0, 
194, 1117178261, 0.26963636, -0.71563363, -0.15830888, -0.62458235, 10.25377368927002, -1.632580280303955, -1.1942534446716309, 2.734475612640381, 1.6803979873657227, -1.142460823059082, -1.009033203125, -0.698486328125, 0.460205078125, 0, 
195, 1117194928, 0.26942924, -0.7154246, -0.15855864, -0.62484765, 10.024717330932617, -1.4531214237213135, -1.3538461923599243, 0.34360718727111816, 1.5690852403640747, -1.6201634407043457, -1.008056640625, -0.69775390625, 0.459228515625, 0, 
196, 1117211595, 0.2692385, -0.7151805, -0.15892106, -0.62511736, 9.82670783996582, -1.7143150568008423, -1.382979154586792, 0.9756516814231873, 1.5816481113433838, -2.131047010421753, -1.0068359375, -0.701416015625, 0.45703125, 0, 
197, 1117228262, 0.26936677, -0.71481246, -0.15955041, -0.6253226, 9.690071105957031, -1.7619487047195435, -1.361815333366394, 3.9963629245758057, 1.6859943866729736, -2.087339401245117, -1.00341796875, -0.698486328125, 0.459228515625, 0, 
198, 1117244929, 0.26944607, -0.7144118, -0.16008948, -0.6256085, 9.605752944946289, -1.7104274034500122, -1.3116371631622314, 3.3451857566833496, 2.369584798812866, -2.041236400604248, -1.004150390625, -0.69921875, 0.454833984375, 0, 
199, 1117261596, 0.269281, -0.7142281, -0.16045965, -0.6257944, 9.550981521606445, -1.7281124591827393, -1.2282919883728027, 1.1313897371292114, 1.0194367170333862, -1.8398051261901855, -1.0009765625, -0.702880859375, 0.45849609375, 0, 
200, 1117278263, 0.2692592, -0.7140479, -0.16090003, -0.62589633, 9.571525573730469, -1.8426860570907593, -1.1394938230514526, 2.227229118347168, 0.64654141664505, -1.411637544631958, -1.00341796875, -0.70361328125, 0.457763671875, 0, 
201, 1117294930, 0.26935187, -0.71381664, -0.16114505, -0.6260572, 9.378642082214355, -1.7240118980407715, -1.0708632469177246, 1.980905532836914, 1.667201042175293, -0.1352478712797165, -1.0068359375, -0.70263671875, 0.45703125, 0, 
202, 1117311597, 0.2691669, -0.7137859, -0.16100933, -0.62620676, 9.182875633239746, -1.6282728910446167, -1.0503977537155151, -1.3773869276046753, 1.163924217224121, 0.7758662700653076, -1.00634765625, -0.7021484375, 0.457275390625, 0, 
203, 1117328264, 0.26933777, -0.7137901, -0.16124852, -0.62606674, 9.564460754394531, -1.967905879020691, -0.7526601552963257, 2.24121356010437, -0.6897947788238525, 1.039376139640808, -1.00439453125, -0.702392578125, 0.45703125, 0, 
204, 1117344931, 0.26997575, -0.7136561, -0.1619704, -0.6257584, 9.978914260864258, -1.9066871404647827, -0.7006352543830872, 7.054749488830566, -1.2947028875350952, 0.822808027267456, -1.0029296875, -0.70166015625, 0.456298828125, 0, 
205, 1117361598, 0.27067068, -0.7133812, -0.16272591, -0.6255758, 10.227914810180664, -1.927950382232666, -0.8276859521865845, 7.599218845367432, -0.07103683054447174, 0.5013750791549683, -1.005859375, -0.697998046875, 0.45654296875, 0, 
206, 1117378265, 0.2714119, -0.7130581, -0.16374852, -0.62535614, 10.481772422790527, -1.74857497215271, -0.6223892569541931, 9.105060577392578, -0.4870447814464569, -0.6033905148506165, -1.003173828125, -0.697265625, 0.45361328125, 0, 
207, 1117394932, 0.27245188, -0.71251094, -0.16531476, -0.62511533, 10.350423812866211, -1.5283148288726807, -0.5828795433044434, 13.349475860595703, -0.3130706250667572, -2.1950161457061768, -1.0, -0.700927734375, 0.461669921875, 0, 
208, 1117411599, 0.2730494, -0.7122131, -0.16652066, -0.624874, 10.0566987991333, -1.253625750541687, -0.6951385140419006, 9.16477108001709, -1.2231093645095825, -2.035557270050049, -1.005859375, -0.69775390625, 0.46044921875, 0, 
209, 1117428266, 0.27320138, -0.7119779, -0.16705392, -0.62493336, 9.787699699401855, -1.3141815662384033, -0.6647540330886841, 3.631612539291382, 0.7282716035842896, -1.1264147758483887, -1.003173828125, -0.700439453125, 0.461669921875, 0, 
210, 1117444933, 0.2734437, -0.7115907, -0.16747311, -0.62515616, 9.734882354736328, -1.5068696737289429, -0.8348506689071655, 3.6814284324645996, 2.4958934783935547, -0.6461507081985474, -1.005126953125, -0.699951171875, 0.46044921875, 0, 
211, 1117461600, 0.27372852, -0.71107304, -0.16820975, -0.6254227, 10.26880931854248, -1.4939764738082886, -1.1520034074783325, 5.449845314025879, 2.7281501293182373, -2.2419633865356445, -1.002197265625, -0.698486328125, 0.4609375, 0, 
212, 1117478267, 0.2735507, -0.71063775, -0.16867307, -0.6258702, 10.474848747253418, -1.35489821434021, -1.4144890308380127, 1.650956392288208, 3.2567191123962402, -3.1290204524993896, -0.9990234375, -0.69677734375, 0.46142578125, 0, 
213, 1117494934, 0.27308628, -0.7102392, -0.16887617, -0.6264704, 10.098285675048828, -1.368883490562439, -1.595022439956665, -1.1097536087036133, 4.032771110534668, -3.313227415084839, -1.001220703125, -0.701171875, 0.45751953125, 0, 
214, 1117511601, 0.27260342, -0.7097435, -0.16925927, -0.6271387, 9.601433753967285, -1.4056137800216675, -1.813576579093933, -0.3154909014701843, 4.465857028961182, -4.495907306671143, -1.001220703125, -0.70166015625, 0.457275390625, 0, 
215, 1117528268, 0.27295965, -0.7089486, -0.17110875, -0.6273809, 9.077692985534668, -1.5962294340133667, -1.672890543937683, 11.16622257232666, 1.9612040519714355, -7.572726249694824, -0.9951171875, -0.700927734375, 0.4560546875, 0, 
216, 1117544935, 0.2738528, -0.7082186, -0.1740164, -0.6270163, 8.863834381103516, -1.5005666017532349, -1.5366466045379639, 18.947141647338867, -2.5789146423339844, -9.205967903137207, -1.000244140625, -0.7041015625, 0.4599609375, 0, 
217, 1117561602, 0.27487138, -0.7077255, -0.1772746, -0.62621415, 8.943063735961914, -1.4940519332885742, -1.554071068763733, 21.152347564697266, -6.193086624145508, -9.270087242126465, -0.998046875, -0.703857421875, 0.4697265625, 0, 
218, 1117578269, 0.27641523, -0.70711297, -0.18103825, -0.62514913, 9.196148872375488, -1.8102489709854126, -1.4559659957885742, 26.436824798583984, -7.225241184234619, -9.122955322265625, -0.9970703125, -0.701416015625, 0.4697265625, 0, 
219, 1117594936, 0.2779035, -0.70659536, -0.18465516, -0.62401533, 9.410788536071777, -1.4005862474441528, -1.3260740041732788, 25.44632339477539, -7.71617317199707, -8.421805381774902, -0.996826171875, -0.70361328125, 0.479248046875, 0, 
220, 1117611603, 0.279176, -0.70619935, -0.18804254, -0.6228831, 9.585221290588379, -1.334223985671997, -1.2179571390151978, 23.183992385864258, -8.033551216125488, -8.081473350524902, -0.9970703125, -0.7021484375, 0.484130859375, 0, 
221, 1117628270, 0.28053203, -0.7058132, -0.191509, -0.6216542, 9.68639850616455, -1.533766508102417, -0.8934610486030579, 24.03692626953125, -8.564697265625, -7.908536911010742, -0.99267578125, -0.702880859375, 0.488525390625, 0, 
222, 1117644937, 0.28174517, -0.70544094, -0.19480443, -0.6205031, 9.65946102142334, -1.5439648628234863, -0.8287481069564819, 22.484535217285156, -8.094860076904297, -7.8303704261779785, -0.994384765625, -0.70166015625, 0.49267578125, 0, 
223, 1117661604, 0.2828946, -0.70496285, -0.19803894, -0.6194987, 9.845165252685547, -1.339772343635559, -0.892461895942688, 21.9233455657959, -6.895516395568848, -8.242876052856445, -0.993408203125, -0.70361328125, 0.5, 0, 
224, 1117678271, 0.28387097, -0.70439756, -0.20094962, -0.61875737, 10.072914123535156, -1.2186601161956787, -0.7749547958374023, 19.51640510559082, -4.84968900680542, -8.041049003601074, -0.994384765625, -0.701416015625, 0.505126953125, 0, 
225, 1117694938, 0.28446454, -0.7038999, -0.20341441, -0.61824566, 10.108481407165527, -1.0580391883850098, -0.6885034441947937, 15.316267013549805, -3.686842679977417, -7.8585662841796875, -0.995361328125, -0.70166015625, 0.5087890625, 0, 
226, 1117711605, 0.2848621, -0.7033744, -0.20559937, -0.6179376, 10.090812683105469, -1.0967159271240234, -0.5824124813079834, 12.94631290435791, -2.318937063217163, -7.7623820304870605, -0.990478515625, -0.701416015625, 0.509521484375, 0, 
227, 1117728272, 0.28506964, -0.70281214, -0.20734479, -0.61789864, 10.014944076538086, -1.1517174243927002, -0.407492458820343, 9.849593162536621, -0.2820087671279907, -7.012594223022461, -0.990966796875, -0.702392578125, 0.51318359375, 0, 
228, 1117744939, 0.2852236, -0.70205325, -0.20886257, -0.61817884, 9.98818302154541, -1.0029789209365845, -0.5214264392852783, 8.550183296203613, 2.443215847015381, -7.041165351867676, -0.988037109375, -0.702880859375, 0.513916015625, 0, 
229, 1117761606, 0.28504074, -0.7011691, -0.20966431, -0.6189949, 9.951690673828125, -1.1836202144622803, -0.5294358730316162, 3.3545024394989014, 6.466382026672363, -6.2349653244018555, -0.9912109375, -0.70458984375, 0.511474609375, 0, 
230, 1117778273, 0.28510857, -0.6999406, -0.2105013, -0.62006897, 10.127418518066406, -1.644875407218933, -0.3806713819503784, 5.011120796203613, 9.451775550842285, -6.338211536407471, -0.99072265625, -0.70458984375, 0.51220703125, 0, 
231, 1117794940, 0.28569394, -0.6983067, -0.21174638, -0.62121683, 10.235895156860352, -1.59724760055542, -0.29072776436805725, 9.924345970153809, 11.46551513671875, -6.846434593200684, -0.99072265625, -0.705810546875, 0.507568359375, 0, 
232, 1117811607, 0.28601748, -0.696601, -0.2124736, -0.6227329, 10.12533187866211, -1.303378939628601, -0.35119888186454773, 6.053727149963379, 14.154109001159668, -6.323409557342529, -0.98876953125, -0.70556640625, 0.505615234375, 0, 
233, 1117828274, 0.28622803, -0.69473284, -0.21281102, -0.6246051, 9.88880443572998, -1.4734832048416138, -0.4128548800945282, 3.6362972259521484, 17.13829231262207, -5.8837571144104, -0.99169921875, -0.7080078125, 0.499755859375, 0, 
234, 1117844941, 0.28689128, -0.69254625, -0.21332754, -0.6265497, 9.745633125305176, -1.7306010723114014, -0.5648014545440674, 7.082677841186523, 19.14988899230957, -5.417586803436279, -0.989990234375, -0.705810546875, 0.491943359375, 0, 
235, 1117861608, 0.28792283, -0.69025385, -0.21391635, -0.6284027, 9.733878135681152, -1.3023054599761963, -0.8284268379211426, 9.486383438110352, 19.566892623901367, -4.176791667938232, -0.988525390625, -0.70654296875, 0.487060546875, 0, 
236, 1117878275, 0.2884228, -0.6882629, -0.21372314, -0.63041973, 9.82567024230957, -1.2033849954605103, -1.118509292602539, 2.744187116622925, 19.822582244873047, -2.651360034942627, -0.9912109375, -0.705810546875, 0.483154296875, 0, 
237, 1117894942, 0.28894353, -0.6862863, -0.2134979, -0.63240963, 9.986144065856934, -1.4280661344528198, -1.1546730995178223, 2.7140791416168213, 19.752490997314453, -2.336400032043457, -0.9931640625, -0.705078125, 0.474853515625, 0, 
238, 1117911609, 0.2897641, -0.6841592, -0.21364936, -0.6342846, 9.849968910217285, -1.3762648105621338, -1.1648600101470947, 6.233730792999268, 19.58839225769043, -2.813821792602539, -0.9951171875, -0.70751953125, 0.470703125, 0, 
239, 1117928276, 0.29024813, -0.68245214, -0.2136752, -0.6358916, 9.597932815551758, -1.125107765197754, -1.243945598602295, 3.659520149230957, 16.286914825439453, -2.549067974090576, -0.994140625, -0.709716796875, 0.46484375, 0, 
240, 1117944943, 0.29033524, -0.6812066, -0.21359932, -0.63721144, 9.59361743927002, -1.2712082862854004, -1.2759435176849365, 0.8538830280303955, 12.579511642456055, -2.5556750297546387, -0.99560546875, -0.70703125, 0.458984375, 0, 
241, 1117961610, 0.29053286, -0.6801086, -0.21385804, -0.6382068, 9.608712196350098, -1.2395020723342896, -1.2467950582504272, 3.0209102630615234, 9.949007034301758, -2.7798116207122803, -0.9951171875, -0.710693359375, 0.45458984375, 0, 
242, 1117978277, 0.2902317, -0.67944366, -0.21371615, -0.6390989, 9.604565620422363, -0.9396341443061829, -1.2486900091171265, -1.7807937860488892, 7.675307273864746, -2.2571516036987305, -1.0, -0.7060546875, 0.45654296875, 0, 
243, 1117994944, 0.28924745, -0.6793845, -0.21316995, -0.6397899, 9.616454124450684, -1.3383970260620117, -1.0711870193481445, -7.658858776092529, 3.9158239364624023, -2.0689239501953125, -1.000244140625, -0.7099609375, 0.45458984375, 0, 
244, 1118011611, 0.28829068, -0.6796757, -0.2129829, -0.63997495, 9.686980247497559, -1.6713314056396484, -0.705078125, -5.90351676940918, -0.6287726759910583, -2.115974187850952, -0.9970703125, -0.7119140625, 0.45458984375, 0, 
245, 1118028278, 0.28749976, -0.6801376, -0.2131816, -0.6397738, 9.693782806396484, -1.451019287109375, -0.575710654258728, -3.2031116485595703, -3.6905722618103027, -2.1982996463775635, -0.991455078125, -0.7158203125, 0.4521484375, 0, 
246, 1118044945, 0.28644294, -0.6808512, -0.21306239, -0.63952845, 9.473106384277344, -1.2229561805725098, -0.6092588901519775, -6.276731967926025, -4.754044532775879, -1.4410794973373413, -0.995849609375, -0.716552734375, 0.45166015625, 0, 
247, 1118061612, 0.28499344, -0.68186074, -0.21242262, -0.6393133, 9.427997589111328, -1.609790563583374, -0.5156802535057068, -11.029250144958496, -5.454527854919434, -0.36259275674819946, -0.994873046875, -0.718017578125, 0.454833984375, 0, 
248, 1118078279, 0.2839497, -0.68271184, -0.21194924, -0.6390263, 9.499332427978516, -1.7026487588882446, -0.49879732728004456, -7.978915214538574, -4.821201324462891, 0.5266100764274597, -0.994140625, -0.721435546875, 0.453857421875, 0, 
249, 1118094946, 0.28330418, -0.68343586, -0.21154274, -0.63867354, 9.775592803955078, -1.6260770559310913, -0.4532609283924103, -5.471852779388428, -4.117222785949707, 1.8768476247787476, -0.992919921875, -0.725341796875, 0.455078125, 0, 
250, 1118111613, 0.28286672, -0.6841784, -0.21124864, -0.6381697, 10.05068302154541, -1.4364895820617676, -0.5295565724372864, -3.816420793533325, -4.822821140289307, 2.5607519149780273, -0.990966796875, -0.722900390625, 0.453857421875, 0, 
251, 1118128280, 0.2825368, -0.68495643, -0.21100874, -0.6375603, 10.14072036743164, -1.3764756917953491, -0.571718692779541, -2.986915111541748, -5.419917583465576, 3.021242618560791, -0.989501953125, -0.72509765625, 0.454833984375, 0, 
252, 1118144947, 0.28226823, -0.6856512, -0.21072105, -0.6370275, 10.174654006958008, -1.5832535028457642, -0.5341637134552002, -2.856501579284668, -4.508840560913086, 3.2361648082733154, -0.9921875, -0.726318359375, 0.459716796875, 0, 
253, 1118161614, 0.2822113, -0.686267, -0.21068515, -0.6364011, 10.034506797790527, -1.4183635711669922, -0.39200642704963684, -0.4658118188381195, -4.782742977142334, 3.0236308574676514, -0.9921875, -0.725830078125, 0.459716796875, 0, 
254, 1118178281, 0.28224304, -0.6869527, -0.21077819, -0.63561577, 9.931138038635254, -0.9343438148498535, -0.4230435788631439, 0.611259937286377, -5.964922904968262, 3.2018308639526367, -0.99462890625, -0.724365234375, 0.461181640625, 0, 
255, 1118194948, 0.2822652, -0.6877134, -0.21087049, -0.63475215, 9.99014663696289, -0.8981699347496033, -0.5680796504020691, 0.5320142507553101, -6.678915500640869, 3.4309115409851074, -0.992919921875, -0.72216796875, 0.462646484375, 0, 
256, 1118211615, 0.28234893, -0.68839145, -0.21110903, -0.6339001, 9.89041805267334, -1.0588548183441162, -0.6364394426345825, 1.6065950393676758, -6.4583516120910645, 2.876344919204712, -0.992431640625, -0.724365234375, 0.467041015625, 0, 
257, 1118228282, 0.2824657, -0.6890636, -0.2114536, -0.63300234, 9.728473663330078, -1.1176934242248535, -0.5609104633331299, 2.3032798767089844, -6.803950309753418, 2.600848436355591, -0.99658203125, -0.72314453125, 0.469970703125, 0, 
258, 1118244949, 0.28250837, -0.68979144, -0.2118146, -0.6320691, 9.679234504699707, -1.1330814361572266, -0.5822916626930237, 1.967849612236023, -7.354911804199219, 2.3504137992858887, -0.993408203125, -0.724609375, 0.469970703125, 0, 
259, 1118261616, 0.28262052, -0.690504, -0.212125, -0.63113624, 9.701248168945312, -1.1050937175750732, -0.6658914685249329, 2.1073367595672607, -7.0872602462768555, 2.868277072906494, -0.99365234375, -0.724853515625, 0.470703125, 0, 
260, 1118278283, 0.2830874, -0.69098127, -0.21278352, -0.63018245, 9.79345417022705, -1.2395508289337158, -0.6834716200828552, 5.79141092300415, -6.321741104125977, 2.45185923576355, -0.9951171875, -0.724853515625, 0.47607421875, 0, 
261, 1118294950, 0.28375134, -0.69133687, -0.21356612, -0.62922823, 9.807897567749023, -1.2330131530761719, -0.6395705342292786, 7.502827167510986, -5.747875690460205, 2.53438401222229, -0.99462890625, -0.722412109375, 0.481201171875, 0, 
262, 1118311617, 0.28426656, -0.6917967, -0.21411799, -0.6283021, 9.839068412780762, -1.3815418481826782, -0.6794199347496033, 5.553827285766602, -5.834369659423828, 3.0808181762695312, -0.9921875, -0.720458984375, 0.4814453125, 0, 
263, 1118328284, 0.28481328, -0.6922293, -0.21463609, -0.6274006, 9.944330215454102, -1.6074261665344238, -0.5683696269989014, 5.5752387046813965, -5.485588073730469, 3.2802767753601074, -0.9990234375, -0.724853515625, 0.48486328125, 0, 
264, 1118344951, 0.2856794, -0.6924531, -0.2152941, -0.6265338, 9.865262985229492, -1.449649691581726, -0.5230013728141785, 8.055146217346191, -4.226500511169434, 3.596703290939331, -0.997314453125, -0.718505859375, 0.486083984375, 0, 
265, 1118361618, 0.28659052, -0.6926167, -0.21594703, -0.6257116, 9.750280380249023, -1.2661913633346558, -0.6335079073905945, 8.300260543823242, -3.6848175525665283, 3.6251463890075684, -0.995361328125, -0.719482421875, 0.490478515625, 0, 
266, 1118378285, 0.28740406, -0.6927527, -0.21633111, -0.62505484, 9.700972557067871, -1.1055104732513428, -0.628998875617981, 6.4872941970825195, -2.3958637714385986, 4.114623069763184, -0.99609375, -0.716552734375, 0.489501953125, 0, 
267, 1118394952, 0.28808868, -0.6929004, -0.21651486, -0.6245121, 9.675663948059082, -1.1469674110412598, -0.6512450575828552, 4.820169448852539, -1.702725887298584, 4.308990955352783, -0.9970703125, -0.71240234375, 0.49365234375, 0, 
268, 1118411619, 0.28879035, -0.6929778, -0.21666001, -0.6240517, 9.682634353637695, -1.3417682647705078, -0.606765627861023, 4.753026008605957, -0.9089757800102234, 4.299797058105469, -0.998291015625, -0.716064453125, 0.49462890625, 0, 
269, 1118428286, 0.28989345, -0.6927741, -0.21726273, -0.62355655, 9.773802757263184, -1.4464752674102783, -0.4724334478378296, 9.239118576049805, -0.18394404649734497, 3.4847114086151123, -0.998291015625, -0.716064453125, 0.49462890625, 0, 
270, 1118444953, 0.29132605, -0.69236404, -0.21823594, -0.6230043, 9.812121391296387, -1.2567604780197144, -0.41569018363952637, 12.89071273803711, 0.17411524057388306, 2.9283528327941895, -1.000244140625, -0.714599609375, 0.4951171875, 0, 
271, 1118461620, 0.29267898, -0.69190437, -0.21904649, -0.6225961, 9.828466415405273, -1.058851957321167, -0.48744210600852966, 11.697761535644531, 1.2658954858779907, 2.995316743850708, -1.0009765625, -0.709228515625, 0.498291015625, 0, 
272, 1118478287, 0.29386455, -0.6913665, -0.21965879, -0.6224196, 9.800459861755371, -1.0681031942367554, -0.5558727979660034, 9.86104679107666, 2.8422164916992188, 2.6423351764678955, -1.003662109375, -0.7099609375, 0.49658203125, 0, 
273, 1118494954, 0.2950002, -0.6908203, -0.22042431, -0.62221813, 9.890336036682129, -1.2299784421920776, -0.4831039607524872, 10.333134651184082, 2.3677735328674316, 1.7439759969711304, -1.00439453125, -0.707275390625, 0.49951171875, 0, 
274, 1118511621, 0.2962854, -0.690121, -0.22132285, -0.62206465, 9.98182487487793, -0.965484082698822, -0.35489168763160706, 11.84829330444336, 3.198176383972168, 1.4228309392929077, -1.003662109375, -0.70654296875, 0.497314453125, 0, 
275, 1118528288, 0.2968874, -0.68974286, -0.22169478, -0.6220644, 10.035834312438965, -0.8911719918251038, -0.413735955953598, 5.467401504516602, 2.572206497192383, 1.186508297920227, -1.004638671875, -0.705810546875, 0.496337890625, 0, 
276, 1118544955, 0.2972944, -0.6893601, -0.22181657, -0.622251, 10.313863754272461, -1.0981744527816772, -0.5198966264724731, 3.1964776515960693, 3.6799685955047607, 1.164609432220459, -1.00341796875, -0.702392578125, 0.4970703125, 0, 
277, 1118561622, 0.2975268, -0.6888936, -0.22170395, -0.6226965, 10.201574325561523, -0.8799458146095276, -0.709361732006073, 1.141814112663269, 5.471128940582275, 0.8787205219268799, -1.00439453125, -0.705810546875, 0.4951171875, 0, 
278, 1118578289, 0.2972275, -0.6885863, -0.22116427, -0.62337106, 9.940733909606934, -0.7930358052253723, -0.7891023755073547, -3.880446434020996, 5.938216209411621, 0.41662904620170593, -1.0048828125, -0.703857421875, 0.49267578125, 0, 
279, 1118594956, 0.29647845, -0.6884315, -0.22018301, -0.62424517, 9.799662590026855, -1.0969511270523071, -0.6730893850326538, -8.516464233398438, 6.450318336486816, 0.423429399728775, -1.006591796875, -0.704833984375, 0.489990234375, 0, 
280, 1118611623, 0.29561886, -0.688285, -0.2190653, -0.625207, 9.810100555419922, -1.3035539388656616, -0.6274128556251526, -9.775866508483887, 6.941057205200195, 0.43573620915412903, -1.0068359375, -0.70654296875, 0.484375, 0, 
281, 1118628290, 0.29497537, -0.68791807, -0.21802278, -0.62627846, 9.801370620727539, -1.222792387008667, -0.6297119855880737, -8.147910118103027, 8.580706596374512, 0.4527687132358551, -1.007568359375, -0.708251953125, 0.482177734375, 0, 
282, 1118644957, 0.29452989, -0.68728524, -0.21714257, -0.62748736, 9.788519859313965, -1.260699987411499, -0.6596577763557434, -6.181018829345703, 10.343488693237305, -0.13723929226398468, -1.003662109375, -0.712158203125, 0.478759765625, 0, 
283, 1118661624, 0.29463372, -0.686274, -0.21686533, -0.6286402, 9.753458976745605, -1.5331236124038696, -0.6458206176757812, -0.13476769626140594, 11.313033103942871, -1.0686712265014648, -1.0078125, -0.712890625, 0.471435546875, 0, 
284, 1118678291, 0.29527923, -0.68510556, -0.21724905, -0.6294789, 9.785990715026855, -1.507767915725708, -0.48886099457740784, 6.063309192657471, 9.983782768249512, -1.4547057151794434, -1.006591796875, -0.71240234375, 0.46923828125, 0, 
285, 1118694958, 0.29581076, -0.6839922, -0.21747518, -0.6303613, 9.810972213745117, -1.2943251132965088, -0.4507827162742615, 4.663946151733398, 10.100436210632324, -1.2241274118423462, -1.00830078125, -0.71240234375, 0.46630859375, 0, 
286, 1118711625, 0.2961203, -0.68290627, -0.21739407, -0.63142043, 9.788579940795898, -1.3242892026901245, -0.4034993350505829, 1.9674404859542847, 11.105748176574707, -1.0628442764282227, -1.00634765625, -0.71240234375, 0.462158203125, 0, 
287, 1118728292, 0.29650018, -0.68180174, -0.21728928, -0.63247114, 9.704645156860352, -1.3854467868804932, -0.4299395978450775, 2.2447619438171387, 11.297497749328613, -0.6605325937271118, -1.006591796875, -0.712890625, 0.460693359375, 0, 
288, 1118744959, 0.29675823, -0.68086594, -0.21707848, -0.6334298, 9.69834041595459, -1.2617262601852417, -0.4580231010913849, 1.0034674406051636, 10.16724681854248, -0.26112794876098633, -1.00927734375, -0.712890625, 0.458740234375, 0, 
289, 1118761626, 0.29671443, -0.68028086, -0.21662946, -0.63423204, 9.745267868041992, -1.2738395929336548, -0.4290217459201813, -1.9300004243850708, 7.945291042327881, 0.380182147026062, -1.008544921875, -0.7109375, 0.45263671875, 0, 
290, 1118778293, 0.29659086, -0.6798384, -0.21599695, -0.63497967, 9.835066795349121, -1.405137300491333, -0.3935390114784241, -3.3126895427703857, 7.325771331787109, 1.2122365236282349, -1.0107421875, -0.710693359375, 0.44873046875, 0, 
291, 1118794960, 0.29647538, -0.67941624, -0.21530733, -0.6357192, 9.821885108947754, -1.1941561698913574, -0.4336090087890625, -3.5549471378326416, 7.3280510902404785, 1.5555620193481445, -1.00830078125, -0.711181640625, 0.44482421875, 0, 
292, 1118811627, 0.29613554, -0.6791736, -0.21440826, -0.63644034, 9.770903587341309, -1.1193218231201172, -0.5386845469474792, -5.858029842376709, 6.55612325668335, 1.8579072952270508, -1.0087890625, -0.71337890625, 0.4423828125, 0, 
293, 1118828294, 0.29583436, -0.67895883, -0.21368054, -0.63705397, 9.838595390319824, -1.338296890258789, -0.4720690846443176, -4.826662540435791, 5.645738124847412, 1.4916518926620483, -1.009033203125, -0.7138671875, 0.44091796875, 0, 
294, 1118844961, 0.29596302, -0.6785495, -0.2136557, -0.63743854, 9.876708984375, -1.2308080196380615, -0.49842292070388794, 0.9903024435043335, 4.636513710021973, 0.2702140212059021, -1.009765625, -0.7158203125, 0.4365234375, 0, 
295, 1118861628, 0.29615894, -0.6781259, -0.2138923, -0.63771904, 9.861937522888184, -1.1396307945251465, -0.48210859298706055, 2.631685972213745, 3.7877280712127686, -0.46417900919914246, -1.010498046875, -0.715576171875, 0.43896484375, 0, 
296, 1118878295, 0.2959933, -0.6779531, -0.21399099, -0.6379462, 9.943680763244629, -1.0031827688217163, -0.5110670924186707, -0.0926731526851654, 2.194688320159912, -0.925687849521637, -1.009033203125, -0.715087890625, 0.436279296875, 0, 
297, 1118894962, 0.29530308, -0.67807716, -0.21367915, -0.6382389, 9.894923210144043, -1.1157243251800537, -0.5627469420433044, -5.038729190826416, 1.2686227560043335, -1.0012837648391724, -1.0107421875, -0.716796875, 0.434814453125, 0, 
298, 1118911629, 0.29443625, -0.67838883, -0.21336591, -0.63841295, 9.852476119995117, -1.160017967224121, -0.5716777443885803, -6.07522439956665, -0.35714995861053467, -1.248343825340271, -1.01025390625, -0.7177734375, 0.43359375, 0, 
299, 1118928296, 0.2933425, -0.6789014, -0.21300201, -0.638493, 9.75129508972168, -1.0229275226593018, -0.6187970638275146, -7.624293327331543, -1.8978692293167114, -1.5207734107971191, -1.010009765625, -0.72021484375, 0.429931640625, 0, 
300, 1118944963, 0.2923815, -0.679347, -0.21298479, -0.63846564, 9.668091773986816, -1.1149388551712036, -0.687945544719696, -5.190913677215576, -2.601008653640747, -2.429851531982422, -1.0078125, -0.722900390625, 0.434814453125, 0, 
301, 1118961630, 0.29184017, -0.67971337, -0.2135607, -0.63813084, 9.688392639160156, -1.3911309242248535, -0.45620933175086975, -0.017307782545685768, -4.2549543380737305, -2.8530306816101074, -1.009033203125, -0.7236328125, 0.43505859375, 0, 
302, 1118978297, 0.2913501, -0.68020475, -0.21422724, -0.6376077, 9.724347114562988, -1.1439391374588013, -0.4492623209953308, 0.6447614431381226, -5.78542947769165, -2.4993069171905518, -1.00732421875, -0.72509765625, 0.4345703125, 0, 
303, 1118994964, 0.29055673, -0.68084884, -0.21458605, -0.63716155, 9.801963806152344, -1.0126301050186157, -0.6365852952003479, -2.541785478591919, -5.92294454574585, -2.318289279937744, -1.003173828125, -0.728515625, 0.43798828125, 0, 
304, 1119011631, 0.2895639, -0.6816485, -0.2146959, -0.6367212, 9.810140609741211, -1.1498082876205444, -0.6304262280464172, -4.886962413787842, -6.365494251251221, -1.8025389909744263, -1.00927734375, -0.726318359375, 0.439208984375, 0, 
305, 1119028298, 0.28865036, -0.68237466, -0.21493182, -0.6362783, 9.734772682189941, -1.0883219242095947, -0.6492927074432373, -3.812880039215088, -6.182925701141357, -2.1498982906341553, -1.003662109375, -0.72998046875, 0.44091796875, 0, 
306, 1119044965, 0.28786415, -0.68305343, -0.21540524, -0.6357462, 9.743688583374023, -1.0503979921340942, -0.6483537554740906, -1.9525781869888306, -6.669747352600098, -2.598146677017212, -1.003173828125, -0.733154296875, 0.44384765625, 0, 
307, 1119061632, 0.2871165, -0.6836532, -0.21597625, -0.63524544, 9.821353912353516, -1.1870213747024536, -0.4636199474334717, -1.234429955482483, -6.3079094886779785, -3.063983917236328, -1.00341796875, -0.733642578125, 0.4423828125, 0, 
308, 1119078299, 0.2865577, -0.6841464, -0.21673587, -0.634708, 9.916604042053223, -1.147765040397644, -0.3724861145019531, 0.7369928359985352, -6.106818199157715, -3.2145421504974365, -1.003662109375, -0.73681640625, 0.4443359375, 0, 
309, 1119094966, 0.28617463, -0.6844608, -0.21767554, -0.63421994, 9.932241439819336, -1.191394567489624, -0.4437403380870819, 2.6313469409942627, -5.191983222961426, -3.6601004600524902, -1.0009765625, -0.738525390625, 0.447509765625, 0, 
310, 1119111633, 0.28599596, -0.68465793, -0.21887612, -0.6336744, 9.907064437866211, -1.133488655090332, -0.4368966817855835, 5.045267581939697, -5.160377025604248, -4.063154697418213, -1.002685546875, -0.737060546875, 0.44921875, 0, 
311, 1119128300, 0.2862211, -0.6845455, -0.22050142, -0.6331303, 9.969738960266113, -1.3347560167312622, -0.46101564168930054, 9.396912574768066, -4.034309387207031, -4.7747344970703125, -1.00146484375, -0.739990234375, 0.451171875, 0, 
312, 1119144967, 0.28694382, -0.6841414, -0.2224072, -0.6325734, 10.005778312683105, -1.1822067499160767, -0.38684284687042236, 13.558680534362793, -2.6240804195404053, -4.356358051300049, -0.995849609375, -0.73779296875, 0.45703125, 0, 
313, 1119161634, 0.28754568, -0.683774, -0.22402006, -0.632128, 9.889256477355957, -1.0922129154205322, -0.3461541533470154, 11.469513893127441, -1.87148916721344, -3.674560308456421, -0.996826171875, -0.73974609375, 0.457763671875, 0, 
314, 1119178301, 0.287877, -0.6835416, -0.22517318, -0.6318188, 9.860511779785156, -1.1039903163909912, -0.3897944986820221, 7.725535869598389, -1.3321874141693115, -2.753743886947632, -1.001220703125, -0.740966796875, 0.4609375, 0, 
315, 1119194968, 0.28796688, -0.6833821, -0.22572567, -0.6317532, 9.8182954788208, -1.038912057876587, -0.40730226039886475, 3.455409526824951, 0.3060973882675171, -1.3518446683883667, -0.997802734375, -0.73681640625, 0.461181640625, 0, 
316, 1119211635, 0.2878375, -0.68332547, -0.22571887, -0.63187575, 9.866646766662598, -1.0793060064315796, -0.46808770298957825, -0.5004785656929016, 1.505706548690796, 0.10835453867912292, -0.9970703125, -0.741943359375, 0.4619140625, 0, 
317, 1119228302, 0.28761783, -0.683248, -0.22544046, -0.63215894, 9.94576644897461, -1.1215349435806274, -0.48538774251937866, -2.3137426376342773, 2.745694160461426, 0.6402406692504883, -1.001953125, -0.741455078125, 0.459228515625, 0, 
318, 1119244969, 0.28757063, -0.6830079, -0.22532633, -0.6324805, 10.024938583374023, -1.2276406288146973, -0.43107205629348755, -0.5258991122245789, 3.572395086288452, 0.2869006395339966, -1.0009765625, -0.741943359375, 0.458251953125, 0, 
319, 1119261636, 0.2875889, -0.68269324, -0.22531147, -0.6328171, 9.939627647399902, -1.2277911901474, -0.4176691174507141, 0.33461716771125793, 3.8692855834960938, -0.045225631445646286, -0.998779296875, -0.7421875, 0.45751953125, 0, 
320, 1119278303, 0.28770223, -0.682345, -0.22528964, -0.633149, 9.893838882446289, -1.113290548324585, -0.359537810087204, 0.8255356550216675, 4.151255130767822, 0.350957989692688, -0.999755859375, -0.74365234375, 0.453857421875, 0, 
321, 1119294970, 0.28799638, -0.6818665, -0.22532825, -0.63351667, 9.923526763916016, -1.034520149230957, -0.4315187931060791, 2.140760898590088, 5.040374279022217, 0.5787445306777954, -0.998046875, -0.74267578125, 0.452392578125, 0, 
322, 1119311637, 0.28838652, -0.68130124, -0.22537571, -0.6339303, 9.830953598022461, -0.9757078886032104, -0.5478835105895996, 2.724884510040283, 5.763677597045898, 0.729232132434845, -1.0, -0.740234375, 0.452880859375, 0, 
323, 1119328304, 0.28889266, -0.6807019, -0.22554612, -0.6342831, 9.832776069641113, -1.0605907440185547, -0.4870930016040802, 3.9645137786865234, 5.563732624053955, 0.7270166277885437, -1.00048828125, -0.740966796875, 0.449951171875, 0, 
324, 1119344971, 0.2895259, -0.6800669, -0.22578077, -0.63459194, 9.883176803588867, -1.090452790260315, -0.4533492624759674, 4.98275899887085, 5.583415508270264, 1.011343240737915, -1.00244140625, -0.742431640625, 0.449951171875, 0, 
325, 1119361638, 0.28997487, -0.67958647, -0.22575632, -0.63491017, 9.952958106994629, -0.9495517611503601, -0.5190208554267883, 2.6625044345855713, 5.183370590209961, 1.6368052959442139, -1.00146484375, -0.741455078125, 0.447021484375, 0, 
326, 1119378305, 0.29015276, -0.67929775, -0.22541627, -0.63525856, 9.946985244750977, -0.8322865962982178, -0.5226607322692871, -0.4111415445804596, 4.697549343109131, 2.1681923866271973, -1.003662109375, -0.738525390625, 0.444091796875, 0, 
327, 1119394972, 0.29014426, -0.67910933, -0.2248044, -0.6356807, 9.843888282775879, -0.9298614263534546, -0.5326237678527832, -2.7875518798828125, 4.85951042175293, 2.6381850242614746, -1.001220703125, -0.740478515625, 0.444091796875, 0, 
328, 1119411639, 0.2901713, -0.6789123, -0.22429344, -0.6360591, 9.742406845092773, -1.1192598342895508, -0.4821028709411621, -2.0885748863220215, 4.54842472076416, 2.399519443511963, -1.001708984375, -0.73974609375, 0.44189453125, 0, 
329, 1119428306, 0.29044285, -0.6786331, -0.2242301, -0.63625544, 9.758231163024902, -1.1155756711959839, -0.3954155743122101, 1.4501397609710693, 3.544208288192749, 1.612818717956543, -1.00244140625, -0.739501953125, 0.437744140625, 0, 
330, 1119444973, 0.29076585, -0.67836237, -0.22433817, -0.6363585, 9.812344551086426, -1.0186909437179565, -0.3644247055053711, 2.5729241371154785, 2.8079209327697754, 1.2337639331817627, -1.00244140625, -0.741943359375, 0.439453125, 0, 
331, 1119461640, 0.29125938, -0.67799526, -0.22461554, -0.6364261, 9.865947723388672, -1.0300943851470947, -0.39854905009269714, 4.347462177276611, 2.9879395961761475, 1.1135635375976562, -1.004150390625, -0.741943359375, 0.4384765625, 0, 
332, 1119478307, 0.2916602, -0.67768675, -0.22482735, -0.6364965, 9.798056602478027, -0.8773092031478882, -0.4369269013404846, 3.502716541290283, 2.734143018722534, 1.097132921218872, -1.00439453125, -0.738525390625, 0.43798828125, 0, 
333, 1119494974, 0.29179513, -0.6774849, -0.22474484, -0.6366785, 9.774422645568848, -1.0004147291183472, -0.39824458956718445, 0.5967119336128235, 2.9662067890167236, 1.2501559257507324, -1.00537109375, -0.74072265625, 0.436767578125, 0, 
334, 1119511641, 0.29200298, -0.677235, -0.22487436, -0.6368034, 9.797969818115234, -1.341804027557373, -0.3532065153121948, 2.0462498664855957, 2.598907709121704, 0.6224269866943359, -1.003662109375, -0.740478515625, 0.435302734375, 0, 
335, 1119528308, 0.29283246, -0.6767037, -0.22567971, -0.6367026, 9.888678550720215, -1.317472219467163, -0.2622862160205841, 8.813676834106445, 2.3841841220855713, 0.2054266780614853, -1.0068359375, -0.73828125, 0.435546875, 0, 
336, 1119544975, 0.2936689, -0.6762211, -0.22654931, -0.6365212, 9.928446769714355, -0.9466230869293213, -0.31965699791908264, 9.148205757141113, 1.6756601333618164, 0.16513794660568237, -1.005859375, -0.740966796875, 0.43408203125, 0, 
337, 1119561642, 0.29422563, -0.67591745, -0.22712737, -0.6363805, 9.955480575561523, -0.8919820785522461, -0.44906947016716003, 6.149302959442139, 1.232649803161621, 0.4954649806022644, -1.009033203125, -0.7392578125, 0.43603515625, 0, 
338, 1119578309, 0.29463091, -0.6756417, -0.22749205, -0.63635564, 9.89291763305664, -0.9933971166610718, -0.5210092067718506, 4.2744140625, 1.8465988636016846, 0.6374617218971252, -1.008056640625, -0.7373046875, 0.435302734375, 0, 
339, 1119594976, 0.2950266, -0.67535454, -0.22782274, -0.63635874, 9.839062690734863, -1.021336317062378, -0.4222054183483124, 4.060061931610107, 2.0856168270111084, 0.6789287328720093, -1.006103515625, -0.740234375, 0.436767578125, 0, 
340, 1119611643, 0.29520097, -0.67514014, -0.2278981, -0.63647836, 9.801355361938477, -0.8984386920928955, -0.46049872040748596, 1.5830570459365845, 2.4804749488830566, 0.7747969627380371, -1.00927734375, -0.738037109375, 0.436767578125, 0, 
341, 1119628310, 0.29537305, -0.67491853, -0.22813079, -0.6365503, 9.914970397949219, -1.063315510749817, -0.3913204073905945, 2.3486716747283936, 1.9709614515304565, 0.12372215837240219, -1.0078125, -0.73779296875, 0.4345703125, 0, 
342, 1119644977, 0.29571992, -0.6746017, -0.22857326, -0.63656634, 9.920923233032227, -1.039282202720642, -0.28385671973228455, 4.359999179840088, 1.9776593446731567, -0.12243511527776718, -1.010009765625, -0.73876953125, 0.43701171875, 0, 
343, 1119661644, 0.29585645, -0.67441756, -0.22887604, -0.6365891, 9.88634967803955, -0.9548685550689697, -0.3757948875427246, 2.493044376373291, 1.3798521757125854, -0.20102126896381378, -1.00634765625, -0.736328125, 0.433837890625, 0, 
344, 1119678311, 0.29588833, -0.6742182, -0.22903332, -0.636729, 9.807639122009277, -1.0313146114349365, -0.4303649365901947, 1.2201313972473145, 2.122108221054077, -0.24444761872291565, -1.005859375, -0.740234375, 0.43212890625, 0, 
345, 1119694978, 0.2958782, -0.6740366, -0.2291455, -0.6368856, 9.793071746826172, -1.191195011138916, -0.458429217338562, 0.7637130618095398, 2.1480154991149902, -0.22548140585422516, -1.009033203125, -0.73828125, 0.438232421875, 0, 
346, 1119711645, 0.2960161, -0.6737225, -0.2293792, -0.6370697, 9.767325401306152, -1.2123194932937622, -0.3910946846008301, 2.2071807384490967, 2.8467814922332764, -0.41059720516204834, -1.0078125, -0.7412109375, 0.43359375, 0, 
347, 1119728312, 0.29621163, -0.6734089, -0.2296893, -0.63719845, 9.805088996887207, -1.238095998764038, -0.35492777824401855, 2.8956565856933594, 2.5254764556884766, -0.40372660756111145, -1.008544921875, -0.739013671875, 0.434814453125, 0, 
348, 1119744979, 0.29644084, -0.67309195, -0.22998075, -0.63732165, 9.810354232788086, -1.1896843910217285, -0.3907615542411804, 2.9814980030059814, 2.6070914268493652, -0.1713297814130783, -1.0078125, -0.73876953125, 0.431884765625, 0, 
349, 1119761646, 0.29684764, -0.672741, -0.23047316, -0.6373251, 9.882011413574219, -1.2775455713272095, -0.45513013005256653, 4.940421104431152, 2.076460361480713, -0.13799484074115753, -1.009765625, -0.743896484375, 0.43115234375, 0, 
350, 1119778313, 0.29749876, -0.67231894, -0.23113343, -0.63722765, 9.991729736328125, -1.265257477760315, -0.41302773356437683, 7.109560489654541, 1.9691811800003052, 0.24283401668071747, -1.010009765625, -0.7451171875, 0.431640625, 0, 
351, 1119794980, 0.29796827, -0.6721094, -0.23155272, -0.637077, 10.02585220336914, -1.1565101146697998, -0.4455796480178833, 4.8604841232299805, 0.9998430013656616, 1.0002272129058838, -1.0087890625, -0.73779296875, 0.43359375, 0, 
352, 1119811647, 0.29810837, -0.67216283, -0.23158179, -0.6369446, 10.055520057678223, -1.1946831941604614, -0.43869224190711975, 1.059891939163208, 0.2118554413318634, 1.7377703189849854, -1.009765625, -0.73828125, 0.4326171875, 0, 
353, 1119828314, 0.2983104, -0.67222816, -0.23158848, -0.63677865, 9.999589920043945, -1.2782179117202759, -0.37585049867630005, 1.2839007377624512, 0.15236997604370117, 2.197134256362915, -1.011962890625, -0.739990234375, 0.43505859375, 0, 
354, 1119844981, 0.29860172, -0.672323, -0.23171514, -0.6364959, 9.866744995117188, -1.2930222749710083, -0.3236396610736847, 2.34210205078125, -0.6188731789588928, 2.313441514968872, -1.0078125, -0.73828125, 0.4326171875, 0, 
355, 1119861648, 0.29897392, -0.6724631, -0.23185958, -0.6361205, 9.800091743469238, -1.2217512130737305, -0.2604062557220459, 2.8431122303009033, -1.1506569385528564, 2.8402817249298096, -1.007080078125, -0.739501953125, 0.433837890625, 0, 
356, 1119878315, 0.2992188, -0.6727236, -0.23181953, -0.63574445, 9.726078033447266, -1.1219252347946167, -0.30395227670669556, 1.2016454935073853, -1.5048294067382812, 3.3244519233703613, -1.009765625, -0.7373046875, 0.434814453125, 0, 
357, 1119894982, 0.29946283, -0.67294365, -0.23166956, -0.6354512, 9.753321647644043, -1.1020593643188477, -0.3441839814186096, 0.6644191145896912, -0.7217082381248474, 3.591989278793335, -1.009521484375, -0.73681640625, 0.434326171875, 0, 
358, 1119911649, 0.29978576, -0.6731, -0.23156181, -0.63517267, 9.782838821411133, -1.1799131631851196, -0.2821482717990875, 1.3252266645431519, -0.3355199694633484, 3.6080994606018066, -1.014404296875, -0.73828125, 0.4345703125, 0, 
359, 1119928316, 0.3003132, -0.67309374, -0.23167598, -0.63488823, 9.871858596801758, -1.2465733289718628, -0.1601088047027588, 3.5898244380950928, 0.2135842889547348, 3.2244980335235596, -1.012451171875, -0.7392578125, 0.434326171875, 0, 
360, 1119944983, 0.3009516, -0.67301404, -0.23194163, -0.6345734, 9.912413597106934, -1.2000572681427002, -0.11896953731775284, 4.962819576263428, 0.25283581018447876, 2.947445869445801, -1.0126953125, -0.735107421875, 0.438232421875, 0, 
361, 1119961650, 0.3016103, -0.67289406, -0.2322686, -0.6342682, 9.960471153259277, -1.183593988418579, -0.11435782164335251, 5.379390716552734, 0.3754501938819885, 2.665046453475952, -1.01171875, -0.737548828125, 0.434814453125, 0, 
362, 1119978317, 0.3022654, -0.6727612, -0.23262446, -0.6339669, 9.96374797821045, -1.1691852807998657, -0.11637265980243683, 5.523826599121094, 0.375879168510437, 2.483778715133667, -1.01220703125, -0.735595703125, 0.432373046875, 0, 
363, 1119994984, 0.30306765, -0.6725015, -0.233123, -0.6336761, 9.920694351196289, -1.2812563180923462, -0.1920093446969986, 7.071130752563477, 0.9111592173576355, 2.2376668453216553, -1.015625, -0.7353515625, 0.437255859375, 0, 
364, 1120011651, 0.30417675, -0.6720465, -0.23397388, -0.6333138, 9.899965286254883, -1.3623906373977661, -0.14743874967098236, 10.54709529876709, 1.1853946447372437, 1.7762795686721802, -1.015380859375, -0.732421875, 0.437255859375, 0, 
365, 1120028318, 0.30536947, -0.6715528, -0.2348704, -0.63293165, 9.86683464050293, -1.188532829284668, -0.18805116415023804, 11.243034362792969, 1.2985262870788574, 1.9005787372589111, -1.01953125, -0.72900390625, 0.43896484375, 0, 
366, 1120044985, 0.3067124, -0.6709297, -0.2358945, -0.63256204, 9.877500534057617, -1.2340009212493896, -0.16769875586032867, 12.742927551269531, 1.8906924724578857, 1.7260409593582153, -1.016357421875, -0.73046875, 0.44091796875, 0, 
367, 1120061652, 0.30807817, -0.6702888, -0.23692708, -0.63219184, 9.844300270080566, -1.1572283506393433, -0.1136581227183342, 12.9221773147583, 1.9814636707305908, 1.7544198036193848, -1.01904296875, -0.730224609375, 0.44091796875, 0, 
368, 1120078319, 0.30915207, -0.6698098, -0.23751225, -0.6319556, 9.849241256713867, -0.9452401399612427, -0.13197274506092072, 9.070523262023926, 2.362093448638916, 2.5260658264160156, -1.01904296875, -0.726318359375, 0.441650390625, 0, 
369, 1120094986, 0.3099926, -0.6694354, -0.23783183, -0.63182044, 9.918210983276367, -1.1897488832473755, -0.12346538156270981, 6.456553936004639, 2.552510976791382, 2.6940855979919434, -1.020263671875, -0.7255859375, 0.43994140625, 0, 
370, 1120111653, 0.31082028, -0.66905403, -0.23827708, -0.6316498, 9.943903923034668, -1.245806097984314, -0.13540633022785187, 7.01649808883667, 2.1271605491638184, 2.120680809020996, -1.0185546875, -0.724609375, 0.442626953125, 0, 
371, 1120128320, 0.3116067, -0.6686886, -0.23872782, -0.6314794, 9.815254211425781, -1.1350773572921753, -0.13193699717521667, 6.814630508422852, 1.975225806236267, 1.9395346641540527, -1.017822265625, -0.7216796875, 0.442626953125, 0, 
372, 1120144987, 0.3120249, -0.66854715, -0.23862086, -0.63146293, 9.690322875976562, -0.9572978615760803, -0.13509249687194824, 1.9692195653915405, 2.298304319381714, 2.942387104034424, -1.02099609375, -0.725341796875, 0.437744140625, 0, 
373, 1120161654, 0.31217182, -0.66854066, -0.23807041, -0.63160485, 9.726921081542969, -0.9807949662208557, -0.1504114717245102, -1.748687982559204, 2.942028522491455, 3.6885361671447754, -1.019775390625, -0.72119140625, 0.44140625, 0, 
374, 1120178321, 0.31230187, -0.6684962, -0.23739314, -0.63184255, 9.80731201171875, -1.109902262687683, -0.1653641313314438, -2.454868793487549, 3.789975881576538, 3.934495449066162, -1.020263671875, -0.7197265625, 0.43896484375, 0, 
375, 1120194988, 0.312526, -0.6683556, -0.23682018, -0.63209534, 9.83271598815918, -1.1087026596069336, -0.15996535122394562, -1.3904433250427246, 4.204939842224121, 3.675973653793335, -1.020751953125, -0.720703125, 0.435302734375, 0, 
376, 1120211655, 0.31267473, -0.6682552, -0.23616198, -0.6323741, 9.856741905212402, -1.0071454048156738, -0.18638122081756592, -2.235930919647217, 4.206872463226318, 3.7515690326690674, -1.02197265625, -0.722900390625, 0.433349609375, 0, 
377, 1120228322, 0.31264755, -0.66821337, -0.2353522, -0.63273364, 9.854723930358887, -0.9422762989997864, -0.21212711930274963, -3.960902690887451, 4.363271713256836, 3.6083757877349854, -1.018310546875, -0.719482421875, 0.432373046875, 0, 
378, 1120244989, 0.31269553, -0.6681064, -0.23465295, -0.63308245, 9.783933639526367, -0.9946301579475403, -0.23367077112197876, -2.975466251373291, 4.4810895919799805, 3.351569652557373, -1.019775390625, -0.724365234375, 0.427978515625, 0, 
379, 1120261656, 0.31281745, -0.66798437, -0.23420776, -0.63331574, 9.806296348571777, -1.0127201080322266, -0.1761941760778427, -1.3132721185684204, 3.5886852741241455, 2.735910177230835, -1.022216796875, -0.72021484375, 0.430419921875, 0, 
380, 1120278323, 0.3131527, -0.66775477, -0.23410404, -0.6334306, 9.860360145568848, -0.9655771255493164, -0.14082929491996765, 1.58103346824646, 3.1204333305358887, 2.1812541484832764, -1.02294921875, -0.72119140625, 0.423583984375, 0, 
381, 1120294990, 0.31329527, -0.6676531, -0.23399206, -0.6335087, 9.849666595458984, -0.9592694044113159, -0.15996649861335754, 0.4438040852546692, 2.1012275218963623, 1.670972466468811, -1.022705078125, -0.717529296875, 0.425537109375, 0, 
382, 1120311657, 0.31331155, -0.66759586, -0.23390628, -0.63359255, 9.824623107910156, -1.0535545349121094, -0.20658676326274872, -0.1337815225124359, 1.674827218055725, 1.0640411376953125, -1.0263671875, -0.718017578125, 0.4228515625, 0, 
383, 1120328324, 0.31341767, -0.66746074, -0.2340246, -0.6336388, 9.777862548828125, -1.1966584920883179, -0.2158697098493576, 1.3940672874450684, 1.5467829704284668, 0.4785669147968292, -1.019775390625, -0.7216796875, 0.423583984375, 0, 
384, 1120344991, 0.31368735, -0.66718763, -0.234285, -0.6336968, 9.831831932067871, -1.0660771131515503, -0.24937646090984344, 3.043076992034912, 2.158324718475342, 0.29144054651260376, -1.021484375, -0.72265625, 0.42236328125, 0, 
385, 1120361658, 0.31394333, -0.6669021, -0.23452151, -0.6337831, 9.771059036254883, -1.0890787839889526, -0.21335674822330475, 2.8593761920928955, 2.373464822769165, 0.26311928033828735, -1.025146484375, -0.721435546875, 0.422119140625, 0, 
386, 1120378325, 0.3141918, -0.66664, -0.23482153, -0.63382465, 9.802029609680176, -1.2096123695373535, -0.1897878795862198, 3.116668462753296, 1.9194797277450562, 0.07459699362516403, -1.02294921875, -0.719482421875, 0.421875, 0, 
387, 1120394992, 0.314505, -0.66634965, -0.23526165, -0.6338113, 9.781673431396484, -1.242561936378479, -0.09750048071146011, 4.174357891082764, 1.5916883945465088, -0.21239973604679108, -1.021484375, -0.720947265625, 0.420654296875, 0, 
388, 1120411659, 0.31487972, -0.6660606, -0.23581426, -0.6337238, 9.810392379760742, -1.1865367889404297, -0.12825071811676025, 5.063252925872803, 1.1024283170700073, -0.3006291091442108, -1.0205078125, -0.720947265625, 0.42236328125, 0, 
389, 1120428326, 0.31531724, -0.66575104, -0.23641275, -0.6336086, 9.840056419372559, -1.1472179889678955, -0.14749309420585632, 5.638194561004639, 1.066826581954956, -0.21049799025058746, -1.0234375, -0.7216796875, 0.42138671875, 0, 
390, 1120444993, 0.31559566, -0.66554534, -0.23679522, -0.6335432, 9.827877044677734, -1.19070303440094, -0.1762084662914276, 3.6610288619995117, 1.0521697998046875, 0.14619731903076172, -1.022705078125, -0.71826171875, 0.42333984375, 0, 
391, 1120461660, 0.31573752, -0.66543263, -0.23697947, -0.6335219, 9.82990550994873, -1.1754753589630127, -0.09224173426628113, 1.8992457389831543, 1.0567928552627563, 0.5139316916465759, -1.02294921875, -0.719970703125, 0.421630859375, 0, 
392, 1120478327, 0.31583896, -0.6653535, -0.23707613, -0.63351834, 9.87893009185791, -1.1990033388137817, -0.11411861330270767, 1.23307204246521, 1.1133968830108643, 0.754345178604126, -1.0224609375, -0.720458984375, 0.421875, 0, 
393, 1120494994, 0.31598246, -0.66527265, -0.23718224, -0.633492, 9.85684871673584, -1.217023491859436, -0.054267238825559616, 1.5055015087127686, 1.0653730630874634, 0.9405494928359985, -1.022705078125, -0.72216796875, 0.420166015625, 0, 
394, 1120511661, 0.31610587, -0.66526383, -0.23727226, -0.63340586, 9.885265350341797, -1.2522932291030884, -0.02448180690407753, 1.2838623523712158, 0.478304386138916, 1.172613501548767, -1.025634765625, -0.71826171875, 0.42041015625, 0, 
395, 1120528328, 0.31621784, -0.6652985, -0.2373179, -0.6332966, 9.886483192443848, -1.2334036827087402, 0.019462864845991135, 0.9780594110488892, 0.2581632137298584, 1.4448765516281128, -1.0244140625, -0.716552734375, 0.42041015625, 0, 
396, 1120544995, 0.31632087, -0.66535807, -0.23728746, -0.63319385, 9.887164115905762, -1.2563596963882446, -0.01782327890396118, 0.5442314147949219, 0.32613930106163025, 1.7798776626586914, -1.0224609375, -0.720458984375, 0.42236328125, 0, 
397, 1120561662, 0.31649587, -0.6653476, -0.23722428, -0.63314116, 9.828125, -1.1763139963150024, -0.0636352077126503, 0.8001792430877686, 1.0461506843566895, 2.0179221630096436, -1.019775390625, -0.721435546875, 0.417236328125, 0, 
398, 1120578329, 0.3165715, -0.66542083, -0.23697686, -0.633119, 9.828512191772461, -1.1602147817611694, -0.024696050211787224, -0.6871182918548584, 1.0574843883514404, 2.4981985092163086, -1.02197265625, -0.718017578125, 0.4208984375, 0, 
399, 1120594996, 0.3166679, -0.66544944, -0.23671323, -0.6331394, 9.855936050415039, -1.2446322441101074, 0.004787161480635405, -0.636443555355072, 1.5135184526443481, 2.4976608753204346, -1.02490234375, -0.7197265625, 0.417236328125, 0, 
400, 1120611663, 0.31689793, -0.6654262, -0.23658447, -0.6330969, 9.874138832092285, -1.2022801637649536, -0.019240574911236763, 0.7854006290435791, 1.3711373805999756, 2.513425350189209, -1.02490234375, -0.72021484375, 0.417724609375, 0, 
401, 1120628330, 0.3172087, -0.66531926, -0.23650458, -0.63308334, 9.847428321838379, -1.140473484992981, -0.061411209404468536, 1.4958711862564087, 1.8904476165771484, 2.4423117637634277, -1.02197265625, -0.7177734375, 0.4189453125, 0, 
402, 1120644997, 0.31750053, -0.66522515, -0.23641108, -0.63307095, 9.847965240478516, -1.0684055089950562, -0.04080994799733162, 1.3223451375961304, 1.8367506265640259, 2.4411847591400146, -1.022216796875, -0.71875, 0.41552734375, 0, 
403, 1120661664, 0.31773275, -0.6651777, -0.23632652, -0.6330359, 9.869128227233887, -1.0998132228851318, -0.07027728855609894, 1.0178616046905518, 1.4127579927444458, 2.269528388977051, -1.025146484375, -0.71728515625, 0.4150390625, 0, 
404, 1120678331, 0.31800127, -0.66508627, -0.23632704, -0.63299704, 9.88266658782959, -1.0783843994140625, -0.10380003601312637, 1.659139633178711, 1.4582974910736084, 1.9762887954711914, -1.023681640625, -0.718017578125, 0.413818359375, 0, 
405, 1120694998, 0.31825855, -0.6649895, -0.23644708, -0.6329245, 9.882670402526855, -1.0493873357772827, -0.12258463352918625, 2.1925625801086426, 1.0473929643630981, 1.4494740962982178, -1.026123046875, -0.716064453125, 0.41552734375, 0, 
406, 1120711665, 0.3184564, -0.66489583, -0.23664679, -0.63284874, 9.90236759185791, -1.03778874874115, -0.11450309306383133, 2.2622032165527344, 0.7490946650505066, 0.8419278264045715, -1.02197265625, -0.716552734375, 0.41259765625, 0, 
407, 1120728332, 0.3185953, -0.66477114, -0.23689465, -0.63281715, 9.88392162322998, -1.002722144126892, -0.16920524835586548, 2.1979410648345947, 0.8838686943054199, 0.2220364809036255, -1.0244140625, -0.7158203125, 0.4140625, 0, 
408, 1120744999, 0.31860328, -0.66470915, -0.23709075, -0.63280463, 9.8921480178833, -0.9970800876617432, -0.18691694736480713, 1.2084840536117554, 0.5984022617340088, -0.04719780012965202, -1.0244140625, -0.714111328125, 0.414794921875, 0, 
409, 1120761666, 0.31858817, -0.6646162, -0.2373502, -0.63281256, 9.86953067779541, -1.0727356672286987, -0.17316913604736328, 1.412860631942749, 0.6512541174888611, -0.5269749164581299, -1.0244140625, -0.7158203125, 0.4140625, 0, 
410, 1120778333, 0.3185592, -0.66454387, -0.23771572, -0.63276595, 9.856559753417969, -1.1250144243240356, -0.18781474232673645, 1.8538343906402588, 0.05894762650132179, -0.9169537425041199, -1.02294921875, -0.718994140625, 0.413330078125, 0, 
411, 1120795000, 0.31852207, -0.66442496, -0.23809956, -0.63276523, 9.849374771118164, -1.1331677436828613, -0.174874410033226, 1.9327600002288818, 0.41711562871932983, -1.2111539840698242, -1.02001953125, -0.716552734375, 0.41259765625, 0, 
412, 1120811667, 0.318395, -0.6643876, -0.23841818, -0.6327485, 9.810612678527832, -1.12357497215271, -0.17756333947181702, 1.074222207069397, -0.013196942396461964, -1.1343032121658325, -1.018310546875, -0.7158203125, 0.4130859375, 0, 
413, 1120828334, 0.31812927, -0.6644192, -0.23859763, -0.6327814, 9.779156684875488, -1.1620333194732666, -0.20785433053970337, -0.3959403336048126, -0.007395666558295488, -1.096626877784729, -1.0224609375, -0.718994140625, 0.41357421875, 0, 
414, 1120845001, 0.31782657, -0.6645258, -0.23883569, -0.63273156, 9.750805854797363, -1.3407577276229858, -0.2446286380290985, -0.3412572145462036, -0.899537205696106, -1.2213351726531982, -1.022216796875, -0.7177734375, 0.4130859375, 0, 
415, 1120861668, 0.31771547, -0.66459894, -0.2393254, -0.6325257, 9.801440238952637, -1.4614169597625732, -0.269491046667099, 1.9608442783355713, -1.6995244026184082, -1.254042625427246, -1.0205078125, -0.72119140625, 0.4130859375, 0, 
416, 1120878335, 0.31775582, -0.6646494, -0.23999454, -0.6321986, 9.834924697875977, -1.309821605682373, -0.2850017845630646, 3.675140857696533, -2.2944047451019287, -1.1941217184066772, -1.018310546875, -0.72021484375, 0.41650390625, 0, 
417, 1120895002, 0.3176396, -0.6649014, -0.24062961, -0.6317505, 9.834137916564941, -1.215648889541626, -0.269616961479187, 2.5697481632232666, -3.902998208999634, -1.1259535551071167, -1.01904296875, -0.7216796875, 0.418701171875, 0, 
418, 1120911669, 0.31736568, -0.66532373, -0.24117969, -0.6312336, 9.870786666870117, -1.3100159168243408, -0.33947280049324036, 1.2207783460617065, -5.030482292175293, -0.9910386800765991, -1.019775390625, -0.719482421875, 0.41943359375, 0, 
419, 1120928336, 0.3173777, -0.66561097, -0.24193092, -0.63063693, 9.903746604919434, -1.3126100301742554, -0.37615978717803955, 3.8372433185577393, -4.771780490875244, -0.7232449650764465, -1.017333984375, -0.721923828125, 0.423828125, 0, 
420, 1120945003, 0.31746665, -0.66585445, -0.24270514, -0.63003737, 9.842151641845703, -1.2059732675552368, -0.40498611330986023, 4.4008002281188965, -4.515269756317139, -0.5643182396888733, -1.017578125, -0.72021484375, 0.423095703125, 0, 
421, 1120961670, 0.31735522, -0.6662317, -0.24316773, -0.62951624, 9.845739364624023, -1.1061087846755981, -0.3886958062648773, 1.70597243309021, -4.385477542877197, 0.045142389833927155, -1.017822265625, -0.72265625, 0.423583984375, 0, 
422, 1120978337, 0.3171521, -0.6666182, -0.24343118, -0.6291073, 9.878382682800293, -1.3099772930145264, -0.3952840268611908, 0.19096830487251282, -3.6232941150665283, 0.3325169086456299, -1.01611328125, -0.721923828125, 0.424072265625, 0, 
423, 1120995004, 0.31732175, -0.66673386, -0.24389447, -0.62871975, 9.877351760864258, -1.3306926488876343, -0.32658857107162476, 3.3230817317962646, -2.163165807723999, 0.5255855321884155, -1.0185546875, -0.7216796875, 0.426025390625, 0, 
424, 1121011671, 0.3174733, -0.66684884, -0.24415429, -0.6284204, 9.85195255279541, -1.1876946687698364, -0.2649596035480499, 2.219417095184326, -1.3406646251678467, 1.1833323240280151, -1.016845703125, -0.721435546875, 0.43115234375, 0, 
425, 1121028338, 0.3175741, -0.6669884, -0.24433374, -0.6281514, 9.871854782104492, -1.3160959482192993, -0.1989649385213852, 1.5713520050048828, -1.2235122919082642, 1.3053001165390015, -1.018310546875, -0.723388671875, 0.431640625, 0, 
426, 1121045005, 0.31790692, -0.6670004, -0.24473298, -0.6278149, 9.89897632598877, -1.4601881504058838, -0.12451617419719696, 3.925760507583618, -1.0657892227172852, 1.230331540107727, -1.0185546875, -0.723876953125, 0.43017578125, 0, 
427, 1121061672, 0.3184444, -0.66689265, -0.24524193, -0.62745833, 9.890328407287598, -1.27020263671875, -0.12080889940261841, 5.651659965515137, -0.5414076447486877, 1.4464644193649292, -1.01953125, -0.71875, 0.429931640625, 0, 
428, 1121078339, 0.31882548, -0.6668685, -0.24547103, -0.6272007, 9.86937427520752, -1.1202430725097656, -0.174014613032341, 3.4066946506500244, -0.10677295923233032, 1.9756486415863037, -1.015380859375, -0.721435546875, 0.43017578125, 0, 
429, 1121095006, 0.3189155, -0.6670161, -0.24537219, -0.6270367, 9.868134498596191, -1.2125422954559326, -0.14370378851890564, 0.11033950746059418, -0.19029594957828522, 2.309638023376465, -1.019775390625, -0.720458984375, 0.430419921875, 0, 
430, 1121111673, 0.31918475, -0.667025, -0.24531774, -0.6269115, 9.932628631591797, -1.3225700855255127, -0.16401474177837372, 1.3278647661209106, 0.7934301495552063, 2.5592336654663086, -1.017822265625, -0.72216796875, 0.43017578125, 0, 
431, 1121128340, 0.31958708, -0.66694736, -0.24534832, -0.62677723, 9.915095329284668, -1.2626540660858154, -0.15454667806625366, 2.510544538497925, 1.161356806755066, 2.6138789653778076, -1.017822265625, -0.720458984375, 0.430419921875, 0, 
432, 1121145007, 0.31991926, -0.66686743, -0.2453839, -0.6266789, 9.9033842086792, -1.1400511264801025, -0.18096761405467987, 2.162621259689331, 1.2016582489013672, 2.2036399841308594, -1.01806640625, -0.72314453125, 0.428466796875, 0, 
433, 1121161674, 0.3201825, -0.6667996, -0.24536924, -0.6266224, 9.934521675109863, -1.2507007122039795, -0.13235995173454285, 1.5337653160095215, 1.3348314762115479, 2.0662660598754883, -1.0166015625, -0.720703125, 0.4287109375, 0, 
434, 1121178341, 0.3206782, -0.6665615, -0.24556029, -0.6265473, 9.883450508117676, -1.2545629739761353, -0.19499076902866364, 3.8908963203430176, 1.9204212427139282, 1.8765851259231567, -1.019775390625, -0.717529296875, 0.428955078125, 0, 
435, 1121195008, 0.3211605, -0.6663037, -0.24575299, -0.62649894, 9.841886520385742, -1.1257599592208862, -0.21368254721164703, 3.852304458618164, 2.097526788711548, 1.716729998588562, -1.017578125, -0.71728515625, 0.42822265625, 0, 
436, 1121211675, 0.32142273, -0.66612995, -0.24574053, -0.62655395, 9.803260803222656, -1.095215082168579, -0.16658654808998108, 1.5843119621276855, 2.291785717010498, 1.624574899673462, -1.01953125, -0.718505859375, 0.427978515625, 0, 
437, 1121228342, 0.32171008, -0.6659366, -0.24577545, -0.6265984, 9.865153312683105, -1.2175837755203247, -0.1476098746061325, 1.955196738243103, 2.266108989715576, 1.5077043771743774, -1.018798828125, -0.716064453125, 0.427490234375, 0, 
438, 1121245009, 0.32216462, -0.6655993, -0.24597375, -0.6266455, 9.859989166259766, -1.2467939853668213, -0.1984092742204666, 3.7413620948791504, 2.8169615268707275, 1.229038119316101, -1.018798828125, -0.716796875, 0.427978515625, 0, 
439, 1121261676, 0.32269067, -0.6651984, -0.24627483, -0.6266824, 9.873332977294922, -1.1916595697402954, -0.18476849794387817, 4.6736907958984375, 2.936176300048828, 0.9812482595443726, -1.019287109375, -0.7158203125, 0.42919921875, 0, 
440, 1121278343, 0.32309145, -0.6648437, -0.24648075, -0.62677115, 9.858335494995117, -1.165809988975525, -0.177305206656456, 3.496659278869629, 2.9725847244262695, 0.8389184474945068, -1.0185546875, -0.7158203125, 0.428955078125, 0, 
441, 1121295010, 0.32338172, -0.6645484, -0.24653691, -0.6269126, 9.892529487609863, -1.1761953830718994, -0.15172995626926422, 2.1259312629699707, 3.1021595001220703, 1.0317821502685547, -1.018798828125, -0.716064453125, 0.426025390625, 0, 
442, 1121311677, 0.32372925, -0.6641931, -0.246632, -0.62707233, 9.885924339294434, -1.2776551246643066, -0.2180238664150238, 2.6706490516662598, 3.4522204399108887, 0.9584912657737732, -1.024169921875, -0.717529296875, 0.42431640625, 0, 
443, 1121328344, 0.32406458, -0.6638848, -0.24671991, -0.627191, 9.877691268920898, -1.2391469478607178, -0.17714881896972656, 2.539614200592041, 3.057374954223633, 1.108005404472351, -1.01806640625, -0.71533203125, 0.419189453125, 0, 
444, 1121345011, 0.32428494, -0.66364807, -0.24668226, -0.62734234, 9.841108322143555, -1.232132077217102, -0.1431342363357544, 1.2441624402999878, 2.9865047931671143, 1.2338404655456543, -1.022216796875, -0.716064453125, 0.42431640625, 0, 
445, 1121361678, 0.32462332, -0.6633762, -0.24678299, -0.62741524, 9.825546264648438, -1.374426245689392, -0.1183764860033989, 2.567455291748047, 2.6735689640045166, 1.2263104915618896, -1.02392578125, -0.7177734375, 0.423095703125, 0, 
446, 1121378345, 0.3251267, -0.663, -0.24702114, -0.6274585, 9.832010269165039, -1.316422462463379, -0.14428357779979706, 4.207910537719727, 2.9591634273529053, 1.1963051557540894, -1.021240234375, -0.713623046875, 0.421875, 0, 
447, 1121395012, 0.32551834, -0.66270953, -0.24712577, -0.6275212, 9.811530113220215, -1.194027066230774, -0.17335106432437897, 2.9307844638824463, 2.781078338623047, 1.4227982759475708, -1.0234375, -0.7138671875, 0.42236328125, 0, 
448, 1121411679, 0.32574418, -0.6624906, -0.24701743, -0.62767786, 9.842286109924316, -1.2940013408660889, -0.16941553354263306, 0.9167169332504272, 3.0986502170562744, 1.5887173414230347, -1.0224609375, -0.712646484375, 0.4189453125, 0, 
449, 1121428346, 0.3260361, -0.6622131, -0.24694838, -0.62784624, 9.842537879943848, -1.3701167106628418, -0.1542990654706955, 1.4867790937423706, 3.4322688579559326, 1.5682402849197388, -1.02099609375, -0.7138671875, 0.42041015625, 0, 
450, 1121445013, 0.3264803, -0.6618445, -0.246969, -0.62799597, 9.816587448120117, -1.3317503929138184, -0.13213348388671875, 2.8064987659454346, 3.795865774154663, 1.7017461061477661, -1.022705078125, -0.7138671875, 0.41748046875, 0, 
451, 1121461680, 0.32686657, -0.66150343, -0.24691097, -0.6281772, 9.824172973632812, -1.2937525510787964, -0.10617094486951828, 2.0798537731170654, 3.901109218597412, 1.7818373441696167, -1.02197265625, -0.710205078125, 0.418212890625, 0, 
452, 1121478347, 0.32712224, -0.66124773, -0.2467106, -0.6283919, 9.841768264770508, -1.2883048057556152, -0.11051074415445328, 0.6263970136642456, 3.7811901569366455, 1.9347065687179565, -1.024169921875, -0.7109375, 0.416748046875, 0, 
453, 1121495014, 0.32736024, -0.6610156, -0.24651186, -0.6285904, 9.833396911621094, -1.338671326637268, -0.11281432211399078, 0.5489377975463867, 3.56852126121521, 1.925338625907898, -1.02392578125, -0.712646484375, 0.417236328125, 0, 
454, 1121511681, 0.32769278, -0.66072595, -0.24643692, -0.62875086, 9.85616397857666, -1.34902024269104, -0.11429427564144135, 1.694190502166748, 3.5287258625030518, 1.7577741146087646, -1.023193359375, -0.7158203125, 0.414306640625, 0, 
455, 1121528348, 0.32806155, -0.6603996, -0.24637593, -0.6289253, 9.827519416809082, -1.2516233921051025, -0.11402600258588791, 1.9674270153045654, 3.7809853553771973, 1.755635380744934, -1.024658203125, -0.708251953125, 0.412353515625, 0, 
456, 1121545015, 0.32823065, -0.6602124, -0.24607882, -0.62914985, 9.820952415466309, -1.2453433275222778, -0.15922197699546814, -0.2863563895225525, 3.5902984142303467, 2.0856804847717285, -1.02587890625, -0.714111328125, 0.413330078125, 0, 
457, 1121561682, 0.32834977, -0.660047, -0.24569842, -0.62940997, 9.877917289733887, -1.3100855350494385, -0.15144479274749756, -0.9510443210601807, 3.757305860519409, 2.2048819065093994, -1.0234375, -0.709716796875, 0.411865234375, 0, 
458, 1121578349, 0.3285776, -0.6598436, -0.24545065, -0.629601, 9.908156394958496, -1.370700716972351, -0.07853307574987411, 0.21626082062721252, 3.510258913040161, 2.164669990539551, -1.02392578125, -0.713623046875, 0.40869140625, 0, 
459, 1121595016, 0.3288911, -0.65961784, -0.2453586, -0.62970984, 9.893746376037598, -1.2861948013305664, -0.07563363760709763, 1.4435575008392334, 3.031609058380127, 1.9744446277618408, -1.024658203125, -0.710205078125, 0.40966796875, 0, 
460, 1121611683, 0.32913774, -0.65949696, -0.24525033, -0.6297495, 9.909743309020996, -1.3122751712799072, -0.1296728551387787, 0.9714257121086121, 2.1842896938323975, 2.0913920402526855, -1.02685546875, -0.7109375, 0.404296875, 0, 
461, 1121628350, 0.3294652, -0.65932834, -0.24519424, -0.6297766, 9.939805030822754, -1.3431053161621094, -0.07844865322113037, 1.677465558052063, 2.3564836978912354, 2.151275157928467, -1.027587890625, -0.711181640625, 0.404052734375, 0, 
462, 1121645017, 0.32981867, -0.659156, -0.24519701, -0.62977105, 9.874678611755371, -1.2783699035644531, -0.05533219873905182, 2.1440134048461914, 2.1298112869262695, 2.0643324851989746, -1.025390625, -0.707763671875, 0.406494140625, 0, 
463, 1121661684, 0.33004844, -0.65904623, -0.24503078, -0.62983006, 9.840158462524414, -1.3022505044937134, -0.08969814330339432, 0.5676670670509338, 2.3322408199310303, 2.2524831295013428, -1.0263671875, -0.706787109375, 0.403076171875, 0, 
464, 1121678351, 0.33027968, -0.6589485, -0.24486582, -0.6298753, 9.870004653930664, -1.3650368452072144, -0.025384560227394104, 0.5772334337234497, 2.217189073562622, 2.30511736869812, -1.026123046875, -0.70751953125, 0.404296875, 0, 
465, 1121695018, 0.33063602, -0.65879285, -0.24471939, -0.62990826, 9.98818588256836, -1.3073896169662476, -0.04923302307724953, 1.4030638933181763, 2.5762410163879395, 2.691152334213257, -1.02734375, -0.706298828125, 0.402099609375, 0, 
466, 1121711685, 0.330905, -0.6587043, -0.24443774, -0.62996906, 9.960847854614258, -1.2587966918945312, -0.07327543944120407, 0.24356400966644287, 2.5686469078063965, 2.9750051498413086, -1.029052734375, -0.7080078125, 0.4013671875, 0, 
467, 1121728352, 0.3310841, -0.6586978, -0.24407735, -0.6300215, 9.865771293640137, -1.365747094154358, -0.021082859486341476, -0.727202296257019, 2.213360071182251, 3.0998928546905518, -1.030517578125, -0.705810546875, 0.39990234375, 0, 
468, 1121745019, 0.33132783, -0.6586571, -0.24380203, -0.6300424, 9.83597183227539, -1.499923586845398, 0.017939096316695213, 0.07088314741849899, 2.1327054500579834, 3.007840156555176, -1.02587890625, -0.708984375, 0.401611328125, 0, 
469, 1121761686, 0.33178183, -0.65848297, -0.24377689, -0.6299952, 9.780189514160156, -1.5289878845214844, -0.015107911080121994, 2.5671095848083496, 2.176093339920044, 2.7135632038116455, -1.028076171875, -0.70361328125, 0.403076171875, 0, 
470, 1121778353, 0.33232933, -0.6582611, -0.24383478, -0.6299161, 9.74623966217041, -1.4171462059020996, -0.061433836817741394, 3.457880973815918, 2.215754747390747, 2.731555938720703, -1.031005859375, -0.703857421875, 0.398193359375, 0, 
471, 1121795020, 0.3328359, -0.6581077, -0.24382506, -0.6298127, 9.757121086120605, -1.3562202453613281, 0.033430252224206924, 2.84037184715271, 1.900334358215332, 3.0281128883361816, -1.027099609375, -0.70361328125, 0.39794921875, 0, 
472, 1121811687, 0.33334395, -0.6579672, -0.24377562, -0.62971, 9.74785041809082, -1.4114705324172974, 0.041384417563676834, 2.695801019668579, 1.9315563440322876, 3.234154462814331, -1.029052734375, -0.703369140625, 0.400146484375, 0, 
473, 1121828354, 0.33394212, -0.6577885, -0.24383679, -0.629556, 9.696304321289062, -1.4666616916656494, 0.029845863580703735, 3.763978958129883, 1.7595287561416626, 3.174720525741577, -1.031005859375, -0.703369140625, 0.398193359375, 0, 
474, 1121845021, 0.33459792, -0.6575561, -0.24396603, -0.62940043, 9.66214370727539, -1.4143449068069458, 0.04245856776833534, 4.486038684844971, 1.9174821376800537, 3.028458833694458, -1.03369140625, -0.703125, 0.400146484375, 0, 
475, 1121861688, 0.33516374, -0.65741855, -0.24403368, -0.62921685, 9.694934844970703, -1.3143056631088257, 0.018111012876033783, 3.6042704582214355, 1.3784881830215454, 3.1384518146514893, -1.03125, -0.70263671875, 0.396240234375, 0, 
476, 1121878355, 0.33560947, -0.6573778, -0.24399291, -0.6290377, 9.743207931518555, -1.2943792343139648, -0.005223041400313377, 2.3559458255767822, 1.0274150371551514, 3.260931968688965, -1.032470703125, -0.7001953125, 0.39501953125, 0, 
477, 1121895022, 0.33604348, -0.65736353, -0.2439933, -0.62882066, 9.801484107971191, -1.3526570796966553, -0.028171883895993233, 2.4761719703674316, 0.6294705867767334, 3.1577389240264893, -1.03271484375, -0.701904296875, 0.39990234375, 0, 
478, 1121911689, 0.33653077, -0.6573307, -0.24411441, -0.62854725, 9.86086368560791, -1.3491272926330566, -0.026894889771938324, 3.3764584064483643, 0.26504024863243103, 2.9404404163360596, -1.031005859375, -0.699462890625, 0.39892578125, 0, 
479, 1121928356, 0.33698145, -0.65731525, -0.24431857, -0.6282426, 9.877508163452148, -1.30648672580719, -0.005571965593844652, 3.5913617610931396, -0.2048823982477188, 2.509455680847168, -1.033203125, -0.701171875, 0.397216796875, 0, 
480, 1121945023, 0.33732396, -0.65734553, -0.24452157, -0.62794805, 9.834495544433594, -1.261132001876831, -0.03945503011345863, 2.956179618835449, -0.5329298973083496, 2.1019062995910645, -1.032958984375, -0.69921875, 0.40087890625, 0, 
481, 1121961690, 0.33769706, -0.6572988, -0.24483265, -0.6276753, 9.796082496643066, -1.302933692932129, -0.016411596909165382, 3.683030128479004, -0.29653748869895935, 1.56670343875885, -1.030029296875, -0.69775390625, 0.39990234375, 0, 
482, 1121978357, 0.33808127, -0.65723246, -0.2451556, -0.6274117, 9.750703811645508, -1.3087093830108643, 0.008608928881585598, 3.845810651779175, -0.18591617047786713, 1.507986068725586, -1.033447265625, -0.697509765625, 0.40087890625, 0, 
483, 1121995024, 0.33831424, -0.6572303, -0.24538003, -0.62720066, 9.764019966125488, -1.2280148267745972, 0.006241651251912117, 2.5055625438690186, -0.2520097494125366, 1.2877298593521118, -1.033935546875, -0.696044921875, 0.3984375, 0, 
484, 1122011691, 0.33840635, -0.6573129, -0.24549054, -0.627021, 9.80270767211914, -1.3246198892593384, 0.03866872936487198, 1.1243335008621216, -0.44807493686676025, 1.2668297290802002, -1.032958984375, -0.69775390625, 0.399169921875, 0, 
485, 1122028358, 0.33854136, -0.65731746, -0.24567525, -0.6268711, 9.842045783996582, -1.404576301574707, 0.05179986730217934, 1.747298240661621, -0.07269524037837982, 0.9166785478591919, -1.03662109375, -0.699951171875, 0.39990234375, 0, 
486, 1122045025, 0.33874628, -0.65727884, -0.24601988, -0.6266657, 9.789385795593262, -1.432638168334961, 0.06657908111810684, 2.9751200675964355, -0.3990778625011444, 0.550916314125061, -1.031005859375, -0.697265625, 0.401123046875, 0, 
487, 1122061692, 0.33902276, -0.6571816, -0.2464937, -0.626432, 9.788919448852539, -1.4193460941314697, 0.10941068828105927, 4.037266254425049, -0.45475998520851135, 0.24160461127758026, -1.033203125, -0.697021484375, 0.40234375, 0, 
488, 1122078359, 0.33924618, -0.657137, -0.24692005, -0.62618995, 9.798615455627441, -1.3451383113861084, 0.08072733134031296, 3.4956085681915283, -0.7019481062889099, 0.3345530927181244, -1.03466796875, -0.698486328125, 0.404541015625, 0, 
489, 1122095026, 0.33941808, -0.65713745, -0.24730931, -0.6259425, 9.802178382873535, -1.373053789138794, 0.07927799969911575, 2.9859931468963623, -0.9186700582504272, 0.3700779378414154, -1.03466796875, -0.696044921875, 0.40283203125, 0, 
490, 1122111693, 0.3396257, -0.6571397, -0.24770458, -0.6256711, 9.831049919128418, -1.4192208051681519, 0.05216341093182564, 3.1405904293060303, -0.9786164164543152, 0.5547454357147217, -1.035888671875, -0.69873046875, 0.40673828125, 0, 
491, 1122128360, 0.33981872, -0.65712637, -0.24805975, -0.6254395, 9.826287269592285, -1.4495643377304077, 0.05591870844364166, 2.9131243228912354, -0.6704316139221191, 0.5527476668357849, -1.037109375, -0.697998046875, 0.402587890625, 0, 
492, 1122145027, 0.34003738, -0.65707564, -0.24838509, -0.6252449, 9.814562797546387, -1.3912413120269775, 0.061293911188840866, 2.94529390335083, -0.23447786271572113, 0.6475147604942322, -1.03271484375, -0.697509765625, 0.406982421875, 0, 
493, 1122161694, 0.3401951, -0.65706325, -0.2485661, -0.62510026, 9.804581642150879, -1.409784197807312, 0.05947365239262581, 1.8896921873092651, 0.055810071527957916, 0.9851541519165039, -1.033935546875, -0.6962890625, 0.405029296875, 0, 
494, 1122178361, 0.34032205, -0.65704894, -0.24864878, -0.6250131, 9.818103790283203, -1.3828428983688354, 0.056690871715545654, 1.1992378234863281, 0.5068368315696716, 1.1589490175247192, -1.035400390625, -0.6962890625, 0.4052734375, 0, 
495, 1122195028, 0.34047538, -0.65703607, -0.24871291, -0.62491757, 9.83035659790039, -1.4130858182907104, 0.09661375731229782, 1.2845408916473389, 0.5430020093917847, 1.378052830696106, -1.0361328125, -0.697998046875, 0.4033203125, 0, 
496, 1122211695, 0.34070763, -0.65697026, -0.24880025, -0.6248256, 9.83300495147705, -1.3907767534255981, 0.07220271229743958, 1.8395423889160156, 0.868667483329773, 1.5129036903381348, -1.032958984375, -0.69775390625, 0.405029296875, 0, 
497, 1122228362, 0.34091097, -0.6569153, -0.24882942, -0.62476087, 9.861166000366211, -1.3830385208129883, 0.0641174241900444, 1.386940598487854, 1.0314874649047852, 1.6054681539535522, -1.03466796875, -0.6982421875, 0.406982421875, 0, 
498, 1122245029, 0.34109825, -0.65688616, -0.24877645, -0.6247103, 9.894307136535645, -1.3794053792953491, 0.04745463654398918, 0.8829338550567627, 1.1475385427474976, 1.9189162254333496, -1.037841796875, -0.698486328125, 0.40234375, 0, 
499, 1122261696, 0.34124175, -0.6568738, -0.24871525, -0.6246694, 9.893457412719727, -1.4171298742294312, 0.03904223442077637, 0.6410090327262878, 1.0544236898422241, 1.7743711471557617, -1.036376953125, -0.695068359375, 0.402587890625, 0, 
500, 1122278363, 0.34151945, -0.6567587, -0.24880488, -0.624603, 9.875893592834473, -1.4688514471054077, 0.04166989400982857, 2.166360378265381, 1.256469488143921, 1.5534356832504272, -1.038330078125, -0.69677734375, 0.40234375, 0, 
501, 1122295030, 0.34182954, -0.65660435, -0.24891348, -0.62455213, 9.866581916809082, -1.405031442642212, 0.034671008586883545, 2.4624435901641846, 1.5063213109970093, 1.502274513244629, -1.03759765625, -0.693359375, 0.40234375, 0, 
502, 1122311697, 0.34209013, -0.65646714, -0.24895325, -0.624538, 9.827492713928223, -1.354292869567871, 0.008467178791761398, 1.8237009048461914, 1.677541971206665, 1.543049693107605, -1.0341796875, -0.699462890625, 0.402587890625, 0, 
