sep=,
DeviceTag:,Xsens_4,,,,,,,,,,,,,,,,,
FirmwareVersion:,2.2.1,,,,,,,,,,,,,,,,,
AppVersion:,2023.0.0,,,,,,,,,,,,,,,,,
StartTime:,2023-06-29 13:23:53.000 +0200,,,,,,,,,,,,,,,,,
© Movella Technologies B. V. 2005-2023,,,,,,,,,,,,,,,,,,,

PacketCounter,SampleTimeFine,Quat_W,Quat_X,Quat_Y,Quat_Z,Acc_X,Acc_Y,Acc_Z,Gyr_X,Gyr_Y,Gyr_Z,Mag_X,Mag_Y,Mag_Z,Status,
0, 2062558931, 0.7137177, 0.16746499, -0.6138634, 0.29280406, 0.0, 0.0, 0.0, 0.0, 0.0, 0.0, -0.5947265625, 0.1494140625, -0.188720703125, 0, 
1, 2062575598, 0.71358687, 0.16783732, -0.61405253, 0.29251334, 9.63994026184082, -0.9657700657844543, 1.8830900192260742, 0.4465126693248749, 5.059668064117432, -5.781184196472168, -0.59228515625, 0.1494140625, -0.191650390625, 0, 
2, 2062592265, 0.7143831, 0.16900384, -0.6134826, 0.29109034, 9.658556938171387, -0.9072820544242859, 1.9031709432601929, -3.118884801864624, 4.773087978363037, -5.04006814956665, -0.59521484375, 0.148193359375, -0.18994140625, 0, 
3, 2062608932, 0.71542394, 0.17031243, -0.6126554, 0.28950942, 9.720321655273438, -1.041508436203003, 1.8343031406402588, -3.693133592605591, 4.413958549499512, -4.425439357757568, -0.59521484375, 0.1494140625, -0.19287109375, 0, 
4, 2062625599, 0.71614647, 0.17124473, -0.61206263, 0.28842473, 9.749743461608887, -1.0212037563323975, 1.793416142463684, -1.8657444715499878, 4.567801475524902, -4.069180011749268, -0.59228515625, 0.151123046875, -0.188720703125, 0, 
5, 2062642266, 0.71675, 0.17161632, -0.6117935, 0.28727332, 9.736248970031738, -0.911190390586853, 1.8280194997787476, -2.851180076599121, 4.520507335662842, -3.5843052864074707, -0.596435546875, 0.14990234375, -0.1904296875, 0, 
6, 2062658933, 0.7173968, 0.17149842, -0.6117062, 0.28591216, 9.747139930725098, -0.8263313174247742, 1.7916651964187622, -6.694469451904297, 4.389306545257568, -2.785189390182495, -0.5947265625, 0.14990234375, -0.19287109375, 0, 
7, 2062675600, 0.71808225, 0.17105085, -0.61176354, 0.28433257, 9.727395057678223, -0.8681166768074036, 1.748397946357727, -10.239448547363281, 4.464595794677734, -2.2885594367980957, -0.596923828125, 0.148681640625, -0.191162109375, 0, 
8, 2062692267, 0.7187218, 0.17034793, -0.61195815, 0.28271547, 9.71000862121582, -0.8812974095344543, 1.7777620553970337, -11.360082626342773, 4.249283313751221, -1.675686001777649, -0.59814453125, 0.148193359375, -0.192138671875, 0, 
9, 2062708934, 0.71931285, 0.16949159, -0.6122354, 0.28112188, 9.67441177368164, -0.856727123260498, 1.827268362045288, -12.44912338256836, 3.803776264190674, -1.444902777671814, -0.595703125, 0.152099609375, -0.18994140625, 0, 
10, 2062725601, 0.7198764, 0.16830468, -0.61276764, 0.27922702, 9.625137329101562, -0.7971976399421692, 1.8657134771347046, -13.956254005432129, 2.0362942218780518, -1.2472751140594482, -0.59521484375, 0.15283203125, -0.189453125, 0, 
11, 2062742268, 0.7203367, 0.16710204, -0.613413, 0.27733853, 9.67380428314209, -0.8842475414276123, 1.7850719690322876, -15.010104179382324, 0.5999459624290466, -1.119442343711853, -0.596923828125, 0.15283203125, -0.189453125, 0, 
12, 2062758935, 0.7206658, 0.16611242, -0.61404604, 0.27567193, 9.724821090698242, -1.0082261562347412, 1.7419124841690063, -12.572358131408691, -0.1584530472755432, -1.099937915802002, -0.596435546875, 0.15380859375, -0.189453125, 0, 
13, 2062775602, 0.7209432, 0.16531861, -0.61457026, 0.2742517, 9.787925720214844, -0.9453353881835938, 1.7672377824783325, -10.248682022094727, 0.12529096007347107, -1.458592414855957, -0.596923828125, 0.1533203125, -0.188232421875, 0, 
14, 2062792269, 0.72130793, 0.16428326, -0.615134, 0.27264658, 9.815027236938477, -0.8587870001792908, 1.7831711769104004, -11.952695846557617, 0.44034016132354736, -1.7226852178573608, -0.596923828125, 0.154296875, -0.18701171875, 0, 
15, 2062808936, 0.7218524, 0.16275159, -0.61582226, 0.27056298, 9.844452857971191, -0.921661376953125, 1.7840361595153809, -15.059088706970215, 0.679114818572998, -1.8908463716506958, -0.596923828125, 0.155029296875, -0.185302734375, 0, 
16, 2062825603, 0.722388, 0.16121805, -0.61645895, 0.26859432, 9.824487686157227, -0.9692382216453552, 1.8158351182937622, -16.967239379882812, 1.1770135164260864, -2.016784429550171, -0.5986328125, 0.15673828125, -0.1865234375, 0, 
17, 2062842270, 0.7228429, 0.15983517, -0.61705106, 0.26683158, 9.84151840209961, -0.9865683913230896, 1.8495222330093384, -17.32832908630371, 1.0601427555084229, -2.1794378757476807, -0.59423828125, 0.1572265625, -0.184326171875, 0, 
18, 2062858937, 0.72314346, 0.15874067, -0.61755884, 0.26549223, 9.851656913757324, -0.9772313237190247, 1.8876798152923584, -18.223072052001953, 1.022312879562378, -2.166222095489502, -0.600341796875, 0.159912109375, -0.18310546875, 0, 
19, 2062875604, 0.7238761, 0.15659633, -0.61832595, 0.26297167, 9.89640998840332, -1.0231846570968628, 1.8348193168640137, -18.611286163330078, 0.9012928605079651, -2.1668753623962402, -0.596435546875, 0.1611328125, -0.18310546875, 0, 
20, 2062892271, 0.72461903, 0.15443374, -0.61905533, 0.26047674, 9.919976234436035, -1.0267350673675537, 1.8518383502960205, -19.19548988342285, 1.167549967765808, -2.312624931335449, -0.59765625, 0.1640625, -0.178955078125, 0, 
21, 2062908938, 0.72513187, 0.15282124, -0.6196043, 0.2586893, 9.990720748901367, -1.0312718152999878, 1.7894662618637085, -20.018068313598633, 1.4781684875488281, -2.3969292640686035, -0.59716796875, 0.1611328125, -0.18017578125, 0, 
22, 2062925605, 0.7258752, 0.15079202, -0.62015224, 0.25647312, 10.006163597106934, -1.094271183013916, 1.7929564714431763, -19.95724868774414, 2.327704429626465, -2.471513509750366, -0.60107421875, 0.1650390625, -0.177978515625, 0, 
23, 2062942272, 0.72678566, 0.14860709, -0.62062055, 0.25402546, 10.063446998596191, -1.1513861417770386, 1.7950164079666138, -18.313459396362305, 3.1116838455200195, -2.8223304748535156, -0.599365234375, 0.166748046875, -0.175048828125, 0, 
24, 2062958939, 0.7273517, 0.14747904, -0.62075806, 0.25272298, 10.013124465942383, -1.1554601192474365, 1.8518776893615723, -15.851665496826172, 3.4940431118011475, -3.1364448070526123, -0.598876953125, 0.16796875, -0.174560546875, 0, 
25, 2062975606, 0.7281951, 0.14595832, -0.6209061, 0.2508065, 10.096355438232422, -1.1248762607574463, 1.7986319065093994, -11.473623275756836, 3.689401865005493, -3.369236707687378, -0.59814453125, 0.16796875, -0.174560546875, 0, 
26, 2062992273, 0.7291877, 0.14437492, -0.62094724, 0.24872859, 10.091066360473633, -1.0258545875549316, 1.8234012126922607, -8.719669342041016, 4.4389328956604, -3.6341874599456787, -0.59716796875, 0.169189453125, -0.175537109375, 0, 
27, 2063008940, 0.72935176, 0.14493306, -0.6204405, 0.24918693, 10.103187561035156, -0.8663858771324158, 1.8118807077407837, -8.815126419067383, 4.846904277801514, -3.6735284328460693, -0.59765625, 0.166259765625, -0.177978515625, 0, 
28, 2063025607, 0.7302104, 0.14389722, -0.62023836, 0.2477719, 10.002693176269531, -0.9328152537345886, 1.7792325019836426, -9.646156311035156, 5.505560874938965, -3.9070653915405273, -0.595947265625, 0.16748046875, -0.177978515625, 0, 
29, 2063042274, 0.73109037, 0.14315668, -0.6198767, 0.2465075, 9.807699203491211, -1.0216602087020874, 1.7770161628723145, -6.1520185470581055, 5.944689750671387, -4.349728584289551, -0.59814453125, 0.1650390625, -0.175537109375, 0, 
30, 2063058941, 0.73168844, 0.14337407, -0.619271, 0.24612889, 9.696405410766602, -0.8143154382705688, 1.9111469984054565, -2.056469678878784, 5.725559711456299, -4.788013458251953, -0.60107421875, 0.1650390625, -0.17626953125, 0, 
31, 2063075608, 0.7325432, 0.14285846, -0.6188877, 0.24484713, 9.67403793334961, -0.6332511305809021, 1.9880623817443848, -2.4265735149383545, 5.214113235473633, -4.824895858764648, -0.59765625, 0.1640625, -0.17724609375, 0, 
32, 2063092275, 0.7332529, 0.14235227, -0.61862266, 0.24368447, 9.64992618560791, -0.6326586604118347, 1.9327763319015503, -5.565884113311768, 4.355612754821777, -4.479124069213867, -0.598876953125, 0.166748046875, -0.1796875, 0, 
33, 2063108942, 0.7343013, 0.14085278, -0.6186055, 0.24143192, 9.70712947845459, -0.7681599855422974, 1.8536368608474731, -7.549537181854248, 4.290377616882324, -4.286580562591553, -0.595947265625, 0.1650390625, -0.18017578125, 0, 
34, 2063125609, 0.7349365, 0.1404251, -0.61832625, 0.24046198, 9.728555679321289, -0.8391048312187195, 1.8342037200927734, -6.785984039306641, 4.340745449066162, -4.084086894989014, -0.599853515625, 0.1640625, -0.1806640625, 0, 
35, 2063142276, 0.7354425, 0.14026876, -0.6179956, 0.23985526, 9.768126487731934, -0.7203152179718018, 1.9284961223602295, -6.4076080322265625, 4.214295864105225, -3.7972500324249268, -0.599365234375, 0.162841796875, -0.181396484375, 0, 
36, 2063158943, 0.73607594, 0.13958341, -0.6178594, 0.23865983, 9.743660926818848, -0.6676123142242432, 1.9961092472076416, -7.3608479499816895, 3.6184542179107666, -3.5710384845733643, -0.59814453125, 0.1650390625, -0.1806640625, 0, 
37, 2063175610, 0.73685807, 0.13818562, -0.61799717, 0.23669504, 9.69635009765625, -0.7009394764900208, 1.9743825197219849, -9.228168487548828, 2.7362117767333984, -3.235473871231079, -0.595947265625, 0.162841796875, -0.17626953125, 0, 
38, 2063192277, 0.7376106, 0.1365987, -0.6182777, 0.23452991, 9.687531471252441, -0.8021838068962097, 1.9311550855636597, -9.921491622924805, 1.8520482778549194, -2.965144395828247, -0.6005859375, 0.1640625, -0.1806640625, 0, 
39, 2063208944, 0.7379872, 0.13598984, -0.6183477, 0.233512, 9.746963500976562, -0.7929928302764893, 1.9248642921447754, -9.623257637023926, 1.734460711479187, -2.9864416122436523, -0.6005859375, 0.166259765625, -0.178955078125, 0, 
40, 2063225611, 0.73845696, 0.13507245, -0.61850506, 0.23213865, 9.792351722717285, -0.7242557406425476, 1.8735003471374512, -10.691359519958496, 1.6396167278289795, -3.1011996269226074, -0.598876953125, 0.162353515625, -0.1806640625, 0, 
41, 2063242278, 0.7389346, 0.13392395, -0.61876094, 0.23059736, 9.827417373657227, -0.7669407725334167, 1.8838542699813843, -12.918963432312012, 1.4123042821884155, -2.917313814163208, -0.59716796875, 0.166259765625, -0.175537109375, 0, 
42, 2063258945, 0.7394402, 0.1326476, -0.6190662, 0.22888876, 9.83504581451416, -0.8686644434928894, 1.9046614170074463, -13.349987983703613, 1.243427038192749, -3.012887716293335, -0.59765625, 0.165771484375, -0.17724609375, 0, 
43, 2063275612, 0.7398573, 0.13164954, -0.6193185, 0.22742966, 9.877573013305664, -0.89762943983078, 1.9067728519439697, -12.135174751281738, 1.0537134408950806, -3.1585850715637207, -0.59765625, 0.166259765625, -0.1767578125, 0, 
44, 2063292279, 0.74034774, 0.13049802, -0.61959827, 0.22572906, 9.896141052246094, -0.8615231513977051, 1.9194135665893555, -11.33059024810791, 1.0089679956436157, -3.306063175201416, -0.599853515625, 0.166748046875, -0.175537109375, 0, 
45, 2063308946, 0.74064153, 0.12979375, -0.61978, 0.22467081, 9.982244491577148, -0.880681037902832, 1.9048707485198975, -12.327949523925781, 1.1134037971496582, -3.033531427383423, -0.6005859375, 0.170166015625, -0.1767578125, 0, 
46, 2063325613, 0.7411884, 0.12820314, -0.6201621, 0.22271623, 10.08894157409668, -0.8720303177833557, 1.9757004976272583, -14.667174339294434, 1.169790506362915, -2.732966661453247, -0.598876953125, 0.166259765625, -0.17626953125, 0, 
47, 2063342280, 0.7415819, 0.1265511, -0.6206748, 0.22091597, 9.972434043884277, -0.8373811841011047, 2.0046277046203613, -16.668481826782227, 0.2767903506755829, -1.8159167766571045, -0.598876953125, 0.16455078125, -0.1728515625, 0, 
48, 2063358947, 0.74208236, 0.12432135, -0.62142515, 0.21837804, 9.904733657836914, -0.89524906873703, 1.9572337865829468, -16.309322357177734, -0.8756988048553467, -1.6825509071350098, -0.599365234375, 0.169189453125, -0.171142578125, 0, 
49, 2063375614, 0.7420954, 0.12354021, -0.62186104, 0.21753429, 9.832281112670898, -1.0198657512664795, 1.9211103916168213, -11.862090110778809, -1.105085849761963, -1.019244909286499, -0.599365234375, 0.169189453125, -0.169921875, 0, 
50, 2063392281, 0.74206614, 0.12306452, -0.6222543, 0.21677749, 9.780927658081055, -0.882420003414154, 1.909125566482544, -6.984429836273193, -1.7105698585510254, -1.328812599182129, -0.602294921875, 0.16748046875, -0.168212890625, 0, 
51, 2063408948, 0.74156547, 0.12390256, -0.62244564, 0.21746342, 9.834404945373535, -0.802329957485199, 1.9140770435333252, -6.866971492767334, -2.2404072284698486, -1.7580434083938599, -0.598876953125, 0.169677734375, -0.16650390625, 0, 
52, 2063425615, 0.74146914, 0.12363607, -0.6228217, 0.21686639, 9.934014320373535, -0.8010342717170715, 1.9296013116836548, -7.829664707183838, -1.8605841398239136, -1.8655526638031006, -0.6005859375, 0.170654296875, -0.1669921875, 0, 
53, 2063442282, 0.74169403, 0.122824006, -0.62320423, 0.21545482, 9.941877365112305, -0.9233468174934387, 1.9211812019348145, -7.996709823608398, -0.9700427651405334, -2.8874356746673584, -0.598388671875, 0.17138671875, -0.1669921875, 0, 
54, 2063458949, 0.7419108, 0.122596994, -0.6232686, 0.21465054, 9.923023223876953, -1.1012526750564575, 1.9934004545211792, -6.546133995056152, 0.6661160588264465, -3.4866323471069336, -0.6005859375, 0.17138671875, -0.16650390625, 0, 
55, 2063475616, 0.7419675, 0.122945905, -0.62316525, 0.21455498, 9.686559677124023, -1.1820162534713745, 1.9889065027236938, -4.687380313873291, 0.9548606872558594, -3.1834025382995605, -0.598388671875, 0.174072265625, -0.164306640625, 0, 
56, 2063492283, 0.7420828, 0.12321696, -0.62316567, 0.2139989, 9.65137004852295, -1.1344077587127686, 1.9787440299987793, -1.4766619205474854, -0.12349163740873337, -4.120840072631836, -0.60009765625, 0.17138671875, -0.163818359375, 0, 
57, 2063508950, 0.7422584, 0.1230958, -0.6233484, 0.21292405, 9.635658264160156, -0.8239195942878723, 2.089069128036499, 0.16374841332435608, -1.2066783905029297, -3.8555312156677246, -0.60107421875, 0.169677734375, -0.164306640625, 0, 
58, 2063525617, 0.7419598, 0.12387065, -0.6235754, 0.21285087, 9.683526992797852, -0.7161145210266113, 1.9555686712265015, 1.6625652313232422, -3.312516212463379, -3.3716816902160645, -0.6044921875, 0.169677734375, -0.164794921875, 0, 
59, 2063542284, 0.741567, 0.12426217, -0.6241258, 0.21237871, 9.575791358947754, -0.6341504454612732, 1.873695731163025, 0.16337701678276062, -5.373916149139404, -2.836043119430542, -0.60302734375, 0.16796875, -0.160400390625, 0, 
60, 2063558951, 0.7409826, 0.12450608, -0.62489927, 0.21200016, 9.624065399169922, -0.7185143828392029, 1.6123055219650269, -2.2873940467834473, -6.884093761444092, -1.6088109016418457, -0.60400390625, 0.169677734375, -0.160888671875, 0, 
61, 2063575618, 0.7404481, 0.12484172, -0.62559164, 0.21162744, 9.685318946838379, -1.061659336090088, 1.4316591024398804, -0.09941568970680237, -6.489208221435547, -1.7963980436325073, -0.605224609375, 0.16796875, -0.157470703125, 0, 
62, 2063592285, 0.74003774, 0.12551063, -0.62600386, 0.2114483, 9.790335655212402, -0.9613345265388489, 1.4046299457550049, 4.965874671936035, -4.977752685546875, -2.286907434463501, -0.603515625, 0.166748046875, -0.15869140625, 0, 
63, 2063608952, 0.7396913, 0.12616554, -0.6263076, 0.21137133, 9.838979721069336, -0.7057536244392395, 1.4857794046401978, 2.8124992847442627, -3.7755048274993896, -2.415982484817505, -0.603515625, 0.1650390625, -0.156982421875, 0, 
64, 2063625619, 0.7395474, 0.12616053, -0.62667704, 0.21078269, 9.942319869995117, -0.7836556434631348, 1.4029626846313477, -1.3170180320739746, -2.820598602294922, -2.0860908031463623, -0.608154296875, 0.1689453125, -0.15234375, 0, 
65, 2063642286, 0.7395615, 0.12633842, -0.62675256, 0.21040101, 9.983841896057129, -1.0439560413360596, 1.3312479257583618, 0.29462930560112, -0.6437367796897888, -2.4016900062561035, -0.604736328125, 0.1650390625, -0.1552734375, 0, 
66, 2063658953, 0.73955184, 0.12708056, -0.62656254, 0.21055396, 9.860085487365723, -0.9708819389343262, 1.524677038192749, 4.06251335144043, 0.4479980766773224, -2.6836729049682617, -0.60302734375, 0.166748046875, -0.158203125, 0, 
67, 2063675620, 0.7397199, 0.12737614, -0.626458, 0.21009633, 9.849161148071289, -0.842792272567749, 1.7042937278747559, 5.951694488525391, 0.37040454149246216, -2.756375312805176, -0.601806640625, 0.16455078125, -0.156982421875, 0, 
68, 2063692287, 0.7396334, 0.12828438, -0.62629074, 0.21034642, 9.796144485473633, -0.7682062387466431, 1.8586546182632446, 5.280244827270508, -0.12226223945617676, -2.825042724609375, -0.6064453125, 0.166259765625, -0.157470703125, 0, 
69, 2063708954, 0.73948467, 0.12902676, -0.6262763, 0.21045846, 9.850272178649902, -0.8240099549293518, 1.7775242328643799, 5.65086030960083, -1.2149641513824463, -2.2226061820983887, -0.605712890625, 0.165771484375, -0.156494140625, 0, 
70, 2063725621, 0.73928124, 0.1300745, -0.6261416, 0.21092828, 9.860185623168945, -0.8487463593482971, 1.733469009399414, 6.871574401855469, -0.815226674079895, -2.145409345626831, -0.6064453125, 0.1640625, -0.156494140625, 0, 
71, 2063742288, 0.7390653, 0.13111587, -0.6260124, 0.2114236, 9.820361137390137, -0.7890661954879761, 1.7679284811019897, 7.1770195960998535, -0.883868932723999, -1.9364103078842163, -0.60693359375, 0.16162109375, -0.15771484375, 0, 
72, 2063758955, 0.7390227, 0.13171512, -0.6259218, 0.21146798, 9.85792350769043, -0.8063715100288391, 1.8125147819519043, 7.080509662628174, -0.4146312177181244, -1.7511276006698608, -0.608154296875, 0.1611328125, -0.159423828125, 0, 
73, 2063775622, 0.7389114, 0.1324863, -0.6257842, 0.21178181, 9.848207473754883, -0.7523853182792664, 1.8785977363586426, 6.586786270141602, -0.29637739062309265, -1.5667929649353027, -0.605224609375, 0.16064453125, -0.15771484375, 0, 
74, 2063792289, 0.73878366, 0.13323048, -0.625648, 0.21216278, 9.912879943847656, -0.7669874429702759, 1.8919645547866821, 5.669365406036377, -0.213494673371315, -1.2881395816802979, -0.605712890625, 0.162841796875, -0.158203125, 0, 
75, 2063808956, 0.7386977, 0.13385212, -0.62551457, 0.21246459, 9.97439193725586, -0.789309561252594, 1.84056556224823, 5.105629920959473, 0.012774336151778698, -1.1449134349822998, -0.607421875, 0.162841796875, -0.159423828125, 0, 
76, 2063825623, 0.7386226, 0.13473345, -0.62521046, 0.21306211, 10.021520614624023, -0.8551762700080872, 1.8275010585784912, 7.475215435028076, 0.8406153321266174, -1.0264931917190552, -0.608154296875, 0.16064453125, -0.15869140625, 0, 
77, 2063842290, 0.7386056, 0.13558574, -0.62480277, 0.21377543, 9.914933204650879, -0.7056370973587036, 1.864749550819397, 8.19835090637207, 1.7422977685928345, -0.4582112431526184, -0.604736328125, 0.161865234375, -0.15771484375, 0, 
78, 2063858957, 0.7386157, 0.1361557, -0.62444925, 0.2144109, 9.95917797088623, -0.6273993253707886, 1.9225566387176514, 4.822993278503418, 2.0170066356658936, 0.09018873423337936, -0.602294921875, 0.16015625, -0.160400390625, 0, 
79, 2063875624, 0.73874027, 0.13622643, -0.6241851, 0.21470577, 9.896210670471191, -0.7411174178123474, 1.9239495992660522, 1.947557806968689, 2.3640332221984863, 0.6795369982719421, -0.607421875, 0.163330078125, -0.159912109375, 0, 
80, 2063892291, 0.73881966, 0.13643359, -0.62385887, 0.21524811, 9.856698036193848, -0.8005712032318115, 1.8812484741210938, 2.1571595668792725, 2.616971492767334, 1.0408040285110474, -0.60693359375, 0.16162109375, -0.16162109375, 0, 
81, 2063908958, 0.7390175, 0.13655548, -0.6234263, 0.21574451, 9.847853660583496, -0.7932177186012268, 1.9143080711364746, 3.201773166656494, 3.627110004425049, 1.1936863660812378, -0.60693359375, 0.163330078125, -0.163330078125, 0, 
82, 2063925625, 0.7392885, 0.13652037, -0.6229676, 0.21616276, 9.768335342407227, -0.7525230646133423, 1.8776633739471436, 3.3188233375549316, 4.1345367431640625, 1.5696040391921997, -0.605224609375, 0.1640625, -0.163330078125, 0, 
83, 2063942292, 0.7395734, 0.13638197, -0.6225019, 0.21661712, 9.75171184539795, -0.74176424741745, 1.9450182914733887, 1.8987014293670654, 4.4800262451171875, 1.9660629034042358, -0.606201171875, 0.1611328125, -0.16552734375, 0, 
84, 2063958959, 0.7398235, 0.13596053, -0.62217087, 0.21697865, 9.731231689453125, -0.6990731954574585, 1.9821887016296387, -0.46346184611320496, 3.992232322692871, 2.811166763305664, -0.608642578125, 0.159912109375, -0.166015625, 0, 
85, 2063975626, 0.74020314, 0.13484967, -0.6220553, 0.21670803, 9.769645690917969, -0.7473613023757935, 1.9567337036132812, -1.671395182609558, 3.4882516860961914, 3.6066973209381104, -0.605224609375, 0.1640625, -0.166015625, 0, 
86, 2063992293, 0.7403387, 0.13418713, -0.6218973, 0.21710993, 9.802472114562988, -0.7240825295448303, 1.9209953546524048, -2.172943353652954, 3.0268514156341553, 4.284550666809082, -0.6005859375, 0.165771484375, -0.166015625, 0, 
87, 2064008960, 0.7404806, 0.1332225, -0.6218811, 0.21726586, 9.867181777954102, -0.8007962703704834, 1.8506858348846436, -2.7942304611206055, 2.391822576522827, 4.872361183166504, -0.6044921875, 0.166748046875, -0.166015625, 0, 
88, 2064025627, 0.7405999, 0.13237025, -0.6218301, 0.21752623, 9.925193786621094, -0.853272557258606, 1.7748327255249023, -2.2153191566467285, 2.4386043548583984, 4.822211265563965, -0.602783203125, 0.170654296875, -0.16650390625, 0, 
89, 2064042294, 0.7408022, 0.13141976, -0.62174296, 0.21766223, 9.89865779876709, -0.8384428024291992, 1.7903852462768555, -2.0697624683380127, 2.928421974182129, 4.681598663330078, -0.60107421875, 0.171875, -0.166015625, 0, 
90, 2064058961, 0.7409462, 0.13045393, -0.62171096, 0.21784543, 9.86463451385498, -0.8255661725997925, 1.791360855102539, -3.578094244003296, 2.5949957370758057, 4.80602502822876, -0.602783203125, 0.17138671875, -0.165283203125, 0, 
91, 2064075628, 0.7410996, 0.12943666, -0.62171304, 0.21792424, 9.861193656921387, -0.9371955990791321, 1.7822433710098267, -3.823092460632324, 2.4121720790863037, 4.6122517585754395, -0.601806640625, 0.173095703125, -0.166015625, 0, 
92, 2064092295, 0.7412541, 0.12864324, -0.6216114, 0.2181584, 9.876192092895508, -0.9342508912086487, 1.7679426670074463, -1.0679343938827515, 2.691594123840332, 4.502142906188965, -0.60107421875, 0.177490234375, -0.169921875, 0, 
93, 2064108962, 0.7414166, 0.12796395, -0.62145644, 0.21844707, 9.814812660217285, -0.8797006607055664, 1.786636233329773, 0.2729353904724121, 2.8460259437561035, 4.315221786499023, -0.598388671875, 0.177978515625, -0.16748046875, 0, 
94, 2064125629, 0.7414401, 0.12761681, -0.6212325, 0.21920535, 9.799281120300293, -0.8726770877838135, 1.7760692834854126, -0.1466839462518692, 2.8914241790771484, 4.569504737854004, -0.60107421875, 0.177490234375, -0.16748046875, 0, 
95, 2064142296, 0.74159896, 0.12694371, -0.6210515, 0.21957193, 9.767345428466797, -0.8776385188102722, 1.8335700035095215, -1.2724006175994873, 3.2052948474884033, 4.275009632110596, -0.6005859375, 0.17919921875, -0.169189453125, 0, 
96, 2064158963, 0.7417744, 0.12620708, -0.62087953, 0.21988991, 9.770566940307617, -0.9406099319458008, 1.8369988203048706, -1.7717328071594238, 3.284271717071533, 4.293642520904541, -0.60009765625, 0.181396484375, -0.16796875, 0, 
97, 2064175630, 0.74190694, 0.12579523, -0.6205943, 0.22048356, 9.798742294311523, -0.9491350650787354, 1.8445618152618408, -0.6608206629753113, 3.604008197784424, 3.8847496509552, -0.599365234375, 0.18212890625, -0.17041015625, 0, 
98, 2064192297, 0.7419705, 0.12555763, -0.62032735, 0.22115521, 9.75236988067627, -0.9341055750846863, 1.8959832191467285, 1.4158891439437866, 2.954367160797119, 3.8205883502960205, -0.599365234375, 0.181396484375, -0.168701171875, 0, 
99, 2064208964, 0.74200726, 0.12538125, -0.6201028, 0.22176075, 9.814542770385742, -0.8910084366798401, 1.9084835052490234, 2.6332480907440186, 2.3645198345184326, 3.5476083755493164, -0.598388671875, 0.185302734375, -0.16748046875, 0, 
100, 2064225631, 0.7418304, 0.1257862, -0.6198148, 0.22292574, 9.83155632019043, -0.8884682059288025, 1.87592613697052, 3.447258234024048, 1.81777822971344, 3.2104945182800293, -0.59765625, 0.185302734375, -0.169677734375, 0, 
101, 2064242298, 0.7418229, 0.1257649, -0.6196004, 0.22355737, 9.86012077331543, -0.880669355392456, 1.8154422044754028, 3.7978708744049072, 1.8989065885543823, 3.1493186950683594, -0.598876953125, 0.188232421875, -0.173095703125, 0, 
102, 2064258965, 0.7418417, 0.12563355, -0.61942774, 0.22404695, 9.821001052856445, -0.8221532702445984, 1.875058889389038, 2.2623374462127686, 1.881195068359375, 2.8362669944763184, -0.5966796875, 0.185302734375, -0.173583984375, 0, 
103, 2064275632, 0.74188715, 0.12535192, -0.61933815, 0.22430171, 9.809621810913086, -0.8564539551734924, 1.8774735927581787, 0.7631879448890686, 1.5675932168960571, 2.4033353328704834, -0.60009765625, 0.18994140625, -0.1708984375, 0, 
104, 2064292299, 0.74189776, 0.12526551, -0.619217, 0.22464912, 9.794953346252441, -0.9387566447257996, 1.8393824100494385, 1.380812644958496, 1.4454847574234009, 1.9042720794677734, -0.595947265625, 0.188720703125, -0.1708984375, 0, 
105, 2064308966, 0.74191475, 0.12527971, -0.6190849, 0.22494921, 9.781903266906738, -0.9332969188690186, 1.853071928024292, 2.528850793838501, 1.2643132209777832, 1.3857944011688232, -0.595458984375, 0.192626953125, -0.171875, 0, 
106, 2064325633, 0.74181914, 0.12566392, -0.61889786, 0.22556405, 9.771293640136719, -0.885579526424408, 1.8509520292282104, 3.454685926437378, 1.008288860321045, 1.0291118621826172, -0.59375, 0.189453125, -0.173095703125, 0, 
107, 2064342300, 0.74180305, 0.12584338, -0.6187775, 0.22584683, 9.739352226257324, -0.8635535836219788, 1.874631643295288, 3.2477738857269287, 0.8155532479286194, 0.6480973958969116, -0.5966796875, 0.1904296875, -0.173095703125, 0, 
108, 2064358967, 0.74177015, 0.12608793, -0.6186613, 0.22613695, 9.756752967834473, -0.928152859210968, 1.8255572319030762, 2.8193883895874023, 0.711219847202301, 0.27928727865219116, -0.59716796875, 0.188232421875, -0.172607421875, 0, 
109, 2064375634, 0.74182063, 0.12628098, -0.61851627, 0.22626038, 9.79158878326416, -0.9525816440582275, 1.8204289674758911, 2.9036412239074707, 1.055275321006775, -0.2802029252052307, -0.594970703125, 0.189453125, -0.171875, 0, 
110, 2064392301, 0.7419077, 0.1264449, -0.61834085, 0.22636248, 9.797154426574707, -0.9152356386184692, 1.8411160707473755, 2.1449801921844482, 1.4552943706512451, -0.4599912464618683, -0.5966796875, 0.187744140625, -0.17431640625, 0, 
111, 2064408968, 0.74206126, 0.12636726, -0.61822224, 0.2262265, 9.824026107788086, -0.9504163265228271, 1.8361554145812988, 0.34539368748664856, 1.571486473083496, -0.5764650106430054, -0.595458984375, 0.188720703125, -0.1708984375, 0, 
112, 2064425635, 0.7422601, 0.12625022, -0.61806667, 0.22606452, 9.86954116821289, -1.0147793292999268, 1.8592153787612915, 0.2114904522895813, 1.987205982208252, -0.6099408268928528, -0.5966796875, 0.188232421875, -0.172607421875, 0, 
113, 2064442302, 0.7424226, 0.12629779, -0.617846, 0.22610773, 9.802556037902832, -1.008615255355835, 1.894180178642273, 0.41421499848365784, 2.252694606781006, -0.6104915738105774, -0.595947265625, 0.188720703125, -0.173095703125, 0, 
114, 2064458969, 0.7425901, 0.12621804, -0.617664, 0.2260997, 9.804121017456055, -0.9841983318328857, 1.9349157810211182, -0.277756929397583, 2.2160558700561523, -0.2611086666584015, -0.595947265625, 0.18994140625, -0.17529296875, 0, 
115, 2064475636, 0.74268144, 0.1261082, -0.61754745, 0.22617906, 9.796798706054688, -1.041373372077942, 1.9401171207427979, -1.7855894565582275, 1.8445945978164673, 0.12920968234539032, -0.594970703125, 0.191650390625, -0.170654296875, 0, 
116, 2064492303, 0.7427704, 0.1259263, -0.61747026, 0.22619891, 9.83587646484375, -1.1471302509307861, 1.9343247413635254, -1.2737195491790771, 1.5856374502182007, 0.4128574728965759, -0.59765625, 0.187744140625, -0.172607421875, 0, 
117, 2064508970, 0.74281234, 0.12582152, -0.6174182, 0.2262617, 9.835577011108398, -1.1256628036499023, 2.023563861846924, 0.3364804685115814, 1.0836541652679443, 0.6040691137313843, -0.5966796875, 0.187744140625, -0.1748046875, 0, 
118, 2064525637, 0.7427421, 0.12565064, -0.61751497, 0.22632366, 9.804705619812012, -1.0464951992034912, 2.0836148262023926, 0.7258062958717346, -0.13317324221134186, 1.3527156114578247, -0.59765625, 0.189208984375, -0.173095703125, 0, 
119, 2064542304, 0.7424843, 0.12542714, -0.61779565, 0.2265278, 9.779969215393066, -1.057852864265442, 2.0680747032165527, 0.050168875604867935, -1.5856437683105469, 2.55964994430542, -0.595947265625, 0.189453125, -0.173583984375, 0, 
120, 2064558971, 0.7421368, 0.12501994, -0.61821145, 0.22675666, 9.739243507385254, -1.0100152492523193, 1.9599084854125977, -1.1962924003601074, -2.3265292644500732, 3.6563220024108887, -0.59375, 0.18994140625, -0.16845703125, 0, 
121, 2064575638, 0.74163157, 0.1247936, -0.61863, 0.227392, 9.748133659362793, -1.0480269193649292, 1.8472931385040283, -2.7506120204925537, -2.516793727874756, 4.299431800842285, -0.59375, 0.1904296875, -0.170654296875, 0, 
122, 2064592305, 0.74133116, 0.12403438, -0.61912596, 0.22743727, 9.738941192626953, -1.1366287469863892, 1.782955527305603, -4.12183952331543, -2.1109604835510254, 4.167436599731445, -0.59375, 0.195556640625, -0.170166015625, 0, 
123, 2064608972, 0.74115425, 0.12311404, -0.6196153, 0.2271813, 9.78553295135498, -1.2511391639709473, 1.747053861618042, -3.948978900909424, -1.7827848196029663, 3.6020100116729736, -0.592529296875, 0.19384765625, -0.170654296875, 0, 
124, 2064625639, 0.7410043, 0.12267204, -0.6198748, 0.22720164, 9.861116409301758, -1.3312345743179321, 1.7146799564361572, -0.5941762328147888, -0.935759961605072, 2.59244704246521, -0.595458984375, 0.197265625, -0.1689453125, 0, 
125, 2064642306, 0.7408806, 0.12282344, -0.61984074, 0.2276159, 9.889577865600586, -1.3153051137924194, 1.6928045749664307, 2.8771450519561768, 0.2650722563266754, 1.4173364639282227, -0.594970703125, 0.195556640625, -0.170654296875, 0, 
126, 2064658973, 0.74076486, 0.12338968, -0.61964446, 0.22821973, 9.869540214538574, -1.3005372285842896, 1.6748634576797485, 5.339474201202393, 0.729084849357605, 0.2991243898868561, -0.59375, 0.195556640625, -0.1689453125, 0, 
127, 2064675640, 0.7407397, 0.12409943, -0.6192798, 0.22890551, 9.777878761291504, -1.2949682474136353, 1.6829380989074707, 7.417842388153076, 1.753157615661621, -0.0317213349044323, -0.59375, 0.19677734375, -0.170166015625, 0, 
128, 2064692307, 0.74077237, 0.12500755, -0.61874473, 0.22975121, 9.748075485229492, -1.2608211040496826, 1.7320616245269775, 8.703229904174805, 2.774143934249878, -0.4465959370136261, -0.592529296875, 0.19384765625, -0.170166015625, 0, 
129, 2064708974, 0.7408556, 0.12577243, -0.6182142, 0.23049298, 9.691397666931152, -1.1704115867614746, 1.769835114479065, 7.458643436431885, 3.1195056438446045, -0.4646272659301758, -0.59326171875, 0.196044921875, -0.173583984375, 0, 
130, 2064725641, 0.74092305, 0.12639064, -0.6177856, 0.23108648, 9.700128555297852, -1.220981240272522, 1.7612054347991943, 7.062466144561768, 2.5346527099609375, -0.25903409719467163, -0.592529296875, 0.19677734375, -0.170166015625, 0, 
131, 2064742308, 0.74089277, 0.12743045, -0.61723256, 0.23208816, 9.73962116241455, -1.3083237409591675, 1.7335789203643799, 9.64632797241211, 2.6104278564453125, -0.269023060798645, -0.59423828125, 0.195068359375, -0.17529296875, 0, 
132, 2064758975, 0.7407977, 0.12875725, -0.6166085, 0.23331471, 9.739095687866211, -1.2418068647384644, 1.7657467126846313, 12.711698532104492, 2.403439521789551, -0.2230226993560791, -0.5947265625, 0.1943359375, -0.177490234375, 0, 
133, 2064775642, 0.74072075, 0.12994574, -0.6160732, 0.23431233, 9.827345848083496, -1.1363236904144287, 1.8455888032913208, 13.482476234436035, 1.8028472661972046, -0.21622255444526672, -0.594970703125, 0.19384765625, -0.1748046875, 0, 
134, 2064792309, 0.7405539, 0.1311787, -0.6156286, 0.2353187, 9.906553268432617, -1.126173973083496, 1.8522586822509766, 12.510010719299316, 1.0215309858322144, -0.39163118600845337, -0.592529296875, 0.192138671875, -0.17919921875, 0, 
135, 2064808976, 0.7403941, 0.13245237, -0.6151969, 0.2362358, 9.990242004394531, -1.2145147323608398, 1.8245463371276855, 12.916705131530762, 0.7931554317474365, -0.8981612324714661, -0.59130859375, 0.192138671875, -0.177490234375, 0, 
136, 2064825643, 0.74011904, 0.13415006, -0.6146605, 0.23753284, 9.964503288269043, -1.231317162513733, 1.8759539127349854, 14.411282539367676, 0.7562217712402344, -1.2232632637023926, -0.593017578125, 0.192138671875, -0.17919921875, 0, 
137, 2064842310, 0.73985285, 0.13601336, -0.6140744, 0.23881441, 9.960484504699707, -1.212073564529419, 1.9337973594665527, 16.57352638244629, 0.6470862627029419, -1.7987943887710571, -0.59423828125, 0.18994140625, -0.181640625, 0, 
138, 2064858977, 0.7395803, 0.13812163, -0.6133867, 0.24021228, 9.895040512084961, -1.2068126201629639, 1.9575392007827759, 19.203189849853516, 0.7815916538238525, -2.1888766288757324, -0.593017578125, 0.188720703125, -0.181640625, 0, 
139, 2064875644, 0.73923254, 0.14053793, -0.61258674, 0.24191643, 9.783562660217285, -1.1053286790847778, 2.007615327835083, 21.052600860595703, 0.9398658275604248, -2.200531244277954, -0.59423828125, 0.187744140625, -0.185546875, 0, 
140, 2064892311, 0.73881274, 0.14301082, -0.6117712, 0.24380563, 9.640694618225098, -1.0063188076019287, 2.1028199195861816, 20.11670684814453, 0.9878894090652466, -1.8608930110931396, -0.593505859375, 0.185302734375, -0.186767578125, 0, 
141, 2064908978, 0.7383064, 0.14548649, -0.61097425, 0.24586469, 9.542805671691895, -1.0064884424209595, 2.1288044452667236, 18.0457763671875, 0.9321561455726624, -1.4717587232589722, -0.593505859375, 0.184326171875, -0.18896484375, 0, 
142, 2064925645, 0.7380513, 0.14708796, -0.61042464, 0.24704035, 9.520133018493652, -1.010880470275879, 2.1249630451202393, 16.867740631103516, 0.6404653787612915, -0.8163672089576721, -0.593017578125, 0.181396484375, -0.18896484375, 0, 
143, 2064942312, 0.73767, 0.14886723, -0.60980576, 0.248637, 9.48451042175293, -1.017837643623352, 2.1495747566223145, 16.30427360534668, 0.8785867691040039, -0.04480946063995361, -0.592529296875, 0.185302734375, -0.191650390625, 0, 
144, 2064958979, 0.7372094, 0.15054072, -0.60925156, 0.25034857, 9.526723861694336, -0.9609115719795227, 2.1475703716278076, 15.531278610229492, 0.5616933703422546, 1.0218770503997803, -0.596923828125, 0.1826171875, -0.193603515625, 0, 
145, 2064975646, 0.7368776, 0.15143122, -0.6089716, 0.25146675, 9.552197456359863, -0.8677566051483154, 2.212437152862549, 11.952794075012207, 0.1377643644809723, 2.108534574508667, -0.59423828125, 0.180419921875, -0.1884765625, 0, 
146, 2064992313, 0.73659384, 0.15171982, -0.60896444, 0.25214037, 9.615720748901367, -0.9248743057250977, 2.191329002380371, 8.179668426513672, -0.6220301985740662, 2.9404351711273193, -0.591796875, 0.181396484375, -0.19189453125, 0, 
147, 2065008980, 0.7362966, 0.15181468, -0.6090548, 0.25273308, 9.742696762084961, -1.031610131263733, 2.1029112339019775, 6.700891017913818, -0.9319182634353638, 3.462421417236328, -0.593505859375, 0.181396484375, -0.1953125, 0, 
148, 2065025647, 0.73584914, 0.15235686, -0.6089951, 0.25385103, 9.775176048278809, -1.0795236825942993, 2.0662403106689453, 7.79755163192749, -0.7074100971221924, 3.5196917057037354, -0.592529296875, 0.184814453125, -0.19287109375, 0, 
149, 2065042314, 0.73531616, 0.15311201, -0.60888314, 0.25520656, 9.808107376098633, -1.1038302183151245, 2.037196159362793, 8.970345497131348, -0.8304024338722229, 3.680053472518921, -0.593505859375, 0.18310546875, -0.194091796875, 0, 
150, 2065058981, 0.7348795, 0.15371886, -0.6087724, 0.25636086, 9.800776481628418, -1.059872031211853, 2.029506206512451, 9.392200469970703, -0.5699723958969116, 3.5633997917175293, -0.589599609375, 0.18310546875, -0.1923828125, 0, 
151, 2065075648, 0.7345084, 0.1542158, -0.6086627, 0.25738454, 9.785490989685059, -1.011652946472168, 2.0303287506103516, 8.98842716217041, -0.31209081411361694, 3.4073288440704346, -0.59130859375, 0.184326171875, -0.19287109375, 0, 
152, 2065092315, 0.7341052, 0.15479395, -0.60851717, 0.25852937, 9.744499206542969, -0.9965833425521851, 2.018066644668579, 7.8462138175964355, -0.08704477548599243, 3.225285768508911, -0.589599609375, 0.184326171875, -0.19580078125, 0, 
153, 2065108982, 0.73386043, 0.15502708, -0.60843074, 0.2592864, 9.768346786499023, -1.0681792497634888, 1.9607466459274292, 7.315788269042969, 0.199170783162117, 3.1625092029571533, -0.593017578125, 0.184326171875, -0.194091796875, 0, 
154, 2065125649, 0.7335452, 0.1555458, -0.60823184, 0.26033318, 9.808045387268066, -1.1387590169906616, 1.9578825235366821, 7.912013530731201, 0.48831260204315186, 2.9216091632843018, -0.591796875, 0.1865234375, -0.194580078125, 0, 
155, 2065142316, 0.7332523, 0.1561747, -0.6079408, 0.26145908, 9.84924030303955, -1.126076102256775, 1.9649502038955688, 8.658125877380371, 0.9652853608131409, 2.649564266204834, -0.59130859375, 0.18603515625, -0.19677734375, 0, 
156, 2065158983, 0.7330428, 0.15658696, -0.6077116, 0.26233125, 9.87559986114502, -1.078238844871521, 1.988870620727539, 8.175082206726074, 0.9540412425994873, 2.5890157222747803, -0.590087890625, 0.188720703125, -0.195556640625, 0, 
157, 2065175650, 0.73280203, 0.15706481, -0.6074391, 0.26334795, 9.875163078308105, -1.1111087799072266, 1.9603317975997925, 7.663007736206055, 1.2267652750015259, 2.7078969478607178, -0.591796875, 0.1865234375, -0.197265625, 0, 
158, 2065192317, 0.7325572, 0.1576012, -0.607123, 0.2644354, 9.842450141906738, -1.1495312452316284, 1.9497995376586914, 8.324443817138672, 1.4091278314590454, 2.768522024154663, -0.591796875, 0.1865234375, -0.198974609375, 0, 
159, 2065208984, 0.73232055, 0.1580366, -0.60684377, 0.26546943, 9.795037269592285, -1.091416358947754, 2.0173609256744385, 7.36808967590332, 1.405490756034851, 2.9021048545837402, -0.59130859375, 0.188232421875, -0.195068359375, 0, 
160, 2065225651, 0.73209196, 0.15826696, -0.60669, 0.26631305, 9.789750099182129, -1.0863028764724731, 2.0035781860351562, 5.724125385284424, 0.9367910623550415, 3.008077383041382, -0.59130859375, 0.1865234375, -0.198974609375, 0, 
161, 2065242318, 0.73179823, 0.1585424, -0.6065627, 0.26724464, 9.798582077026367, -1.1319565773010254, 1.9454915523529053, 5.138797760009766, 0.664092481136322, 3.140277147293091, -0.589599609375, 0.188720703125, -0.19677734375, 0, 
162, 2065258985, 0.7313885, 0.15906806, -0.6063725, 0.26848236, 9.794232368469238, -1.1559779644012451, 1.898822546005249, 5.460443019866943, 0.6127647757530212, 3.2345070838928223, -0.5888671875, 0.187744140625, -0.2001953125, 0, 
163, 2065275652, 0.73111284, 0.1593994, -0.60618126, 0.26946625, 9.820429801940918, -1.142424464225769, 1.92270827293396, 5.984426975250244, 1.0114392042160034, 3.1033694744110107, -0.590087890625, 0.18701171875, -0.197998046875, 0, 
164, 2065292319, 0.7309675, 0.15942568, -0.6060778, 0.27007744, 9.783792495727539, -1.102176547050476, 1.974185585975647, 4.601271152496338, 1.0865548849105835, 2.7921814918518066, -0.59130859375, 0.192626953125, -0.19775390625, 0, 
165, 2065308986, 0.7308132, 0.1593536, -0.60605115, 0.27059686, 9.781729698181152, -1.1292556524276733, 1.9509878158569336, 2.959566354751587, 0.8127101063728333, 2.6989829540252686, -0.590087890625, 0.19091796875, -0.20068359375, 0, 
166, 2065325653, 0.7305549, 0.15960045, -0.6059055, 0.2714743, 9.789346694946289, -1.1703904867172241, 1.954380989074707, 3.4908382892608643, 1.0675565004348755, 2.5863256454467773, -0.587890625, 0.1904296875, -0.198974609375, 0, 
167, 2065342320, 0.73039275, 0.15972304, -0.6057753, 0.27212825, 9.752687454223633, -1.1543185710906982, 1.971874475479126, 4.577073574066162, 1.1112136840820312, 2.4244282245635986, -0.587158203125, 0.192138671875, -0.2001953125, 0, 
168, 2065358987, 0.7302351, 0.15983196, -0.6056496, 0.2727666, 9.715498924255371, -1.06276535987854, 2.0047976970672607, 3.9867773056030273, 1.1657814979553223, 2.2950711250305176, -0.587890625, 0.19091796875, -0.199462890625, 0, 
169, 2065375654, 0.7301009, 0.1597559, -0.6056323, 0.27320763, 9.675613403320312, -1.1052221059799194, 2.0356671810150146, 2.3773770332336426, 0.8168849945068359, 2.232114553451538, -0.587158203125, 0.196533203125, -0.202392578125, 0, 
170, 2065392321, 0.7298066, 0.16005498, -0.6055094, 0.27409023, 9.68637466430664, -1.1535109281539917, 1.9781451225280762, 2.4263100624084473, 0.869647204875946, 2.1726419925689697, -0.583740234375, 0.19287109375, -0.202880859375, 0, 
171, 2065408988, 0.72973484, 0.15996012, -0.6054825, 0.2743959, 9.695192337036133, -1.146629810333252, 1.9943411350250244, 3.123910665512085, 0.8704411387443542, 1.8174066543579102, -0.587158203125, 0.191650390625, -0.202392578125, 0, 
172, 2065425655, 0.7296472, 0.15987708, -0.605478, 0.27468696, 9.725434303283691, -1.100888967514038, 2.012221574783325, 3.3373801708221436, 0.6331140398979187, 1.7982487678527832, -0.58837890625, 0.193359375, -0.198974609375, 0, 
173, 2065442322, 0.7295528, 0.15980153, -0.60546523, 0.27501008, 9.75748062133789, -1.0740801095962524, 2.0076303482055664, 2.3738298416137695, 0.7889928817749023, 1.6762551069259644, -0.586669921875, 0.192626953125, -0.202392578125, 0, 
174, 2065458989, 0.729416, 0.15982158, -0.60544, 0.27541605, 9.788553237915039, -1.1188677549362183, 2.0081989765167236, 1.8061628341674805, 0.7402134537696838, 1.437160611152649, -0.58837890625, 0.195556640625, -0.20068359375, 0, 
175, 2065475656, 0.72932714, 0.1597851, -0.6054359, 0.27568138, 9.800347328186035, -1.159056305885315, 2.02307391166687, 1.5552927255630493, 0.717322051525116, 1.056626319885254, -0.586669921875, 0.192626953125, -0.202880859375, 0, 
176, 2065492323, 0.7292857, 0.1597884, -0.6053831, 0.2759051, 9.72577953338623, -1.1763912439346313, 2.0358364582061768, 2.5932729244232178, 0.9421632289886475, 0.7513101696968079, -0.590576171875, 0.196533203125, -0.199462890625, 0, 
177, 2065508990, 0.72923005, 0.15987769, -0.6053561, 0.27605954, 9.752108573913574, -1.156275987625122, 2.0296621322631836, 2.719268560409546, 0.5148216485977173, 0.10362258553504944, -0.587890625, 0.192138671875, -0.2041015625, 0, 
178, 2065525657, 0.72924954, 0.15989673, -0.6053406, 0.27603146, 9.814818382263184, -1.195814609527588, 2.0046074390411377, 3.2249650955200195, 0.527230978012085, -0.27196842432022095, -0.5849609375, 0.192138671875, -0.201171875, 0, 
179, 2065542324, 0.7291816, 0.16030005, -0.605168, 0.27635494, 9.8004732131958, -1.222345232963562, 1.9782042503356934, 4.729564189910889, 0.8508923053741455, -0.6247385144233704, -0.586181640625, 0.197265625, -0.201171875, 0, 
180, 2065558991, 0.72918385, 0.16065708, -0.60492724, 0.27666867, 9.720301628112793, -1.1675478219985962, 2.039189338684082, 4.403470516204834, 1.5795161724090576, -0.7173733115196228, -0.586669921875, 0.192626953125, -0.20361328125, 0, 
181, 2065575658, 0.7292586, 0.16065083, -0.6048206, 0.27670866, 9.658583641052246, -1.0983541011810303, 2.0485990047454834, 1.7798714637756348, 1.530813455581665, -0.42458173632621765, -0.58447265625, 0.19384765625, -0.203369140625, 0, 
182, 2065592325, 0.72928935, 0.16060326, -0.6047381, 0.27683544, 9.664413452148438, -1.1620068550109863, 2.0652594566345215, 0.07336758077144623, 1.5946084260940552, -0.12048215419054031, -0.586181640625, 0.191650390625, -0.202880859375, 0, 
183, 2065608992, 0.72936726, 0.16029175, -0.60477203, 0.2767367, 9.655174255371094, -1.177344799041748, 2.0740041732788086, -0.8529605865478516, 1.2956185340881348, 0.2402087152004242, -0.586669921875, 0.192138671875, -0.20458984375, 0, 
184, 2065625659, 0.7292842, 0.16023803, -0.6047707, 0.27698916, 9.683403015136719, -1.2191201448440552, 2.037745714187622, -1.3252267837524414, 1.0603466033935547, 0.4193119704723358, -0.586669921875, 0.192138671875, -0.2001953125, 0, 
185, 2065642326, 0.72938675, 0.15974548, -0.60491455, 0.27668962, 9.719101905822754, -1.241977334022522, 1.9808158874511719, -1.3498661518096924, 0.8167697787284851, 0.3828265964984894, -0.5849609375, 0.19384765625, -0.205810546875, 0, 
186, 2065658993, 0.72918075, 0.15998931, -0.6048642, 0.27720153, 9.747074127197266, -1.278752326965332, 1.9891141653060913, -0.6412267088890076, 0.7457841634750366, 0.17912881076335907, -0.5849609375, 0.193359375, -0.202392578125, 0, 
187, 2065675660, 0.7291701, 0.15985632, -0.60490465, 0.2772177, 9.767455101013184, -1.2513470649719238, 2.0051257610321045, -0.18932907283306122, 0.7772685289382935, 0.049381282180547714, -0.58837890625, 0.195556640625, -0.201171875, 0, 
188, 2065692327, 0.7292333, 0.15948853, -0.60502, 0.2770118, 9.766023635864258, -1.188252329826355, 2.0163540840148926, -1.3095647096633911, 0.7923032641410828, 0.11731897294521332, -0.58447265625, 0.19384765625, -0.202880859375, 0, 
189, 2065708994, 0.7292486, 0.15909684, -0.6051957, 0.27681231, 9.741486549377441, -1.230386734008789, 2.017914295196533, -2.5882909297943115, 0.4658757746219635, 0.1524403691291809, -0.58544921875, 0.195068359375, -0.202392578125, 0, 
190, 2065725661, 0.72923064, 0.15872565, -0.6054029, 0.27661937, 9.766862869262695, -1.2802265882492065, 2.003422737121582, -2.4430160522460938, 0.1387632191181183, 0.20301266014575958, -0.586181640625, 0.19775390625, -0.199951171875, 0, 
191, 2065742328, 0.7292677, 0.15830618, -0.6056346, 0.27625477, 9.70802116394043, -1.2704308032989502, 2.0548465251922607, -1.5574188232421875, -0.05464470013976097, -0.10754773020744324, -0.58544921875, 0.195068359375, -0.20166015625, 0, 
192, 2065758995, 0.7291699, 0.15811571, -0.6058547, 0.2761396, 9.718297958374023, -1.2301781177520752, 2.0303430557250977, -1.320642113685608, -0.4918663203716278, -0.04489905759692192, -0.58447265625, 0.195068359375, -0.20166015625, 0, 
193, 2065775662, 0.7290697, 0.15783899, -0.606148, 0.27591857, 9.751607894897461, -1.266986608505249, 2.011822462081909, -1.833209753036499, -0.8717730045318604, -0.026323450729250908, -0.58837890625, 0.195556640625, -0.199462890625, 0, 
194, 2065792329, 0.72895026, 0.15762605, -0.60641974, 0.27575886, 9.748527526855469, -1.3170517683029175, 1.9916009902954102, -1.67246413230896, -0.8438294529914856, -0.08137793838977814, -0.587158203125, 0.1943359375, -0.2001953125, 0, 
195, 2065808996, 0.7288897, 0.15748668, -0.6065874, 0.27563003, 9.779450416564941, -1.3516347408294678, 1.9794093370437622, -0.5926714539527893, -0.2252701073884964, -0.3677279055118561, -0.587158203125, 0.1943359375, -0.19775390625, 0, 
196, 2065825663, 0.7288209, 0.15758798, -0.60659355, 0.2757402, 9.766524314880371, -1.3141478300094604, 1.9492257833480835, 0.24919235706329346, 0.5369766354560852, -0.7110597491264343, -0.582763671875, 0.19775390625, -0.1982421875, 0, 
197, 2065842330, 0.72877365, 0.15766385, -0.6065778, 0.27585638, 9.756292343139648, -1.285207986831665, 2.0121407508850098, -0.04325984790921211, 0.8190172910690308, -0.6926569938659668, -0.58544921875, 0.195068359375, -0.2001953125, 0, 
198, 2065858997, 0.7287467, 0.15760574, -0.60660595, 0.2758989, 9.795214653015137, -1.2589318752288818, 2.0260517597198486, -0.9404151439666748, 0.8426066637039185, -0.4588451087474823, -0.587158203125, 0.195556640625, -0.199462890625, 0, 
199, 2065875664, 0.72881657, 0.1573999, -0.6066292, 0.2757807, 9.814105987548828, -1.3481110334396362, 2.0093460083007812, -1.1438950300216675, 1.2385531663894653, -0.5547006130218506, -0.583740234375, 0.195068359375, -0.198974609375, 0, 
200, 2065892331, 0.72887325, 0.15726398, -0.60661566, 0.2757382, 9.806188583374023, -1.3687041997909546, 1.991220235824585, -0.5650609731674194, 1.3384299278259277, -0.5267699956893921, -0.583251953125, 0.19775390625, -0.1982421875, 0, 
201, 2065908998, 0.7288977, 0.15727483, -0.6065278, 0.2758606, 9.798596382141113, -1.3488422632217407, 2.025728702545166, -0.31762948632240295, 1.6276614665985107, -0.6390945315361023, -0.58544921875, 0.197265625, -0.199462890625, 0, 
202, 2065925665, 0.728973, 0.15716074, -0.6064887, 0.27581254, 9.802102088928223, -1.3623465299606323, 2.0260446071624756, 0.05789750814437866, 1.4495121240615845, -0.6151209473609924, -0.58447265625, 0.195068359375, -0.201171875, 0, 
203, 2065942332, 0.7291566, 0.15687186, -0.606453, 0.27557036, 9.79263973236084, -1.3585036993026733, 2.0109434127807617, 0.1046534851193428, 1.8086919784545898, -0.6591363549232483, -0.5849609375, 0.191650390625, -0.198486328125, 0, 
204, 2065958999, 0.7292795, 0.15672505, -0.6063702, 0.27551064, 9.787981986999512, -1.4023653268814087, 2.0040688514709473, 0.5039874315261841, 1.8557103872299194, -0.5520817637443542, -0.58447265625, 0.192138671875, -0.20068359375, 0, 
205, 2065975666, 0.72935355, 0.15683542, -0.6061527, 0.27573088, 9.79799747467041, -1.4448498487472534, 2.0092055797576904, 1.8662755489349365, 2.2980546951293945, -0.5940097570419312, -0.586669921875, 0.195556640625, -0.199462890625, 0, 
206, 2065992333, 0.7295607, 0.15683816, -0.60587144, 0.2757995, 9.770060539245605, -1.3851436376571655, 2.016953468322754, 2.9730517864227295, 2.965303897857666, -0.7276055216789246, -0.587158203125, 0.195068359375, -0.198486328125, 0, 
207, 2066009000, 0.72987366, 0.15659851, -0.60561323, 0.27567464, 9.72895336151123, -1.3330113887786865, 2.0154716968536377, 2.4136059284210205, 3.3713290691375732, -0.5121386647224426, -0.587890625, 0.193359375, -0.198486328125, 0, 
208, 2066025667, 0.72998375, 0.15659273, -0.605345, 0.27597523, 9.691205024719238, -1.3304178714752197, 2.051978588104248, 0.7467958927154541, 3.1184163093566895, -0.06387807428836823, -0.583740234375, 0.1943359375, -0.202392578125, 0, 
209, 2066042334, 0.7300888, 0.15654358, -0.6050956, 0.27627206, 9.683326721191406, -1.414228916168213, 2.0391221046447754, 1.1814178228378296, 3.0079751014709473, 0.27550941705703735, -0.58544921875, 0.193359375, -0.202392578125, 0, 
210, 2066059001, 0.73023003, 0.15650392, -0.60481703, 0.27653065, 9.69149398803711, -1.4438421726226807, 2.0428411960601807, 3.4083142280578613, 2.9964234828948975, 0.45411959290504456, -0.583740234375, 0.195556640625, -0.20458984375, 0, 
211, 2066075668, 0.7302947, 0.15655318, -0.60456896, 0.27687436, 9.646642684936523, -1.355405330657959, 2.077364683151245, 4.324467182159424, 2.4392828941345215, 0.6989513635635376, -0.58203125, 0.194580078125, -0.2001953125, 0, 
212, 2066092335, 0.7302006, 0.156747, -0.60435355, 0.2774828, 9.68073558807373, -1.3151767253875732, 2.0404655933380127, 2.969632625579834, 1.9807902574539185, 1.01626718044281, -0.582763671875, 0.197265625, -0.202392578125, 0, 
213, 2066109002, 0.73022527, 0.15656495, -0.60427374, 0.27769434, 9.7366361618042, -1.386644721031189, 1.9977844953536987, 1.8025449514389038, 1.7852818965911865, 1.1220667362213135, -0.586181640625, 0.195068359375, -0.2041015625, 0, 
214, 2066125669, 0.7301378, 0.1566856, -0.6041017, 0.27822953, 9.778970718383789, -1.4314826726913452, 1.9686583280563354, 2.7573797702789307, 1.801296353340149, 1.096024990081787, -0.582763671875, 0.19677734375, -0.203369140625, 0, 
215, 2066142336, 0.7300549, 0.15690517, -0.6038741, 0.27881712, 9.782422065734863, -1.4498348236083984, 1.9865320920944214, 4.194483757019043, 1.9053356647491455, 1.0099153518676758, -0.58203125, 0.195068359375, -0.20458984375, 0, 
216, 2066159003, 0.7299322, 0.15730484, -0.6035956, 0.27951533, 9.76208782196045, -1.405987024307251, 2.0027225017547607, 5.313194751739502, 1.8184186220169067, 0.7402903437614441, -0.582763671875, 0.19677734375, -0.2041015625, 0, 
217, 2066175670, 0.72982895, 0.1577034, -0.60330546, 0.28018606, 9.73845386505127, -1.367628574371338, 2.016798734664917, 5.363562107086182, 1.9162079095840454, 0.5866524577140808, -0.583740234375, 0.193359375, -0.20751953125, 0, 
218, 2066192337, 0.7294854, 0.1585077, -0.60295165, 0.28138626, 9.728307723999023, -1.344698429107666, 2.01493501663208, 4.4123454093933105, 1.6538569927215576, 0.6753237247467041, -0.583251953125, 0.196044921875, -0.208984375, 0, 
219, 2066209004, 0.72937334, 0.15869218, -0.60279626, 0.28190514, 9.73095703125, -1.361007809638977, 2.0449013710021973, 3.227571725845337, 1.4822455644607544, 0.8203107714653015, -0.58203125, 0.19775390625, -0.20458984375, 0, 
220, 2066225671, 0.72929436, 0.15876044, -0.60268784, 0.2823025, 9.720266342163086, -1.4148489236831665, 2.0080924034118652, 3.1786131858825684, 1.3481372594833374, 0.9429316520690918, -0.58154296875, 0.196044921875, -0.206787109375, 0, 
221, 2066242338, 0.72917277, 0.15899146, -0.6025232, 0.28283715, 9.725565910339355, -1.4050408601760864, 2.033379316329956, 4.546894073486328, 1.3135087490081787, 0.9294847846031189, -0.58154296875, 0.199462890625, -0.206298828125, 0, 
222, 2066259005, 0.7288824, 0.15958337, -0.6022732, 0.28378356, 9.745290756225586, -1.3907028436660767, 2.084536075592041, 5.3825602531433105, 1.131799578666687, 1.031666874885559, -0.583251953125, 0.19775390625, -0.206298828125, 0, 
223, 2066275672, 0.7287423, 0.15982084, -0.6021389, 0.28429356, 9.781378746032715, -1.3658987283706665, 2.1137468814849854, 5.1685028076171875, 0.9686340689659119, 1.0025708675384521, -0.580810546875, 0.197265625, -0.207275390625, 0, 
224, 2066292339, 0.72856796, 0.16004156, -0.60203373, 0.2848387, 9.802577018737793, -1.3656457662582397, 2.1275012493133545, 4.4572248458862305, 0.8372024297714233, 1.1688612699508667, -0.5849609375, 0.199951171875, -0.20849609375, 0, 
225, 2066309006, 0.7283722, 0.1603583, -0.60185546, 0.2855369, 9.766329765319824, -1.4241175651550293, 2.0459117889404297, 4.495119571685791, 1.2356081008911133, 1.2103410959243774, -0.580322265625, 0.195556640625, -0.20849609375, 0, 
226, 2066325673, 0.7282385, 0.16058415, -0.601649, 0.28618518, 9.694465637207031, -1.3680652379989624, 2.093461275100708, 4.771492958068848, 1.6543755531311035, 1.3942402601242065, -0.58251953125, 0.198974609375, -0.208984375, 0, 
227, 2066342340, 0.72808063, 0.16071825, -0.6015081, 0.2868077, 9.715594291687012, -1.298583745956421, 2.1450376510620117, 3.2440600395202637, 1.4757335186004639, 1.5628039836883545, -0.58154296875, 0.198486328125, -0.210205078125, 0, 
228, 2066359007, 0.7279577, 0.16061175, -0.60149336, 0.28720993, 9.67204761505127, -1.3746241331100464, 2.1495139598846436, 2.2530789375305176, 1.0581824779510498, 1.850588083267212, -0.58154296875, 0.198974609375, -0.210205078125, 0, 
229, 2066375674, 0.7276899, 0.1608648, -0.60136145, 0.28802174, 9.663334846496582, -1.423792839050293, 2.0947442054748535, 3.5604467391967773, 1.0810351371765137, 1.9717296361923218, -0.5791015625, 0.19775390625, -0.210205078125, 0, 
230, 2066392341, 0.72748476, 0.16107175, -0.60118496, 0.28879192, 9.6412992477417, -1.3573570251464844, 2.124091863632202, 5.050594329833984, 1.3958921432495117, 2.2058043479919434, -0.58154296875, 0.199951171875, -0.21240234375, 0, 
231, 2066409008, 0.7273403, 0.16096482, -0.60115314, 0.2892817, 9.62155532836914, -1.2593976259231567, 2.1640872955322266, 3.527611255645752, 1.054295539855957, 2.4995431900024414, -0.58203125, 0.20166015625, -0.213623046875, 0, 
232, 2066425675, 0.7271674, 0.16065668, -0.6012497, 0.28968602, 9.63841438293457, -1.3334988355636597, 2.1441712379455566, 1.6589665412902832, 0.6299891471862793, 3.039196491241455, -0.580322265625, 0.20166015625, -0.2119140625, 0, 
233, 2066442342, 0.7269889, 0.16044867, -0.6013003, 0.2901444, 9.67404556274414, -1.4090734720230103, 2.118757724761963, 2.8249270915985107, 0.6522914171218872, 2.9359962940216064, -0.578125, 0.201904296875, -0.2119140625, 0, 
234, 2066459009, 0.72679394, 0.16037208, -0.60130143, 0.2906723, 9.664448738098145, -1.3358454704284668, 2.1522889137268066, 3.827645778656006, 0.6550257205963135, 2.6997389793395996, -0.580322265625, 0.203369140625, -0.213623046875, 0, 
235, 2066475676, 0.7265378, 0.1603362, -0.6013557, 0.29121977, 9.653682708740234, -1.3006742000579834, 2.164363145828247, 2.8103089332580566, 0.22386139631271362, 2.5194380283355713, -0.5791015625, 0.2041015625, -0.211181640625, 0, 
236, 2066492343, 0.7262349, 0.16031095, -0.6014848, 0.291722, 9.690726280212402, -1.3753938674926758, 2.1051971912384033, 2.33772873878479, -0.3881092667579651, 2.3730998039245605, -0.5791015625, 0.202392578125, -0.214111328125, 0, 
237, 2066509010, 0.7257154, 0.16096121, -0.6013815, 0.29286733, 9.739727973937988, -1.4154610633850098, 2.065608501434326, 4.989706993103027, -0.27180197834968567, 2.0241401195526123, -0.579833984375, 0.205810546875, -0.212890625, 0, 
238, 2066525677, 0.725318, 0.16156428, -0.60124665, 0.29379556, 9.73634147644043, -1.3311073780059814, 2.102316379547119, 6.9409403800964355, -0.1361251175403595, 1.581763744354248, -0.58203125, 0.203369140625, -0.214111328125, 0, 
239, 2066542344, 0.7249539, 0.16199332, -0.60122144, 0.29450837, 9.696657180786133, -1.2434169054031372, 2.125234365463257, 6.0695319175720215, -0.5709391236305237, 1.547532320022583, -0.577880859375, 0.202880859375, -0.214599609375, 0, 
240, 2066559011, 0.72450036, 0.16243853, -0.601297, 0.2952237, 9.686454772949219, -1.2872220277786255, 2.1733455657958984, 4.035933494567871, -1.2268290519714355, 1.3274421691894531, -0.5791015625, 0.206298828125, -0.21240234375, 0, 
241, 2066575678, 0.7240432, 0.16284758, -0.6014448, 0.29581863, 9.6933012008667, -1.3555254936218262, 2.1121513843536377, 4.057013511657715, -1.7684353590011597, 1.163354516029358, -0.5791015625, 0.207275390625, -0.211669921875, 0, 
242, 2066592345, 0.72376484, 0.16299653, -0.601666, 0.29596764, 9.7015962600708, -1.358202576637268, 2.1066956520080566, 5.366776466369629, -1.9568743705749512, 0.8376569747924805, -0.5791015625, 0.20458984375, -0.211181640625, 0, 
243, 2066609012, 0.72318953, 0.16369961, -0.6018134, 0.29668543, 9.679059028625488, -1.2993439435958862, 2.1053194999694824, 6.2412519454956055, -2.726158380508423, 0.8196064233779907, -0.5791015625, 0.2080078125, -0.212890625, 0, 
244, 2066625679, 0.72262514, 0.16426824, -0.602063, 0.2972395, 9.692014694213867, -1.2697935104370117, 2.125051259994507, 5.025212287902832, -3.143402338027954, 0.7383373975753784, -0.5791015625, 0.206298828125, -0.211181640625, 0, 
245, 2066642346, 0.7220373, 0.16478667, -0.60236895, 0.29776114, 9.684416770935059, -1.3018052577972412, 2.009248971939087, 3.5199787616729736, -3.328376531600952, 0.6688628792762756, -0.580322265625, 0.20166015625, -0.21240234375, 0, 
246, 2066659013, 0.7216608, 0.16500129, -0.60269094, 0.29790312, 9.652606964111328, -1.3980799913406372, 1.9573417901992798, 3.8159213066101074, -2.7892680168151855, 0.4542284905910492, -0.580322265625, 0.206787109375, -0.211669921875, 0, 
247, 2066675680, 0.721095, 0.1657295, -0.6028096, 0.29862815, 9.626585960388184, -1.3666037321090698, 1.9808748960494995, 4.053018093109131, -2.288450241088867, 0.17344921827316284, -0.580810546875, 0.202880859375, -0.20849609375, 0, 
248, 2066692347, 0.72078115, 0.1661189, -0.6029269, 0.29893255, 9.641036033630371, -1.3094099760055542, 2.0241403579711914, 3.656149387359619, -1.4275047779083252, -0.2848837077617645, -0.58154296875, 0.206298828125, -0.20947265625, 0, 
249, 2066709014, 0.72050965, 0.16647264, -0.603029, 0.29918396, 9.584977149963379, -1.319143533706665, 2.000262975692749, 2.575190305709839, -1.0832570791244507, -0.6493011116981506, -0.579833984375, 0.205810546875, -0.211181640625, 0, 
250, 2066725681, 0.72035855, 0.16662015, -0.60320175, 0.29911733, 9.64125919342041, -1.3951358795166016, 1.967613697052002, 2.217944622039795, -1.150067925453186, -1.0305205583572388, -0.583740234375, 0.206787109375, -0.208984375, 0, 
251, 2066742348, 0.720246, 0.16692664, -0.6032246, 0.2991716, 9.654095649719238, -1.4580644369125366, 2.0094668865203857, 3.704326629638672, -0.42590078711509705, -1.357729434967041, -0.58154296875, 0.20849609375, -0.207275390625, 0, 
252, 2066759015, 0.7199284, 0.1677621, -0.60305625, 0.29980776, 9.646470069885254, -1.3266557455062866, 2.045499563217163, 4.543270587921143, -0.15802398324012756, -1.5399062633514404, -0.579833984375, 0.206298828125, -0.211181640625, 0, 
253, 2066775682, 0.719827, 0.16780394, -0.60318977, 0.299759, 9.617448806762695, -1.146751880645752, 2.1121065616607666, 0.4468647539615631, -0.3438056707382202, -0.9489952325820923, -0.58251953125, 0.203369140625, -0.20849609375, 0, 
254, 2066792349, 0.71977526, 0.1670733, -0.6037193, 0.29922506, 9.619187355041504, -1.1839344501495361, 2.097752332687378, -6.007567882537842, -1.1004176139831543, 0.2731338143348694, -0.58251953125, 0.207275390625, -0.211181640625, 0, 
255, 2066809016, 0.7195605, 0.1663336, -0.60434556, 0.29888907, 9.641895294189453, -1.344199538230896, 2.08390736579895, -8.321100234985352, -1.630728840827942, 1.0698680877685547, -0.583251953125, 0.207275390625, -0.207763671875, 0, 
256, 2066825683, 0.7194294, 0.16543159, -0.60503584, 0.2983083, 9.636455535888672, -1.355911374092102, 2.095752000808716, -7.381523609161377, -1.9186795949935913, 1.0929709672927856, -0.582763671875, 0.210693359375, -0.20654296875, 0, 
257, 2066842350, 0.7192891, 0.16452779, -0.6058178, 0.29755798, 9.623501777648926, -1.349981665611267, 2.0884766578674316, -6.669105529785156, -2.8035600185394287, 0.7348924279212952, -0.580322265625, 0.208984375, -0.2060546875, 0, 
258, 2066859017, 0.7189745, 0.1641226, -0.6064807, 0.29719183, 9.682276725769043, -1.453097939491272, 1.9628880023956299, -4.676040172576904, -3.2129149436950684, 0.2374809831380844, -0.580322265625, 0.210693359375, -0.203369140625, 0, 
259, 2066875684, 0.7187792, 0.16391927, -0.6069874, 0.29674172, 9.712930679321289, -1.4561392068862915, 1.9355621337890625, -0.6379227042198181, -2.8549964427948, -0.7524499297142029, -0.583740234375, 0.20849609375, -0.203369140625, 0, 
260, 2066892351, 0.7185521, 0.16419108, -0.60722375, 0.29665747, 9.73097038269043, -1.3515340089797974, 1.9241291284561157, 1.2192221879959106, -1.8759765625, -1.7261677980422974, -0.58154296875, 0.208984375, -0.20166015625, 0, 
261, 2066909018, 0.71840805, 0.16429916, -0.60750973, 0.29636118, 9.69566822052002, -1.294402003288269, 1.9306087493896484, -0.559528648853302, -1.6918147802352905, -2.1773033142089844, -0.5810546875, 0.206298828125, -0.199951171875, 0, 
262, 2066925685, 0.7184839, 0.16411571, -0.6077664, 0.295752, 9.762231826782227, -1.3735368251800537, 1.8627420663833618, -1.0800683498382568, -0.6898716688156128, -2.4698519706726074, -0.58203125, 0.2080078125, -0.199951171875, 0, 
263, 2066942352, 0.71850467, 0.16423473, -0.60785544, 0.29545256, 9.74242877960205, -1.3332476615905762, 1.9323116540908813, -0.6698424816131592, -0.0030927336774766445, -2.8665285110473633, -0.58447265625, 0.207275390625, -0.199951171875, 0, 
264, 2066959019, 0.7184661, 0.16428761, -0.6080253, 0.29516733, 9.723567962646484, -1.2271136045455933, 1.9775607585906982, -2.6190459728240967, -0.3008275628089905, -2.639754056930542, -0.5849609375, 0.206298828125, -0.200439453125, 0, 
265, 2066975686, 0.7185491, 0.16385579, -0.60844165, 0.29434606, 9.758420944213867, -1.3483227491378784, 1.9617751836776733, -4.689845561981201, -1.0323519706726074, -2.5468950271606445, -0.586181640625, 0.20556640625, -0.201171875, 0, 
266, 2066992353, 0.7184522, 0.1639296, -0.6086977, 0.29401177, 9.82509708404541, -1.459424376487732, 1.889660358428955, -2.620326519012451, -1.0945395231246948, -2.697446346282959, -0.58447265625, 0.20849609375, -0.19775390625, 0, 
267, 2067009020, 0.7183892, 0.16423121, -0.6087999, 0.29378596, 9.844874382019043, -1.3924187421798706, 1.9057799577713013, -0.3746049404144287, -0.5771117210388184, -3.276536464691162, -0.585693359375, 0.206298828125, -0.196533203125, 0, 
268, 2067025687, 0.7185266, 0.16416812, -0.608984, 0.29310268, 9.850385665893555, -1.321374535560608, 1.9029371738433838, -0.8136258125305176, -0.3732410669326782, -3.5557339191436768, -0.585693359375, 0.20458984375, -0.196533203125, 0, 
269, 2067042354, 0.7188673, 0.16382241, -0.60919416, 0.292022, 9.860647201538086, -1.412490963935852, 1.8777216672897339, -1.5748608112335205, 0.15956711769104004, -4.176150798797607, -0.58447265625, 0.2041015625, -0.19873046875, 0, 
270, 2067059021, 0.71905077, 0.16410972, -0.60911036, 0.29158387, 9.821364402770996, -1.4620839357376099, 1.8472425937652588, -0.4899965524673462, 1.0835195779800415, -4.809334754943848, -0.5849609375, 0.199462890625, -0.196044921875, 0, 
271, 2067075688, 0.719163, 0.16488433, -0.60877514, 0.29156977, 9.818257331848145, -1.4477686882019043, 1.8632798194885254, 1.4093517065048218, 1.8763993978500366, -5.495724201202393, -0.586181640625, 0.199951171875, -0.196044921875, 0, 
272, 2067092355, 0.71963936, 0.16515838, -0.6084523, 0.2909126, 9.75973892211914, -1.3561344146728516, 1.913328766822815, 2.705022096633911, 2.7956526279449463, -5.864055156707764, -0.58740234375, 0.198486328125, -0.1943359375, 0, 
273, 2067109022, 0.71984714, 0.166002, -0.6079424, 0.29098418, 9.750539779663086, -1.2714077234268188, 1.9249250888824463, 1.8395426273345947, 3.156663417816162, -5.864457607269287, -0.58837890625, 0.195556640625, -0.19775390625, 0, 
274, 2067125689, 0.72000355, 0.16678143, -0.6074756, 0.29112625, 9.730545043945312, -1.3186815977096558, 1.930458426475525, -0.48416975140571594, 3.1945059299468994, -5.569558620452881, -0.5849609375, 0.196044921875, -0.199951171875, 0, 
275, 2067142356, 0.72039914, 0.16702504, -0.6071548, 0.29067677, 9.783644676208496, -1.3535491228103638, 1.9373005628585815, -0.5232419371604919, 3.2121851444244385, -5.385941505432129, -0.587158203125, 0.19775390625, -0.198974609375, 0, 
276, 2067159023, 0.720797, 0.16724472, -0.60684794, 0.29020485, 9.786307334899902, -1.3172096014022827, 1.9917447566986084, -2.881428808905184E-4, 3.0886483192443848, -5.22743034362793, -0.590576171875, 0.192626953125, -0.198974609375, 0, 
277, 2067175690, 0.72119, 0.16721042, -0.6067334, 0.28948674, 9.809782981872559, -1.268621563911438, 1.9973280429840088, -0.7552353739738464, 2.1260721683502197, -4.75331449508667, -0.58837890625, 0.195556640625, -0.198486328125, 0, 
278, 2067192357, 0.72145426, 0.16736817, -0.60658485, 0.28904817, 9.861905097961426, -1.3480384349822998, 1.940131664276123, -0.4316188395023346, 1.9211575984954834, -4.376397609710693, -0.586181640625, 0.192626953125, -0.19775390625, 0, 
279, 2067209024, 0.7217545, 0.16751437, -0.60637116, 0.28866228, 9.748648643493652, -1.3129199743270874, 1.9580187797546387, 1.030795931816101, 2.3474810123443604, -3.9573869705200195, -0.5888671875, 0.192626953125, -0.2001953125, 0, 
280, 2067225691, 0.72205937, 0.16755366, -0.6062097, 0.2882156, 9.741645812988281, -1.202440857887268, 2.0160436630249023, -0.4555283188819885, 2.315093755722046, -3.888911247253418, -0.590576171875, 0.19091796875, -0.198974609375, 0, 
281, 2067242358, 0.7220302, 0.1679744, -0.6060717, 0.2883342, 9.70781135559082, -1.277886152267456, 2.0088844299316406, -3.131953239440918, 1.4862666130065918, -3.5256967544555664, -0.586669921875, 0.192138671875, -0.198974609375, 0, 
282, 2067259025, 0.7221635, 0.16815802, -0.6059796, 0.28808635, 9.703653335571289, -1.421871542930603, 1.9500436782836914, -1.5985780954360962, 1.4900059700012207, -3.6682889461517334, -0.587158203125, 0.19091796875, -0.20068359375, 0, 
283, 2067275692, 0.7222968, 0.16865242, -0.6057034, 0.288044, 9.728646278381348, -1.372568964958191, 1.9211825132369995, 2.1968140602111816, 1.9155993461608887, -3.940354108810425, -0.587890625, 0.188720703125, -0.198974609375, 0, 
284, 2067292359, 0.7225554, 0.16890787, -0.6054704, 0.28773564, 9.711212158203125, -1.1816779375076294, 1.9792227745056152, 2.383786678314209, 2.1015987396240234, -3.893162250518799, -0.590087890625, 0.189208984375, -0.198974609375, 0, 
285, 2067309026, 0.72253513, 0.1694863, -0.6052276, 0.28795692, 9.689546585083008, -1.186753511428833, 1.9559017419815063, -0.7917717695236206, 1.734440803527832, -3.630375862121582, -0.58837890625, 0.187744140625, -0.198974609375, 0, 
286, 2067325693, 0.7226618, 0.16955508, -0.60516447, 0.28773135, 9.780359268188477, -1.2411799430847168, 1.9156789779663086, -3.233135938644409, 1.6809358596801758, -3.2795333862304688, -0.5849609375, 0.185546875, -0.2001953125, 0, 
287, 2067342360, 0.7230106, 0.1690286, -0.60525864, 0.28696576, 9.758735656738281, -1.2061851024627686, 1.9573603868484497, -5.232873916625977, 1.9797852039337158, -2.9339542388916016, -0.587158203125, 0.184814453125, -0.198974609375, 0, 
288, 2067359027, 0.7231594, 0.16859302, -0.60544443, 0.2864545, 9.745962142944336, -1.1769338846206665, 1.925028920173645, -7.433356285095215, 1.201594352722168, -2.3516688346862793, -0.586669921875, 0.184326171875, -0.2001953125, 0, 
289, 2067375694, 0.7233936, 0.16775733, -0.6058345, 0.28552774, 9.766881942749023, -1.2576260566711426, 1.9361965656280518, -7.421113967895508, 0.4102962911128998, -1.7749603986740112, -0.590576171875, 0.18603515625, -0.198974609375, 0, 
290, 2067392361, 0.7234419, 0.16719116, -0.60624367, 0.28486818, 9.789897918701172, -1.2531142234802246, 1.9390171766281128, -6.253706455230713, -0.5244136452674866, -1.4961212873458862, -0.587890625, 0.18603515625, -0.197265625, 0, 
291, 2067409028, 0.7233791, 0.16674204, -0.6067126, 0.28429198, 9.774186134338379, -1.2473630905151367, 1.8904379606246948, -5.635787010192871, -1.3823751211166382, -1.3527413606643677, -0.586669921875, 0.188232421875, -0.1923828125, 0, 
292, 2067425695, 0.72316146, 0.16657382, -0.60714984, 0.28401113, 9.7657470703125, -1.2581149339675903, 1.8088061809539795, -5.525838851928711, -1.786319613456726, -1.3774127960205078, -0.589599609375, 0.189453125, -0.195556640625, 0, 
293, 2067442362, 0.72302485, 0.16622321, -0.60763496, 0.28352606, 9.75191593170166, -1.2132697105407715, 1.8422691822052002, -5.388451099395752, -1.7787508964538574, -1.2905856370925903, -0.590087890625, 0.188232421875, -0.1962890625, 0, 
294, 2067459029, 0.7230093, 0.1654784, -0.608271, 0.28263673, 9.669232368469238, -1.1395643949508667, 1.9043200016021729, -6.8042449951171875, -1.9923608303070068, -1.1563366651535034, -0.590087890625, 0.187744140625, -0.193359375, 0, 
295, 2067475696, 0.72285163, 0.16479087, -0.6089616, 0.28195363, 9.695390701293945, -1.153965711593628, 1.9040905237197876, -8.729641914367676, -2.403611183166504, -0.6819510459899902, -0.589599609375, 0.188720703125, -0.18994140625, 0, 
296, 2067492363, 0.7228252, 0.16355596, -0.6099317, 0.28064004, 9.726414680480957, -1.1834299564361572, 1.953141212463379, -9.983373641967773, -3.399946451187134, -0.4687638282775879, -0.59130859375, 0.188720703125, -0.188232421875, 0, 
297, 2067509030, 0.7225947, 0.16254364, -0.6109993, 0.27949744, 9.797113418579102, -1.1858402490615845, 1.980338215827942, -9.901611328125, -4.789826393127441, -0.41684046387672424, -0.59130859375, 0.191162109375, -0.18603515625, 0, 
298, 2067525697, 0.7222454, 0.1616719, -0.6121545, 0.27837607, 9.82880973815918, -1.2107179164886475, 1.9730794429779053, -8.901422500610352, -5.997952461242676, -0.527384877204895, -0.5908203125, 0.1904296875, -0.18603515625, 0, 
299, 2067542364, 0.72149986, 0.16146536, -0.61332947, 0.27784255, 9.886019706726074, -1.2326407432556152, 1.9037573337554932, -8.51276969909668, -7.766055583953857, -0.7838130593299866, -0.592041015625, 0.1904296875, -0.184814453125, 0, 
300, 2067559031, 0.7208546, 0.1608891, -0.61472154, 0.27677336, 9.965984344482422, -1.313300609588623, 1.8608546257019043, -7.670238494873047, -8.899291038513184, -0.7420130968093872, -0.592529296875, 0.192626953125, -0.1826171875, 0, 
301, 2067575698, 0.72015, 0.16063878, -0.6160275, 0.2758478, 9.970939636230469, -1.4281809329986572, 1.8246124982833862, -4.200163841247559, -9.293148040771484, -1.2002242803573608, -0.595458984375, 0.191650390625, -0.177490234375, 0, 
302, 2067592365, 0.7192822, 0.16094339, -0.61713976, 0.2754481, 9.742706298828125, -1.3038312196731567, 1.8221778869628906, -0.10899487137794495, -9.339507102966309, -1.138728141784668, -0.59716796875, 0.188232421875, -0.176513671875, 0, 
303, 2067609032, 0.7182884, 0.16133621, -0.6183207, 0.27516338, 9.533675193786621, -1.153890609741211, 1.863546371459961, -0.6344267129898071, -10.09978199005127, -0.9049609303474426, -0.59326171875, 0.189453125, -0.171875, 0, 
304, 2067625699, 0.71723306, 0.16107126, -0.61994374, 0.2744183, 9.451385498046875, -1.1647329330444336, 1.913398265838623, -5.197856426239014, -11.968487739562988, 0.4855594336986542, -0.594970703125, 0.191650390625, -0.171875, 0, 
305, 2067642366, 0.7159714, 0.16071579, -0.62176, 0.27381152, 9.491512298583984, -1.276493787765503, 1.816726803779602, -7.614751815795898, -13.223079681396484, 1.72237229347229, -0.594970703125, 0.193359375, -0.1640625, 0, 
306, 2067659033, 0.71450704, 0.1606514, -0.6235285, 0.27365282, 9.604496955871582, -1.3636488914489746, 1.7284787893295288, -6.8239970207214355, -13.589071273803711, 2.5105395317077637, -0.59716796875, 0.193359375, -0.1611328125, 0, 
307, 2067675700, 0.7133064, 0.1597652, -0.62551016, 0.27278048, 9.725852966308594, -1.3359235525131226, 1.6714290380477905, -7.888058185577393, -13.499666213989258, 3.4283652305603027, -0.597900390625, 0.195068359375, -0.158203125, 0, 
308, 2067692367, 0.71238947, 0.15814805, -0.6275345, 0.27146655, 9.905652046203613, -1.4301540851593018, 1.5406363010406494, -8.942604064941406, -12.15821647644043, 4.709378242492676, -0.597412109375, 0.195068359375, -0.152099609375, 0, 
309, 2067709034, 0.71142197, 0.15686496, -0.6292455, 0.2707865, 9.88919734954834, -1.4983443021774292, 1.4851229190826416, -10.658732414245605, -10.008720397949219, 5.007574558258057, -0.599609375, 0.197265625, -0.15087890625, 0, 
310, 2067725701, 0.71060294, 0.1557694, -0.6306447, 0.27031443, 10.022886276245117, -1.4645832777023315, 1.3729279041290283, -11.391281127929688, -7.617554664611816, 4.127098560333252, -0.597412109375, 0.198486328125, -0.148193359375, 0, 
311, 2067742368, 0.71038103, 0.15364261, -0.6320616, 0.26880124, 10.01595401763916, -1.4503295421600342, 1.3576064109802246, -12.478836059570312, -5.399365425109863, 3.8552191257476807, -0.59912109375, 0.201171875, -0.146240234375, 0, 
312, 2067759035, 0.71007377, 0.15215833, -0.63311934, 0.267967, 10.002992630004883, -1.5609694719314575, 1.3347395658493042, -10.660573959350586, -3.8830156326293945, 3.3731751441955566, -0.599609375, 0.20458984375, -0.142333984375, 0, 
313, 2067775702, 0.70985293, 0.1514841, -0.6336885, 0.26758814, 9.93808364868164, -1.5253984928131104, 1.330903172492981, -5.126125812530518, -1.98598313331604, 1.2087721824645996, -0.601318359375, 0.202392578125, -0.141845703125, 0, 
314, 2067792369, 0.70962566, 0.15157574, -0.6337908, 0.2678968, 9.864649772644043, -1.535086750984192, 1.432892918586731, -0.7417181730270386, -0.030299827456474304, 0.2641117572784424, -0.59912109375, 0.20458984375, -0.14404296875, 0, 
315, 2067809036, 0.7095632, 0.15171191, -0.63379794, 0.26796827, 9.85293960571289, -1.4292935132980347, 1.486180305480957, 1.195223093032837, 0.47950175404548645, -1.0726341009140015, -0.600830078125, 0.202392578125, -0.141357421875, 0, 
316, 2067825703, 0.70957756, 0.15192765, -0.6337093, 0.26801753, 9.897589683532715, -1.3793635368347168, 1.4418928623199463, 1.5994553565979004, 1.106359601020813, -1.768364667892456, -0.600341796875, 0.206298828125, -0.140625, 0, 
317, 2067842370, 0.7097122, 0.15223028, -0.63346344, 0.26806995, 9.897284507751465, -1.4757875204086304, 1.3806037902832031, 3.437525749206543, 2.087172746658325, -2.3280794620513916, -0.600341796875, 0.206298828125, -0.141845703125, 0, 
318, 2067859037, 0.709838, 0.15285139, -0.63300335, 0.2684702, 9.87692642211914, -1.3945214748382568, 1.3347270488739014, 5.751441955566406, 3.01263689994812, -2.4029712677001953, -0.59619140625, 0.205810546875, -0.145751953125, 0, 
319, 2067875704, 0.7100901, 0.1531323, -0.6325981, 0.26859856, 9.80637264251709, -1.3099241256713867, 1.385924220085144, 4.718134880065918, 3.389911413192749, -2.107912540435791, -0.597900390625, 0.202392578125, -0.142822265625, 0, 
320, 2067892371, 0.71033764, 0.15334402, -0.6322, 0.26876083, 9.798349380493164, -1.2995890378952026, 1.3733482360839844, 3.2717602252960205, 3.649996042251587, -1.8155821561813354, -0.597412109375, 0.202392578125, -0.145263671875, 0, 
321, 2067909038, 0.710574, 0.15345417, -0.63183737, 0.26892558, 9.739764213562012, -1.3159739971160889, 1.444115400314331, 2.554783582687378, 3.640237808227539, -1.3273398876190186, -0.599609375, 0.202392578125, -0.145263671875, 0, 
322, 2067925705, 0.7106696, 0.15359937, -0.63159126, 0.26916817, 9.75404167175293, -1.3160912990570068, 1.4250000715255737, 2.7897419929504395, 2.501457929611206, -0.7470840215682983, -0.600830078125, 0.201904296875, -0.14404296875, 0, 
323, 2067942372, 0.7105914, 0.15406245, -0.6313103, 0.26976824, 9.790157318115234, -1.3407156467437744, 1.3896297216415405, 3.9405713081359863, 1.9694308042526245, -0.44056400656700134, -0.599609375, 0.203369140625, -0.146240234375, 0, 
324, 2067959039, 0.7105231, 0.154402, -0.6311039, 0.27023605, 9.785306930541992, -1.2863608598709106, 1.4093201160430908, 4.640130996704102, 1.4948019981384277, -0.1697353720664978, -0.60205078125, 0.201171875, -0.1474609375, 0, 
325, 2067975706, 0.7103709, 0.15469152, -0.6310089, 0.27069235, 9.781332969665527, -1.2627878189086914, 1.373128890991211, 3.9093501567840576, 0.7052265405654907, 0.21739421784877777, -0.600830078125, 0.202880859375, -0.1474609375, 0, 
326, 2067992373, 0.7101754, 0.15506782, -0.6309354, 0.271161, 9.764520645141602, -1.4174562692642212, 1.358797311782837, 4.75463342666626, 0.22051897644996643, 0.06494741141796112, -0.5986328125, 0.2001953125, -0.14794921875, 0, 
327, 2068009040, 0.7097894, 0.15630043, -0.63053054, 0.2724025, 9.798360824584961, -1.5730223655700684, 1.306134581565857, 10.497208595275879, 0.5556740760803223, -0.2879508435726166, -0.59619140625, 0.198974609375, -0.145751953125, 0, 
328, 2068025707, 0.7095159, 0.15792857, -0.6298013, 0.2738589, 9.808635711669922, -1.4990074634552002, 1.3961719274520874, 17.31296730041504, 1.7018568515777588, -0.971990168094635, -0.599609375, 0.203369140625, -0.148681640625, 0, 
329, 2068042374, 0.7091526, 0.15968405, -0.6290736, 0.27544972, 9.789260864257812, -1.2461917400360107, 1.5715240240097046, 16.84086036682129, 1.4211926460266113, -0.9838360548019409, -0.601318359375, 0.201171875, -0.150390625, 0, 
330, 2068059041, 0.70886815, 0.16085055, -0.6286133, 0.27655157, 9.878684997558594, -1.2715394496917725, 1.5720086097717285, 12.1231107711792, 0.9296646118164062, -0.5353760719299316, -0.597412109375, 0.198974609375, -0.149169921875, 0, 
331, 2068075708, 0.70858806, 0.16201009, -0.62812006, 0.27771106, 9.98401165008545, -1.4308031797409058, 1.4516322612762451, 11.747448921203613, 1.2571998834609985, -0.3712562322616577, -0.59912109375, 0.199462890625, -0.15087890625, 0, 
332, 2068092375, 0.708401, 0.16320802, -0.6274639, 0.278967, 9.936478614807129, -1.3895946741104126, 1.495763897895813, 13.024630546569824, 2.4321067333221436, -0.353954941034317, -0.60009765625, 0.197265625, -0.153076171875, 0, 
333, 2068109042, 0.70819235, 0.16410631, -0.6269982, 0.28001508, 9.81770133972168, -1.246541976928711, 1.542785882949829, 9.467602729797363, 1.8516132831573486, 0.04161424934864044, -0.600830078125, 0.19775390625, -0.154296875, 0, 
334, 2068125709, 0.7080253, 0.16464372, -0.62669474, 0.28079998, 9.910981178283691, -1.3173956871032715, 1.500448226928711, 6.4857635498046875, 1.603713870048523, 0.4641405940055847, -0.597900390625, 0.195068359375, -0.156005859375, 0, 
335, 2068142376, 0.7078786, 0.1651163, -0.62640315, 0.2815423, 9.88319206237793, -1.4436366558074951, 1.3843120336532593, 7.0023393630981445, 1.584792137145996, 0.6863371133804321, -0.59912109375, 0.20068359375, -0.155517578125, 0, 
336, 2068159043, 0.7076234, 0.16589507, -0.62598175, 0.28266057, 9.82935905456543, -1.4702001810073853, 1.3296595811843872, 9.028050422668457, 1.7581011056900024, 1.0163443088531494, -0.597412109375, 0.199462890625, -0.156005859375, 0, 
337, 2068175710, 0.70744306, 0.16649266, -0.6255859, 0.28363526, 9.747493743896484, -1.3374310731887817, 1.3296936750411987, 9.036861419677734, 1.954179048538208, 1.2481263875961304, -0.600830078125, 0.19677734375, -0.156005859375, 0, 
338, 2068192377, 0.7072372, 0.1669349, -0.6252753, 0.28457206, 9.747878074645996, -1.3079228401184082, 1.2993266582489014, 7.047656536102295, 1.8027631044387817, 1.725669026374817, -0.60009765625, 0.197265625, -0.155517578125, 0, 
339, 2068209044, 0.70712614, 0.16709827, -0.6250255, 0.28529993, 9.752419471740723, -1.4072424173355103, 1.2769023180007935, 5.627424716949463, 2.0995054244995117, 1.969213604927063, -0.599609375, 0.197265625, -0.158203125, 0, 
340, 2068225711, 0.7070101, 0.16737197, -0.6246561, 0.2862344, 9.77324104309082, -1.3834728002548218, 1.29155695438385, 6.209280490875244, 2.8148293495178223, 2.1915316581726074, -0.59716796875, 0.199462890625, -0.160400390625, 0, 
341, 2068242378, 0.7069864, 0.16753334, -0.624243, 0.28709856, 9.737783432006836, -1.2439790964126587, 1.4250301122665405, 4.896259307861328, 3.621668577194214, 2.024729013442993, -0.6005859375, 0.20068359375, -0.160400390625, 0, 
342, 2068259045, 0.7070444, 0.16692697, -0.62428707, 0.28721318, 9.718169212341309, -1.1635339260101318, 1.5021013021469116, -1.3586127758026123, 2.201315402984619, 2.3291099071502686, -0.594482421875, 0.20068359375, -0.158203125, 0, 
343, 2068275712, 0.70699084, 0.16619605, -0.62455755, 0.2871808, 9.819586753845215, -1.3708266019821167, 1.441220760345459, -3.3098390102386475, 0.7468662858009338, 2.56954288482666, -0.59716796875, 0.199462890625, -0.16162109375, 0, 
344, 2068292379, 0.7067821, 0.16603608, -0.62466145, 0.28756067, 9.864185333251953, -1.487586259841919, 1.391817331314087, 2.0476646423339844, 0.19733943045139313, 2.2909858226776123, -0.598388671875, 0.2041015625, -0.162109375, 0, 
345, 2068309046, 0.7064072, 0.16640927, -0.6246161, 0.28836405, 9.805949211120605, -1.3143022060394287, 1.3951233625411987, 6.158491611480713, -0.2629656493663788, 2.0837535858154297, -0.598388671875, 0.202392578125, -0.15771484375, 0, 
346, 2068325713, 0.7060464, 0.166577, -0.624711, 0.288944, 9.755329132080078, -1.2298519611358643, 1.4378498792648315, 4.019100666046143, -0.7422944903373718, 2.032348871231079, -0.599609375, 0.20458984375, -0.156982421875, 0, 
347, 2068342380, 0.7056434, 0.16667584, -0.62492085, 0.2894175, 9.738481521606445, -1.3442250490188599, 1.4521883726119995, 1.7727892398834229, -1.3050566911697388, 1.8180984258651733, -0.5966796875, 0.202880859375, -0.159912109375, 0, 
348, 2068359047, 0.7052739, 0.16692162, -0.6250431, 0.28991184, 9.787272453308105, -1.379923939704895, 1.4467341899871826, 3.8368911743164062, -1.1467573642730713, 1.314117193222046, -0.597412109375, 0.206787109375, -0.1591796875, 0, 
349, 2068375714, 0.7047153, 0.16758782, -0.62511647, 0.29072648, 9.779987335205078, -1.3051834106445312, 1.4896825551986694, 5.736021995544434, -1.9609085321426392, 1.0747921466827393, -0.59716796875, 0.20166015625, -0.1611328125, 0, 
350, 2068392381, 0.7042227, 0.1679668, -0.6253723, 0.29115108, 9.824551582336426, -1.2557008266448975, 1.4923228025436401, 5.246640682220459, -2.819523334503174, 1.0061758756637573, -0.595458984375, 0.206298828125, -0.162109375, 0, 
351, 2068409048, 0.7036835, 0.16848858, -0.62557983, 0.2917068, 9.842790603637695, -1.388454556465149, 1.4220495223999023, 5.176993370056152, -2.7343931198120117, 0.8252156376838684, -0.59716796875, 0.201171875, -0.162109375, 0, 
352, 2068425715, 0.70307523, 0.16936927, -0.6255762, 0.2926696, 9.807991027832031, -1.4349570274353027, 1.4219709634780884, 6.020810127258301, -1.860097050666809, 0.6291056275367737, -0.594970703125, 0.2041015625, -0.159912109375, 0, 
353, 2068442382, 0.7027977, 0.16971287, -0.6256126, 0.29305875, 9.79255485534668, -1.3714197874069214, 1.5553356409072876, 5.970198631286621, -0.9090716242790222, 0.44411784410476685, -0.598388671875, 0.205078125, -0.1591796875, 0, 
354, 2068459049, 0.70250285, 0.17015038, -0.62557817, 0.293585, 9.782447814941406, -1.3538938760757446, 1.6059807538986206, 4.202230453491211, -0.2969408631324768, 0.16954965889453888, -0.600830078125, 0.20458984375, -0.159912109375, 0, 
355, 2068475716, 0.7023711, 0.1703886, -0.6254954, 0.29393864, 9.800346374511719, -1.3773730993270874, 1.6115713119506836, 3.3246307373046875, 0.7172708511352539, -0.04042324051260948, -0.595458984375, 0.20068359375, -0.1611328125, 0, 
356, 2068492383, 0.7021464, 0.17077959, -0.6253881, 0.29447594, 9.765679359436035, -1.3559173345565796, 1.686672568321228, 1.4298545122146606, 0.7897676229476929, -0.23393361270427704, -0.5966796875, 0.202880859375, -0.162109375, 0, 
357, 2068509050, 0.7022057, 0.17052509, -0.6254461, 0.29435912, 9.836938858032227, -1.3667209148406982, 1.637799620628357, 0.41040512919425964, 1.0396323204040527, -0.08212071657180786, -0.59619140625, 0.2041015625, -0.160400390625, 0, 
358, 2068525717, 0.7023027, 0.17035633, -0.62536865, 0.29438996, 9.839324951171875, -1.451804757118225, 1.5782891511917114, 0.4310232698917389, 2.0108530521392822, -0.17754080891609192, -0.594970703125, 0.206298828125, -0.162109375, 0, 
359, 2068542384, 0.7026185, 0.16985685, -0.62528914, 0.2940935, 9.835890769958496, -1.352137565612793, 1.6092966794967651, -0.15322156250476837, 2.907041549682617, -0.3409498333930969, -0.59716796875, 0.206298828125, -0.163818359375, 0, 
360, 2068559051, 0.70267296, 0.16980563, -0.62509507, 0.2944059, 9.806549072265625, -1.3293850421905518, 1.6317201852798462, -3.4579195976257324, 3.2344295978546143, -0.35033053159713745, -0.594970703125, 0.205078125, -0.163330078125, 0, 
361, 2068575718, 0.70301694, 0.16910227, -0.62510675, 0.29396388, 9.76937198638916, -1.426786184310913, 1.6277437210083008, -4.561340808868408, 3.149894952774048, -0.5365861058235168, -0.5966796875, 0.20556640625, -0.164306640625, 0, 
362, 2068592385, 0.7032658, 0.16869219, -0.62502366, 0.29378062, 9.818668365478516, -1.4753761291503906, 1.592547059059143, -1.940443754196167, 2.9311299324035645, -0.4975779056549072, -0.59619140625, 0.2080078125, -0.164306640625, 0, 
363, 2068609052, 0.703422, 0.16882874, -0.624669, 0.29408228, 9.804443359375, -1.377632737159729, 1.6005717515945435, 1.4863818883895874, 3.5530967712402344, -0.9564616084098816, -0.59716796875, 0.208984375, -0.162109375, 0, 
364, 2068625719, 0.703673, 0.16860187, -0.62449116, 0.29398984, 9.74203872680664, -1.2058676481246948, 1.6426560878753662, -0.04338150843977928, 3.0756494998931885, -0.8894713521003723, -0.59619140625, 0.205078125, -0.163330078125, 0, 
365, 2068642386, 0.7038904, 0.16820343, -0.6244506, 0.29378414, 9.759073257446289, -1.2777706384658813, 1.5472826957702637, -3.4845759868621826, 2.7192366123199463, -0.7814115285873413, -0.597900390625, 0.20556640625, -0.163330078125, 0, 
366, 2068659053, 0.70417964, 0.16782363, -0.62432265, 0.29357925, 9.799683570861816, -1.441081166267395, 1.4466993808746338, -2.9173507690429688, 3.364567756652832, -1.0366612672805786, -0.59619140625, 0.205078125, -0.163330078125, 0, 
367, 2068675720, 0.70449865, 0.16775836, -0.6239779, 0.29358461, 9.825094223022461, -1.4104489088058472, 1.4282342195510864, 0.6149864792823792, 4.061418533325195, -1.559057593345642, -0.595458984375, 0.206787109375, -0.164794921875, 0, 
368, 2068692387, 0.7047747, 0.16786353, -0.62358814, 0.29368994, 9.755965232849121, -1.1818459033966064, 1.5537214279174805, -0.04711456969380379, 4.132347106933594, -2.120872735977173, -0.594970703125, 0.206787109375, -0.16552734375, 0, 
369, 2068709054, 0.70503664, 0.16769269, -0.6234164, 0.2935232, 9.775389671325684, -1.249085783958435, 1.57008695602417, -2.3677148818969727, 3.179439067840576, -1.8668328523635864, -0.59716796875, 0.206298828125, -0.164306640625, 0, 
370, 2068725721, 0.70532006, 0.16743317, -0.62335443, 0.29312193, 9.808053016662598, -1.3147534132003784, 1.462773084640503, -2.6914913654327393, 2.475262403488159, -2.302229642868042, -0.5927734375, 0.2080078125, -0.164794921875, 0, 
371, 2068742388, 0.70547277, 0.16763468, -0.6231082, 0.29316288, 9.832659721374512, -1.3456742763519287, 1.40053129196167, -0.7476796507835388, 2.7347452640533447, -2.547497034072876, -0.59619140625, 0.206298828125, -0.16552734375, 0, 
372, 2068759055, 0.7057037, 0.1677528, -0.6228613, 0.2930639, 9.806567192077637, -1.2978421449661255, 1.4636739492416382, 0.4653316140174866, 2.788864850997925, -2.6262624263763428, -0.592041015625, 0.20751953125, -0.16650390625, 0, 
373, 2068775722, 0.7061813, 0.16726416, -0.62282526, 0.29226843, 9.785381317138672, -1.2175160646438599, 1.5446513891220093, -0.14013348519802094, 2.4873900413513184, -2.6097099781036377, -0.594970703125, 0.20849609375, -0.167236328125, 0, 
374, 2068792389, 0.7066629, 0.16660054, -0.6229136, 0.29129335, 9.764226913452148, -1.2632900476455688, 1.4941332340240479, -2.025977373123169, 2.0512638092041016, -2.5919926166534424, -0.59716796875, 0.20458984375, -0.166748046875, 0, 
375, 2068809056, 0.7069445, 0.166479, -0.6228444, 0.29082724, 9.807263374328613, -1.3221855163574219, 1.4709506034851074, -1.8566324710845947, 2.1082582473754883, -3.1197609901428223, -0.595947265625, 0.20556640625, -0.16943359375, 0, 
376, 2068825723, 0.7070608, 0.16673256, -0.6226874, 0.29073557, 9.785754203796387, -1.3337692022323608, 1.4851288795471191, -1.586392879486084, 1.9436323642730713, -3.287498712539673, -0.5966796875, 0.203369140625, -0.167724609375, 0, 
377, 2068842390, 0.70734733, 0.16657165, -0.62270117, 0.29010034, 9.77747631072998, -1.3643344640731812, 1.494465708732605, -1.607664704322815, 1.448859453201294, -3.449422836303711, -0.591064453125, 0.205078125, -0.1650390625, 0, 
378, 2068859057, 0.70742255, 0.16684727, -0.6226289, 0.28991315, 9.834004402160645, -1.3676475286483765, 1.5521475076675415, -0.07322671264410019, 0.9689028859138489, -3.3273589611053467, -0.594970703125, 0.205078125, -0.167236328125, 0, 
379, 2068875724, 0.7074689, 0.16728349, -0.62249607, 0.2898344, 9.835121154785156, -1.351016879081726, 1.5338250398635864, 1.4992395639419556, 0.9215450286865234, -3.469003438949585, -0.597900390625, 0.20068359375, -0.167236328125, 0, 
380, 2068892391, 0.707491, 0.16780059, -0.6223087, 0.28988385, 9.78625202178955, -1.3276993036270142, 1.5171887874603271, 1.661092758178711, 1.1790616512298584, -3.3647282123565674, -0.5966796875, 0.199951171875, -0.1689453125, 0, 
381, 2068909058, 0.70764095, 0.16784708, -0.6223229, 0.28945974, 9.787217140197754, -1.2709437608718872, 1.5566622018814087, -0.8398404717445374, 0.8504889607429504, -3.2617006301879883, -0.59423828125, 0.20068359375, -0.167724609375, 0, 
382, 2068925725, 0.7077787, 0.16777459, -0.62241495, 0.28896666, 9.803075790405273, -1.371608853340149, 1.6116104125976562, -2.137226104736328, 0.6126238107681274, -3.022273063659668, -0.59716796875, 0.198974609375, -0.16552734375, 0, 
383, 2068942392, 0.70789087, 0.16789824, -0.6224104, 0.28862965, 9.768216133117676, -1.4320359230041504, 1.5766140222549438, -0.6236051917076111, 0.8024395108222961, -3.2208099365234375, -0.594970703125, 0.20068359375, -0.16455078125, 0, 
384, 2068959059, 0.7079643, 0.16817605, -0.62233967, 0.28844056, 9.77365779876709, -1.3921451568603516, 1.6270997524261475, 1.2817041873931885, 0.7854582071304321, -3.101172685623169, -0.5966796875, 0.20166015625, -0.16845703125, 0, 
385, 2068975726, 0.7081866, 0.16800468, -0.62242407, 0.28781176, 9.766207695007324, -1.2932480573654175, 1.703708529472351, 0.5135794878005981, 0.6009315848350525, -2.7744317054748535, -0.598388671875, 0.201171875, -0.167236328125, 0, 
386, 2068992393, 0.7082364, 0.16814324, -0.6223969, 0.2876671, 9.808919906616211, -1.317143201828003, 1.6479822397232056, -0.808548092842102, 0.9748066663742065, -2.46207857131958, -0.59716796875, 0.1982421875, -0.167236328125, 0, 
387, 2069009060, 0.70835555, 0.1681469, -0.6223551, 0.28746185, 9.761338233947754, -1.3695576190948486, 1.6005972623825073, -1.325649380683899, 1.483122706413269, -2.2546348571777344, -0.595458984375, 0.19677734375, -0.16845703125, 0, 
388, 2069025727, 0.7084115, 0.16827482, -0.6222701, 0.2874331, 9.723688125610352, -1.377428412437439, 1.6701587438583374, -1.2543433904647827, 1.5467702150344849, -2.106221914291382, -0.595947265625, 0.19677734375, -0.16845703125, 0, 
389, 2069042394, 0.70852506, 0.16813402, -0.62232196, 0.2871227, 9.74820327758789, -1.3503073453903198, 1.703778624534607, -1.881752371788025, 1.0700410604476929, -1.89517343044281, -0.6005859375, 0.195556640625, -0.1689453125, 0, 
390, 2069059061, 0.7086028, 0.16799748, -0.62241966, 0.28679922, 9.81553840637207, -1.3745635747909546, 1.6742538213729858, -0.8783106207847595, 0.5407096743583679, -1.6645948886871338, -0.599365234375, 0.196533203125, -0.16845703125, 0, 
391, 2069075728, 0.70867854, 0.16793959, -0.6224433, 0.28659478, 9.852873802185059, -1.321656346321106, 1.6223448514938354, 0.34354957938194275, 0.8541259169578552, -1.4709758758544922, -0.598388671875, 0.19677734375, -0.16552734375, 0, 
392, 2069092395, 0.70872355, 0.16785273, -0.6224687, 0.28647912, 9.851543426513672, -1.2683614492416382, 1.6346355676651, -0.8855846524238586, 1.0495378971099854, -1.1153944730758667, -0.599609375, 0.199951171875, -0.167724609375, 0, 
393, 2069109062, 0.7088097, 0.1675335, -0.6225762, 0.28621927, 9.815740585327148, -1.3041476011276245, 1.662093997001648, -2.92587947845459, 1.1233794689178467, -0.8222701549530029, -0.598388671875, 0.19775390625, -0.1650390625, 0, 
394, 2069125729, 0.7089005, 0.16724955, -0.6226413, 0.28601876, 9.805785179138184, -1.3474273681640625, 1.6383854150772095, -3.284393548965454, 1.4498645067214966, -0.8932173848152161, -0.5966796875, 0.19677734375, -0.16552734375, 0, 
395, 2069142396, 0.7090134, 0.16710284, -0.6226124, 0.2858873, 9.777493476867676, -1.3762729167938232, 1.5788788795471191, -1.3905646800994873, 1.718816876411438, -1.1605241298675537, -0.59765625, 0.199462890625, -0.16845703125, 0, 
396, 2069159063, 0.70915467, 0.16708076, -0.6224611, 0.2858792, 9.828868865966797, -1.289910912513733, 1.6471937894821167, 0.7846195101737976, 2.236565113067627, -1.1444587707519531, -0.59765625, 0.1982421875, -0.170166015625, 0, 
397, 2069175730, 0.70914704, 0.16721463, -0.6223386, 0.28608665, 9.793828964233398, -1.1806461811065674, 1.671329140663147, -0.8241078853607178, 1.788727045059204, -1.0357327461242676, -0.599609375, 0.196533203125, -0.16796875, 0, 
398, 2069192397, 0.70915663, 0.16719775, -0.6223025, 0.28615117, 9.811086654663086, -1.2734267711639404, 1.627160668373108, -2.2381529808044434, 1.5597941875457764, -0.99843430519104, -0.6005859375, 0.19775390625, -0.169677734375, 0, 
399, 2069209064, 0.7092102, 0.16722079, -0.6221878, 0.28625453, 9.84262466430664, -1.3146626949310303, 1.5523971319198608, -1.5896906852722168, 2.074122905731201, -1.1241543292999268, -0.598388671875, 0.195556640625, -0.169677734375, 0, 
400, 2069225731, 0.709587, 0.16673014, -0.6221328, 0.2857255, 9.83122444152832, -1.2275904417037964, 1.56974458694458, -1.335189938545227, 2.7590062618255615, -1.5228925943374634, -0.59765625, 0.19775390625, -0.1689453125, 0, 
401, 2069242398, 0.7098676, 0.16642179, -0.6220179, 0.28545892, 9.815726280212402, -1.2191654443740845, 1.5861916542053223, -2.253399133682251, 2.9513516426086426, -1.4593156576156616, -0.5966796875, 0.19775390625, -0.166259765625, 0, 
402, 2069259065, 0.71015793, 0.16607077, -0.62192005, 0.28515434, 9.789484977722168, -1.204949975013733, 1.6174521446228027, -2.6883280277252197, 2.957920789718628, -1.461940884590149, -0.59716796875, 0.198974609375, -0.170166015625, 0, 
403, 2069275732, 0.7103085, 0.16604681, -0.62172914, 0.28520936, 9.758652687072754, -1.2189663648605347, 1.6320664882659912, -2.453875780105591, 2.9530608654022217, -1.5161693096160889, -0.599609375, 0.197265625, -0.166748046875, 0, 
404, 2069292399, 0.7105784, 0.16572605, -0.6216488, 0.28489846, 9.790261268615723, -1.1564728021621704, 1.629773497581482, -2.619621992111206, 2.720913887023926, -1.5662869215011597, -0.595458984375, 0.199951171875, -0.167724609375, 0, 
405, 2069309066, 0.71087915, 0.16534334, -0.6215927, 0.28449288, 9.787826538085938, -1.1935704946517944, 1.5929577350616455, -3.431135654449463, 2.7509069442749023, -1.797006607055664, -0.5966796875, 0.19677734375, -0.166259765625, 0, 
406, 2069325733, 0.7111649, 0.16492453, -0.62159735, 0.28401124, 9.779269218444824, -1.1732860803604126, 1.630275011062622, -4.094587326049805, 2.3829545974731445, -1.9241925477981567, -0.598388671875, 0.19775390625, -0.166748046875, 0, 
407, 2069342400, 0.7113604, 0.16452597, -0.6217023, 0.28352207, 9.783346176147461, -1.1539363861083984, 1.6490694284439087, -5.391794204711914, 1.602465033531189, -1.983421802520752, -0.59765625, 0.195556640625, -0.170166015625, 0, 
408, 2069359067, 0.7113969, 0.16457963, -0.62169194, 0.28342244, 9.829989433288574, -1.293589472770691, 1.5737974643707275, -3.33467698097229, 1.292941689491272, -2.233292818069458, -0.597900390625, 0.199462890625, -0.167724609375, 0, 
409, 2069375734, 0.7114798, 0.16479185, -0.6215658, 0.28336772, 9.842741012573242, -1.2391974925994873, 1.5243901014328003, 0.5959498882293701, 1.488027572631836, -2.4059290885925293, -0.599609375, 0.199951171875, -0.16845703125, 0, 
410, 2069392401, 0.71160454, 0.16487102, -0.6215027, 0.28314665, 9.854573249816895, -1.1005243062973022, 1.563706636428833, -0.20666886866092682, 1.3469141721725464, -2.52776837348938, -0.598876953125, 0.195556640625, -0.16845703125, 0, 
411, 2069409068, 0.7119398, 0.1643695, -0.6216124, 0.2823532, 9.8263521194458, -1.1900286674499512, 1.5329172611236572, -2.5848021507263184, 1.4848709106445312, -2.4272711277008057, -0.598388671875, 0.195068359375, -0.167236328125, 0, 
412, 2069425735, 0.7122433, 0.16420415, -0.621526, 0.28187376, 9.853076934814453, -1.2553759813308716, 1.5122395753860474, -1.3744481801986694, 2.264918565750122, -2.880359649658203, -0.59716796875, 0.19775390625, -0.166259765625, 0, 
413, 2069442402, 0.7125405, 0.16418506, -0.62135303, 0.2815154, 9.801732063293457, -1.1482791900634766, 1.599673867225647, -0.8385980725288391, 2.621318817138672, -3.154447078704834, -0.598388671875, 0.196533203125, -0.170654296875, 0, 
414, 2069459069, 0.7127134, 0.1643076, -0.6212022, 0.28133896, 9.848130226135254, -1.1236284971237183, 1.5779186487197876, -1.583633542060852, 2.164030075073242, -3.024232864379883, -0.598388671875, 0.192138671875, -0.170654296875, 0, 
415, 2069475736, 0.7128357, 0.16459055, -0.62099516, 0.28132063, 9.865043640136719, -1.1790691614151, 1.5609400272369385, -1.3319499492645264, 2.2399520874023438, -3.1504387855529785, -0.59765625, 0.196044921875, -0.170166015625, 0, 
416, 2069492403, 0.7130527, 0.1647605, -0.6207716, 0.2811648, 9.871562004089355, -1.1501408815383911, 1.6055861711502075, -1.2249658107757568, 2.6470913887023926, -3.2994792461395264, -0.59765625, 0.1943359375, -0.170166015625, 0, 
417, 2069509070, 0.7133043, 0.16478904, -0.6206096, 0.28086782, 9.857124328613281, -1.1258819103240967, 1.6174424886703491, -2.6997580528259277, 2.607661247253418, -3.388765811920166, -0.60009765625, 0.19384765625, -0.1689453125, 0, 
418, 2069525737, 0.71363604, 0.16472125, -0.6204512, 0.28041446, 9.840472221374512, -1.2018316984176636, 1.6024694442749023, -2.4204514026641846, 2.775578260421753, -3.6125054359436035, -0.59765625, 0.19384765625, -0.169677734375, 0, 
419, 2069542404, 0.71404254, 0.16463815, -0.6202599, 0.2798507, 9.891369819641113, -1.140018105506897, 1.746504783630371, -0.7375240325927734, 2.917785882949829, -3.8551273345947266, -0.598388671875, 0.192138671875, -0.170166015625, 0, 
420, 2069559071, 0.71423787, 0.16486865, -0.62009805, 0.27957493, 9.840418815612793, -1.0400444269180298, 1.8142523765563965, -1.1788116693496704, 1.9579949378967285, -3.962592363357544, -0.599365234375, 0.192138671875, -0.171875, 0, 
421, 2069575738, 0.7143129, 0.16538167, -0.61990833, 0.27950084, 9.878607749938965, -1.0994274616241455, 1.8309699296951294, -0.04711456224322319, 1.3997660875320435, -4.217617988586426, -0.60009765625, 0.1904296875, -0.170166015625, 0, 
422, 2069592405, 0.71430296, 0.16642593, -0.61948735, 0.27983975, 9.983128547668457, -1.0829333066940308, 1.970438838005066, 2.933544397354126, 1.8236308097839355, -4.90953254699707, -0.60009765625, 0.189208984375, -0.169189453125, 0, 
423, 2069609072, 0.7145825, 0.16702339, -0.61918384, 0.27944136, 10.091706275939941, -0.8888983726501465, 2.193702220916748, 3.496537923812866, 1.8115930557250977, -5.848226070404053, -0.60009765625, 0.188720703125, -0.169677734375, 0, 
424, 2069625739, 0.7147386, 0.16812223, -0.6187379, 0.27937084, 10.20142936706543, -0.9243680834770203, 2.2921512126922607, 5.661233901977539, 1.6097266674041748, -6.683289527893066, -0.598876953125, 0.185302734375, -0.17138671875, 0, 
425, 2069642406, 0.7148656, 0.17006603, -0.6178894, 0.2797473, 10.374771118164062, -1.0345768928527832, 2.342622995376587, 12.378768920898438, 2.3536040782928467, -8.516946792602539, -0.598876953125, 0.18603515625, -0.17431640625, 0, 
426, 2069659073, 0.714829, 0.17357914, -0.6162624, 0.2812676, 10.546966552734375, -0.951041579246521, 2.462047576904297, 21.409074783325195, 4.293402194976807, -11.138763427734375, -0.60400390625, 0.181884765625, -0.17431640625, 0, 
427, 2069675740, 0.715203, 0.17736518, -0.6141283, 0.28261948, 10.48563003540039, -0.8288648724555969, 2.541714668273926, 28.13836669921875, 7.2468581199646, -13.463319778442383, -0.60107421875, 0.17626953125, -0.176025390625, 0, 
428, 2069692407, 0.7157035, 0.18203811, -0.61123055, 0.28465602, 10.395098686218262, -0.5829817652702332, 2.58833646774292, 30.732675552368164, 11.14732551574707, -16.172298431396484, -0.599853515625, 0.171875, -0.1806640625, 0, 
429, 2069709074, 0.7169249, 0.1862059, -0.60791975, 0.28597367, 10.337905883789062, -0.4504123628139496, 2.6709885597229004, 28.269527435302734, 15.991944313049316, -18.916269302368164, -0.599853515625, 0.167236328125, -0.182861328125, 0, 
430, 2069725741, 0.71902376, 0.18919782, -0.6044709, 0.2860506, 10.150117874145508, -0.36642423272132874, 2.725590229034424, 24.57002830505371, 20.440227508544922, -20.367250442504883, -0.600341796875, 0.159423828125, -0.1904296875, 0, 
431, 2069742408, 0.72161317, 0.19188942, -0.6005357, 0.28602636, 10.133048057556152, -0.260974258184433, 2.7590277194976807, 21.179630279541016, 25.471586227416992, -21.55656623840332, -0.59814453125, 0.152099609375, -0.194580078125, 0, 
432, 2069759075, 0.7245219, 0.19461972, -0.5960246, 0.28626418, 10.107698440551758, -0.16755644977092743, 2.8096706867218018, 18.157045364379883, 30.2195987701416, -22.86256980895996, -0.600341796875, 0.149169921875, -0.201904296875, 0, 
433, 2069775742, 0.72783333, 0.19704929, -0.5911257, 0.2863596, 10.086796760559082, -0.09427790343761444, 2.873812437057495, 14.61284351348877, 34.263031005859375, -24.042613983154297, -0.597412109375, 0.140869140625, -0.208740234375, 0, 
434, 2069792409, 0.7316325, 0.1988556, -0.586037, 0.28588858, 10.053166389465332, -0.021981600672006607, 2.946021318435669, 10.420306205749512, 37.546382904052734, -25.22435760498047, -0.597900390625, 0.131103515625, -0.216796875, 0, 
435, 2069809076, 0.7352845, 0.20123248, -0.58042157, 0.28631142, 10.176698684692383, 0.014977128244936466, 2.939199209213257, 7.482332229614258, 40.049442291259766, -26.149538040161133, -0.59375, 0.1279296875, -0.225341796875, 0, 
436, 2069825743, 0.73947275, 0.20287953, -0.5746726, 0.28595904, 10.318378448486328, 0.1345098614692688, 3.032764434814453, 5.376130104064941, 42.97968292236328, -27.18085479736328, -0.59423828125, 0.12158203125, -0.232177734375, 0, 
437, 2069842410, 0.7433376, 0.20529586, -0.5683716, 0.2868064, 10.29149055480957, 0.34885281324386597, 3.123838186264038, 1.2436243295669556, 44.895206451416016, -28.308290481567383, -0.589599609375, 0.11767578125, -0.242431640625, 0, 
438, 2069859077, 0.74797505, 0.20616812, -0.5624287, 0.28583768, 10.204205513000488, 0.4299432635307312, 3.224065065383911, -3.2706422805786133, 46.24299240112305, -29.286867141723633, -0.586669921875, 0.111083984375, -0.248779296875, 0, 
439, 2069875744, 0.7527871, 0.20683604, -0.5563988, 0.2845208, 10.345247268676758, 0.48179253935813904, 3.233613967895508, -4.722043037414551, 47.195556640625, -30.557159423828125, -0.586181640625, 0.10546875, -0.25390625, 0, 
440, 2069892411, 0.75801855, 0.2071765, -0.55019724, 0.282436, 10.425955772399902, 0.658638596534729, 3.3821492195129395, -3.6449625492095947, 49.206668853759766, -32.531192779541016, -0.58251953125, 0.097412109375, -0.266845703125, 0, 
441, 2069909078, 0.7632624, 0.20778883, -0.5437152, 0.2804094, 10.340572357177734, 0.8848876953125, 3.543919563293457, -5.130854606628418, 50.19047164916992, -34.9306755065918, -0.580322265625, 0.091796875, -0.271484375, 0, 
442, 2069925745, 0.7685856, 0.20841469, -0.53712857, 0.27808988, 10.206380844116211, 0.8286924958229065, 3.6189918518066406, -7.0226664543151855, 50.53236770629883, -37.22262191772461, -0.574462890625, 0.082763671875, -0.28515625, 0, 
443, 2069942412, 0.77443326, 0.20848419, -0.5305453, 0.27442762, 10.049365043640137, 0.7749048471450806, 3.6420319080352783, -4.459193229675293, 51.895103454589844, -39.22134780883789, -0.57373046875, 0.077880859375, -0.2919921875, 0, 
444, 2069959079, 0.78002506, 0.20951849, -0.52324307, 0.27181056, 9.97424602508545, 0.9788731932640076, 3.765393018722534, -2.7811553478240967, 54.13875198364258, -41.09602355957031, -0.5673828125, 0.068359375, -0.299560546875, 0, 
445, 2069975746, 0.78584176, 0.21004568, -0.5160312, 0.26841527, 9.789351463317871, 1.1365121603012085, 3.918088912963867, -5.0270514488220215, 54.45830154418945, -42.27689743041992, -0.562744140625, 0.06103515625, -0.30908203125, 0, 
446, 2069992413, 0.7917569, 0.21032698, -0.50874895, 0.26468712, 9.753108978271484, 1.1569818258285522, 4.053077697753906, -7.210587978363037, 55.178977966308594, -43.340110778808594, -0.559326171875, 0.055908203125, -0.320068359375, 0, 
447, 2070009080, 0.79778844, 0.21023418, -0.50141734, 0.26060918, 9.653291702270508, 1.2697982788085938, 4.206245422363281, -9.860051155090332, 56.0826530456543, -43.90907669067383, -0.5556640625, 0.045166015625, -0.326416015625, 0, 
448, 2070025747, 0.803886, 0.20960815, -0.4942044, 0.2561152, 9.703741073608398, 1.3147425651550293, 4.2238688468933105, -13.666871070861816, 56.09739303588867, -43.88401794433594, -0.550537109375, 0.03515625, -0.336669921875, 0, 
449, 2070042414, 0.80994505, 0.20886932, -0.4869153, 0.25155017, 9.718043327331543, 1.2871404886245728, 4.315365791320801, -15.510398864746094, 56.38125228881836, -44.46402359008789, -0.544189453125, 0.02783203125, -0.346923828125, 0, 
450, 2070059081, 0.8158928, 0.20827842, -0.479573, 0.24688037, 9.721068382263184, 1.3105764389038086, 4.435458660125732, -14.594930648803711, 55.92691421508789, -45.32117462158203, -0.54052734375, 0.022216796875, -0.353759765625, 0, 
451, 2070075748, 0.8217564, 0.2078688, -0.47210768, 0.24212088, 9.706439971923828, 1.2946221828460693, 4.562063217163086, -13.28036880493164, 55.946022033691406, -46.306427001953125, -0.53662109375, 0.0166015625, -0.361572265625, 0, 
452, 2070092415, 0.8274073, 0.20808631, -0.46441793, 0.23751734, 9.680810928344727, 1.285901427268982, 4.611739158630371, -8.666657447814941, 55.701560974121094, -47.475196838378906, -0.53076171875, 0.006591796875, -0.3720703125, 0, 
453, 2070109082, 0.8328864, 0.20889625, -0.45644423, 0.23307186, 9.609694480895996, 1.4945414066314697, 4.796213150024414, -4.443493366241455, 55.987247467041016, -48.78693389892578, -0.523193359375, -0.001708984375, -0.381591796875, 0, 
454, 2070125749, 0.83833146, 0.20944513, -0.44849753, 0.22843885, 9.371642112731934, 1.753619909286499, 5.026649475097656, -6.883734703063965, 55.824951171875, -49.15812301635742, -0.51123046875, -0.010009765625, -0.388427734375, 0, 
455, 2070142416, 0.84378254, 0.20957384, -0.4406326, 0.22350393, 9.259702682495117, 1.753474235534668, 5.16377592086792, -10.709951400756836, 55.54056167602539, -49.70100021362305, -0.50830078125, -0.019775390625, -0.400390625, 0, 
456, 2070159083, 0.8492159, 0.2094191, -0.43275362, 0.21840721, 9.125228881835938, 1.8047611713409424, 5.303185939788818, -12.709169387817383, 55.787254333496094, -49.72747802734375, -0.501220703125, -0.024658203125, -0.412353515625, 0, 
457, 2070175750, 0.8545887, 0.20900461, -0.4248969, 0.21321219, 8.913049697875977, 1.896316647529602, 5.475428581237793, -14.41147518157959, 55.73582458496094, -49.381446838378906, -0.494384765625, -0.034912109375, -0.42041015625, 0, 
458, 2070192417, 0.8599248, 0.20836802, -0.4169855, 0.20793459, 8.768987655639648, 1.9139719009399414, 5.619324207305908, -15.398112297058105, 56.250850677490234, -48.95832443237305, -0.485107421875, -0.03857421875, -0.425537109375, 0, 
459, 2070209084, 0.8651684, 0.20749196, -0.40907842, 0.20269877, 8.609977722167969, 1.898016095161438, 5.680916786193848, -16.921045303344727, 56.28375244140625, -48.13800048828125, -0.47705078125, -0.047119140625, -0.439697265625, 0, 
460, 2070225751, 0.8703864, 0.20625567, -0.40120268, 0.19729115, 8.39626693725586, 1.9352288246154785, 5.740030288696289, -19.205955505371094, 56.3706169128418, -47.818824768066406, -0.471923828125, -0.051025390625, -0.447265625, 0, 
461, 2070242418, 0.875461, 0.20502134, -0.39327633, 0.19201422, 8.31043529510498, 1.8671293258666992, 5.782088279724121, -18.56389045715332, 56.46440124511719, -46.92377853393555, -0.463134765625, -0.0537109375, -0.458984375, 0, 
462, 2070259085, 0.8804438, 0.2036598, -0.38529107, 0.1867984, 8.060840606689453, 2.0442001819610596, 5.969913959503174, -18.95751953125, 56.831417083740234, -46.17900466918945, -0.456787109375, -0.0615234375, -0.463134765625, 0, 
463, 2070275752, 0.88529116, 0.20188184, -0.37757593, 0.18149695, 7.927185535430908, 2.1847217082977295, 6.147573471069336, -21.86336326599121, 55.25746536254883, -45.04362869262695, -0.4453125, -0.06640625, -0.474365234375, 0, 
464, 2070292419, 0.89001876, 0.19971529, -0.3700194, 0.17625943, 7.784136772155762, 2.132075309753418, 6.349903106689453, -24.097679138183594, 54.55845642089844, -43.28062438964844, -0.43896484375, -0.06689453125, -0.481201171875, 0, 
465, 2070309086, 0.8945893, 0.19742858, -0.36255357, 0.17113762, 7.569473743438721, 2.1451189517974854, 6.584146499633789, -24.43252182006836, 53.91165542602539, -41.95416259765625, -0.434326171875, -0.06982421875, -0.490966796875, 0, 
466, 2070325753, 0.89911586, 0.19461423, -0.35519713, 0.16598958, 7.478373050689697, 2.2856199741363525, 6.839396953582764, -27.81113624572754, 53.71510314941406, -40.6023063659668, -0.424560546875, -0.0703125, -0.499755859375, 0, 
467, 2070342420, 0.9035582, 0.191752, -0.34770107, 0.16099453, 7.614035606384277, 2.244929313659668, 6.857327461242676, -27.46218490600586, 54.632408142089844, -39.63307189941406, -0.41259765625, -0.07080078125, -0.50830078125, 0, 
468, 2070359087, 0.9079557, 0.18897337, -0.33988628, 0.15615538, 7.5607452392578125, 2.317586660385132, 7.062530994415283, -26.15719985961914, 56.62318420410156, -39.23793029785156, -0.40380859375, -0.073486328125, -0.51904296875, 0, 
469, 2070375754, 0.9123256, 0.18573011, -0.33206296, 0.1513341, 7.386558532714844, 2.4940226078033447, 7.338334083557129, -28.970640182495117, 57.138267517089844, -38.025882720947266, -0.390625, -0.071533203125, -0.52685546875, 0, 
470, 2070392421, 0.9166961, 0.1819061, -0.32423326, 0.14646792, 7.414920806884766, 2.3945581912994385, 7.432887077331543, -32.711551666259766, 57.72874450683594, -36.991058349609375, -0.385986328125, -0.075439453125, -0.534912109375, 0, 
471, 2070409088, 0.92105854, 0.17810357, -0.31603137, 0.14161912, 7.404485702514648, 2.286053419113159, 7.46041202545166, -32.1523551940918, 60.0632438659668, -37.39003372192383, -0.372314453125, -0.07373046875, -0.546142578125, 0, 
472, 2070425755, 0.9252345, 0.1750575, -0.30745995, 0.1369879, 7.290570259094238, 2.403883695602417, 7.659878253936768, -26.300085067749023, 61.53559112548828, -37.931884765625, -0.363525390625, -0.06982421875, -0.55517578125, 0, 
473, 2070442422, 0.9292518, 0.17260227, -0.2985788, 0.13248277, 7.176009178161621, 2.6624603271484375, 7.8527512550354, -21.7918701171875, 62.7740364074707, -38.60562515258789, -0.3544921875, -0.072021484375, -0.56640625, 0, 
474, 2070459089, 0.9332375, 0.16981426, -0.28963968, 0.12783173, 7.019566535949707, 2.8837997913360596, 7.872518062591553, -24.130414962768555, 63.21696853637695, -38.896541595458984, -0.34228515625, -0.073486328125, -0.574951171875, 0, 
475, 2070475756, 0.9372203, 0.16652818, -0.28068835, 0.122889645, 6.921788215637207, 2.7361268997192383, 7.812653541564941, -27.897268295288086, 63.397701263427734, -39.78360366821289, -0.326904296875, -0.070068359375, -0.58447265625, 0, 
476, 2070492423, 0.9410757, 0.16344516, -0.27156943, 0.11795606, 6.603770732879639, 2.55833101272583, 7.873141288757324, -26.288801193237305, 64.08164978027344, -40.205108642578125, -0.322265625, -0.071533203125, -0.59228515625, 0, 
477, 2070509090, 0.94473785, 0.1608645, -0.26231474, 0.11307225, 6.399743556976318, 2.6707518100738525, 7.926053524017334, -22.620866775512695, 64.25883483886719, -40.81988525390625, -0.303955078125, -0.0703125, -0.605224609375, 0, 
478, 2070525757, 0.9482935, 0.1582771, -0.25299028, 0.10809773, 6.250789165496826, 2.7626609802246094, 7.979137897491455, -22.660879135131836, 64.43536376953125, -41.392433166503906, -0.29296875, -0.07080078125, -0.61376953125, 0, 
479, 2070542424, 0.95174104, 0.15549123, -0.24372847, 0.10300248, 6.060726165771484, 2.738088846206665, 8.06099796295166, -24.09994888305664, 63.86607360839844, -41.68898391723633, -0.279052734375, -0.070556640625, -0.623291015625, 0, 
480, 2070559091, 0.9550732, 0.15244955, -0.23456477, 0.09785253, 5.696157932281494, 2.7666893005371094, 8.305254936218262, -25.817031860351562, 63.16523361206055, -41.43311309814453, -0.26708984375, -0.06591796875, -0.6328125, 0, 
481, 2070575758, 0.9582321, 0.14930002, -0.22564003, 0.09267613, 5.520502090454102, 2.6324427127838135, 8.23627758026123, -26.55223846435547, 61.37022018432617, -41.06575393676758, -0.252197265625, -0.061279296875, -0.639404296875, 0, 
482, 2070592425, 0.96112555, 0.14698188, -0.2166546, 0.08772844, 5.5838494300842285, 2.3446788787841797, 8.231766700744629, -20.41330337524414, 61.071434020996094, -40.74403381347656, -0.239501953125, -0.0634765625, -0.646240234375, 0, 
483, 2070609092, 0.96379626, 0.14533052, -0.20760976, 0.082916595, 5.263514041900635, 2.5249996185302734, 8.511155128479004, -15.54541015625, 60.881465911865234, -40.77035140991211, -0.229248046875, -0.062744140625, -0.654052734375, 0, 
484, 2070625759, 0.9663669, 0.14344306, -0.1986819, 0.07801327, 5.074769020080566, 2.6263489723205566, 8.541354179382324, -17.209304809570312, 60.01597213745117, -40.869014739990234, -0.216064453125, -0.063232421875, -0.65869140625, 0, 
485, 2070642426, 0.9688095, 0.14169352, -0.18971637, 0.073076256, 5.063950538635254, 2.3195886611938477, 8.3767728805542, -16.197473526000977, 59.99475860595703, -41.2520866394043, -0.1982421875, -0.0625, -0.668212890625, 0, 
486, 2070659093, 0.971073, 0.140546, -0.18055654, 0.068300925, 4.884251594543457, 2.312220573425293, 8.50217056274414, -11.704245567321777, 60.923702239990234, -41.0655403137207, -0.1875, -0.060791015625, -0.675537109375, 0, 
487, 2070675760, 0.97321177, 0.13928899, -0.17151192, 0.06358056, 4.5055108070373535, 2.579833745956421, 8.759345054626465, -12.301717758178711, 60.11716079711914, -40.39872741699219, -0.177001953125, -0.062744140625, -0.679443359375, 0, 
488, 2070692427, 0.9753094, 0.13722058, -0.16274397, 0.058803458, 4.381962776184082, 2.5339205265045166, 8.680597305297852, -17.882652282714844, 58.52770233154297, -39.541934967041016, -0.162841796875, -0.05712890625, -0.68896484375, 0, 
489, 2070709094, 0.97729605, 0.13501006, -0.15405616, 0.054156847, 4.291731834411621, 2.251877546310425, 8.654983520507812, -18.620223999023438, 58.05784606933594, -38.390045166015625, -0.14501953125, -0.06201171875, -0.693603515625, 0, 
490, 2070725761, 0.97913647, 0.13287982, -0.14550138, 0.049654692, 4.0678391456604, 2.366847515106201, 8.693020820617676, -17.842021942138672, 57.125553131103516, -37.332984924316406, -0.134765625, -0.056884765625, -0.698974609375, 0, 
491, 2070742428, 0.98084646, 0.13064031, -0.1372165, 0.045234565, 3.863145351409912, 2.346383810043335, 8.782601356506348, -18.469980239868164, 55.30226135253906, -36.38352966308594, -0.120361328125, -0.051513671875, -0.7041015625, 0, 
492, 2070759095, 0.982425, 0.1283095, -0.1292353, 0.040957928, 3.6642043590545654, 2.318065881729126, 8.863957405090332, -18.927228927612305, 53.29780197143555, -35.02128601074219, -0.107177734375, -0.049072265625, -0.708984375, 0, 
493, 2070775762, 0.9838751, 0.12596433, -0.12154993, 0.036742244, 3.4467549324035645, 2.291753053665161, 8.91244888305664, -18.94211769104004, 51.254234313964844, -34.30300521850586, -0.09912109375, -0.05029296875, -0.713623046875, 0, 
494, 2070792429, 0.98514456, 0.12413021, -0.11409013, 0.03266169, 3.3492815494537354, 2.139409065246582, 8.904654502868652, -15.272576332092285, 49.57481384277344, -33.57819747924805, -0.08837890625, -0.04345703125, -0.7158203125, 0, 
495, 2070809096, 0.986256, 0.122769564, -0.10678896, 0.028712746, 3.0830912590026855, 2.250150680541992, 9.086257934570312, -11.86352825164795, 48.3932991027832, -32.89153289794922, -0.072998046875, -0.043212890625, -0.7197265625, 0, 
496, 2070825763, 0.9872676, 0.12144459, -0.09969754, 0.024816593, 2.895197868347168, 2.3335378170013428, 9.094542503356934, -11.54029655456543, 46.94286346435547, -32.367366790771484, -0.063232421875, -0.039794921875, -0.725830078125, 0, 
497, 2070842430, 0.9881959, 0.12007739, -0.09279362, 0.020999432, 2.7072560787200928, 2.2685434818267822, 9.195455551147461, -11.736492156982422, 45.693458557128906, -31.634838104248047, -0.049560546875, -0.0390625, -0.726318359375, 0, 
498, 2070859097, 0.98906106, 0.118469365, -0.086168215, 0.017304385, 2.4870455265045166, 2.3296098709106445, 9.335245132446289, -13.284138679504395, 43.903892517089844, -30.41514778137207, -0.04150390625, -0.033203125, -0.73193359375, 0, 
499, 2070875764, 0.98987895, 0.11650804, -0.0798658, 0.013736831, 2.310859203338623, 2.2991199493408203, 9.388120651245117, -15.612269401550293, 41.830257415771484, -29.072437286376953, -0.033935546875, -0.034912109375, -0.733642578125, 0, 
500, 2070892431, 0.9906127, 0.11468046, -0.073695906, 0.010260329, 2.289433002471924, 2.112454652786255, 9.378255844116211, -14.59851360321045, 40.94736099243164, -28.4148006439209, -0.02099609375, -0.031982421875, -0.73583984375, 0, 
501, 2070909098, 0.99122196, 0.113361, -0.06769156, 0.006913876, 2.1621901988983154, 2.0368406772613525, 9.354120254516602, -10.984707832336426, 39.82966613769531, -27.64986801147461, -0.01171875, -0.02685546875, -0.735107421875, 0, 
502, 2070925765, 0.9917577, 0.11226892, -0.061650436, 0.003613123, 2.0608158111572266, 2.024562120437622, 9.414780616760254, -9.352762222290039, 40.07712936401367, -27.472366333007812, -0.001953125, -0.02490234375, -0.738525390625, 0, 
503, 2070942432, 0.99227214, 0.11088975, -0.055683654, 4.2712828E-4, 1.7877241373062134, 2.234860420227051, 9.660079956054688, -11.245946884155273, 39.6624755859375, -26.514663696289062, 0.00830078125, -0.022705078125, -0.742431640625, 0, 
504, 2070959099, 0.9927726, 0.10909862, -0.049944155, -0.0026899623, 1.738036036491394, 2.2641375064849854, 9.66447639465332, -14.020167350769043, 38.165504455566406, -25.714815139770508, 0.016845703125, -0.0185546875, -0.7412109375, 0, 
505, 2070975766, 0.99319935, 0.10755631, -0.04421749, -0.0057343715, 1.785921573638916, 1.9845319986343384, 9.605560302734375, -12.243254661560059, 38.115936279296875, -25.29790496826172, 0.025390625, -0.01513671875, -0.74560546875, 0, 
506, 2070992433, 0.99352545, 0.10651597, -0.038564727, -0.008697515, 1.557313323020935, 1.9890432357788086, 9.63095474243164, -8.711468696594238, 37.66836929321289, -24.84876823425293, 0.0361328125, -0.015625, -0.74609375, 0, 
507, 2071009100, 0.99377745, 0.10577284, -0.03293258, -0.011631485, 1.4932767152786255, 1.9832098484039307, 9.609343528747559, -6.617344379425049, 37.55175018310547, -24.71994400024414, 0.047607421875, -0.010986328125, -0.748291015625, 0, 
508, 2071025767, 0.9939814, 0.10506308, -0.027465612, -0.014483233, 1.3304662704467773, 2.0026586055755615, 9.574995994567871, -6.320919036865234, 36.4817008972168, -24.053634643554688, 0.054931640625, -0.01123046875, -0.744873046875, 0, 
