sep=,
DeviceTag:,Xsens_5,,,,,,,,,,,,,,,,,
FirmwareVersion:,2.2.1,,,,,,,,,,,,,,,,,
AppVersion:,2023.0.0,,,,,,,,,,,,,,,,,
StartTime:,2023-07-04 23:51:53.000 +0200,,,,,,,,,,,,,,,,,
© Movella Technologies B. V. 2005-2023,,,,,,,,,,,,,,,,,,,

PacketCounter,SampleTimeFine,Quat_W,Quat_X,Quat_Y,Quat_Z,Acc_X,Acc_Y,Acc_Z,Gyr_X,Gyr_Y,Gyr_Z,Mag_X,Mag_Y,Mag_Z,Status,
0, 263619008, 0.55724114, -0.5869782, -0.36935765, -0.4566333, 0.0, 0.0, 0.0, 0.0, 0.0, 0.0, -0.7138671875, 0.17431640625, 0.717529296875, 0, 
1, 263635675, 0.5573083, -0.58687073, -0.36920696, -0.4568113, 9.377180099487305, -3.123194694519043, 0.3838501572608948, 0.8572250008583069, -1.1712815761566162, -0.12294096499681473, -0.713623046875, 0.1748046875, 0.715087890625, 0, 
2, 263652342, 0.55731034, -0.5868028, -0.3692447, -0.45686555, 9.363595962524414, -3.141317129135132, 0.39418378472328186, 0.8728743195533752, -1.1171106100082397, 0.004027596674859524, -0.712646484375, 0.173095703125, 0.715087890625, 0, 
3, 263669009, 0.5572786, -0.586847, -0.3691456, -0.45692766, 9.386568069458008, -3.1166207790374756, 0.38426902890205383, 0.6491857767105103, -0.9761127233505249, 0.0746161937713623, -0.712646484375, 0.1748046875, 0.71630859375, 0, 
4, 263685676, 0.5572338, -0.58685535, -0.369246, -0.45689017, 9.396747589111328, -3.1303722858428955, 0.39567574858665466, 0.3819173574447632, -1.1876225471496582, -0.0011909904424101114, -0.713623046875, 0.172607421875, 0.715087890625, 0, 
5, 263702343, 0.5571239, -0.5869279, -0.3692593, -0.4569205, 9.395983695983887, -3.150543451309204, 0.400505393743515, 0.6918182969093323, -1.3752611875534058, 0.06989065557718277, -0.712158203125, 0.173828125, 0.71630859375, 0, 
6, 263719010, 0.55711645, -0.5869727, -0.36932486, -0.456819, 9.388689994812012, -3.1536591053009033, 0.40760934352874756, 0.7027547359466553, -1.4889941215515137, 0.2838975489139557, -0.71533203125, 0.1708984375, 0.71630859375, 0, 
7, 263735677, 0.55708146, -0.5870474, -0.36928672, -0.45679647, 9.378503799438477, -3.1606929302215576, 0.3918268382549286, 1.465782880783081, -1.5275797843933105, 0.26307442784309387, -0.712646484375, 0.172607421875, 0.7158203125, 0, 
8, 263752344, 0.5571407, -0.5870543, -0.3693849, -0.4566358, 9.366623878479004, -3.0210535526275635, 0.39294278621673584, 1.8565685749053955, -1.7055754661560059, 0.1748771071434021, -0.7138671875, 0.173828125, 0.722412109375, 0, 
9, 263769011, 0.55708975, -0.58707035, -0.36951703, -0.45657063, 9.397768020629883, -3.004793167114258, 0.3751058876514435, 0.7728439569473267, -1.5597108602523804, 0.07279769331216812, -0.713134765625, 0.171630859375, 0.715087890625, 0, 
10, 263785678, 0.55690664, -0.58714443, -0.36956725, -0.45665798, 9.3731689453125, -3.0854759216308594, 0.38496074080467224, 0.15742206573486328, -1.2841953039169312, 0.09998558461666107, -0.712646484375, 0.173828125, 0.718017578125, 0, 
11, 263802345, 0.5568372, -0.5871289, -0.36975452, -0.456611, 9.363068580627441, -3.123256206512451, 0.36048293113708496, 0.8162575364112854, -1.4417260885238647, 0.052730146795511246, -0.711669921875, 0.172119140625, 0.717529296875, 0, 
12, 263819012, 0.5567823, -0.58712155, -0.3698895, -0.45657814, 9.386109352111816, -3.0692811012268066, 0.36640462279319763, 0.999081015586853, -1.187673807144165, 0.06246297433972359, -0.712646484375, 0.1748046875, 0.716796875, 0, 
13, 263835679, 0.5567026, -0.58712524, -0.37003154, -0.45655546, 9.395380973815918, -3.0472257137298584, 0.35998448729515076, 0.23979249596595764, -1.0205892324447632, -0.06437751650810242, -0.71484375, 0.172119140625, 0.716796875, 0, 
14, 263852346, 0.5565485, -0.5871733, -0.37005708, -0.4566611, 9.426485061645508, -3.0554542541503906, 0.3451683819293976, -0.16029706597328186, -0.5936254858970642, -0.12381180375814438, -0.71484375, 0.171630859375, 0.715087890625, 0, 
15, 263869013, 0.55640644, -0.5871995, -0.37007874, -0.45678255, 9.417537689208984, -3.0679173469543457, 0.3508259356021881, -0.11283675581216812, -0.33716559410095215, -0.16130879521369934, -0.71435546875, 0.17333984375, 0.71630859375, 0, 
16, 263885680, 0.55632734, -0.5871848, -0.37019694, -0.45680207, 9.393062591552734, -3.0967416763305664, 0.3601348102092743, 0.297062486410141, -0.6092364192008972, -0.11620481312274933, -0.712646484375, 0.172119140625, 0.714111328125, 0, 
17, 263902347, 0.55618924, -0.58723176, -0.37032938, -0.4568025, 9.386900901794434, -3.086979866027832, 0.3462873101234436, 0.18441784381866455, -1.1724854707717896, -0.21394287049770355, -0.71435546875, 0.172119140625, 0.7158203125, 0, 
18, 263919014, 0.5560889, -0.58725333, -0.3704797, -0.45677513, 9.389087677001953, -3.0799977779388428, 0.35651105642318726, 0.6606987714767456, -1.189671516418457, -0.18929065763950348, -0.71484375, 0.169921875, 0.717529296875, 0, 
19, 263935681, 0.55598426, -0.58727056, -0.37062365, -0.4567638, 9.393706321716309, -3.053846836090088, 0.3153856098651886, 0.7586801648139954, -1.1571049690246582, -0.2921384274959564, -0.715576171875, 0.1689453125, 0.721435546875, 0, 
20, 263952348, 0.55581814, -0.5873455, -0.37069285, -0.45681337, 9.41709041595459, -3.063708543777466, 0.31449243426322937, -0.019875453785061836, -0.9423296451568604, -0.2757847309112549, -0.716064453125, 0.16943359375, 0.717529296875, 0, 
21, 263969015, 0.5556255, -0.58745724, -0.37071007, -0.45689, 9.404627799987793, -3.0841667652130127, 0.32096242904663086, -0.2997710406780243, -0.850328803062439, -0.16835226118564606, -0.715576171875, 0.168701171875, 0.71923828125, 0, 
22, 263985682, 0.55542696, -0.58759165, -0.37071782, -0.45695224, 9.39671516418457, -3.0939579010009766, 0.3417106866836548, -0.5928571224212646, -0.8829721808433533, -0.08596902340650558, -0.712646484375, 0.17041015625, 0.71923828125, 0, 
23, 264002349, 0.5553114, -0.58766454, -0.37079984, -0.45693234, 9.40590763092041, -3.1039531230926514, 0.32484573125839233, 0.013056071475148201, -0.9713231325149536, -0.030094921588897705, -0.715576171875, 0.168212890625, 0.71923828125, 0, 
24, 264019016, 0.5552711, -0.58767205, -0.37093037, -0.45686573, 9.371164321899414, -3.0883209705352783, 0.31896042823791504, 1.318817138671875, -1.1063790321350098, -0.009143734350800514, -0.71435546875, 0.167724609375, 0.72021484375, 0, 
25, 264035683, 0.55519617, -0.58770454, -0.371061, -0.45680887, 9.384238243103027, -3.045877695083618, 0.32853591442108154, 1.2298130989074707, -1.286935806274414, -0.12228783965110779, -0.713134765625, 0.167724609375, 0.716796875, 0, 
26, 264052350, 0.55513716, -0.5877387, -0.3712156, -0.456711, 9.39278507232666, -3.0857746601104736, 0.3349432647228241, 0.9212568998336792, -1.3351386785507202, -0.02731594257056713, -0.7138671875, 0.164794921875, 0.718505859375, 0, 
27, 264069017, 0.55497855, -0.5878614, -0.37123448, -0.45673072, 9.38752555847168, -3.0801262855529785, 0.3421870172023773, 0.9017910361289978, -1.3653619289398193, 0.010533221997320652, -0.712158203125, 0.167724609375, 0.7197265625, 0, 
28, 264085684, 0.5549361, -0.5878924, -0.3713963, -0.45661077, 9.403197288513184, -3.080080986022949, 0.33708900213241577, 1.1977585554122925, -1.4677355289459229, 0.029806775972247124, -0.71337890625, 0.168701171875, 0.721923828125, 0, 
29, 264102351, 0.55489004, -0.5879264, -0.37157425, -0.45647812, 9.405150413513184, -3.0708398818969727, 0.3331405818462372, 1.1951205730438232, -1.594044804573059, -0.00832412764430046, -0.71435546875, 0.168701171875, 0.718505859375, 0, 
30, 264119018, 0.5548119, -0.58799404, -0.3717174, -0.4563695, 9.412727355957031, -3.088106393814087, 0.33773717284202576, 0.9617118835449219, -1.6267776489257812, 0.02418478950858116, -0.71630859375, 0.167724609375, 0.726318359375, 0, 
31, 264135685, 0.5547025, -0.5880917, -0.37186605, -0.4562555, 9.391889572143555, -3.082515001296997, 0.3385732173919678, 0.6492242217063904, -1.8220106363296509, -0.018505174666643143, -0.71484375, 0.168701171875, 0.7197265625, 0, 
32, 264152352, 0.55461556, -0.588179, -0.3720439, -0.45610368, 9.409404754638672, -3.0641655921936035, 0.3314702808856964, 0.8585698008537292, -1.9734585285186768, 0.033187657594680786, -0.71337890625, 0.16552734375, 0.72021484375, 0, 
33, 264169019, 0.55459327, -0.58820206, -0.37228873, -0.45590094, 9.419479370117188, -3.0595993995666504, 0.31197723746299744, 1.6107121706008911, -2.04811954498291, -0.011397650465369225, -0.71484375, 0.168701171875, 0.7197265625, 0, 
34, 264185686, 0.5546299, -0.5881844, -0.37254307, -0.45567152, 9.412189483642578, -3.0605599880218506, 0.3020515441894531, 2.2313079833984375, -1.9581935405731201, 0.13667577505111694, -0.715576171875, 0.167724609375, 0.721435546875, 0, 
35, 264202353, 0.5546115, -0.5882186, -0.37271628, -0.45550826, 9.40530776977539, -3.0724737644195557, 0.32912445068359375, 2.2751824855804443, -1.9776207208633423, 0.1987481564283371, -0.712158203125, 0.168212890625, 0.72021484375, 0, 
36, 264219020, 0.5546439, -0.58821684, -0.37292683, -0.4552982, 9.391602516174316, -3.0463531017303467, 0.32920852303504944, 1.8124505281448364, -1.7315465211868286, 0.2526116371154785, -0.716796875, 0.167236328125, 0.722412109375, 0, 
37, 264235687, 0.5546504, -0.5882217, -0.37306795, -0.45516858, 9.398096084594727, -3.064995527267456, 0.33493340015411377, 1.5003982782363892, -1.3221019506454468, 0.1710992306470871, -0.71435546875, 0.16650390625, 0.721923828125, 0, 
38, 264252354, 0.55469966, -0.5881831, -0.37321705, -0.45503628, 9.395421981811523, -3.0908517837524414, 0.3398532271385193, 1.754425048828125, -1.0910241603851318, 0.16237811744213104, -0.711181640625, 0.16650390625, 0.72314453125, 0, 
39, 264269021, 0.55472016, -0.5881796, -0.37329262, -0.45495412, 9.396422386169434, -3.0865445137023926, 0.3495568633079529, 1.9192556142807007, -1.0592900514602661, 0.27896711230278015, -0.712890625, 0.168212890625, 0.7236328125, 0, 
40, 264285688, 0.55477715, -0.58815604, -0.37335405, -0.45486438, 9.415653228759766, -3.0633583068847656, 0.36181554198265076, 1.5562982559204102, -0.7094590067863464, 0.40046098828315735, -0.7138671875, 0.169921875, 0.716796875, 0, 
41, 264302355, 0.5548276, -0.58813864, -0.37340537, -0.45478335, 9.38388442993164, -3.092388868331909, 0.39950835704803467, 1.3145015239715576, -0.6430708765983582, 0.3979381322860718, -0.71435546875, 0.16943359375, 0.721435546875, 0, 
42, 264319022, 0.5549056, -0.588112, -0.37351546, -0.45463216, 9.411589622497559, -3.132091999053955, 0.3756718337535858, 1.906872034072876, -1.1049959659576416, 0.48185816407203674, -0.71337890625, 0.166015625, 0.722412109375, 0, 
43, 264335689, 0.5550191, -0.5880503, -0.37362048, -0.4544869, 9.402188301086426, -3.090057134628296, 0.37724560499191284, 2.6586556434631348, -1.0436149835586548, 0.49906980991363525, -0.7138671875, 0.167724609375, 0.721435546875, 0, 
44, 264352356, 0.5551437, -0.58798444, -0.37374052, -0.45432112, 9.395684242248535, -3.0397226810455322, 0.38805797696113586, 2.455611228942871, -1.0384669303894043, 0.5236836671829224, -0.715087890625, 0.16650390625, 0.7197265625, 0, 
45, 264369023, 0.5551405, -0.58802426, -0.3736987, -0.45430797, 9.394393920898438, -3.061213970184326, 0.39116641879081726, 1.2063132524490356, -0.6644318103790283, 0.4900285601615906, -0.713134765625, 0.168212890625, 0.717529296875, 0, 
46, 264385690, 0.55518997, -0.5880254, -0.37372354, -0.45422563, 9.38048267364502, -3.123539447784424, 0.4052041471004486, 1.2303893566131592, -0.7207413911819458, 0.5295489430427551, -0.7138671875, 0.168701171875, 0.72021484375, 0, 
47, 264402357, 0.5553023, -0.58798176, -0.3737629, -0.45411247, 9.40869140625, -3.128307819366455, 0.4181234538555145, 1.886484146118164, -0.6513309478759766, 0.6594054102897644, -0.71435546875, 0.167724609375, 0.7197265625, 0, 
48, 264419024, 0.55548173, -0.58787847, -0.37384614, -0.4539583, 9.389347076416016, -3.1000828742980957, 0.3871340751647949, 2.5825860500335693, -0.6295345425605774, 0.6809712648391724, -0.716552734375, 0.16943359375, 0.71923828125, 0, 
49, 264435691, 0.55567855, -0.58775455, -0.3739188, -0.4538183, 9.37608814239502, -3.0851595401763916, 0.4438662827014923, 2.8867239952087402, -0.5052233338356018, 0.673210620880127, -0.7138671875, 0.16943359375, 0.72021484375, 0, 
50, 264452358, 0.55580163, -0.5876958, -0.3738844, -0.4537718, 9.380748748779297, -3.0567708015441895, 0.4261617064476013, 1.6396160125732422, -0.09100192040205002, 0.6802541017532349, -0.712646484375, 0.168212890625, 0.72021484375, 0, 
51, 264469025, 0.55586475, -0.5876808, -0.37383795, -0.45375204, 9.413107872009277, -3.135444164276123, 0.4396701753139496, 0.8186907172203064, -0.14049845933914185, 0.5462356209754944, -0.714111328125, 0.166015625, 0.728759765625, 0, 
52, 264485692, 0.5559344, -0.5876442, -0.37376237, -0.45377636, 9.417928695678711, -3.1540255546569824, 0.4231419563293457, 1.7214360237121582, -0.11167138069868088, 0.4821142852306366, -0.713134765625, 0.1669921875, 0.7158203125, 0, 
53, 264502359, 0.5561688, -0.5874817, -0.37381056, -0.45366007, 9.428913116455078, -3.110100269317627, 0.39741259813308716, 2.894510507583618, -0.10882836580276489, 0.6772318482398987, -0.716064453125, 0.1689453125, 0.721435546875, 0, 
54, 264519026, 0.5563972, -0.5873341, -0.37379873, -0.4535806, 9.427505493164062, -3.0705251693725586, 0.4038132131099701, 2.5812158584594727, 0.1877218782901764, 0.7978547215461731, -0.7177734375, 0.168212890625, 0.72412109375, 0, 
55, 264535693, 0.5565884, -0.5872424, -0.37365797, -0.4535807, 9.431057929992676, -3.098461627960205, 0.3998751640319824, 1.8120536804199219, 0.6608653664588928, 1.0543917417526245, -0.71484375, 0.16943359375, 0.718017578125, 0, 
56, 264552360, 0.55688363, -0.5870485, -0.37353608, -0.4535701, 9.407502174377441, -3.1327309608459473, 0.384485125541687, 2.4523966312408447, 1.2141764163970947, 1.0736010074615479, -0.715087890625, 0.168212890625, 0.721923828125, 0, 
57, 264569027, 0.5572494, -0.58680975, -0.37339115, -0.4535489, 9.390599250793457, -3.11480975151062, 0.38245636224746704, 2.868180274963379, 1.579810380935669, 1.3080724477767944, -0.712646484375, 0.169189453125, 0.714599609375, 0, 
58, 264585694, 0.55761456, -0.5865601, -0.37320963, -0.4535724, 9.380090713500977, -3.0805912017822266, 0.3798821270465851, 2.7347705364227295, 1.9163551330566406, 1.2540361881256104, -0.71533203125, 0.16943359375, 0.7158203125, 0, 
59, 264602361, 0.5579722, -0.58633554, -0.37296194, -0.45362672, 9.37628173828125, -3.0744059085845947, 0.41067102551460266, 2.275477409362793, 2.216068744659424, 1.444716453552246, -0.7138671875, 0.1708984375, 0.71630859375, 0, 
60, 264619028, 0.55832624, -0.5861327, -0.3726811, -0.45368403, 9.405984878540039, -3.0762546062469482, 0.4270087480545044, 1.9737592935562134, 2.3096187114715576, 1.6132735013961792, -0.7158203125, 0.1708984375, 0.712890625, 0, 
61, 264635695, 0.55862755, -0.58597404, -0.37236127, -0.45378053, 9.418136596679688, -3.069385290145874, 0.442800909280777, 1.4464837312698364, 2.3162524700164795, 1.5778640508651733, -0.7158203125, 0.172119140625, 0.71240234375, 0, 
62, 264652362, 0.5588833, -0.5858524, -0.37207022, -0.45386133, 9.41340160369873, -3.1038851737976074, 0.43582963943481445, 1.1791383028030396, 1.932202935218811, 1.478576421737671, -0.71533203125, 0.169921875, 0.713623046875, 0, 
63, 264669029, 0.5591653, -0.58570975, -0.37186274, -0.4538683, 9.428189277648926, -3.1189942359924316, 0.44215160608291626, 1.9537111520767212, 1.3993754386901855, 1.4614989757537842, -0.716552734375, 0.175048828125, 0.720703125, 0, 
64, 264685696, 0.5594954, -0.58551383, -0.3717184, -0.4538328, 9.41547966003418, -3.088582992553711, 0.40572431683540344, 2.1974477767944336, 1.429412603378296, 1.367660403251648, -0.7158203125, 0.171630859375, 0.71240234375, 0, 
65, 264702363, 0.5597224, -0.5853886, -0.37153357, -0.4538653, 9.385221481323242, -3.036792278289795, 0.40835651755332947, 1.6732200384140015, 1.2260096073150635, 1.1523473262786865, -0.71923828125, 0.1728515625, 0.716796875, 0, 
66, 264719030, 0.5598532, -0.5853516, -0.37124708, -0.4539862, 9.407591819763184, -3.0405502319335938, 0.4011004567146301, 0.34459322690963745, 1.4766616821289062, 1.1543771028518677, -0.717041015625, 0.173828125, 0.714111328125, 0, 
67, 264735697, 0.559935, -0.58536, -0.37095374, -0.45411453, 9.366981506347656, -3.097499370574951, 0.4228837788105011, -0.16772478818893433, 1.3068304061889648, 1.1228160858154297, -0.717529296875, 0.172119140625, 0.710693359375, 0, 
68, 264752364, 0.5600139, -0.5853546, -0.37074196, -0.45419696, 9.354318618774414, -3.1366164684295654, 0.3947840929031372, 0.3407065272331238, 0.8155146837234497, 0.9326159954071045, -0.717041015625, 0.173828125, 0.70947265625, 0, 
69, 264769031, 0.56013465, -0.5853069, -0.37060705, -0.45421994, 9.368059158325195, -3.1336989402770996, 0.3876068890094757, 0.9876705408096313, 0.553087055683136, 0.8690710067749023, -0.7158203125, 0.172607421875, 0.70947265625, 0, 
70, 264785698, 0.56024414, -0.5852598, -0.37050065, -0.45423198, 9.363024711608887, -3.107175588607788, 0.4001864790916443, 1.120690107345581, 0.35608693957328796, 0.764289379119873, -0.714111328125, 0.17431640625, 0.707275390625, 0, 
71, 264802365, 0.5602935, -0.5852641, -0.37037498, -0.45426828, 9.405899047851562, -3.09344482421875, 0.39243242144584656, 0.4239349961280823, 0.26622477173805237, 0.6875280737876892, -0.71826171875, 0.171630859375, 0.714599609375, 0, 
72, 264819032, 0.5603337, -0.58527434, -0.37021455, -0.45433617, 9.395132064819336, -3.121208429336548, 0.39708322286605835, 0.6023339033126831, 0.3494468629360199, 0.71573406457901, -0.7158203125, 0.173095703125, 0.708984375, 0, 
73, 264835699, 0.5603828, -0.58527833, -0.37010017, -0.45436382, 9.38325023651123, -3.130697250366211, 0.3913601338863373, 0.5800380706787109, 0.16959451138973236, 0.6838335394859314, -0.718017578125, 0.172607421875, 0.710693359375, 0, 
74, 264852366, 0.56043154, -0.5852881, -0.37000158, -0.45437127, 9.379135131835938, -3.1230602264404297, 0.39450788497924805, 0.6868365406990051, 0.0063967714086174965, 0.714088499546051, -0.7158203125, 0.17431640625, 0.70556640625, 0, 
75, 264869033, 0.5604871, -0.5853085, -0.36990666, -0.45435384, 9.349173545837402, -3.1390225887298584, 0.4011068642139435, 0.7427619099617004, -0.11588466167449951, 0.8441112637519836, -0.71630859375, 0.17529296875, 0.7080078125, 0, 
76, 264885700, 0.5605269, -0.5853469, -0.3698025, -0.45433983, 9.34567642211914, -3.102857828140259, 0.3829115927219391, 0.4174422025680542, -0.10432053357362747, 0.8564438819885254, -0.71630859375, 0.172607421875, 0.70849609375, 0, 
77, 264902367, 0.56051636, -0.5854276, -0.36969975, -0.45433253, 9.36049747467041, -3.1223087310791016, 0.39713752269744873, 0.2385246753692627, -0.4027725160121918, 0.7861114144325256, -0.71533203125, 0.172607421875, 0.706298828125, 0, 
78, 264919034, 0.56049603, -0.5855248, -0.36956763, -0.45433983, 9.384784698486328, -3.1134443283081055, 0.41220003366470337, 0.021393006667494774, -0.3080311417579651, 0.861476719379425, -0.717529296875, 0.171630859375, 0.7080078125, 0, 
79, 264935701, 0.56048614, -0.5856384, -0.36942783, -0.45431927, 9.378731727600098, -3.1268036365509033, 0.4274355173110962, 8.836381020955741E-4, -0.39598512649536133, 1.0751186609268188, -0.717041015625, 0.17431640625, 0.70849609375, 0, 
80, 264952368, 0.56044966, -0.58579665, -0.36929545, -0.45426813, 9.38971996307373, -3.1324357986450195, 0.4169492721557617, -0.2903199791908264, -0.7142229080200195, 1.1893577575683594, -0.717041015625, 0.175537109375, 0.70947265625, 0, 
81, 264969035, 0.5604332, -0.5859375, -0.36919007, -0.4541922, 9.38585090637207, -3.15736722946167, 0.42453712224960327, -0.03006930835545063, -0.7983605861663818, 1.1946979761123657, -0.7158203125, 0.17138671875, 0.70947265625, 0, 
82, 264985702, 0.56043845, -0.5860688, -0.3691763, -0.45402732, 9.386457443237305, -3.141742467880249, 0.39342454075813293, 0.7891913056373596, -1.4854788780212402, 1.2204066514968872, -0.7197265625, 0.17333984375, 0.710693359375, 0, 
83, 265002369, 0.5604426, -0.5862054, -0.36915985, -0.45385927, 9.372904777526855, -3.101531505584717, 0.36528700590133667, 0.8056154847145081, -1.51787269115448, 1.2551952600479126, -0.71630859375, 0.173828125, 0.707275390625, 0, 
84, 265019036, 0.560485, -0.58632624, -0.36916316, -0.45364806, 9.376789093017578, -3.113369941711426, 0.3986125886440277, 1.0768667459487915, -1.5762311220169067, 1.4206275939941406, -0.71533203125, 0.172119140625, 0.70947265625, 0, 
85, 265035703, 0.56051004, -0.58646595, -0.36913955, -0.45345584, 9.367588996887207, -3.1222078800201416, 0.34599724411964417, 0.9584401249885559, -1.5503560304641724, 1.4612431526184082, -0.7197265625, 0.17431640625, 0.714111328125, 0, 
86, 265052370, 0.5605863, -0.5865367, -0.36914954, -0.45326188, 9.369718551635742, -3.117739200592041, 0.37046194076538086, 1.4794856309890747, -1.313124656677246, 1.3165504932403564, -0.717041015625, 0.175537109375, 0.710693359375, 0, 
87, 265069037, 0.56067663, -0.58659154, -0.36918414, -0.45305082, 9.367992401123047, -3.0858356952667236, 0.4121914505958557, 1.6061275005340576, -1.3479835987091064, 1.2866348028182983, -0.713134765625, 0.173583984375, 0.7080078125, 0, 
88, 265085704, 0.5607177, -0.5866967, -0.36923367, -0.45282355, 9.36850643157959, -3.089073896408081, 0.4520503580570221, 1.3228510618209839, -1.7610907554626465, 1.2701784372329712, -0.7158203125, 0.172607421875, 0.711181640625, 0, 
89, 265102371, 0.5607407, -0.58682775, -0.36927617, -0.4525905, 9.377138137817383, -3.1094956398010254, 0.4277065396308899, 1.3016566038131714, -1.9426718950271606, 1.3435332775115967, -0.717041015625, 0.173828125, 0.710205078125, 0, 
90, 265119038, 0.5607851, -0.5869065, -0.36941633, -0.45231915, 9.387068748474121, -3.0989158153533936, 0.396247535943985, 1.9422369003295898, -2.2421164512634277, 1.0339078903198242, -0.716552734375, 0.173828125, 0.717529296875, 0, 
91, 265135705, 0.56076574, -0.58703065, -0.3695259, -0.45209217, 9.405556678771973, -3.0591838359832764, 0.4002179801464081, 1.302617073059082, -2.2475271224975586, 0.9097567796707153, -0.717041015625, 0.175537109375, 0.70947265625, 0, 
92, 265152372, 0.5606843, -0.5871864, -0.3695912, -0.45193776, 9.409192085266113, -3.0613956451416016, 0.3699159622192383, 0.6080902814865112, -2.0397441387176514, 0.7059052586555481, -0.71484375, 0.17431640625, 0.70947265625, 0, 
93, 265169039, 0.56057805, -0.5873572, -0.36967424, -0.45177937, 9.413847923278809, -3.1007421016693115, 0.4209182858467102, 0.5173572897911072, -2.2322237491607666, 0.6203460097312927, -0.71484375, 0.175537109375, 0.711181640625, 0, 
94, 265185706, 0.56045794, -0.5875443, -0.36979386, -0.45158735, 9.40218734741211, -3.1233763694763184, 0.4102994501590729, 0.5367461442947388, -2.5769193172454834, 0.605068027973175, -0.7158203125, 0.172119140625, 0.710693359375, 0, 
95, 265202373, 0.56038094, -0.587682, -0.3699163, -0.45140353, 9.401130676269531, -3.114032506942749, 0.4010564982891083, 1.0457279682159424, -2.3484346866607666, 0.5810624957084656, -0.717529296875, 0.17431640625, 0.70947265625, 0, 
96, 265219040, 0.56036013, -0.5877428, -0.3701041, -0.4511964, 9.403996467590332, -3.068333148956299, 0.37259641289711, 1.8392863273620605, -2.3174755573272705, 0.39073455333709717, -0.713134765625, 0.17431640625, 0.713623046875, 0, 
97, 265235707, 0.56030846, -0.5878244, -0.3702469, -0.45103696, 9.396676063537598, -3.0590898990631104, 0.36505118012428284, 1.2466661930084229, -2.0495152473449707, 0.35065704584121704, -0.71533203125, 0.17431640625, 0.713623046875, 0, 
98, 265252374, 0.5602352, -0.58792204, -0.37035465, -0.45091233, 9.37647533416748, -3.0899150371551514, 0.385942667722702, 0.935497522354126, -1.8906142711639404, 0.34233295917510986, -0.7119140625, 0.1748046875, 0.712890625, 0, 
99, 265269041, 0.5602209, -0.5879702, -0.37052125, -0.45073017, 9.385518074035645, -3.141464948654175, 0.37754058837890625, 1.64070463180542, -2.0307540893554688, 0.38703984022140503, -0.713623046875, 0.176513671875, 0.7158203125, 0, 
100, 265285708, 0.560318, -0.58791846, -0.37078747, -0.45045805, 9.407245635986328, -3.109766960144043, 0.344783753156662, 2.9411001205444336, -2.1603033542633057, 0.4215274155139923, -0.71435546875, 0.171630859375, 0.71240234375, 0, 
101, 265302375, 0.56044245, -0.5878333, -0.37104166, -0.450205, 9.397823333740234, -3.0868687629699707, 0.36072033643722534, 3.3943235874176025, -1.966588020324707, 0.41224926710128784, -0.7138671875, 0.17431640625, 0.717529296875, 0, 
102, 265319042, 0.56052047, -0.5877754, -0.3712517, -0.4500102, 9.412125587463379, -3.0366666316986084, 0.3517211079597473, 2.685850143432617, -1.7186057567596436, 0.29484057426452637, -0.71484375, 0.176025390625, 0.718017578125, 0, 
103, 265335709, 0.56058145, -0.5877422, -0.3713716, -0.44987866, 9.3966646194458, -3.0975704193115234, 0.32665812969207764, 2.0545740127563477, -1.2263938188552856, 0.4361587166786194, -0.71435546875, 0.175537109375, 0.7197265625, 0, 
104, 265352376, 0.56068283, -0.58766395, -0.37154084, -0.449715, 9.384127616882324, -3.1265223026275635, 0.32938656210899353, 2.6320316791534424, -1.303571105003357, 0.37647467851638794, -0.713623046875, 0.175537109375, 0.712890625, 0, 
105, 265369043, 0.56087226, -0.5875197, -0.3717872, -0.4494634, 9.395516395568848, -3.1409080028533936, 0.3652453124523163, 3.6985321044921875, -1.5230722427368164, 0.5117738246917725, -0.71484375, 0.176025390625, 0.718505859375, 0, 
106, 265385710, 0.56108195, -0.58736914, -0.3720862, -0.44915125, 9.405352592468262, -3.0978095531463623, 0.3731555938720703, 4.222394943237305, -1.934393048286438, 0.5836622714996338, -0.71435546875, 0.176513671875, 0.715087890625, 0, 
107, 265402377, 0.5613009, -0.5872048, -0.37240663, -0.4488265, 9.38158130645752, -3.0596368312835693, 0.3578892648220062, 4.4402241706848145, -2.014054775238037, 0.5480413436889648, -0.713623046875, 0.1748046875, 0.712890625, 0, 
108, 265419044, 0.56141067, -0.58713007, -0.37264207, -0.44859144, 9.387395858764648, -3.0644562244415283, 0.31009817123413086, 3.1782352924346924, -1.8865289688110352, 0.4455265402793884, -0.71533203125, 0.176025390625, 0.710693359375, 0, 
109, 265435711, 0.5614872, -0.5870783, -0.37285274, -0.44838858, 9.365707397460938, -3.1303014755249023, 0.3010100722312927, 2.8491950035095215, -1.8316601514816284, 0.38731521368026733, -0.71435546875, 0.177734375, 0.717529296875, 0, 
110, 265452378, 0.56162804, -0.58698124, -0.37310255, -0.4481313, 9.34994888305664, -3.1330463886260986, 0.3360140919685364, 3.4910430908203125, -1.8769629001617432, 0.5238630175590515, -0.713623046875, 0.176513671875, 0.71240234375, 0, 
111, 265469045, 0.5618066, -0.58685637, -0.37337407, -0.4478445, 9.322235107421875, -3.116156816482544, 0.3589670956134796, 3.9844586849212646, -1.9280215501785278, 0.5993307828903198, -0.710205078125, 0.177490234375, 0.710205078125, 0, 
112, 265485712, 0.5619778, -0.58674306, -0.37368295, -0.44752052, 9.319519996643066, -3.0761494636535645, 0.37530821561813354, 3.9932701587677, -2.2356560230255127, 0.5971153378486633, -0.714111328125, 0.17822265625, 0.7119140625, 0, 
113, 265502379, 0.562151, -0.58664227, -0.37400013, -0.44717008, 9.330751419067383, -3.1120541095733643, 0.38298749923706055, 4.109698295593262, -2.4316952228546143, 0.7123019695281982, -0.71142578125, 0.1787109375, 0.715087890625, 0, 
114, 265519046, 0.5623749, -0.58648545, -0.37438163, -0.446775, 9.334341049194336, -3.1201558113098145, 0.3933180272579193, 4.832418441772461, -2.55806827545166, 0.6398245096206665, -0.7119140625, 0.180419921875, 0.710693359375, 0, 
115, 265535713, 0.5625643, -0.5863578, -0.3747712, -0.44637743, 9.343525886535645, -3.0952141284942627, 0.3832671046257019, 4.5723347663879395, -2.7686049938201904, 0.5866140723228455, -0.7109375, 0.1787109375, 0.710205078125, 0, 
116, 265552380, 0.56274796, -0.58625346, -0.37513086, -0.44598058, 9.348917007446289, -3.1052160263061523, 0.3911074101924896, 4.466784954071045, -2.774944305419922, 0.7557475566864014, -0.712158203125, 0.180419921875, 0.716796875, 0, 
117, 265569047, 0.56292695, -0.58615935, -0.37549025, -0.44557557, 9.387212753295898, -3.095310688018799, 0.35808566212654114, 4.415284156799316, -2.851167917251587, 0.804495096206665, -0.7119140625, 0.180908203125, 0.7158203125, 0, 
118, 265585714, 0.5630636, -0.58609766, -0.37582752, -0.4451996, 9.410895347595215, -3.075136184692383, 0.3768094778060913, 4.000088691711426, -2.8670473098754883, 0.741244375705719, -0.710205078125, 0.179931640625, 0.7119140625, 0, 
119, 265602381, 0.5631844, -0.58604467, -0.37614843, -0.4448455, 9.405420303344727, -3.0896430015563965, 0.4184764325618744, 3.823125123977661, -2.7958571910858154, 0.7054315209388733, -0.7109375, 0.180908203125, 0.711181640625, 0, 
120, 265619048, 0.563248, -0.5860394, -0.37644178, -0.44452366, 9.419074058532715, -3.089254140853882, 0.4179438352584839, 3.2172365188598633, -2.8524093627929688, 0.6453118920326233, -0.7109375, 0.179931640625, 0.7119140625, 0, 
121, 265635715, 0.56331533, -0.58601844, -0.3767303, -0.44422162, 9.405012130737305, -3.1138672828674316, 0.4499102830886841, 3.336758852005005, -2.741781711578369, 0.5687940120697021, -0.710205078125, 0.1826171875, 0.7119140625, 0, 
122, 265652382, 0.5634182, -0.58596885, -0.37701562, -0.44391418, 9.36168384552002, -3.0927700996398926, 0.4055838882923126, 3.499892473220825, -2.5495264530181885, 0.6383005380630493, -0.71142578125, 0.18310546875, 0.71240234375, 0, 
123, 265669049, 0.5635154, -0.5859056, -0.37726805, -0.4436597, 9.368415832519531, -3.0473899841308594, 0.4158310294151306, 3.283221960067749, -2.1851091384887695, 0.5185996294021606, -0.7119140625, 0.183837890625, 0.7119140625, 0, 
124, 265685716, 0.5635482, -0.58588874, -0.37743253, -0.44350058, 9.379243850708008, -3.064831495285034, 0.4474759101867676, 2.3671321868896484, -1.7896618843078613, 0.43720242381095886, -0.71142578125, 0.1826171875, 0.7119140625, 0, 
125, 265702383, 0.56360364, -0.58585805, -0.377548, -0.44337204, 9.36005973815918, -3.131256341934204, 0.46542081236839294, 2.3004367351531982, -1.3917940855026245, 0.5562502145767212, -0.7119140625, 0.183837890625, 0.710205078125, 0, 
126, 265719050, 0.563668, -0.58579516, -0.37761298, -0.4433182, 9.380332946777344, -3.083648681640625, 0.47259169816970825, 2.0768380165100098, -0.7728760242462158, 0.41641765832901, -0.709228515625, 0.18310546875, 0.70947265625, 0, 
127, 265735717, 0.56371003, -0.5857321, -0.37764016, -0.4433251, 9.40760326385498, -3.0939996242523193, 0.5015047192573547, 1.7368675470352173, -0.45891550183296204, 0.2707326114177704, -0.70751953125, 0.18359375, 0.711181640625, 0, 
128, 265752384, 0.56370544, -0.5857347, -0.37761506, -0.4433486, 9.42486572265625, -3.088167428970337, 0.5242590308189392, 1.0828025341033936, -0.5213145017623901, 0.45265328884124756, -0.7080078125, 0.180908203125, 0.710693359375, 0, 
129, 265769051, 0.5636731, -0.5857428, -0.3775953, -0.4433959, 9.427535057067871, -3.1328392028808594, 0.5298376083374023, 0.9206869006156921, -0.5563014149665833, 0.2747986316680908, -0.708251953125, 0.18310546875, 0.717529296875, 0, 
130, 265785718, 0.563713, -0.5856823, -0.37762955, -0.44339594, 9.405555725097656, -3.1217029094696045, 0.5030856132507324, 1.7254695892333984, -0.5610077381134033, 0.28547272086143494, -0.709228515625, 0.184326171875, 0.710205078125, 0, 
131, 265802385, 0.5637768, -0.58559304, -0.3777084, -0.44336563, 9.375804901123047, -3.092806100845337, 0.4794960021972656, 2.1590096950531006, -0.7232002019882202, 0.22627541422843933, -0.708740234375, 0.1826171875, 0.717529296875, 0, 
132, 265819052, 0.5638307, -0.5854945, -0.3777294, -0.4434091, 9.364355087280273, -3.0665509700775146, 0.5025739669799805, 1.8267552852630615, -0.22503317892551422, 0.12608490884304047, -0.7109375, 0.183349609375, 0.71630859375, 0, 
133, 265835719, 0.563846, -0.5854277, -0.37767884, -0.44352108, 9.370588302612305, -3.1087865829467773, 0.47872117161750793, 1.1731704473495483, 0.11213880777359009, 0.12007874250411987, -0.709716796875, 0.18310546875, 0.711181640625, 0, 
134, 265852386, 0.56384414, -0.58537453, -0.37755308, -0.4437005, 9.38318157196045, -3.108478307723999, 0.4818059802055359, 0.6135777831077576, 0.5896939635276794, 0.14786210656166077, -0.709228515625, 0.180908203125, 0.714599609375, 0, 
135, 265869053, 0.563844, -0.58530724, -0.3774024, -0.4439176, 9.384515762329102, -3.115992307662964, 0.45484864711761475, 0.5755429863929749, 0.8494836688041687, 0.077119842171669, -0.712646484375, 0.181640625, 0.715087890625, 0, 
136, 265885720, 0.5638686, -0.585219, -0.37725186, -0.44413072, 9.399386405944824, -3.099898338317871, 0.45750904083251953, 0.8012165427207947, 0.9394610524177551, 0.1182154193520546, -0.7119140625, 0.1826171875, 0.7080078125, 0, 
137, 265902387, 0.56394905, -0.5850819, -0.3770854, -0.44435057, 9.3986234664917, -3.091496467590332, 0.4682304263114929, 1.1170017719268799, 1.326859474182129, 0.20378103852272034, -0.710693359375, 0.183837890625, 0.708984375, 0, 
138, 265919054, 0.5640143, -0.58497477, -0.37686756, -0.4445934, 9.390854835510254, -3.09263014793396, 0.44952642917633057, 0.6567032337188721, 1.5015125274658203, 0.3562406301498413, -0.71240234375, 0.1826171875, 0.706298828125, 0, 
139, 265935721, 0.5640954, -0.5848486, -0.3766389, -0.44485024, 9.390563011169434, -3.113210439682007, 0.44607260823249817, 0.7438631653785706, 1.6848993301391602, 0.34945324063301086, -0.710693359375, 0.184326171875, 0.7080078125, 0, 
140, 265952388, 0.564197, -0.5847018, -0.37640953, -0.44510847, 9.397516250610352, -3.1153318881988525, 0.4087836444377899, 0.8447900414466858, 1.822746992111206, 0.359480619430542, -0.709716796875, 0.181396484375, 0.705078125, 0, 
141, 265969055, 0.56434107, -0.58451843, -0.3761859, -0.4453555, 9.392927169799805, -3.1028459072113037, 0.4224330186843872, 1.2476651668548584, 1.959045171737671, 0.4206053614616394, -0.712646484375, 0.1826171875, 0.714111328125, 0, 
142, 265985722, 0.5644542, -0.58437216, -0.37592992, -0.44562006, 9.39876651763916, -3.0731399059295654, 0.4095664322376251, 0.8207910656929016, 1.9634119272232056, 0.48809483647346497, -0.710205078125, 0.180419921875, 0.706298828125, 0, 
143, 266002389, 0.5645987, -0.58421046, -0.3756365, -0.44589642, 9.383984565734863, -3.0967960357666016, 0.42612069845199585, 0.9042692184448242, 2.2674412727355957, 0.6570426225662231, -0.71240234375, 0.1826171875, 0.7080078125, 0, 
144, 266019056, 0.56474316, -0.5840369, -0.37536505, -0.4461695, 9.38264274597168, -3.0641846656799316, 0.3916413187980652, 0.9929788112640381, 2.2138466835021973, 0.5547454357147217, -0.714599609375, 0.1826171875, 0.707763671875, 0, 
145, 266035723, 0.5648721, -0.5838734, -0.37508202, -0.44645822, 9.39093017578125, -3.0940451622009277, 0.41489169001579285, 0.8606764078140259, 2.234874725341797, 0.5268148183822632, -0.714111328125, 0.18212890625, 0.706298828125, 0, 
146, 266052390, 0.56499857, -0.58371526, -0.37478524, -0.44675407, 9.392278671264648, -3.089679002761841, 0.42585766315460205, 0.7873471975326538, 2.287867307662964, 0.566476047039032, -0.711669921875, 0.181884765625, 0.70166015625, 0, 
147, 266069057, 0.56512344, -0.5835445, -0.37449726, -0.4470606, 9.37793254852295, -3.072935104370117, 0.42380091547966003, 0.8311578035354614, 2.3296799659729004, 0.4585569202899933, -0.71337890625, 0.181396484375, 0.702392578125, 0, 
148, 266085724, 0.5652298, -0.5834036, -0.3742221, -0.44734022, 9.38759708404541, -3.0414741039276123, 0.4186134934425354, 0.7306983470916748, 2.037278652191162, 0.5356320142745972, -0.71337890625, 0.180908203125, 0.703369140625, 0, 
149, 266102391, 0.565312, -0.58329654, -0.37391323, -0.44763422, 9.369462966918945, -3.0633010864257812, 0.46811556816101074, 0.40273410081863403, 2.0469541549682617, 0.6381660103797913, -0.714599609375, 0.183837890625, 0.703369140625, 0, 
150, 266119058, 0.56537884, -0.5832002, -0.37364388, -0.4479003, 9.365693092346191, -3.0698719024658203, 0.4390060603618622, 0.39078572392463684, 1.7421114444732666, 0.569908082485199, -0.7177734375, 0.180419921875, 0.7021484375, 0, 
151, 266135725, 0.56547624, -0.58307624, -0.37343714, -0.44811124, 9.382917404174805, -3.088186740875244, 0.44556936621665955, 0.9809086918830872, 1.4315000772476196, 0.5631143450737, -0.715087890625, 0.181396484375, 0.70068359375, 0, 
152, 266152392, 0.56556976, -0.5829542, -0.37323877, -0.44831693, 9.379497528076172, -3.0782246589660645, 0.44142088294029236, 1.0289901494979858, 1.3509032726287842, 0.5495588183403015, -0.715087890625, 0.18359375, 0.70068359375, 0, 
153, 266169059, 0.565644, -0.58283675, -0.3730864, -0.44850293, 9.38295841217041, -3.0609376430511475, 0.4779101610183716, 1.0535272359848022, 1.0558195114135742, 0.39519113302230835, -0.717529296875, 0.180419921875, 0.706298828125, 0, 
154, 266185726, 0.56569934, -0.58273655, -0.37293065, -0.44869277, 9.408539772033691, -3.06182599067688, 0.46536770462989807, 1.05115807056427, 0.9261680841445923, 0.3931165337562561, -0.715087890625, 0.1796875, 0.6982421875, 0, 
155, 266202393, 0.5657308, -0.58265924, -0.3727825, -0.44887656, 9.398565292358398, -3.0569396018981934, 0.4797111749649048, 0.888018012046814, 0.7462900280952454, 0.3770957887172699, -0.716796875, 0.18212890625, 0.699462890625, 0, 
156, 266219060, 0.5657429, -0.5826065, -0.37264892, -0.44904065, 9.394767761230469, -3.047635316848755, 0.487571120262146, 0.7395346164703369, 0.508597731590271, 0.4022410213947296, -0.716796875, 0.180419921875, 0.70166015625, 0, 
157, 266235727, 0.5657611, -0.5825504, -0.3725218, -0.44919613, 9.386026382446289, -3.074474573135376, 0.44364088773727417, 0.8852580785751343, 0.4519937038421631, 0.4291471540927887, -0.7177734375, 0.1826171875, 0.697265625, 0, 
158, 266252394, 0.5657726, -0.5825011, -0.37244192, -0.44931164, 9.400242805480957, -3.070286989212036, 0.4719262719154358, 0.9797691106796265, 0.10590210556983948, 0.393071711063385, -0.716064453125, 0.1826171875, 0.697265625, 0, 
159, 266269061, 0.5657965, -0.58243763, -0.37235364, -0.44943687, 9.397467613220215, -3.0794036388397217, 0.4591751992702484, 1.0586369037628174, 0.24534402787685394, 0.39691999554634094, -0.716552734375, 0.1787109375, 0.695556640625, 0, 
160, 266285728, 0.56579196, -0.58238286, -0.3722899, -0.4495663, 9.434978485107422, -3.0812301635742188, 0.47051653265953064, 1.0871822834014893, 0.029877211898565292, 0.22689008712768555, -0.716064453125, 0.180419921875, 0.699462890625, 0, 
161, 266302395, 0.56580967, -0.5823081, -0.3722321, -0.44968867, 9.438840866088867, -3.1127028465270996, 0.5140448212623596, 1.2542411088943481, 0.11153050512075424, 0.2519521415233612, -0.715576171875, 0.180419921875, 0.69775390625, 0, 
162, 266319062, 0.56585443, -0.582211, -0.37223238, -0.4497579, 9.425854682922363, -3.11924409866333, 0.49042412638664246, 1.7902253866195679, -0.1992732286453247, 0.25606295466423035, -0.7177734375, 0.1796875, 0.695068359375, 0, 
163, 266335729, 0.56590456, -0.5821044, -0.37223586, -0.44983003, 9.405274391174316, -3.1003265380859375, 0.4981285035610199, 1.8363279104232788, -0.15249159932136536, 0.22667236626148224, -0.71826171875, 0.18310546875, 0.69775390625, 0, 
164, 266352396, 0.56587535, -0.58207214, -0.372198, -0.44993997, 9.417166709899902, -3.108379364013672, 0.512947142124176, 0.8963419795036316, -0.23570726811885834, 0.1882789433002472, -0.719482421875, 0.181396484375, 0.6982421875, 0, 
165, 266369063, 0.56582296, -0.5820435, -0.37213755, -0.45009258, 9.418181419372559, -3.184530258178711, 0.4899475574493408, 0.7248649597167969, -0.08819092065095901, 0.05747489631175995, -0.71728515625, 0.180908203125, 0.701171875, 0, 
166, 266385730, 0.5658221, -0.5819818, -0.37210307, -0.4502021, 9.380056381225586, -3.1438753604888916, 0.5348260402679443, 1.2644349336624146, -0.13096414506435394, 0.19475896656513214, -0.71826171875, 0.181396484375, 0.69677734375, 0, 
167, 266402397, 0.56576735, -0.58199066, -0.37203684, -0.45031416, 9.365571975708008, -3.1156060695648193, 0.5180457830429077, 0.6050616502761841, -0.3354431092739105, 0.3233219087123871, -0.71728515625, 0.180419921875, 0.695556640625, 0, 
168, 266419064, 0.56569237, -0.5820333, -0.37198997, -0.45039195, 9.338107109069824, -3.1886215209960938, 0.5337722301483154, 0.6103506684303284, -0.7286620736122131, 0.4064863920211792, -0.7177734375, 0.18212890625, 0.697265625, 0, 
169, 266435731, 0.56572145, -0.5820106, -0.37201896, -0.45036083, 9.35341739654541, -3.2062907218933105, 0.5500442981719971, 1.701547622680664, -0.9615262746810913, 0.6737740635871887, -0.716552734375, 0.1796875, 0.695068359375, 0, 
170, 266452398, 0.5658161, -0.5819383, -0.37207073, -0.4502925, 9.356159210205078, -3.1986687183380127, 0.5284109115600586, 2.5133934020996094, -0.9463891983032227, 0.808048665523529, -0.71826171875, 0.180419921875, 0.697265625, 0, 
171, 266469065, 0.56590456, -0.5818983, -0.37212348, -0.4501895, 9.345480918884277, -3.180561065673828, 0.5101243257522583, 2.2937004566192627, -1.1509323120117188, 0.9903983473777771, -0.7177734375, 0.1787109375, 0.70068359375, 0, 
172, 266485732, 0.5659552, -0.58190227, -0.37214023, -0.45010686, 9.344964027404785, -3.2030293941497803, 0.5369623899459839, 2.076082229614258, -1.254561185836792, 1.0615758895874023, -0.7177734375, 0.181396484375, 0.695068359375, 0, 
173, 266502399, 0.5661074, -0.58184063, -0.3722013, -0.44994453, 9.383312225341797, -3.189110517501831, 0.5159401297569275, 2.8478312492370605, -1.2063708305358887, 1.3244134187698364, -0.7177734375, 0.180419921875, 0.697265625, 0, 
174, 266519066, 0.56626236, -0.58180934, -0.37220803, -0.4497845, 9.393784523010254, -3.1523590087890625, 0.5311566591262817, 2.665123224258423, -1.1072754859924316, 1.622097134590149, -0.715087890625, 0.181396484375, 0.695068359375, 0, 
175, 266535733, 0.566355, -0.5818557, -0.37216198, -0.449646, 9.407027244567871, -3.1501801013946533, 0.5200191140174866, 1.8063164949417114, -1.187532901763916, 1.7502118349075317, -0.71728515625, 0.181396484375, 0.695068359375, 0, 
176, 266552400, 0.56648195, -0.58188665, -0.372118, -0.44948238, 9.410311698913574, -3.209397077560425, 0.5188928842544556, 2.182067632675171, -1.198725700378418, 1.9129037857055664, -0.716552734375, 0.18359375, 0.69384765625, 0, 
177, 266569067, 0.5666263, -0.58190846, -0.37213674, -0.4492567, 9.410172462463379, -3.170301914215088, 0.551457405090332, 2.5256431102752686, -1.5796953439712524, 1.924820065498352, -0.7177734375, 0.18359375, 0.693359375, 0, 
178, 266585734, 0.5667666, -0.5819485, -0.37217847, -0.44899294, 9.38644790649414, -3.124791145324707, 0.5531412959098816, 2.6889495849609375, -1.9196016788482666, 2.020125150680542, -0.716552734375, 0.184326171875, 0.695068359375, 0, 
179, 266602401, 0.56689227, -0.58200693, -0.37218758, -0.4487513, 9.364563941955566, -3.088388442993164, 0.5322632789611816, 2.3961832523345947, -1.8010914325714111, 2.0670344829559326, -0.715576171875, 0.184326171875, 0.695068359375, 0, 
180, 266619068, 0.5669314, -0.5821504, -0.37218985, -0.4485138, 9.334927558898926, -3.0968942642211914, 0.5693934559822083, 1.6345000267028809, -2.224386215209961, 2.0312535762786865, -0.715087890625, 0.18359375, 0.69677734375, 0, 
181, 266635735, 0.56688815, -0.5823789, -0.3721654, -0.4482918, 9.31750202178955, -3.136300563812256, 0.5572977066040039, 0.9616608619689941, -2.5744988918304443, 2.048779010772705, -0.71484375, 0.188232421875, 0.696533203125, 0, 
182, 266652402, 0.56695896, -0.5824956, -0.37228927, -0.4479477, 9.3214111328125, -3.168877363204956, 0.5458856225013733, 2.3803927898406982, -2.925706386566162, 1.984087586402893, -0.71337890625, 0.18701171875, 0.69677734375, 0, 
183, 266669069, 0.5670358, -0.5825844, -0.37248275, -0.44757396, 9.334185600280762, -3.0690345764160156, 0.5529155731201172, 2.935920238494873, -3.2623608112335205, 1.7730010747909546, -0.715087890625, 0.18701171875, 0.699462890625, 0, 
184, 266685736, 0.56693757, -0.5828147, -0.372658, -0.44725266, 9.371857643127441, -3.01872181892395, 0.5722234845161438, 1.4717440605163574, -3.863649845123291, 1.4696054458618164, -0.712646484375, 0.184814453125, 0.69677734375, 0, 
185, 266702403, 0.56684554, -0.5830159, -0.37286472, -0.44693482, 9.381415367126465, -3.160186290740967, 0.5430741310119629, 1.79104483127594, -3.9043807983398438, 1.287243127822876, -0.7138671875, 0.188232421875, 0.702880859375, 0, 
186, 266719070, 0.5669178, -0.58301866, -0.3732385, -0.44652736, 9.369976997375488, -3.137979507446289, 0.4883119761943817, 3.8894808292388916, -3.861511468887329, 0.9589011669158936, -0.711181640625, 0.1875, 0.697265625, 0, 
187, 266735737, 0.5668883, -0.5830572, -0.37358183, -0.44622722, 9.387353897094727, -2.939286708831787, 0.5159603357315063, 3.0415852069854736, -3.70766282081604, 0.44755634665489197, -0.7099609375, 0.185791015625, 0.6982421875, 0, 
188, 266752404, 0.56665105, -0.58328176, -0.37368146, -0.44615182, 9.358391761779785, -3.0461111068725586, 0.5379831194877625, 0.18884243071079254, -2.9746782779693604, 0.4028237462043762, -0.711669921875, 0.188720703125, 0.699462890625, 0, 
189, 266769071, 0.5664742, -0.58342135, -0.3738326, -0.44606712, 9.335165023803711, -3.176889181137085, 0.5176846981048584, 0.8552401065826416, -2.770372152328491, 0.2011045217514038, -0.7099609375, 0.18798828125, 0.699951171875, 0, 
190, 266785738, 0.5664023, -0.58345515, -0.3740039, -0.44597045, 9.351436614990234, -3.164630174636841, 0.5571184754371643, 1.766098141670227, -2.301589250564575, 0.2146984487771988, -0.7099609375, 0.186279296875, 0.696044921875, 0, 
191, 266802405, 0.56628853, -0.58349615, -0.37413993, -0.44594738, 9.370368003845215, -3.105227470397949, 0.5762508511543274, 1.3661876916885376, -2.0383098125457764, -0.03663896769285202, -0.711181640625, 0.189208984375, 0.69677734375, 0, 
192, 266819072, 0.5661079, -0.58360285, -0.37418956, -0.44599533, 9.365777969360352, -3.1767866611480713, 0.5801923274993896, 0.2637275755405426, -1.7527025938034058, -0.004994476214051247, -0.71337890625, 0.1865234375, 0.699951171875, 0, 
193, 266835739, 0.5659722, -0.5836596, -0.37426275, -0.44603187, 9.385628700256348, -3.229973316192627, 0.5819535255432129, 0.8724069595336914, -1.673309564590454, -0.040948301553726196, -0.71337890625, 0.188720703125, 0.707275390625, 0, 
194, 266852406, 0.56592643, -0.5836396, -0.37434876, -0.44604394, 9.3827486038208, -3.19946551322937, 0.5474045872688293, 1.5699430704116821, -1.341740369796753, 0.07407192140817642, -0.70947265625, 0.185791015625, 0.701171875, 0, 
195, 266869073, 0.5658465, -0.58365786, -0.3743923, -0.44608495, 9.344103813171387, -3.1850881576538086, 0.5696645379066467, 1.1754436492919922, -1.303244709968567, 0.12897275388240814, -0.7099609375, 0.185791015625, 0.699462890625, 0, 
196, 266885740, 0.5657898, -0.5836577, -0.37443703, -0.44611946, 9.35262393951416, -3.2100870609283447, 0.5912331938743591, 1.2700824737548828, -1.1939743757247925, 0.16712285578250885, -0.712890625, 0.18359375, 0.701171875, 0, 
197, 266902407, 0.56572914, -0.5836621, -0.37442672, -0.44619927, 9.343389511108398, -3.2197484970092773, 0.5951715111732483, 1.2159180641174316, -0.9223772287368774, 0.21953286230564117, -0.711669921875, 0.189208984375, 0.702880859375, 0, 
198, 266919074, 0.5656816, -0.5836723, -0.37442514, -0.4462476, 9.352540969848633, -3.185960531234741, 0.5685079097747803, 1.0302131175994873, -0.9621410369873047, 0.34465086460113525, -0.71240234375, 0.18603515625, 0.703369140625, 0, 
199, 266935741, 0.56565875, -0.58368045, -0.37437806, -0.44630536, 9.344099998474121, -3.2372310161590576, 0.5673410892486572, 1.1049447059631348, -0.7303141951560974, 0.5648369193077087, -0.7119140625, 0.188232421875, 0.707763671875, 0, 
200, 266952408, 0.5656634, -0.5836608, -0.3743613, -0.44633928, 9.337489128112793, -3.2003896236419678, 0.5630804896354675, 1.1999293565750122, -0.6989129185676575, 0.5324624180793762, -0.711669921875, 0.185791015625, 0.6982421875, 0, 
201, 266969075, 0.5656507, -0.58366555, -0.37426242, -0.44643185, 9.333763122558594, -3.198275089263916, 0.5672119855880737, 1.0109460353851318, -0.4003713130950928, 0.657298743724823, -0.711669921875, 0.188720703125, 0.70166015625, 0, 
202, 266985742, 0.56568575, -0.5836431, -0.37416497, -0.4464986, 9.328393936157227, -3.237882137298584, 0.5322771072387695, 1.1456561088562012, -0.22890712320804596, 0.81544429063797, -0.711669921875, 0.18603515625, 0.702880859375, 0, 
203, 267002409, 0.5657166, -0.5836147, -0.37403944, -0.4466018, 9.337353706359863, -3.198936939239502, 0.5720349550247192, 1.1412378549575806, -0.029358554631471634, 0.76136314868927, -0.710693359375, 0.18701171875, 0.703369140625, 0, 
204, 267019076, 0.56574184, -0.58359265, -0.3738923, -0.44672188, 9.336858749389648, -3.2082080841064453, 0.5655474066734314, 0.9198545813560486, 0.10562676936388016, 0.7760776281356812, -0.711181640625, 0.1875, 0.70556640625, 0, 
205, 267035743, 0.5657738, -0.5835792, -0.37374762, -0.44682005, 9.332269668579102, -3.172732353210449, 0.5725201368331909, 0.9078420996665955, 0.015751810744404793, 0.8888247609138489, -0.711181640625, 0.1875, 0.699462890625, 0, 
206, 267052410, 0.5657729, -0.5836039, -0.3735511, -0.4469531, 9.306112289428711, -3.1370060443878174, 0.5951723456382751, 0.32521724700927734, 0.16851875185966492, 0.9555841088294983, -0.7099609375, 0.1865234375, 0.70166015625, 0, 
207, 267069077, 0.5657393, -0.58365947, -0.37333933, -0.44709995, 9.295424461364746, -3.182452440261841, 0.55855393409729, 0.1284220814704895, 0.05094366520643234, 0.9475931525230408, -0.711181640625, 0.187744140625, 0.707763671875, 0, 
208, 267085744, 0.5656983, -0.58372563, -0.37314263, -0.44722977, 9.295819282531738, -3.1408185958862305, 0.5497522354125977, -0.07707501202821732, -0.055483508855104446, 0.9458385109901428, -0.71240234375, 0.184814453125, 0.707275390625, 0, 
209, 267102411, 0.56565535, -0.583777, -0.37294424, -0.4473825, 9.29558277130127, -3.139695405960083, 0.5614156723022461, 0.20403718948364258, -0.0230002049356699, 0.8326112031936646, -0.71337890625, 0.1875, 0.7021484375, 0, 
210, 267119078, 0.5655813, -0.5838578, -0.37272108, -0.44755673, 9.318486213684082, -3.100320339202881, 0.5415811538696289, -0.318007230758667, 0.03759944066405296, 0.8217065930366516, -0.710693359375, 0.1875, 0.70166015625, 0, 
211, 267135745, 0.5654895, -0.5839543, -0.37246612, -0.4477589, 9.341347694396973, -3.117177963256836, 0.5647550821304321, -0.6623251438140869, 0.19098109006881714, 0.8261632323265076, -0.714599609375, 0.18603515625, 0.706787109375, 0, 
212, 267152412, 0.56536895, -0.58406943, -0.372206, -0.44797724, 9.374796867370605, -3.114123821258545, 0.5457015037536621, -0.7194927334785461, 0.0746610164642334, 0.754844605922699, -0.71337890625, 0.189208984375, 0.70458984375, 0, 
213, 267169079, 0.565295, -0.5841321, -0.37199312, -0.44816566, 9.38868522644043, -3.1103813648223877, 0.5499563217163086, -0.4038546681404114, 0.15160155296325684, 0.6790310740470886, -0.711669921875, 0.185302734375, 0.69775390625, 0, 
214, 267185746, 0.5652219, -0.5841793, -0.37178957, -0.4483653, 9.426024436950684, -3.108571767807007, 0.5349147915840149, -0.13818690180778503, 0.13783474266529083, 0.5740317702293396, -0.71240234375, 0.184814453125, 0.702880859375, 0, 
215, 267202413, 0.5652016, -0.5841644, -0.37162983, -0.44854262, 9.43271541595459, -3.096090316772461, 0.5408980846405029, 0.48906803131103516, 0.20696981251239777, 0.4911811053752899, -0.71337890625, 0.188232421875, 0.701171875, 0, 
216, 267219080, 0.56516653, -0.5841524, -0.37149146, -0.4487169, 9.430809020996094, -3.069287061691284, 0.526557207107544, 0.3614463806152344, 0.10896922647953033, 0.3780178129673004, -0.711669921875, 0.185791015625, 0.6982421875, 0, 
217, 267235747, 0.56513524, -0.5841295, -0.37134522, -0.44890738, 9.438190460205078, -3.0621132850646973, 0.5288209319114685, 0.4168466627597809, 0.22352200746536255, 0.3386511206626892, -0.71337890625, 0.185791015625, 0.6982421875, 0, 
218, 267252414, 0.5651098, -0.58408487, -0.37121698, -0.44910356, 9.459386825561523, -3.058619260787964, 0.5154744982719421, 0.4398212730884552, 0.30164074897766113, 0.20730918645858765, -0.711181640625, 0.188232421875, 0.699951171875, 0, 
219, 267269081, 0.5651313, -0.5839889, -0.3711377, -0.44926652, 9.448431968688965, -3.0463242530822754, 0.4950396716594696, 0.9808703660964966, 0.2850373387336731, 0.1559109091758728, -0.711669921875, 0.185302734375, 0.701171875, 0, 
220, 267285748, 0.56520444, -0.5838215, -0.37112123, -0.44940588, 9.41646671295166, -3.0764076709747314, 0.4671662449836731, 1.9231294393539429, 0.22849087417125702, -0.01140405423939228, -0.7138671875, 0.184326171875, 0.698974609375, 0, 
221, 267302415, 0.565322, -0.58360034, -0.37112364, -0.44954315, 9.420750617980957, -3.0196242332458496, 0.45450180768966675, 2.488785743713379, 0.3892233669757843, -0.06821302324533463, -0.71435546875, 0.1865234375, 0.6982421875, 0, 
222, 267319082, 0.5653748, -0.58342165, -0.37107524, -0.4497485, 9.409685134887695, -2.9924495220184326, 0.4518602192401886, 1.5653393268585205, 0.624341607093811, -0.2216523140668869, -0.7138671875, 0.18310546875, 0.70068359375, 0, 
223, 267335749, 0.56530887, -0.58331853, -0.3710159, -0.45001405, 9.399327278137207, -3.061605215072632, 0.4615926444530487, 0.7684449553489685, 0.32095271348953247, -0.5697736740112305, -0.715087890625, 0.18359375, 0.69775390625, 0, 
224, 267352416, 0.5653482, -0.58311385, -0.37103665, -0.45021296, 9.370100021362305, -3.0973198413848877, 0.4497714042663574, 2.0564563274383545, 0.3096959590911865, -0.5590164065361023, -0.715576171875, 0.18701171875, 0.7021484375, 0, 
225, 267369083, 0.565455, -0.5828752, -0.37116513, -0.45028195, 9.335742950439453, -3.004814386367798, 0.4554951786994934, 2.8024330139160156, -0.23666135966777802, -0.37817153334617615, -0.715087890625, 0.184326171875, 0.696044921875, 0, 
226, 267385750, 0.56542146, -0.58276635, -0.371273, -0.4503759, 9.349959373474121, -3.009734869003296, 0.462341845035553, 1.8545259237289429, -0.8985639810562134, -0.47733747959136963, -0.715087890625, 0.18701171875, 0.698974609375, 0, 
227, 267402417, 0.5653595, -0.5826686, -0.371405, -0.4504713, 9.36220932006836, -3.079709053039551, 0.454511433839798, 1.519479751586914, -1.0030828714370728, -0.6467462182044983, -0.71435546875, 0.18359375, 0.697265625, 0, 
228, 267419084, 0.56531733, -0.58253986, -0.37162432, -0.45050988, 9.396244049072266, -3.0963902473449707, 0.41445159912109375, 2.413311719894409, -1.5159388780593872, -0.7777168154716492, -0.715576171875, 0.185302734375, 0.7021484375, 0, 
229, 267435751, 0.5652745, -0.58240515, -0.37188402, -0.45052347, 9.4241943359375, -3.0819742679595947, 0.4116349220275879, 2.571617364883423, -1.7322574853897095, -0.861284613609314, -0.715576171875, 0.184326171875, 0.699462890625, 0, 
230, 267452418, 0.56511277, -0.5823859, -0.37209046, -0.45058084, 9.438028335571289, -3.0711240768432617, 0.4195406436920166, 1.3430019617080688, -1.9954148530960083, -0.8895994424819946, -0.71728515625, 0.1826171875, 0.697265625, 0, 
231, 267469085, 0.56488216, -0.5824541, -0.37219122, -0.45069858, 9.433964729309082, -3.0883688926696777, 0.40356287360191345, 0.5334228873252869, -1.8825013637542725, -0.675195574760437, -0.715576171875, 0.18359375, 0.6982421875, 0, 
232, 267485752, 0.5646684, -0.58253264, -0.3723186, -0.4507596, 9.418259620666504, -3.1184821128845215, 0.42440369725227356, 0.6473866105079651, -2.147951364517212, -0.4884277880191803, -0.71728515625, 0.183837890625, 0.699462890625, 0, 
233, 267502419, 0.5644078, -0.5826608, -0.37245747, -0.45080566, 9.432182312011719, -3.1168174743652344, 0.42494577169418335, 0.17511405050754547, -2.463730573654175, -0.5030398368835449, -0.716796875, 0.18212890625, 0.69775390625, 0, 
234, 267519086, 0.5641349, -0.5828105, -0.37262717, -0.4508134, 9.409448623657227, -3.153424024581909, 0.4370366930961609, 0.3522002100944519, -2.8718042373657227, -0.45620691776275635, -0.716796875, 0.18212890625, 0.698974609375, 0, 
235, 267535753, 0.5638426, -0.58300483, -0.37279427, -0.45078954, 9.394721984863281, -3.1293842792510986, 0.43319380283355713, 0.19313257932662964, -3.1784656047821045, -0.2711552679538727, -0.716064453125, 0.181396484375, 0.70068359375, 0, 
236, 267552420, 0.5635257, -0.58324057, -0.37293813, -0.45076218, 9.375858306884766, -3.1268813610076904, 0.4184868633747101, -0.1353054940700531, -3.2884464263916016, -0.13729047775268555, -0.715576171875, 0.18212890625, 0.699462890625, 0, 
237, 267569087, 0.5632096, -0.5834901, -0.37311146, -0.45069093, 9.405694961547852, -3.1523613929748535, 0.4101220369338989, -0.1150074452161789, -3.570544958114624, -0.055739641189575195, -0.716796875, 0.179931640625, 0.702880859375, 0, 
238, 267585754, 0.5628683, -0.58378214, -0.3732273, -0.45064315, 9.40997314453125, -3.1572718620300293, 0.39027947187423706, -0.3141077756881714, -3.5499908924102783, 0.12518207728862762, -0.71630859375, 0.1787109375, 0.703369140625, 0, 
239, 267602421, 0.5625127, -0.5841183, -0.37327784, -0.45060965, 9.38558578491211, -3.1623525619506836, 0.42152953147888184, -0.9371366500854492, -3.356102228164673, 0.3906448483467102, -0.71337890625, 0.1787109375, 0.702880859375, 0, 
240, 267619088, 0.562136, -0.584478, -0.3733264, -0.45057306, 9.398767471313477, -3.1638174057006836, 0.45006898045539856, -1.0958969593048096, -3.4907102584838867, 0.40256762504577637, -0.71337890625, 0.1796875, 0.702880859375, 0, 
241, 267635755, 0.5617175, -0.5849001, -0.3733592, -0.4505201, 9.431453704833984, -3.172452449798584, 0.4701758027076721, -1.6209509372711182, -3.7600722312927246, 0.5498214364051819, -0.71484375, 0.180419921875, 0.712890625, 0, 
242, 267652422, 0.5612957, -0.5853891, -0.37334034, -0.4504264, 9.410425186157227, -3.1772782802581787, 0.46481338143348694, -2.146427631378174, -3.874363422393799, 1.0658597946166992, -0.7158203125, 0.1787109375, 0.706298828125, 0, 
243, 267669089, 0.5608414, -0.58593184, -0.3732783, -0.45033816, 9.425206184387207, -3.2038674354553223, 0.44672131538391113, -2.434314250946045, -4.003719806671143, 1.2580702304840088, -0.71142578125, 0.179931640625, 0.713623046875, 0, 
244, 267685756, 0.5603917, -0.5864926, -0.3731766, -0.450252, 9.434684753417969, -3.1708474159240723, 0.45819464325904846, -2.7339184284210205, -3.847456216812134, 1.461678385734558, -0.713623046875, 0.180419921875, 0.710205078125, 0, 
245, 267702423, 0.55994976, -0.587061, -0.37305012, -0.45016605, 9.44167709350586, -3.1670730113983154, 0.4491972327232361, -2.9267568588256836, -3.7177412509918213, 1.5969902276992798, -0.710205078125, 0.1787109375, 0.7080078125, 0, 
246, 267719090, 0.55941224, -0.58772695, -0.37280163, -0.4501713, 9.434364318847656, -3.1397554874420166, 0.4925031065940857, -4.155628204345703, -3.4781980514526367, 1.6949586868286133, -0.7109375, 0.17822265625, 0.715087890625, 0, 
247, 267735757, 0.5587524, -0.58854103, -0.37236294, -0.45029005, 9.411849021911621, -3.118190288543701, 0.4879986643791199, -6.022705554962158, -3.09175443649292, 2.0281803607940674, -0.709716796875, 0.177734375, 0.71630859375, 0, 
248, 267752424, 0.55813664, -0.5893452, -0.37194484, -0.4503477, 9.418526649475098, -3.240506172180176, 0.43118950724601746, -5.792166233062744, -3.2102386951446533, 2.283231735229492, -0.708251953125, 0.177490234375, 0.715087890625, 0, 
249, 267769091, 0.55759454, -0.590101, -0.37159088, -0.45032173, 9.432405471801758, -3.204949378967285, 0.4480316936969757, -5.047476291656494, -3.4088780879974365, 2.4393539428710938, -0.709228515625, 0.17919921875, 0.71630859375, 0, 
250, 267785758, 0.5570853, -0.590844, -0.37119347, -0.4503053, 9.437698364257812, -3.2028086185455322, 0.4128051698207855, -5.00303840637207, -3.0921385288238525, 2.6448445320129395, -0.7099609375, 0.176513671875, 0.717529296875, 0, 
251, 267802425, 0.5566054, -0.5915605, -0.37078774, -0.4502924, 9.425139427185059, -3.1729776859283447, 0.3847534954547882, -4.719709396362305, -2.9252712726593018, 2.6880271434783936, -0.708251953125, 0.17919921875, 0.718017578125, 0, 
252, 267819092, 0.55622286, -0.5921848, -0.37047023, -0.45020583, 9.40810489654541, -3.160175085067749, 0.3703599274158478, -4.01620626449585, -2.8592162132263184, 2.6643872261047363, -0.70947265625, 0.175537109375, 0.72021484375, 0, 
253, 267835759, 0.5558874, -0.59278685, -0.3701191, -0.4501164, 9.372819900512695, -3.1244442462921143, 0.318484902381897, -3.359304428100586, -2.7186410427093506, 2.910691261291504, -0.708251953125, 0.177734375, 0.721435546875, 0, 
254, 267852426, 0.55561256, -0.59332335, -0.36979097, -0.45001864, 9.351530075073242, -3.121368169784546, 0.2805107533931732, -2.9743006229400635, -2.414163589477539, 2.865619659423828, -0.707275390625, 0.175537109375, 0.729736328125, 0, 
255, 267869093, 0.55534387, -0.59384125, -0.36949015, -0.44991428, 9.376968383789062, -3.112448215484619, 0.27698031067848206, -2.7056491374969482, -2.4951765537261963, 2.753525495529175, -0.707763671875, 0.17822265625, 0.72314453125, 0, 
256, 267885760, 0.5550841, -0.5943554, -0.36916518, -0.4498227, 9.411171913146973, -3.1030919551849365, 0.29249802231788635, -2.907515525817871, -2.2648673057556152, 2.82125186920166, -0.706787109375, 0.176025390625, 0.726318359375, 0, 
257, 267902427, 0.5547975, -0.5948936, -0.36884862, -0.4497247, 9.397016525268555, -3.1501312255859375, 0.27245134115219116, -2.8641724586486816, -2.5354974269866943, 2.7945761680603027, -0.705078125, 0.176513671875, 0.73046875, 0, 
258, 267919094, 0.55462253, -0.595323, -0.36868605, -0.4495052, 9.399266242980957, -3.114187717437744, 0.25923845171928406, -1.7061069011688232, -2.8282506465911865, 2.6898586750030518, -0.703369140625, 0.17822265625, 0.725341796875, 0, 
259, 267935761, 0.5544685, -0.59571123, -0.3685316, -0.4493075, 9.378401756286621, -3.086071729660034, 0.2351921796798706, -1.2074341773986816, -2.687758684158325, 2.5442633628845215, -0.703369140625, 0.17822265625, 0.73193359375, 0, 
260, 267952428, 0.5543031, -0.59609294, -0.36840326, -0.44911084, 9.36532211303711, -3.0898542404174805, 0.22446203231811523, -1.423028826713562, -2.695915937423706, 2.381155014038086, -0.703857421875, 0.179443359375, 0.729736328125, 0, 
261, 267969095, 0.5541493, -0.59645784, -0.3682614, -0.4489324, 9.386736869812012, -3.1293294429779053, 0.21879549324512482, -1.5684963464736938, -2.426560163497925, 2.361356496810913, -0.70458984375, 0.177734375, 0.72705078125, 0, 
262, 267985762, 0.5539859, -0.59681755, -0.3680843, -0.44880113, 9.368231773376465, -3.1349124908447266, 0.247277170419693, -1.5430177450180054, -2.202711343765259, 2.2867910861968994, -0.703369140625, 0.17724609375, 0.733154296875, 0, 
263, 268002429, 0.5538314, -0.59715074, -0.36797136, -0.44864118, 9.378847122192383, -3.1479263305664062, 0.23853063583374023, -0.9934845566749573, -2.50897479057312, 2.098461151123047, -0.702880859375, 0.177734375, 0.7314453125, 0, 
264, 268019096, 0.55376893, -0.59738076, -0.36796126, -0.4484203, 9.391928672790527, -3.1243371963500977, 0.22414946556091309, 0.13276343047618866, -2.559163808822632, 1.9315946102142334, -0.70458984375, 0.179931640625, 0.730224609375, 0, 
265, 268035763, 0.553758, -0.5975477, -0.36802152, -0.4481618, 9.359969139099121, -3.0967490673065186, 0.17058783769607544, 0.7492738962173462, -2.6036651134490967, 1.788291335105896, -0.702392578125, 0.176513671875, 0.73095703125, 0, 
266, 268052430, 0.55371517, -0.5977478, -0.36801532, -0.44795296, 9.376341819763184, -3.1127004623413086, 0.1302972286939621, 0.6025835871696472, -2.4830358028411865, 1.8633815050125122, -0.701904296875, 0.177734375, 0.73193359375, 0, 
267, 268069097, 0.5537272, -0.5978644, -0.36802176, -0.44777733, 9.346765518188477, -3.166374921798706, 0.14025354385375977, 0.9050184488296509, -1.9243463277816772, 1.6447131633758545, -0.7041015625, 0.179931640625, 0.732666015625, 0, 
268, 268085764, 0.55373937, -0.5979623, -0.36808273, -0.44758126, 9.305377960205078, -3.150951623916626, 0.2091674655675888, 1.130211591720581, -2.1321868896484375, 1.453238844871521, -0.7001953125, 0.1787109375, 0.737060546875, 0, 
269, 268102431, 0.5537422, -0.5980649, -0.36829427, -0.4472667, 9.327179908752441, -3.1755707263946533, 0.2502817213535309, 1.7183818817138672, -3.1874818801879883, 1.268648386001587, -0.70068359375, 0.17822265625, 0.73193359375, 0, 
270, 268119098, 0.5539031, -0.5980374, -0.36871904, -0.44675392, 9.341931343078613, -3.208394765853882, 0.2070196270942688, 4.319159507751465, -4.120731353759766, 1.305735468864441, -0.7001953125, 0.17822265625, 0.7314453125, 0, 
271, 268135765, 0.5542626, -0.5978274, -0.36941895, -0.4460104, 9.328807830810547, -3.134476661682129, 0.14520172774791718, 7.371336460113525, -5.092658042907715, 1.1989563703536987, -0.70068359375, 0.18115234375, 0.734375, 0, 
272, 268152432, 0.5545672, -0.59764016, -0.3701766, -0.44525358, 9.31139850616455, -3.0597314834594727, 0.10679739713668823, 7.1394524574279785, -5.527126312255859, 0.9059470295906067, -0.7001953125, 0.1826171875, 0.73193359375, 0, 
273, 268169099, 0.5547668, -0.59751594, -0.37087804, -0.4445875, 9.319721221923828, -3.086815357208252, 0.07791285216808319, 6.131284713745117, -5.419923782348633, 0.6349902153015137, -0.697998046875, 0.184326171875, 0.73583984375, 0, 
274, 268185766, 0.5549385, -0.59737647, -0.37156165, -0.44398966, 9.331791877746582, -3.1082546710968018, 0.04477694258093834, 5.705921649932861, -5.039587497711182, 0.32953307032585144, -0.697998046875, 0.1826171875, 0.73876953125, 0, 
275, 268202433, 0.5550401, -0.5972572, -0.3721375, -0.44354066, 9.378263473510742, -3.066758871078491, 0.037164922803640366, 4.989360809326172, -4.380655288696289, 0.0420752614736557, -0.69677734375, 0.183837890625, 0.73486328125, 0, 
276, 268219100, 0.5550626, -0.59716547, -0.37263566, -0.44321755, 9.394042015075684, -3.0653114318847656, 0.04953021928668022, 3.9679067134857178, -3.8346633911132812, -0.28406405448913574, -0.698486328125, 0.183837890625, 0.7392578125, 0, 
277, 268235767, 0.55503, -0.59709936, -0.3731228, -0.44293743, 9.428202629089355, -3.152196168899536, 0.06365931779146194, 3.5786454677581787, -3.859994888305664, -0.5014775395393372, -0.697998046875, 0.184326171875, 0.739990234375, 0, 
278, 268252434, 0.5551876, -0.5968447, -0.37374693, -0.4425572, 9.426429748535156, -3.213942050933838, 7.354319095611572E-4, 5.71356725692749, -3.712792158126831, -0.5829964280128479, -0.694580078125, 0.18310546875, 0.7353515625, 0, 
279, 268269101, 0.55550116, -0.59640765, -0.37451515, -0.4421028, 9.404812812805176, -3.156373977661133, -0.03926768898963928, 7.80970573425293, -3.650681972503662, -0.8874675631523132, -0.69677734375, 0.184326171875, 0.736083984375, 0, 
280, 268285768, 0.555763, -0.5959717, -0.37529022, -0.44170415, 9.363739013671875, -3.1206557750701904, -0.018943551927804947, 7.657770156860352, -3.6422674655914307, -1.2805328369140625, -0.695556640625, 0.18603515625, 0.733154296875, 0, 
281, 268302435, 0.5560925, -0.5954484, -0.37612954, -0.44128108, 9.299483299255371, -3.192814826965332, -0.04536917805671692, 8.406647682189941, -3.497978448867798, -1.4680306911468506, -0.69677734375, 0.1865234375, 0.733642578125, 0, 
282, 268319102, 0.55663246, -0.59473276, -0.3771102, -0.44072798, 9.249842643737793, -3.176091432571411, -0.08547711372375488, 10.804837226867676, -3.448091983795166, -1.410844087600708, -0.6962890625, 0.1865234375, 0.732666015625, 0, 
283, 268335769, 0.557202, -0.5940105, -0.37809798, -0.44013584, 9.220826148986816, -3.0599617958068848, -0.04250262677669525, 11.214590072631836, -3.5779099464416504, -1.2215023040771484, -0.694580078125, 0.187744140625, 0.73193359375, 0, 
284, 268352436, 0.557606, -0.59346193, -0.37893444, -0.43964458, 9.243714332580566, -3.053727388381958, -0.037259507924318314, 9.376748085021973, -3.61173152923584, -1.0352976322174072, -0.69677734375, 0.187744140625, 0.7392578125, 0, 
285, 268369103, 0.55801064, -0.5929127, -0.37977102, -0.43915007, 9.245710372924805, -3.144378185272217, -0.039667028933763504, 9.279483795166016, -3.576545476913452, -1.0245851278305054, -0.6962890625, 0.185302734375, 0.73095703125, 0, 
286, 268385770, 0.55848235, -0.59230965, -0.38069394, -0.43856472, 9.273341178894043, -3.148932695388794, -0.036363471299409866, 10.541084289550781, -4.032106399536133, -0.9726043343544006, -0.695556640625, 0.191650390625, 0.732666015625, 0, 
287, 268402437, 0.5589934, -0.5916586, -0.38172773, -0.4378937, 9.356684684753418, -3.123403787612915, -0.009417419321835041, 11.151583671569824, -4.445899486541748, -1.091146469116211, -0.693359375, 0.189208984375, 0.73095703125, 0, 
288, 268419104, 0.5595761, -0.59094846, -0.38280693, -0.43716523, 9.414612770080566, -3.153233766555786, -0.030943891033530235, 12.116068840026855, -4.537132263183594, -0.9976344108581543, -0.693359375, 0.192138671875, 0.725830078125, 0, 
289, 268435771, 0.5602821, -0.5901287, -0.38399252, -0.43632782, 9.414878845214844, -3.149444341659546, 0.007055061869323254, 13.580709457397461, -4.704511642456055, -0.9234217405319214, -0.6904296875, 0.1943359375, 0.725830078125, 0, 
290, 268452438, 0.5610881, -0.5892289, -0.38530487, -0.4353503, 9.42768669128418, -3.189586877822876, 0.0031907418742775917, 14.915842056274414, -5.205862045288086, -0.80678790807724, -0.69384765625, 0.193603515625, 0.726318359375, 0, 
291, 268469105, 0.5620729, -0.5881835, -0.38673463, -0.43422428, 9.366509437561035, -3.1796977519989014, 0.04281751811504364, 17.25023651123047, -5.448820114135742, -0.5595420598983765, -0.6953125, 0.1982421875, 0.72314453125, 0, 
292, 268485772, 0.5631251, -0.5870844, -0.38827613, -0.43297085, 9.371267318725586, -3.111680269241333, 0.05635647475719452, 18.007049560546875, -5.915337562561035, -0.4606578052043915, -0.692626953125, 0.197021484375, 0.72021484375, 0, 
293, 268502439, 0.5641909, -0.58597964, -0.38983178, -0.43168014, 9.325039863586426, -3.1277871131896973, 0.0689791589975357, 18.34675407409668, -6.103680610656738, -0.3445552885532379, -0.69091796875, 0.19873046875, 0.7197265625, 0, 
294, 268519106, 0.56536615, -0.5847742, -0.39145142, -0.43030947, 9.290891647338867, -3.153745174407959, 0.08897006511688232, 19.662025451660156, -6.105364799499512, -0.23715470731258392, -0.693115234375, 0.204833984375, 0.718505859375, 0, 
295, 268535773, 0.5666722, -0.5834549, -0.39311466, -0.42886347, 9.33065414428711, -3.127814531326294, 0.10147112607955933, 20.869565963745117, -5.8539137840271, -0.04003911465406418, -0.692626953125, 0.203857421875, 0.72412109375, 0, 
296, 268552440, 0.56798637, -0.58213943, -0.3947308, -0.42742583, 9.343574523925781, -3.1075966358184814, 0.12623606622219086, 20.900989532470703, -5.683595657348633, 0.15145453810691833, -0.690185546875, 0.2080078125, 0.714599609375, 0, 
297, 268569107, 0.569355, -0.58075655, -0.3963565, -0.4259793, 9.341300010681152, -3.110776901245117, 0.1358693540096283, 21.345434188842773, -5.378035545349121, 0.1242666244506836, -0.68896484375, 0.21142578125, 0.7119140625, 0, 
298, 268585774, 0.5707346, -0.5793486, -0.39799806, -0.42451718, 9.374204635620117, -3.126614809036255, 0.2021244764328003, 21.58450698852539, -5.400588035583496, 0.08666712045669556, -0.68896484375, 0.212646484375, 0.71337890625, 0, 
299, 268602441, 0.5720766, -0.5779537, -0.39959553, -0.423109, 9.465843200683594, -3.0772244930267334, 0.26097801327705383, 21.145751953125, -5.166698455810547, -0.022366326302289963, -0.687255859375, 0.214599609375, 0.707275390625, 0, 
300, 268619108, 0.57331735, -0.576653, -0.40111062, -0.42176864, 9.550114631652832, -3.0786964893341064, 0.28131556510925293, 19.996826171875, -5.143683910369873, 0.005493932403624058, -0.689453125, 0.2158203125, 0.703857421875, 0, 
301, 268635775, 0.5744527, -0.5754464, -0.4025333, -0.4205147, 9.56052303314209, -3.124183416366577, 0.30826184153556824, 18.734798431396484, -5.014973163604736, -0.011295214295387268, -0.687744140625, 0.2197265625, 0.70458984375, 0, 
302, 268652442, 0.5755976, -0.57423717, -0.40392184, -0.41926876, 9.54757308959961, -3.1521003246307373, 0.29280492663383484, 18.608966827392578, -4.799819469451904, 0.11384858191013336, -0.68701171875, 0.222412109375, 0.699462890625, 0, 
303, 268669109, 0.5767457, -0.5730323, -0.40522242, -0.41808268, 9.479515075683594, -3.090362787246704, 0.3193108141422272, 18.21295738220215, -4.231165409088135, 0.24791844189167023, -0.68701171875, 0.225830078125, 0.698974609375, 0, 
304, 268685776, 0.57783073, -0.57189703, -0.40643412, -0.41696134, 9.445409774780273, -3.0984575748443604, 0.3284662663936615, 17.256881713867188, -4.005055904388428, 0.3547234833240509, -0.688720703125, 0.226318359375, 0.698974609375, 0, 
305, 268702443, 0.5789292, -0.5707672, -0.40756643, -0.41587922, 9.412297248840332, -3.108396530151367, 0.37894347310066223, 16.964794158935547, -3.5217690467834473, 0.5670785903930664, -0.686279296875, 0.227294921875, 0.691650390625, 0, 
306, 268719110, 0.58001375, -0.5696788, -0.40862194, -0.41482338, 9.395051956176758, -3.0780062675476074, 0.35014429688453674, 16.44970703125, -3.2738630771636963, 0.8404430747032166, -0.686279296875, 0.230224609375, 0.695068359375, 0, 
307, 268735777, 0.5810654, -0.5686463, -0.4095964, -0.4138058, 9.414865493774414, -3.107506513595581, 0.34152305126190186, 15.799016952514648, -3.071535348892212, 1.0710728168487549, -0.68505859375, 0.232421875, 0.691650390625, 0, 
308, 268752444, 0.5821719, -0.5675845, -0.41053498, -0.4127769, 9.431428909301758, -3.1204349994659424, 0.31494879722595215, 16.053298950195312, -2.7357397079467773, 1.3301711082458496, -0.686279296875, 0.23291015625, 0.6904296875, 0, 
309, 268769111, 0.58330756, -0.5664924, -0.41147563, -0.41173622, 9.409137725830078, -3.1070961952209473, 0.3207184970378876, 16.333721160888672, -2.6250548362731934, 1.3671305179595947, -0.685546875, 0.234619140625, 0.68994140625, 0, 
310, 268785778, 0.58453214, -0.5653258, -0.41243345, -0.41064328, 9.440250396728516, -3.140376567840576, 0.29281187057495117, 17.124107360839844, -2.4211266040802, 1.550441026687622, -0.683837890625, 0.239013671875, 0.684326171875, 0, 
311, 268802445, 0.58593524, -0.56399965, -0.4134535, -0.4094395, 9.437936782836914, -3.1517882347106934, 0.3223329484462738, 18.991519927978516, -2.1599152088165283, 1.8074904680252075, -0.683349609375, 0.239990234375, 0.6826171875, 0, 
312, 268819112, 0.5874919, -0.56254244, -0.4145086, -0.4081448, 9.374744415283203, -3.107987880706787, 0.28806203603744507, 20.469738006591797, -1.8486312627792358, 2.0974271297454834, -0.683837890625, 0.242431640625, 0.6796875, 0, 
313, 268835779, 0.5890804, -0.5610648, -0.4155241, -0.40685436, 9.319192886352539, -3.0915300846099854, 0.289163202047348, 20.559383392333984, -1.5275884866714478, 2.2664456367492676, -0.681884765625, 0.246826171875, 0.67529296875, 0, 
314, 268852446, 0.59078825, -0.5594427, -0.41665372, -0.40545437, 9.30379867553711, -3.1029088497161865, 0.2964785397052765, 21.28823471069336, -1.343125820159912, 2.1676573753356934, -0.6845703125, 0.25, 0.67236328125, 0, 
315, 268869113, 0.5926096, -0.5576627, -0.4178408, -0.40402377, 9.325411796569824, -3.1134321689605713, 0.3193585276603699, 22.61407470703125, -0.9274630546569824, 1.9347548484802246, -0.682373046875, 0.25, 0.669677734375, 0, 
316, 268885780, 0.59451395, -0.5557652, -0.41909263, -0.40254134, 9.349851608276367, -3.103682279586792, 0.3460586667060852, 23.738571166992188, -0.8239621520042419, 1.7896206378936768, -0.681640625, 0.25390625, 0.6669921875, 0, 
317, 268902447, 0.596475, -0.5537901, -0.42034608, -0.40105286, 9.340887069702148, -3.0764968395233154, 0.331765353679657, 24.295501708984375, -0.47353506088256836, 1.7408989667892456, -0.680419921875, 0.2578125, 0.662353515625, 0, 
318, 268919114, 0.5983917, -0.55181855, -0.4215615, -0.39963672, 9.338846206665039, -3.070172071456909, 0.31927305459976196, 23.797700881958008, -0.17900750041007996, 1.4784319400787354, -0.68212890625, 0.259521484375, 0.657958984375, 0, 
319, 268935781, 0.6002767, -0.54982466, -0.42280203, -0.39824548, 9.343770027160645, -3.080894947052002, 0.38823360204696655, 23.766128540039062, -0.21466045081615448, 1.1295799016952515, -0.68212890625, 0.26171875, 0.655029296875, 0, 
320, 268952448, 0.6021595, -0.5478174, -0.42402545, -0.39686593, 9.35590648651123, -3.031920909881592, 0.3843497335910797, 23.731504440307617, -0.06771370023488998, 1.102577567100525, -0.680908203125, 0.264404296875, 0.6494140625, 0, 
321, 268969115, 0.6038662, -0.5459528, -0.4252004, -0.39558336, 9.33771800994873, -2.9992740154266357, 0.39816442131996155, 22.06381607055664, -0.4011276364326477, 0.8199664354324341, -0.68115234375, 0.26708984375, 0.64501953125, 0, 
322, 268985782, 0.60529524, -0.5443377, -0.42626825, -0.39447403, 9.35009479522705, -2.9956533908843994, 0.41943812370300293, 19.18867301940918, -0.795640230178833, 0.48032835125923157, -0.679443359375, 0.2705078125, 0.64208984375, 0, 
323, 269002449, 0.60648245, -0.5429404, -0.4272753, -0.3934856, 9.362458229064941, -3.070526599884033, 0.4979793429374695, 16.857694625854492, -1.3863592147827148, 0.1892908662557602, -0.6806640625, 0.268798828125, 0.63720703125, 0, 
324, 269019116, 0.60753095, -0.5416377, -0.42833567, -0.39250937, 9.331822395324707, -3.0727181434631348, 0.5158419609069824, 16.05354118347168, -2.2267508506774902, -0.15694835782051086, -0.68115234375, 0.272705078125, 0.636474609375, 0, 
325, 269035783, 0.6085014, -0.54036695, -0.4294794, -0.39150655, 9.315703392028809, -3.0615909099578857, 0.5239472389221191, 15.932186126708984, -2.9901506900787354, -0.4725610911846161, -0.681640625, 0.273193359375, 0.6337890625, 0, 
326, 269052450, 0.6094386, -0.5390948, -0.4307069, -0.3904522, 9.293917655944824, -3.0788369178771973, 0.5321990251541138, 16.191965103149414, -3.6264991760253906, -0.6627355813980103, -0.679931640625, 0.2763671875, 0.631591796875, 0, 
327, 269069117, 0.610476, -0.53767604, -0.43206614, -0.38928443, 9.320505142211914, -3.1461386680603027, 0.4937553405761719, 17.867530822753906, -3.909200429916382, -0.8414614796638489, -0.67919921875, 0.27587890625, 0.628662109375, 0, 
328, 269085784, 0.61164635, -0.5361037, -0.43347335, -0.38804948, 9.354329109191895, -3.081543207168579, 0.5186619162559509, 19.33231544494629, -3.5510969161987305, -0.8396430611610413, -0.6826171875, 0.27978515625, 0.62646484375, 0, 
329, 269102451, 0.6128678, -0.53448325, -0.43482757, -0.3868409, 9.303390502929688, -3.0477583408355713, 0.5565102100372314, 19.502737045288086, -2.9499785900115967, -0.7636244297027588, -0.6796875, 0.27978515625, 0.62255859375, 0, 
330, 269119118, 0.61410457, -0.5328368, -0.43613282, -0.38567966, 9.323512077331543, -3.0286076068878174, 0.5899025797843933, 19.39598274230957, -2.4543848037719727, -0.8198955655097961, -0.68017578125, 0.2802734375, 0.621337890625, 0, 
331, 269135785, 0.6153328, -0.5311928, -0.4374092, -0.3845428, 9.369451522827148, -3.0412654876708984, 0.6683683395385742, 19.205514907836914, -2.2754671573638916, -0.8328940272331238, -0.677734375, 0.283447265625, 0.616943359375, 0, 
332, 269152452, 0.6166172, -0.52946484, -0.4387121, -0.3833826, 9.384214401245117, -3.052332878112793, 0.6821533441543579, 19.9046573638916, -2.084153175354004, -0.9344741702079773, -0.678466796875, 0.283447265625, 0.615234375, 0, 
333, 269169119, 0.618022, -0.5275725, -0.4400985, -0.38213795, 9.364294052124023, -3.052858591079712, 0.6714890599250793, 21.51344871520996, -1.9518382549285889, -1.0595927238464355, -0.680419921875, 0.286376953125, 0.6123046875, 0, 
334, 269185786, 0.6194675, -0.52560735, -0.44154987, -0.38082945, 9.408852577209473, -2.99284029006958, 0.6735216975212097, 22.33310890197754, -2.146584987640381, -1.1383776664733887, -0.67822265625, 0.2890625, 0.605224609375, 0, 
335, 269202453, 0.6208922, -0.5236667, -0.44294915, -0.3795553, 9.46298599243164, -3.010629892349243, 0.7276812195777893, 21.91259765625, -1.928479552268982, -1.074653148651123, -0.681396484375, 0.2890625, 0.602294921875, 0, 
336, 269219120, 0.6223346, -0.5217066, -0.44430995, -0.37829974, 9.470638275146484, -3.015974998474121, 0.7282556295394897, 21.901531219482422, -1.5948989391326904, -1.0290237665176392, -0.6787109375, 0.2890625, 0.60107421875, 0, 
337, 269235787, 0.623766, -0.51969904, -0.44569135, -0.37707838, 9.520435333251953, -3.010965585708618, 0.7547008991241455, 22.01350212097168, -1.4715994596481323, -1.4206043481826782, -0.682373046875, 0.292236328125, 0.59326171875, 0, 
338, 269252454, 0.62518346, -0.51769537, -0.44706693, -0.3758568, 9.5343656539917, -3.0606729984283447, 0.8087396025657654, 21.932666778564453, -1.5022705793380737, -1.4238444566726685, -0.6806640625, 0.29296875, 0.59326171875, 0, 
339, 269269121, 0.62665427, -0.51561403, -0.4484949, -0.37456492, 9.488536834716797, -3.0645322799682617, 0.8175949454307556, 22.805574417114258, -1.6145057678222656, -1.4093093872070312, -0.679443359375, 0.295654296875, 0.58984375, 0, 
340, 269285788, 0.6282169, -0.5134391, -0.4499591, -0.37317654, 9.450155258178711, -3.0149219036102295, 0.8177087903022766, 23.924354553222656, -1.5911725759506226, -1.1757467985153198, -0.680419921875, 0.2978515625, 0.583740234375, 0, 
341, 269302455, 0.62970895, -0.5113557, -0.4513513, -0.37183893, 9.449780464172363, -2.9741716384887695, 0.87764573097229, 22.93697166442871, -1.5564417839050293, -1.0398966073989868, -0.680419921875, 0.300537109375, 0.579833984375, 0, 
342, 269319122, 0.6312005, -0.5092883, -0.45273486, -0.37046286, 9.463995933532715, -3.0564560890197754, 0.8508416414260864, 22.963211059570312, -1.6986181735992432, -0.7937326431274414, -0.680419921875, 0.298828125, 0.5771484375, 0, 
343, 269335789, 0.632812, -0.5070859, -0.45417947, -0.36896315, 9.471741676330566, -3.0907857418060303, 0.8643143177032471, 24.507190704345703, -1.6820855140686035, -0.5883696675300598, -0.68017578125, 0.302734375, 0.572509765625, 0, 
344, 269352456, 0.63451254, -0.50478643, -0.45563465, -0.36739856, 9.480030059814453, -3.0441362857818604, 0.9047629833221436, 25.469951629638672, -1.4306964874267578, -0.4230395257472992, -0.678466796875, 0.30419921875, 0.56640625, 0, 
345, 269369123, 0.6362402, -0.5024792, -0.45706034, -0.36579955, 9.457592964172363, -3.022061824798584, 0.9431169033050537, 25.62973976135254, -1.319460391998291, -0.12958136200904846, -0.678466796875, 0.3076171875, 0.56298828125, 0, 
346, 269385790, 0.63792497, -0.50027394, -0.4583898, -0.36422062, 9.481246948242188, -3.0053763389587402, 0.9403963685035706, 24.729713439941406, -1.221875548362732, 0.32715168595314026, -0.679931640625, 0.3046875, 0.5556640625, 0, 
347, 269402457, 0.6395956, -0.49813062, -0.45964667, -0.36264098, 9.502185821533203, -3.051650047302246, 0.9455767273902893, 24.229074478149414, -1.107924222946167, 0.7374807000160217, -0.679931640625, 0.309326171875, 0.5556640625, 0, 
348, 269419124, 0.64134663, -0.4959446, -0.46086845, -0.36099043, 9.43592643737793, -3.0510308742523193, 0.9611504673957825, 24.827383041381836, -0.8382863402366638, 1.2318072319030762, -0.67919921875, 0.310302734375, 0.5478515625, 0, 
349, 269435791, 0.6430732, -0.4938158, -0.46202472, -0.35935485, 9.410202026367188, -2.9737651348114014, 0.9820976257324219, 24.281631469726562, -0.7176244854927063, 1.5067086219787598, -0.6806640625, 0.31201171875, 0.546142578125, 0, 
350, 269452458, 0.6446761, -0.49187514, -0.46304107, -0.35783324, 9.40920639038086, -2.962367534637451, 1.0176130533218384, 22.320865631103516, -0.5725536346435547, 1.7689951658248901, -0.679443359375, 0.314697265625, 0.541748046875, 0, 
351, 269469125, 0.6462593, -0.49001372, -0.46396762, -0.35632786, 9.361621856689453, -3.0199759006500244, 1.0044395923614502, 21.63058853149414, -0.37828099727630615, 2.202939033508301, -0.678466796875, 0.314697265625, 0.53662109375, 0, 
352, 269485792, 0.6477969, -0.4881992, -0.46487948, -0.35483474, 9.34063720703125, -2.9707162380218506, 1.0430580377578735, 21.19281005859375, -0.5341088175773621, 2.2329440116882324, -0.67724609375, 0.31787109375, 0.5322265625, 0, 
353, 269502459, 0.6492507, -0.4864716, -0.46578372, -0.35336176, 9.307875633239746, -2.9771060943603516, 1.0767887830734253, 20.440628051757812, -0.9137406945228577, 2.239577531814575, -0.676513671875, 0.322265625, 0.531005859375, 0, 
354, 269519126, 0.6506861, -0.48476017, -0.46669704, -0.35186544, 9.311016082763672, -2.9736995697021484, 1.0901328325271606, 20.402284622192383, -1.1325631141662598, 2.3179523944854736, -0.67578125, 0.323486328125, 0.526611328125, 0, 
355, 269535793, 0.6520929, -0.483042, -0.46766683, -0.35033318, 9.32200813293457, -2.9761500358581543, 1.118464469909668, 20.58881187438965, -1.5826174020767212, 2.197521448135376, -0.67919921875, 0.3251953125, 0.5224609375, 0, 
356, 269552460, 0.6534867, -0.4813187, -0.46866536, -0.34877, 9.339198112487793, -2.965345859527588, 1.1065256595611572, 20.736047744750977, -1.8470178842544556, 2.1899917125701904, -0.674072265625, 0.325439453125, 0.515869140625, 0, 
357, 269569127, 0.65490794, -0.47954598, -0.46970153, -0.34714812, 9.336027145385742, -2.9857566356658936, 1.0924441814422607, 21.327539443969727, -2.0038833618164062, 2.234647750854492, -0.67626953125, 0.33056640625, 0.5146484375, 0, 
358, 269585794, 0.6563774, -0.47770038, -0.47074524, -0.3454999, 9.333300590515137, -2.9705123901367188, 1.0568852424621582, 21.91786003112793, -1.7970473766326904, 2.2051289081573486, -0.6767578125, 0.330078125, 0.511474609375, 0, 
359, 269602461, 0.657888, -0.47579697, -0.4717904, -0.34382367, 9.30984115600586, -2.941650867462158, 1.0770902633666992, 22.408218383789062, -1.6236239671707153, 2.236069440841675, -0.6748046875, 0.3310546875, 0.504638671875, 0, 
360, 269619128, 0.65937805, -0.47391444, -0.4727672, -0.34222394, 9.272047996520996, -2.884659767150879, 1.1139098405838013, 21.83664321899414, -1.1806769371032715, 2.130237340927124, -0.673095703125, 0.332763671875, 0.501220703125, 0, 
361, 269635795, 0.6608478, -0.47203752, -0.47372255, -0.34065816, 9.292684555053711, -2.9277472496032715, 1.1164571046829224, 21.5838565826416, -1.0528181791305542, 2.0166447162628174, -0.6748046875, 0.33447265625, 0.50244140625, 0, 
362, 269652462, 0.66231555, -0.47012377, -0.4747238, -0.33905655, 9.319599151611328, -2.9365594387054443, 1.1615170240402222, 21.968408584594727, -1.2982650995254517, 1.904589056968689, -0.673095703125, 0.3359375, 0.496826171875, 0, 
363, 269669129, 0.66377157, -0.4681803, -0.4757611, -0.33744067, 9.333060264587402, -2.898306369781494, 1.168720006942749, 22.19525909423828, -1.4773621559143066, 1.7267982959747314, -0.6728515625, 0.33935546875, 0.492919921875, 0, 
364, 269685796, 0.665176, -0.46627066, -0.47680745, -0.33583876, 9.332735061645508, -2.8654441833496094, 1.1801315546035767, 21.850627899169922, -1.7221814393997192, 1.6257175207138062, -0.670654296875, 0.338623046875, 0.485595703125, 0, 
365, 269702463, 0.6665193, -0.4644131, -0.47787476, -0.33422786, 9.307741165161133, -2.881375551223755, 1.1957026720046997, 21.494915008544922, -2.167497158050537, 1.6287909746170044, -0.671630859375, 0.3408203125, 0.4833984375, 0, 
366, 269719130, 0.66783965, -0.46253473, -0.47900343, -0.3325773, 9.314910888671875, -2.8703932762145996, 1.1929994821548462, 21.786861419677734, -2.6038355827331543, 1.4927743673324585, -0.671630859375, 0.3408203125, 0.478759765625, 0, 
367, 269735797, 0.66914034, -0.46062785, -0.48018286, -0.3309044, 9.30080509185791, -2.8824057579040527, 1.1893221139907837, 22.044734954833984, -2.9071805477142334, 1.2951850891113281, -0.673095703125, 0.342529296875, 0.475341796875, 0, 
368, 269752464, 0.67041796, -0.45869747, -0.48142076, -0.3291971, 9.323264122009277, -2.837860584259033, 1.220420479774475, 22.32632064819336, -3.3071882724761963, 1.137526035308838, -0.673095703125, 0.34521484375, 0.47265625, 0, 
369, 269769131, 0.67163104, -0.45681098, -0.48267004, -0.327514, 9.328078269958496, -2.797604560852051, 1.228821039199829, 21.866086959838867, -3.596714496612549, 0.9893563389778137, -0.6708984375, 0.34521484375, 0.46923828125, 0, 
370, 269785798, 0.672742, -0.45501727, -0.483917, -0.3258864, 9.34446907043457, -2.8074123859405518, 1.236405372619629, 20.927261352539062, -3.959556818008423, 0.8196588754653931, -0.669677734375, 0.345703125, 0.463623046875, 0, 
371, 269802465, 0.6737613, -0.4532798, -0.4852061, -0.3242815, 9.328777313232422, -2.8262526988983154, 1.277364730834961, 20.398996353149414, -4.515339374542236, 0.5655420422554016, -0.670166015625, 0.349609375, 0.4619140625, 0, 
372, 269819132, 0.6747115, -0.45156005, -0.48655432, -0.32268056, 9.345505714416504, -2.802480936050415, 1.265364170074463, 20.22007942199707, -5.048047065734863, 0.26757630705833435, -0.668212890625, 0.348388671875, 0.456298828125, 0, 
373, 269835799, 0.67555046, -0.44996306, -0.48789313, -0.32113126, 9.354753494262695, -2.7447047233581543, 1.2891086339950562, 19.110992431640625, -5.488225936889648, 0.22192151844501495, -0.667724609375, 0.349853515625, 0.453125, 0, 
374, 269852466, 0.6762467, -0.44852796, -0.48922887, -0.31963766, 9.39925765991211, -2.7499537467956543, 1.2595622539520264, 17.72450828552246, -6.13827657699585, 0.20255827903747559, -0.66943359375, 0.348876953125, 0.452880859375, 0, 
375, 269869133, 0.67683154, -0.4472071, -0.4905698, -0.31819233, 9.410943031311035, -2.7921879291534424, 1.264055609703064, 16.69795799255371, -6.641091346740723, 0.1032705008983612, -0.669921875, 0.352294921875, 0.4501953125, 0, 
376, 269885800, 0.67733455, -0.44593668, -0.49194485, -0.31677905, 9.434470176696777, -2.810009241104126, 1.2509649991989136, 16.178421020507812, -7.086971282958984, -0.1591254621744156, -0.668212890625, 0.352783203125, 0.447509765625, 0, 
377, 269902467, 0.6777444, -0.44475374, -0.49332055, -0.315423, 9.422266960144043, -2.8037543296813965, 1.2053635120391846, 15.292293548583984, -7.420050144195557, -0.33479031920433044, -0.66748046875, 0.353759765625, 0.448486328125, 0, 
378, 269919134, 0.6780312, -0.4436755, -0.4947099, -0.31414628, 9.42815113067627, -2.779628038406372, 1.199839472770691, 14.190881729125977, -7.885792255401611, -0.6571391820907593, -0.66796875, 0.353271484375, 0.4462890625, 0, 
379, 269935801, 0.67823833, -0.4426608, -0.4961091, -0.31292176, 9.456877708435059, -2.8367061614990234, 1.2361351251602173, 13.494881629943848, -8.18026065826416, -0.8866162300109863, -0.666259765625, 0.3525390625, 0.44287109375, 0, 
380, 269952468, 0.67844635, -0.4416339, -0.49755794, -0.31161863, 9.469634056091309, -2.8629565238952637, 1.192700743675232, 13.92978572845459, -8.621390342712402, -0.7107594013214111, -0.666259765625, 0.3515625, 0.444091796875, 0, 
381, 269969135, 0.67862415, -0.4406222, -0.49905148, -0.31027284, 9.422143936157227, -2.8294694423675537, 1.1674752235412598, 14.010186195373535, -9.094483375549316, -0.6627740263938904, -0.66748046875, 0.353759765625, 0.445068359375, 0, 
382, 269985802, 0.6787715, -0.4395982, -0.50057113, -0.308952, 9.378490447998047, -2.85573410987854, 1.104830026626587, 13.944708824157715, -9.219731330871582, -0.9671429395675659, -0.666259765625, 0.3525390625, 0.44189453125, 0, 
383, 270002469, 0.67895156, -0.43850327, -0.5021277, -0.30758357, 9.319364547729492, -2.8579792976379395, 1.0703293085098267, 14.619000434875488, -9.269201278686523, -1.032468318939209, -0.66796875, 0.35498046875, 0.440185546875, 0, 
384, 270019136, 0.6792452, -0.43724978, -0.5037132, -0.30612397, 9.302841186523438, -2.8373677730560303, 1.0071827173233032, 16.07807159423828, -8.95077133178711, -1.0044864416122437, -0.666259765625, 0.35546875, 0.44189453125, 0, 
385, 270035803, 0.67967004, -0.4358551, -0.5053034, -0.3045451, 9.37518310546875, -2.8380212783813477, 0.932072639465332, 17.556915283203125, -8.577056884765625, -0.6776296496391296, -0.665771484375, 0.354248046875, 0.4384765625, 0, 
386, 270052470, 0.6802861, -0.43424657, -0.5069038, -0.3028027, 9.440240859985352, -2.8792877197265625, 0.8319997787475586, 19.719758987426758, -7.99732780456543, -0.28730452060699463, -0.6650390625, 0.354248046875, 0.437255859375, 0, 
387, 270069137, 0.6811088, -0.4323569, -0.5085808, -0.30083907, 9.475961685180664, -2.887343406677246, 0.8027844429016113, 22.585105895996094, -7.703577518463135, -0.03478851169347763, -0.6650390625, 0.35595703125, 0.433349609375, 0, 
388, 270085804, 0.6819905, -0.4302929, -0.5103865, -0.2987351, 9.45382308959961, -2.814316749572754, 0.8209241628646851, 24.336872100830078, -8.148551940917969, -0.2499101161956787, -0.66650390625, 0.355224609375, 0.428955078125, 0, 
389, 270102471, 0.68280417, -0.42822185, -0.5122641, -0.29663134, 9.443914413452148, -2.782865047454834, 0.8763370513916016, 24.318151473999023, -8.702645301818848, -0.6288509368896484, -0.66552734375, 0.357421875, 0.42822265625, 0, 
390, 270119138, 0.683328, -0.42642525, -0.51418704, -0.29467982, 9.423961639404297, -2.6712424755096436, 0.9115703105926514, 21.73457145690918, -10.041960716247559, -1.103659987449646, -0.664306640625, 0.359130859375, 0.426025390625, 0, 
391, 270135805, 0.6835148, -0.42502818, -0.51608515, -0.2929414, 9.394893646240234, -2.658480644226074, 0.911817193031311, 18.066879272460938, -11.297745704650879, -1.3013638257980347, -0.66552734375, 0.358642578125, 0.426513671875, 0, 
392, 270152472, 0.6833592, -0.42402628, -0.51801443, -0.29134703, 9.397791862487793, -2.6727325916290283, 0.87884521484375, 14.762422561645508, -13.030316352844238, -1.3566614389419556, -0.66650390625, 0.359130859375, 0.423828125, 0, 
393, 270169139, 0.68297404, -0.4232843, -0.5199882, -0.28980908, 9.432563781738281, -2.725524663925171, 0.8609988689422607, 12.762120246887207, -14.409064292907715, -1.2862777709960938, -0.664794921875, 0.3564453125, 0.423828125, 0, 
394, 270185806, 0.6824397, -0.4226521, -0.52207476, -0.28823483, 9.476110458374023, -2.71203875541687, 0.8258796334266663, 12.16893196105957, -15.793166160583496, -1.3496567010879517, -0.66552734375, 0.357421875, 0.42431640625, 0, 
395, 270202473, 0.6817619, -0.42213959, -0.5242076, -0.28671464, 9.512733459472656, -2.711704730987549, 0.8060184121131897, 11.089777946472168, -16.601543426513672, -1.5930546522140503, -0.66259765625, 0.358642578125, 0.42822265625, 0, 
396, 270219140, 0.6809571, -0.4217279, -0.52638584, -0.2852386, 9.519766807556152, -2.7213313579559326, 0.797853410243988, 10.181102752685547, -17.33901023864746, -1.820111632347107, -0.6650390625, 0.357421875, 0.429931640625, 0, 
397, 270235807, 0.6801029, -0.4213046, -0.52864873, -0.28371295, 9.648886680603027, -2.7571723461151123, 0.8018977642059326, 10.438572883605957, -18.031936645507812, -1.974069595336914, -0.663818359375, 0.3564453125, 0.4306640625, 0, 
398, 270252474, 0.6792433, -0.42085028, -0.5309826, -0.28208342, 9.628640174865723, -2.7351438999176025, 0.7602152824401855, 11.086284637451172, -18.62235450744629, -1.818447232246399, -0.6611328125, 0.357421875, 0.4306640625, 0, 
399, 270269141, 0.6783069, -0.4204638, -0.5333732, -0.28039816, 9.619811058044434, -2.67645001411438, 0.7814937829971313, 10.86190414428711, -19.458200454711914, -1.624430775642395, -0.66064453125, 0.358642578125, 0.433837890625, 0, 
400, 270285808, 0.67718714, -0.42032027, -0.53570896, -0.27886248, 9.621427536010742, -2.668701171875, 0.8111196756362915, 8.545692443847656, -19.909740447998047, -1.627683401107788, -0.66064453125, 0.35693359375, 0.4384765625, 0, 
401, 270302475, 0.6759781, -0.42028165, -0.5380378, -0.27736706, 9.631547927856445, -2.6993818283081055, 0.8150649666786194, 7.638116836547852, -20.29265022277832, -1.580286979675293, -0.657470703125, 0.35693359375, 0.43896484375, 0, 
402, 270319142, 0.67466795, -0.42039582, -0.5403257, -0.2759329, 9.63968563079834, -2.6764650344848633, 0.79963219165802, 6.331047058105469, -20.593456268310547, -1.3762301206588745, -0.657958984375, 0.35595703125, 0.441162109375, 0, 
403, 270335809, 0.67321867, -0.4207041, -0.542552, -0.27463084, 9.663569450378418, -2.6676857471466064, 0.8214651346206665, 4.421437740325928, -20.8134708404541, -1.3551124334335327, -0.65966796875, 0.357666015625, 0.448486328125, 0, 
404, 270352476, 0.6716908, -0.42115352, -0.54466313, -0.2735023, 9.675537109375, -2.693270683288574, 0.824411153793335, 2.6751859188079834, -20.341934204101562, -1.4482271671295166, -0.65869140625, 0.357666015625, 0.453125, 0, 
405, 270369143, 0.6701019, -0.42169827, -0.54671764, -0.2724591, 9.696922302246094, -2.7014081478118896, 0.770530641078949, 1.6312751770019531, -20.24757957458496, -1.4379311800003052, -0.656494140625, 0.353759765625, 0.455810546875, 0, 
406, 270385810, 0.6685633, -0.42226058, -0.5486467, -0.27148855, 9.681855201721191, -2.721707820892334, 0.7752946615219116, 1.1886228322982788, -19.306819915771484, -1.2505096197128296, -0.656005859375, 0.357666015625, 0.4609375, 0, 
407, 270402477, 0.66713184, -0.4226986, -0.5505453, -0.27048343, 9.599123001098633, -2.7085211277008057, 0.710899293422699, 2.141941547393799, -18.63825035095215, -1.2762119770050049, -0.655517578125, 0.35595703125, 0.4619140625, 0, 
408, 270419144, 0.6658056, -0.42305776, -0.55233735, -0.2695343, 9.59262752532959, -2.665325164794922, 0.7119206786155701, 2.4000792503356934, -17.448396682739258, -1.3287819623947144, -0.655517578125, 0.35546875, 0.46533203125, 0, 
409, 270435811, 0.66454977, -0.42342147, -0.5539743, -0.26870131, 9.55252742767334, -2.668365955352783, 0.714935839176178, 1.8532979488372803, -16.147085189819336, -1.2638660669326782, -0.65576171875, 0.35546875, 0.46826171875, 0, 
410, 270452478, 0.66338956, -0.42374226, -0.5554746, -0.26796442, 9.565655708312988, -2.703989267349243, 0.6287528276443481, 1.7079071998596191, -14.807767868041992, -1.2949854135513306, -0.65478515625, 0.3544921875, 0.47265625, 0, 
411, 270469145, 0.6623431, -0.42400476, -0.55680466, -0.26737678, 9.562073707580566, -2.6710283756256104, 0.6297848224639893, 1.4203404188156128, -13.06091594696045, -1.4966470003128052, -0.654052734375, 0.3544921875, 0.475341796875, 0, 
412, 270485812, 0.6613879, -0.4242087, -0.5580319, -0.26685858, 9.559436798095703, -2.671579360961914, 0.5901010036468506, 1.4966402053833008, -11.940176963806152, -1.5720248222351074, -0.653564453125, 0.353271484375, 0.4765625, 0, 
413, 270502479, 0.6605034, -0.4243882, -0.5591392, -0.2664459, 9.527315139770508, -2.655444622039795, 0.616407573223114, 1.1879559755325317, -10.777912139892578, -1.670902967453003, -0.65380859375, 0.352783203125, 0.4794921875, 0, 
414, 270519146, 0.6596611, -0.42458558, -0.560137, -0.26612228, 9.550104141235352, -2.654153347015381, 0.5851913094520569, 0.6850312352180481, -9.898941040039062, -1.612473964691162, -0.652587890625, 0.352783203125, 0.48388671875, 0, 
415, 270535813, 0.65887105, -0.4248022, -0.56102055, -0.2658726, 9.584205627441406, -2.680107593536377, 0.5243369936943054, 0.2544685900211334, -9.006834983825684, -1.4476555585861206, -0.651123046875, 0.3505859375, 0.484375, 0, 
416, 270552480, 0.658202, -0.4249014, -0.56187487, -0.26556668, 9.602094650268555, -2.710402727127075, 0.4911121428012848, 1.3009334802627563, -8.363785743713379, -1.3427526950836182, -0.652099609375, 0.348876953125, 0.484375, 0, 
417, 270569147, 0.65768105, -0.42487586, -0.562697, -0.2651573, 9.585732460021973, -2.7107226848602295, 0.4287336468696594, 2.637903928756714, -7.726322650909424, -0.9966223835945129, -0.65380859375, 0.353515625, 0.48388671875, 0, 
418, 270585814, 0.6572895, -0.4247557, -0.563465, -0.2646892, 9.550775527954102, -2.66737699508667, 0.3818443715572357, 3.570551872253418, -6.986549377441406, -0.70709627866745, -0.652587890625, 0.351806640625, 0.485595703125, 0, 
419, 270602481, 0.65694207, -0.42464945, -0.56416297, -0.26423508, 9.500475883483887, -2.6378722190856934, 0.3771026134490967, 3.4543466567993164, -6.487319469451904, -0.43403923511505127, -0.65283203125, 0.349609375, 0.489013671875, 0, 
420, 270619148, 0.6566779, -0.424523, -0.56478524, -0.2637651, 9.531451225280762, -2.6283671855926514, 0.2936297655105591, 3.7119085788726807, -5.8375139236450195, -0.07336119562387466, -0.652099609375, 0.3505859375, 0.489013671875, 0, 
421, 270635815, 0.65654796, -0.4243025, -0.5653441, -0.26324582, 9.548748970031738, -2.6396684646606445, 0.17553451657295227, 4.603498935699463, -5.007046222686768, 0.2106260508298874, -0.65283203125, 0.349609375, 0.486572265625, 0, 
422, 270652482, 0.65646994, -0.42411795, -0.56576973, -0.262823, 9.550859451293945, -2.5713388919830322, 0.13137708604335785, 3.975571393966675, -3.98880672454834, 0.3946853280067444, -0.6533203125, 0.3505859375, 0.48779296875, 0, 
423, 270669149, 0.65639216, -0.42408392, -0.5659914, -0.2625951, 9.529268264770508, -2.5945749282836914, 0.06273233890533447, 2.1703178882598877, -2.7710700035095215, 0.6938096284866333, -0.6494140625, 0.35107421875, 0.489501953125, 0, 
424, 270685816, 0.65637076, -0.4240672, -0.5660705, -0.26250458, 9.488139152526855, -2.57535457611084, 0.02178320474922657, 1.464457392692566, -1.5383180379867554, 0.6577726006507874, -0.6533203125, 0.351318359375, 0.48779296875, 0, 
425, 270702483, 0.6564124, -0.42404792, -0.56602097, -0.2625382, 9.499597549438477, -2.5655746459960938, -0.011697866022586823, 0.9453390836715698, -0.34666144847869873, 0.5736348032951355, -0.651611328125, 0.349609375, 0.486083984375, 0, 
426, 270719150, 0.65645564, -0.42406648, -0.56590253, -0.26265588, 9.507085800170898, -2.5556185245513916, -0.04132307693362236, 0.32695889472961426, 0.1499367356300354, 0.5443466305732727, -0.652099609375, 0.35302734375, 0.489013671875, 0, 
427, 270735817, 0.65657777, -0.42402625, -0.5657567, -0.26272944, 9.532681465148926, -2.551267147064209, -0.045572131872177124, 0.945505678653717, 0.5594326257705688, 0.7356352210044861, -0.650634765625, 0.3505859375, 0.48779296875, 0, 
428, 270752484, 0.6567692, -0.4238954, -0.56563735, -0.26271906, 9.524459838867188, -2.537991523742676, -0.04045526683330536, 1.9316329956054688, 0.6299571990966797, 0.8093485832214355, -0.650634765625, 0.35009765625, 0.489013671875, 0, 
429, 270769151, 0.65696514, -0.42372963, -0.5655527, -0.26267907, 9.494994163513184, -2.508578062057495, -0.0025731383357197046, 2.2803115844726562, 0.47006988525390625, 0.7138386964797974, -0.64892578125, 0.352294921875, 0.48779296875, 0, 
430, 270785818, 0.6571511, -0.42354083, -0.56550986, -0.26261064, 9.534941673278809, -2.5292868614196777, 0.02434687688946724, 2.542085647583008, 0.20227627456188202, 0.6131168007850647, -0.651611328125, 0.351318359375, 0.4873046875, 0, 
431, 270802485, 0.65735567, -0.4232628, -0.5655463, -0.26246798, 9.527582168579102, -2.5146477222442627, 0.05155402421951294, 3.4310262203216553, -0.13680383563041687, 0.40304145216941833, -0.651611328125, 0.3505859375, 0.48779296875, 0, 
432, 270819152, 0.65752226, -0.42297697, -0.5656505, -0.26228726, 9.565397262573242, -2.495619773864746, 0.044792912900447845, 3.626783847808838, -0.6879123449325562, 0.27902474999427795, -0.652099609375, 0.349609375, 0.485595703125, 0, 
433, 270835819, 0.6576707, -0.42271057, -0.56574696, -0.2621365, 9.565032958984375, -2.4542312622070312, 0.05001356080174446, 3.3546998500823975, -0.6703035235404968, 0.20905084908008575, -0.651611328125, 0.352294921875, 0.486083984375, 0, 
434, 270852486, 0.6577639, -0.42249146, -0.5658319, -0.2620727, 9.585938453674316, -2.4922995567321777, 0.06287176162004471, 2.622753620147705, -0.664387047290802, -0.06455041468143463, -0.64990234375, 0.352783203125, 0.489013671875, 0, 
435, 270869153, 0.65784013, -0.42226925, -0.5659025, -0.26208696, 9.557734489440918, -2.511983871459961, 0.07884752005338669, 2.2566840648651123, -0.4342953562736511, -0.41840267181396484, -0.650390625, 0.352783203125, 0.486083984375, 0, 
436, 270885820, 0.65791124, -0.4220798, -0.5659081, -0.26220188, 9.548460006713867, -2.4658873081207275, 0.08688769489526749, 1.5850034952163696, 0.07348284125328064, -0.5673534274101257, -0.6494140625, 0.3505859375, 0.4833984375, 0, 
437, 270902487, 0.65795976, -0.42193913, -0.565839, -0.26245522, 9.57082462310791, -2.487169027328491, 0.1380867063999176, 0.6263073086738586, 0.6375640630722046, -0.8281673789024353, -0.65087890625, 0.349365234375, 0.482666015625, 0, 
438, 270919154, 0.6579989, -0.4217537, -0.5657981, -0.2627431, 9.56875228881836, -2.564612865447998, 0.14195337891578674, 0.7181288599967957, 0.6531623005867004, -1.2565526962280273, -0.652099609375, 0.35107421875, 0.481689453125, 0, 
439, 270935821, 0.6581279, -0.42139482, -0.565837, -0.26291177, 9.626664161682129, -2.586099147796631, 0.2006693035364151, 2.3694305419921875, 0.6084808707237244, -1.4627348184585571, -0.65283203125, 0.349609375, 0.485595703125, 0, 
440, 270952488, 0.6583156, -0.4208504, -0.566004, -0.26295486, 9.657949447631836, -2.584822416305542, 0.20719628036022186, 4.100389003753662, 0.22810673713684082, -1.8824505805969238, -0.651611328125, 0.3505859375, 0.481689453125, 0, 
441, 270969155, 0.6584846, -0.42029774, -0.5661624, -0.26307473, 9.688071250915527, -2.522164821624756, 0.2392093390226364, 3.7673211097717285, 0.4295505881309509, -2.272890090942383, -0.65478515625, 0.35009765625, 0.482666015625, 0, 
442, 270985822, 0.6585533, -0.41988984, -0.56625193, -0.26336065, 9.676660537719727, -2.5787200927734375, 0.2358243614435196, 2.052281618118286, 0.5671292543411255, -2.443598508834839, -0.652587890625, 0.349365234375, 0.481689453125, 0, 
443, 271002489, 0.6585679, -0.4195575, -0.5662919, -0.26376778, 9.662193298339844, -2.6007206439971924, 0.25071749091148376, 0.9905584454536438, 0.7919191122055054, -2.6553778648376465, -0.65478515625, 0.35009765625, 0.482177734375, 0, 
444, 271019156, 0.6584937, -0.41939104, -0.5662374, -0.26433444, 9.60851764678955, -2.584954023361206, 0.2768225371837616, -0.8079846501350403, 1.03123140335083, -2.6222474575042725, -0.656005859375, 0.344970703125, 0.481689453125, 0, 
445, 271035823, 0.658258, -0.41947976, -0.5660959, -0.26508233, 9.554429054260254, -2.55788254737854, 0.27668526768684387, -3.2941389083862305, 0.8534983396530151, -2.494382619857788, -0.656494140625, 0.34619140625, 0.48046875, 0, 
446, 271052490, 0.65793604, -0.41978484, -0.5658534, -0.26591545, 9.523513793945312, -2.5841166973114014, 0.2235773503780365, -5.038537502288818, 0.8236533999443054, -1.9075124263763428, -0.65478515625, 0.34619140625, 0.481689453125, 0, 
447, 271069157, 0.65753657, -0.42023805, -0.5655735, -0.2667812, 9.528584480285645, -2.5776898860931396, 0.22021761536598206, -6.127333164215088, 0.5134707093238831, -1.5150490999221802, -0.659912109375, 0.343994140625, 0.482666015625, 0, 
448, 271085824, 0.6571089, -0.420729, -0.5653513, -0.26753142, 9.539997100830078, -2.6790685653686523, 0.19276413321495056, -5.823822975158691, -0.2614864706993103, -1.0673004388809204, -0.65771484375, 0.3427734375, 0.486083984375, 0, 
449, 271102491, 0.65678203, -0.42107874, -0.56522083, -0.2680586, 9.536856651306152, -2.699124574661255, 0.14360234141349792, -3.8598406314849854, -0.6691638827323914, -0.6934575438499451, -0.6572265625, 0.34228515625, 0.484375, 0, 
450, 271119158, 0.6566109, -0.421231, -0.565156, -0.2683756, 9.564693450927734, -2.6382832527160645, 0.07711736112833023, -1.5784660577774048, -0.6052857637405396, -0.4186716675758362, -0.659423828125, 0.34130859375, 0.4873046875, 0, 
451, 271135825, 0.656518, -0.42135608, -0.5650596, -0.26860964, 9.555394172668457, -2.591953754425049, 0.08293628692626953, -0.9656435251235962, -0.34763479232788086, 0.0810898095369339, -0.65771484375, 0.344482421875, 0.4873046875, 0, 
452, 271152492, 0.65649253, -0.42152464, -0.56486964, -0.26880655, 9.60008430480957, -2.619795799255371, 0.03323422372341156, -0.9937534928321838, 0.1503465324640274, 0.8110132813453674, -0.658935546875, 0.343994140625, 0.48388671875, 0, 
453, 271169159, 0.656608, -0.42163208, -0.56460804, -0.2689059, 9.586620330810547, -2.633070707321167, 0.03885696455836296, -0.0625782310962677, 0.8529797792434692, 1.4794409275054932, -0.658447265625, 0.340087890625, 0.489990234375, 0, 
454, 271185826, 0.6568384, -0.4216535, -0.56431216, -0.2689303, 9.566835403442383, -2.5759787559509277, 0.05479057878255844, 0.8870126605033875, 1.398062825202942, 1.7920629978179932, -0.65771484375, 0.343505859375, 0.486572265625, 0, 
455, 271202493, 0.6571393, -0.4216421, -0.56396055, -0.2689507, 9.54239559173584, -2.5721428394317627, 0.08671288192272186, 1.1515343189239502, 1.9733558893203735, 1.972664475440979, -0.658935546875, 0.341796875, 0.485107421875, 0, 
456, 271219160, 0.6574906, -0.42155755, -0.5636382, -0.26890033, 9.552929878234863, -2.617506742477417, 0.10912147909402847, 1.9576938152313232, 1.967810869216919, 2.0144901275634766, -0.65771484375, 0.3427734375, 0.48388671875, 0, 
457, 271235827, 0.6578275, -0.42147633, -0.5633662, -0.26877382, 9.534689903259277, -2.5642926692962646, 0.17128291726112366, 2.289058208465576, 1.4591681957244873, 2.197441339492798, -0.658935546875, 0.340576171875, 0.484375, 0, 
458, 271252494, 0.6581192, -0.42142704, -0.5631494, -0.2685911, 9.533533096313477, -2.4606168270111084, 0.17298755049705505, 2.3331503868103027, 0.8116151690483093, 2.3293724060058594, -0.6572265625, 0.343994140625, 0.4833984375, 0, 
459, 271269161, 0.65834004, -0.4214698, -0.56292003, -0.26846364, 9.486748695373535, -2.4638350009918213, 0.1712876856327057, 1.4748302698135376, 0.58487868309021, 2.3411412239074707, -0.659423828125, 0.34619140625, 0.48388671875, 0, 
460, 271285828, 0.65845764, -0.42160043, -0.5627011, -0.26842916, 9.493934631347656, -2.4521985054016113, 0.1815616637468338, 0.43722161650657654, 0.24438358843326569, 2.038156270980835, -0.655517578125, 0.347900390625, 0.48388671875, 0, 
461, 271302495, 0.6584708, -0.42182657, -0.5624608, -0.26854536, 9.531914710998535, -2.51834774017334, 0.21431037783622742, -0.9211223125457764, 0.19845359027385712, 1.5959208011627197, -0.6572265625, 0.3466796875, 0.48388671875, 0, 
462, 271319162, 0.6583818, -0.42212027, -0.5622638, -0.2687145, 9.595161437988281, -2.491525173187256, 0.27045977115631104, -1.6472744941711426, -0.364308625459671, 1.3018933534622192, -0.65771484375, 0.345703125, 0.48095703125, 0, 
463, 271335829, 0.6582005, -0.42246103, -0.56212723, -0.26890832, 9.562491416931152, -2.4600706100463867, 0.2894490957260132, -2.1129257678985596, -1.011836051940918, 1.0248920917510986, -0.656005859375, 0.343505859375, 0.486083984375, 0, 
464, 271352496, 0.65799654, -0.42276686, -0.5620751, -0.26903588, 9.567351341247559, -2.4596636295318604, 0.22967514395713806, -1.608765721321106, -1.61063551902771, 0.9033471941947937, -0.6572265625, 0.344482421875, 0.484375, 0, 
465, 271369163, 0.6578113, -0.42303154, -0.56205475, -0.26911542, 9.564040184020996, -2.4842000007629395, 0.1522214263677597, -1.124301552772522, -1.7467926740646362, 0.9030653238296509, -0.656494140625, 0.345703125, 0.4833984375, 0, 
466, 271385830, 0.6576139, -0.42328805, -0.5620651, -0.26917285, 9.589581489562988, -2.4504482746124268, 0.14186827838420868, -0.9801532626152039, -1.9811744689941406, 0.8595878481864929, -0.658935546875, 0.3447265625, 0.489013671875, 0, 
467, 271402497, 0.65747947, -0.42350033, -0.5620325, -0.26923585, 9.590167045593262, -2.478839874267578, 0.14429357647895813, -0.6988488435745239, -1.444857120513916, 0.9062284231185913, -0.655029296875, 0.343505859375, 0.48681640625, 0, 
468, 271419164, 0.65739703, -0.42361152, -0.5620312, -0.26926476, 9.570357322692871, -2.4817967414855957, 0.15333005785942078, 0.10000478476285934, -1.2976353168487549, 0.6747665405273438, -0.656005859375, 0.344482421875, 0.486572265625, 0, 
469, 271435831, 0.65733147, -0.4237064, -0.5620382, -0.26926064, 9.575446128845215, -2.471733570098877, 0.16022488474845886, 0.365864634513855, -1.3352988958358765, 0.7686883807182312, -0.654541015625, 0.3427734375, 0.4873046875, 0, 
470, 271452498, 0.65725416, -0.42378807, -0.5620829, -0.26922756, 9.538298606872559, -2.468775510787964, 0.16390405595302582, 0.5732378363609314, -1.6114037036895752, 0.7157596349716187, -0.655029296875, 0.343994140625, 0.48681640625, 0, 
471, 271469165, 0.6571263, -0.4239291, -0.56212926, -0.26922095, 9.55335807800293, -2.44626784324646, 0.16354094445705414, 0.058742720633745193, -1.8466306924819946, 0.7279385328292847, -0.655517578125, 0.343505859375, 0.489990234375, 0, 
472, 271485832, 0.6569623, -0.42408568, -0.5622095, -0.26920727, 9.552376747131348, -2.4695913791656494, 0.13625846803188324, -0.027655314654111862, -2.189700126647949, 0.6547503471374512, -0.655517578125, 0.344482421875, 0.48828125, 0, 
473, 271502499, 0.6567254, -0.4242522, -0.5623724, -0.26918262, 9.528590202331543, -2.4784133434295654, 0.1419266015291214, -0.08888247609138489, -2.8946385383605957, 0.366389662027359, -0.65576171875, 0.34228515625, 0.49169921875, 0, 
474, 271519166, 0.6565385, -0.42424616, -0.5627029, -0.26895726, 9.5604248046875, -2.561919689178467, 0.09263060986995697, 1.9218103885650635, -3.72448992729187, 0.20958870649337769, -0.655517578125, 0.346923828125, 0.49072265625, 0, 
475, 271535833, 0.65648276, -0.42391315, -0.56328654, -0.26839587, 9.578319549560547, -2.517630100250244, 0.07896901667118073, 5.5479416847229, -4.733784198760986, -0.03551841154694557, -0.65625, 0.343994140625, 0.489501953125, 0, 
476, 271552500, 0.6564633, -0.4234423, -0.56400865, -0.26766926, 9.597439765930176, -2.437943935394287, 0.009736200794577599, 7.171942234039307, -5.444397449493408, -0.16066211462020874, -0.65673828125, 0.347412109375, 0.4912109375, 0, 
477, 271569167, 0.656453, -0.42288586, -0.564822, -0.2668583, 9.561095237731934, -2.4529213905334473, -0.05970967561006546, 8.081130027770996, -5.907923221588135, -0.359032541513443, -0.65673828125, 0.34521484375, 0.49072265625, 0, 
478, 271585834, 0.65646917, -0.42215833, -0.56582904, -0.265835, 9.595118522644043, -2.5099270343780518, -0.06361553817987442, 10.110989570617676, -6.980712890625, -0.5788921117782593, -0.6572265625, 0.347900390625, 0.489013671875, 0, 
479, 271602501, 0.6565884, -0.42116636, -0.56703335, -0.2645448, 9.56494140625, -2.4941468238830566, -0.058848246932029724, 13.003424644470215, -7.757780075073242, -0.7876871824264526, -0.655517578125, 0.34619140625, 0.48828125, 0, 
480, 271619168, 0.656738, -0.42004895, -0.56834674, -0.26312777, 9.526628494262695, -2.367954969406128, -0.06760785728693008, 14.350386619567871, -8.269291877746582, -0.9634033441543579, -0.655517578125, 0.34619140625, 0.48828125, 0, 
481, 271635835, 0.6566986, -0.41916722, -0.5696033, -0.26191223, 9.532405853271484, -2.314845561981201, -0.06424198299646378, 11.851954460144043, -8.593433380126953, -1.1294889450073242, -0.6533203125, 0.347412109375, 0.48828125, 0, 
482, 271652502, 0.6564344, -0.4185718, -0.570765, -0.26099646, 9.558208465576172, -2.3934226036071777, -0.028592079877853394, 8.565876960754395, -8.69603443145752, -1.4893215894699097, -0.65380859375, 0.3466796875, 0.48828125, 0, 
483, 271669169, 0.65612006, -0.41796887, -0.57195777, -0.2601402, 9.569708824157715, -2.4589364528656006, -0.07309034466743469, 8.278463363647461, -8.847136497497559, -1.9654874801635742, -0.654541015625, 0.347900390625, 0.4873046875, 0, 
484, 271685836, 0.6557628, -0.41738188, -0.5731762, -0.25930056, 9.56273078918457, -2.4897658824920654, -0.03646369278430939, 8.064623832702637, -9.1107816696167, -2.129549980163574, -0.655029296875, 0.34521484375, 0.48828125, 0, 
485, 271702503, 0.6554179, -0.41673583, -0.57443005, -0.25843522, 9.593644142150879, -2.4457509517669678, -0.010015709325671196, 8.53054428100586, -9.189284324645996, -2.325423002243042, -0.65380859375, 0.347412109375, 0.489501953125, 0, 
486, 271719170, 0.6549772, -0.41622373, -0.5756508, -0.25766042, 9.594535827636719, -2.408801794052124, -0.03555972874164581, 7.236064910888672, -9.397769927978516, -2.2794349193573, -0.655517578125, 0.347412109375, 0.48779296875, 0, 
487, 271735837, 0.6544664, -0.41584104, -0.5768056, -0.25699297, 9.614295959472656, -2.4934780597686768, -0.005193326622247696, 5.911554336547852, -9.298944473266602, -2.1859359741210938, -0.654541015625, 0.343994140625, 0.48779296875, 0, 
488, 271752504, 0.6540423, -0.41538316, -0.57795644, -0.2562265, 9.587124824523926, -2.550978422164917, 0.01001405157148838, 6.884082317352295, -9.088139533996582, -1.8747671842575073, -0.655029296875, 0.34521484375, 0.489501953125, 0, 
489, 271769171, 0.6535653, -0.41497925, -0.5791078, -0.25549752, 9.540878295898438, -2.511920690536499, 0.08374238759279251, 6.340874671936035, -9.289684295654297, -1.926133394241333, -0.65283203125, 0.34619140625, 0.489501953125, 0, 
490, 271785838, 0.65295637, -0.41475818, -0.58021456, -0.2549017, 9.533401489257812, -2.53494930267334, 0.12366825342178345, 4.535063743591309, -9.55809497833252, -1.9022881984710693, -0.654052734375, 0.34521484375, 0.492919921875, 0, 
491, 271802505, 0.65232414, -0.4146431, -0.58123106, -0.25439146, 9.52188777923584, -2.522181987762451, 0.1379130780696869, 3.4920108318328857, -9.191535949707031, -1.6502330303192139, -0.655029296875, 0.34521484375, 0.492919921875, 0, 
492, 271819172, 0.6515748, -0.41475627, -0.5821618, -0.25399855, 9.513504981994629, -2.529331684112549, 0.09512509405612946, 1.5155420303344727, -9.341446876525879, -1.2261377573013306, -0.65283203125, 0.34130859375, 0.49462890625, 0, 
493, 271835839, 0.6508446, -0.4149263, -0.58303684, -0.25358558, 9.564722061157227, -2.566593885421753, 0.07988984882831573, 1.2970916032791138, -9.175418853759766, -0.7193841338157654, -0.653076171875, 0.343505859375, 0.497802734375, 0, 
494, 271852506, 0.6502153, -0.41509992, -0.5838212, -0.2531108, 9.537544250488281, -2.583721876144409, -0.007734091952443123, 1.6580897569656372, -8.549514770507812, 0.003957163076847792, -0.6513671875, 0.34228515625, 0.501220703125, 0, 
495, 271869173, 0.6496181, -0.41530573, -0.5844966, -0.25274745, 9.56954288482666, -2.4588518142700195, 0.06827715039253235, 0.9681730270385742, -7.674276828765869, -0.0017864861292764544, -0.653076171875, 0.342529296875, 0.504150390625, 0, 
496, 271885840, 0.6489211, -0.41576672, -0.58503133, -0.252543, 9.548486709594727, -2.502736806869507, 0.13324567675590515, -1.339858055114746, -7.440829277038574, 0.5410299301147461, -0.654052734375, 0.343994140625, 0.500244140625, 0, 
497, 271902507, 0.6483617, -0.41612116, -0.5855597, -0.25217107, 9.536992073059082, -2.6051199436187744, 0.1640166938304901, 0.18944434821605682, -7.156002998352051, 1.1140245199203491, -0.652587890625, 0.34423828125, 0.505126953125, 0, 
498, 271919174, 0.6477749, -0.41644925, -0.586228, -0.25158444, 9.43695068359375, -2.5603842735290527, 0.2717614769935608, 1.335126280784607, -8.463930130004883, 1.5137494802474976, -0.653564453125, 0.343505859375, 0.5029296875, 0, 
499, 271935841, 0.6468923, -0.41697636, -0.5870708, -0.2510163, 9.359683990478516, -2.428528070449829, 0.3449224531650543, -0.17217501997947693, -10.73164176940918, 1.2184478044509888, -0.650390625, 0.343017578125, 0.50634765625, 0, 
500, 271952508, 0.6456938, -0.41783753, -0.58797026, -0.25056425, 9.289071083068848, -2.4493956565856934, 0.4444947838783264, -2.9374840259552, -12.510185241699219, 1.3398971557617188, -0.647705078125, 0.343994140625, 0.508056640625, 0, 
501, 271969175, 0.6439485, -0.41920498, -0.5889895, -0.25037804, 9.290934562683105, -2.345233917236328, 0.480516642332077, -7.626490116119385, -15.3690767288208, 0.9184852242469788, -0.651123046875, 0.343017578125, 0.515869140625, 0, 
502, 271985842, 0.6417619, -0.42115003, -0.58987325, -0.2506473, 9.462645530700684, -2.3867733478546143, 0.34583580493927, -13.535825729370117, -16.248355865478516, 0.8685535788536072, -0.650146484375, 0.342529296875, 0.52197265625, 0, 
503, 272002509, 0.6396056, -0.42314655, -0.5906492, -0.25096905, 9.607626914978027, -2.7447142601013184, 0.18294304609298706, -14.07607650756836, -15.59597396850586, 1.2089340686798096, -0.645263671875, 0.342041015625, 0.526611328125, 0, 
504, 272019176, 0.63781136, -0.42469662, -0.591446, -0.25104016, 9.798416137695312, -2.6962389945983887, 0.04446510970592499, -10.007781982421875, -14.183001518249512, 1.0557693243026733, -0.649658203125, 0.341064453125, 0.530517578125, 0, 
505, 272035843, 0.63621366, -0.42624727, -0.59191865, -0.25135213, 9.979191780090332, -2.5355935096740723, 0.10464304685592651, -10.975525856018066, -11.266051292419434, 1.2832999229431152, -0.647216796875, 0.3388671875, 0.538330078125, 0, 
506, 272052510, 0.63458395, -0.4282767, -0.59177417, -0.2523604, 10.079731941223145, -2.5957629680633545, 0.2529553472995758, -17.067195892333984, -7.491325855255127, 1.9365593194961548, -0.646240234375, 0.337158203125, 0.5439453125, 0, 
507, 272069177, 0.63298357, -0.43062222, -0.5910533, -0.2540715, 10.199176788330078, -2.5647687911987305, 0.2512558102607727, -22.222545623779297, -3.346388101577759, 1.901169776916504, -0.645751953125, 0.3388671875, 0.54833984375, 0, 
