"sep=,",,,,,,,,,,,,,,,
"DeviceTag:,Xsens_5,,,,,,,,,,,,,,,,,",,,,,,,,,,,,,,,
"FirmwareVersion:,2.2.1,,,,,,,,,,,,,,,,,",,,,,,,,,,,,,,,
"AppVersion:,2023.0.0,,,,,,,,,,,,,,,,,",,,,,,,,,,,,,,,
"StartTime:,2023-07-17 14:57:19.000 +0200,,,,,,,,,,,,,,,,,",,,,,,,,,,,,,,,
"© Movella Technologies B. V. 2005-2023,,,,,,,,,,,,,,,,,,,",,,,,,,,,,,,,,,
PacketCounter,SampleTimeFine,Quat_W,Quat_X,Quat_Y,Quat_Z,Acc_X,Acc_Y,Acc_Z,Gyr_X,Gyr_Y,Gyr_Z,Mag_X,Mag_Y,Mag_Z,Status
0,1113885764,2.94392336003208e-17,1.85095203616335e-16,-0.707106781186547,-0.707106781186547,0,0,0,0,0,0,0.728515625,0.5625,-0.98681640625,0
1,1113902431,0.00178347962101392,0.00148652128615658,-0.705401820080349,-0.708803838648069,-7.83086897629317,3.31418457275307,5.71747292471185,6.62490627652795,-3.74326776420382,5.4022497982577,0.724757695947744,0.56888575928752,-0.98318315639531,0
2,1113919098,0.00312528499528207,0.00460104795111028,-0.703712704322997,-0.71046287216565,-7.75630811754316,3.22309924204379,5.5114364622085,10.466082651367,-1.60154919440877,7.01607030062251,0.719766585892265,0.572441486295035,-0.978950966840745,0
3,1113935765,0.00446501886719473,0.00720424462524434,-0.702206778505433,-0.711922610040528,-7.60774078724329,3.03249329577946,5.05991306979581,10.1328952337904,-0.862515486624269,7.07236828373807,0.72227621806168,0.577752807444582,-0.980150130710849,0
4,1113952432,0.00579402836040632,0.00830288972020361,-0.701302857549134,-0.712791549649035,-7.51728934260197,2.81309581235755,5.05738735199312,5.32658103604129,-1.52053017514219,3.93858212031652,0.715369114821028,0.580387947762609,-0.978742190755693,0
5,1113969099,0.00635754470316451,0.00849369733418053,-0.701701287437933,-0.712392266899978,-7.64104747516207,2.87398602116649,5.21079697189289,-5.35360327260262,-2.17786098541413,1.27599332898545,0.714350032834306,0.575133370374859,-0.978128222917857,0
6,1113985766,0.00677100479400963,0.00842753350075918,-0.702471593773919,-0.711629672030266,-7.65567890601813,3.12785117444733,5.49754564198738,-8.12474424393325,-1.05971097930417,1.82288496371423,0.712797388935385,0.5799250453279,-0.97902650267972,0
7,1114002433,0.00729316636100704,0.00857364903630167,-0.702958088998105,-0.711142199126704,-7.71182936910711,3.25720452031121,5.53090554370473,-5.12558159856802,0.905529750493073,2.34800736563132,0.713492220557463,0.577553659237944,-0.978500126808215,0
8,1114019100,0.00800105050150073,0.00868046746833575,-0.703175444101676,-0.710918369074688,-7.73494004343499,3.21768452685478,5.34336850125365,-2.94585614062196,3.20000849708703,1.98790888084094,0.712413541101966,0.581193256519873,-0.980157121376238,0
9,1114035767,0.00875418584598615,0.00837262971825828,-0.703429241636508,-0.710662061258698,-7.75593448915399,3.1520147256949,5.18170958165962,-3.73912681798802,5.02998331242347,-0.0185271088919642,0.710191525334928,0.576975039082665,-0.978755913108512,0
10,1114052434,0.00950256684156299,0.00770592015978835,-0.703956646030392,-0.710137564509549,-7.86158514155764,3.10403339794705,5.0309092695304,-7.00909908855601,5.92635110435293,-1.26550971426074,0.707583826938621,0.579955802954831,-0.980016753828064,0
11,1114069101,0.010359923721833,0.00681932184192699,-0.704581661901687,-0.70951451749908,-7.80569811115699,3.18607175041665,5.23941772695849,-8.31955904166802,6.32096077036066,-1.17462139953489,0.705233312700099,0.577186130426842,-0.981081102120267,0
12,1114085768,0.0113369746910129,0.00596566982632123,-0.705424766891103,-0.708669021507933,-7.80511904830786,3.19669400959247,5.53218974408927,-10.8815666004159,6.86114194592611,-0.0695575539376456,0.705151440250725,0.581587142506212,-0.981824063401454,0
13,1114102435,0.0128621429153483,0.00554565663132742,-0.706283104147423,-0.707790920942077,-7.46899595141518,3.31482507648438,5.63645359441235,-10.5874532903672,8.05292180977684,4.59324279550114,0.702347296829068,0.580264239195411,-0.98005859273434,0
14,1114119102,0.0144611130945444,0.00556603246007526,-0.707282359532644,-0.706761317125277,-6.99409683993864,3.51579067699601,5.59869952340938,-11.9464677196906,7.49146590705241,6.69153457687157,0.699359041704769,0.578573527494199,-0.983273630437758,0
15,1114135769,0.015745117136315,0.00605421480803862,-0.70862905605787,-0.705379542289081,-6.77684429064289,3.6760701118432,5.56688438099304,-15.8794605560387,5.14109820859367,6.76176920637081,0.69786278543952,0.577079729247878,-0.981871893751704,0
16,1114152436,0.0166297181804362,0.00682433965034381,-0.710278675384131,-0.703691043112061,-6.60832897795579,3.96233337820238,5.69494499204577,-19.1434716182999,2.91044948791126,5.23666012647145,0.695866302935425,0.576301942519264,-0.982951551504074,0
17,1114169103,0.016939999569901,0.0078229890051024,-0.711968330192533,-0.701963627305898,-6.68290204288223,4.00110921599022,5.86484565469477,-20.0064484296011,0.15372997044182,2.52594094677769,0.697580831877038,0.573024325216088,-0.979880939796683,0
18,1114185770,0.0169949956051797,0.00911190449807138,-0.714027193725211,-0.699852348671989,-6.9757343111872,4.18710220644539,6.11578359559318,-23.5473927236634,-1.76395853815496,1.76634051996294,0.699322413462845,0.57255740374878,-0.983742692540055,0
19,1114202437,0.0169294896928008,0.0106109749568181,-0.715579903582539,-0.698245086755369,-6.97821061767658,4.35516096948889,6.30841288485794,-18.8965956229041,-2.53930851555139,1.70026933890111,0.697956500790362,0.575991088347086,-0.981878707333915,0
20,1114219104,0.0170257886218836,0.0120422218195576,-0.71619984147436,-0.69758361110877,-7.18295865178266,4.16993919610595,6.08074805237948,-9.70895422190195,-0.665733271207211,1.40954315995504,0.697395031791234,0.573985757732252,-0.983226237809027,0
21,1114235771,0.0172012941209662,0.0134199107208448,-0.716907178027787,-0.696827180561323,-7.43033064007811,3.86610590138657,5.47067847233969,-10.8127650715006,0.127571886683644,1.50410119778505,0.700588281444264,0.577134364252547,-0.981600477613774,0
22,1114252438,0.0172362778190144,0.0148562434652541,-0.717975475796238,-0.695696355396672,-7.66062760004795,3.86015912932995,5.51380637752183,-13.9955337515957,-1.68569506065126,1.11638360003494,0.700376222058637,0.575599928634092,-0.980970096835901,0
23,1114269105,0.0172722201502987,0.0166099009619113,-0.718539069503378,-0.695073655951896,-7.82562732009953,3.87850723053031,6.02125140970085,-9.0181451238056,-3.66863666825691,3.00474980739626,0.701574896097566,0.579762855023265,-0.979600013418799,0
24,1114285772,0.0174872658666853,0.0187844744138026,-0.717948293802537,-0.695623164133809,-7.90982193431314,3.72001881547117,6.08382760216463,2.74574813101898,-4.84086544549621,6.06674107910015,0.701799660012661,0.577358196441913,-0.978985803065523,0
25,1114302439,0.0182430586631609,0.0215430428347982,-0.71698218086708,-0.696519662633523,-8.01747063339302,3.51526958898816,5.54383008760097,6.44669940891627,-5.06262681643469,11.9540714097834,0.70118011380852,0.58078105022553,-0.976434867137995,0
26,1114319106,0.0199677033750331,0.0244263126297959,-0.715760469636874,-0.697632851991963,-7.78641924652377,3.18015746639958,5.01230341911876,8.939883711856,-1.42791870383553,17.5653767467513,0.699628938512074,0.582952380291698,-0.97674188785209,0
27,1114335773,0.0218201143599759,0.0270573434721752,-0.715058700843741,-0.698199711487485,-7.62161280534995,3.31317805186811,5.47732638046575,3.77591718646221,-0.379140799655589,17.5008807208847,0.69755922207559,0.585793123901246,-0.97443752732889,0
28,1114352440,0.0236654570894463,0.030176442247931,-0.71367069542196,-0.699430816428574,-7.63058665667707,3.76027399835167,6.03161911091875,10.7054925145403,-2.82879883163011,20.1665123480039,0.695395166691621,0.585293464054016,-0.972164550867551,0
29,1114369107,0.0253621419611632,0.0335815630309157,-0.710386707554874,-0.702552322684147,-7.48026081402225,3.84283624675126,6.58267092015239,29.2728230280508,-4.18382706868183,21.0502783640983,0.697519963033926,0.589937209344038,-0.970358941465084,0
30,1114385774,0.0272128100369449,0.0368276289580053,-0.704646940147109,-0.708079005801289,-7.35590744218697,3.62970484076154,6.32239287830749,53.2728171061101,-1.48500456081292,20.9901389207754,0.694961505873742,0.596538527752358,-0.965825489442635,0
31,1114402441,0.0288111720001075,0.0395100935027154,-0.698094552232628,-0.71433386103594,-7.30932627944707,3.22757481950745,5.44037322464276,61.0655140299529,0.463860900354799,17.054169258902,0.691677446168604,0.601427408683202,-0.961063271590546,0
32,1114419108,0.0295702058554557,0.0412707755380108,-0.692516870096785,-0.719612889436751,-7.36661569229138,3.30527183710659,5.48888665656091,51.9570317707314,0.22090378786125,8.51857730056451,0.696535345335366,0.604837058239852,-0.95774101217199,0
33,1114435775,0.0300592627348973,0.0430836485016161,-0.685207015356412,-0.726451365242011,-7.73561318337896,2.82916232804871,5.58566600417053,68.4208645821908,-0.801752038132313,7.5984561720411,0.692110476257121,0.613530290185196,-0.950929456380801,0
34,1114452442,0.030330146305928,0.0447897022350318,-0.677776441685302,-0.733275568865599,-7.77611845103219,2.02346624939734,5.28878665047967,69.4649849440421,-1.58681663416151,6.2300710907639,0.69373870217311,0.62033317075273,-0.946013971898056,0
35,1114469109,0.0301704720054645,0.0458775039483502,-0.671492122637464,-0.738974510038249,-7.82158754960078,2.13472602667143,5.008113854332,59.093617217826,-1.48181071079533,1.40785432852101,0.692078999530363,0.626419885932641,-0.940909093731114,0
36,1114485776,0.0294037048584068,0.0462939394631413,-0.66608760570988,-0.743854552200403,-8.17348244605068,2.26362564881573,4.83307082410018,51.0599259826723,-1.63838489249731,-4.36366803152024,0.693417575495509,0.631909191033328,-0.937080345380824,0
37,1114502443,0.0285029602458087,0.0461233869031602,-0.660783782899035,-0.748615393039342,-8.63670442038834,2.44736067014333,4.85006284446474,50.180108849783,0.233556932420539,-7.39659651674974,0.693584033670483,0.638420989550565,-0.93497460349166,0
38,1114519110,0.027806963544694,0.045280109268434,-0.655362736728832,-0.753442876262268,-8.59085093159032,2.33960665586467,4.90927638225563,50.9918710559633,4.22286091537276,-9.00695765762292,0.693390693157894,0.6367822533728,-0.930799814428772,0
39,1114535777,0.0272813411445994,0.0438222251296759,-0.649861873069555,-0.758297360499537,-8.53156881377735,2.16448419119407,4.66691099585107,51.5139783924193,7.81127702716618,-10.557820924915,0.693120499800089,0.642501203739329,-0.926633353123954,0
40,1114552444,0.0267854609881281,0.0418333443760376,-0.644170467182608,-0.763267266157608,-8.528944357057,2.02071858381591,4.25687421492236,52.9995443532048,10.4179984841032,-12.3852777224333,0.69264197044497,0.64853239952961,-0.921999583881902,0
41,1114569111,0.0262285103094476,0.0391134624001664,-0.638370120940114,-0.768287570507894,-8.34168182792765,1.96315054507285,4.03764891333639,53.7392744654065,13.600542121368,-15.5764419567373,0.6905399521813,0.652954825336835,-0.919662185889812,0
42,1114585778,0.0253549054059879,0.0357803853527245,-0.632724578413907,-0.773134206116123,-8.28596160716569,1.86475238815961,3.67821032335489,52.1728021544299,14.9915656541783,-19.6434293103959,0.690198601943129,0.655329119000537,-0.913435902752534,0
43,1114602445,0.0241294657036426,0.0318137172966106,-0.627735612996761,-0.777401862907601,-8.21582690381835,1.77467754754396,3.47622410272562,46.1295329073882,16.1739521545391,-24.0212422750952,0.690705057934926,0.660195422464885,-0.911408949371744,0
44,1114619112,0.0224967706212351,0.0269378550582191,-0.623697177624693,-0.780877761176146,-8.2587646372941,1.88978500146039,3.48309772310427,37.5874233893424,18.5524064701107,-29.928398350409,0.690608565180092,0.660902672131152,-0.903466057277214,0
45,1114635779,0.0200796089199422,0.0208748236214493,-0.620826142568282,-0.783413014793719,-8.44241532730116,2.05137930354089,3.6254560727544,25.7513973301556,21.4471086365786,-38.0225257047034,0.692818607228725,0.666807725474048,-0.90253671001758,0
46,1114652446,0.0175059364451323,0.0136336769496581,-0.619268259800074,-0.784865904117512,-8.77140114382519,2.35202904432245,4.11483881560816,15.3200775592074,25.913326020305,-44.7413616524895,0.694924186440992,0.667829667191525,-0.90054830049315,0
47,1114669113,0.0148279814906661,0.00514749527454863,-0.617853363693437,-0.786136664473816,-8.95267689443643,2.54340037236225,4.40150869752246,13.6192384051048,31.9194894449062,-50.4571808265641,0.696509571930559,0.673205811730636,-0.899181331696923,0
48,1114685780,0.0121297985103153,-0.00434430308984719,-0.616221029073948,-0.787467864960728,-8.97058326631868,2.53529556538285,4.38577814251421,14.8622200737642,37.1369749161071,-54.6819709985058,0.69705541404718,0.671577341221585,-0.896141617532014,0
49,1114702447,0.00937723167619541,-0.0145811173735601,-0.614471804655499,-0.788748286733888,-8.88410299181751,2.50932961652788,4.26391398437037,15.2411681752403,40.764689512163,-58.0642455623436,0.699621133829544,0.676149706873911,-0.896169882200004,0
50,1114719114,0.00667474049147601,-0.0251900521116149,-0.612657014930168,-0.789919167491739,-8.71679179542896,2.42438962527813,4.14039885474597,15.0729614581562,42.8558862138504,-59.2593304028896,0.701254787122644,0.678577287732226,-0.890776189187103,0
51,1114735781,0.00396690356826564,-0.0359139863716157,-0.610620566006358,-0.791098586542192,-8.60702014330148,2.39173909927847,4.13507806565011,16.241369287118,43.3357235610511,-59.697541918955,0.703492954640642,0.681669806191365,-0.886627835928996,0
52,1114752448,0.00128827509619498,-0.0466154239972351,-0.608319954189926,-0.792320753184719,-8.57224487518425,2.41579027966649,4.26554343192793,17.8126057949656,43.2243705189207,-59.4094943488855,0.703588077090241,0.683611515148798,-0.882644824683153,0
53,1114769115,0.00148990817371191,0.0571911651763759,0.605689452455127,0.793641756703874,-8.58953922783779,2.5084721995691,4.28613212042395,19.931388486652,42.0243039355333,-59.4376756559101,0.706467446580901,0.685996082499529,-0.87961261053348,0
54,1114785782,0.00444423919771841,0.0677125454638295,0.602818623502671,0.79498740058136,-8.60055796030139,2.54774826210957,4.44972826462955,21.2380495007763,40.9086611547646,-60.2113718083508,0.711490008380297,0.69047675266816,-0.8768867973558,0
55,1114802449,0.0076896494452237,0.0779819058199928,0.599463377548279,0.796557186041592,-8.49567180846137,2.79502847130933,4.74942534097445,23.5954156320567,38.580457393522,-60.1880799838049,0.711713573317206,0.690948904722264,-0.872199015748831,0
56,1114819116,0.0112765269156464,0.0878671509228624,0.59537551416023,0.798548809320922,-8.41099370713568,3.13480462916605,4.88730207752422,29.1310512254632,34.7994301178136,-60.8608841162736,0.714692145491815,0.695165106929443,-0.867186862943191,0
57,1114835783,0.0152090962452429,0.0974866374235265,0.590704979102917,0.800832483468471,-8.27808575783943,3.28058296765802,4.72135320408154,33.2603708664608,31.7252444707489,-62.060258466941,0.719794269755046,0.700681208905098,-0.863282591594652,0
58,1114852450,0.019462911610185,0.10695046825277,0.585935723504078,0.803033075491863,-8.09323766102466,3.45696618245813,4.57403485243663,33.1812122944433,29.622025834072,-63.3509445548123,0.724972718418998,0.706336583121896,-0.856738179283345,0
59,1114869117,0.0239492809526871,0.11662642990049,0.580899808907345,0.805220541095373,-7.79756359678342,3.56969060457176,4.78365645135715,34.3850987835885,29.8411703042762,-65.7901554234963,0.730192740334673,0.707838443964814,-0.852367231568486,0
60,1114885784,0.0291206154458343,0.126619782924157,0.575012023320348,0.807762708575566,-7.46631021060546,3.69123723436781,5.00153660802115,39.9525559639932,28.4948126652331,-71.5986026245176,0.732531840267626,0.711506132650285,-0.84391306519646,0
61,1114902451,0.0353298654391585,0.136615334905857,0.567911974132577,0.810903225122117,-7.26208296966196,3.69023586037081,5.2712054165528,48.0802839861257,23.7440212195997,-78.4513836528411,0.741023651892596,0.716701450353481,-0.836118494875975,0
62,1114919118,0.0425706610290629,0.146819518578144,0.559654740714391,0.81450496559563,-7.21780931954889,3.8064789831647,5.30748954374821,55.363733525431,20.3081821210008,-86.1350185185296,0.749583358453735,0.720102962673094,-0.831726404080481,0
63,1114935785,0.0503480604197743,0.157078647006072,0.550634921368659,0.818286352590607,-7.34890505276607,4.02532661248532,4.82487207977799,59.7469433464166,18.2873767643669,-90.2138919429659,0.758948355292386,0.726483214345986,-0.819097243380707,0
64,1114952452,0.058042307300671,0.167292063834169,0.541580554623725,0.821787660405519,-7.52058129674081,4.32574343627366,4.32850791470817,58.8688194470876,18.7089322651482,-89.8583117200752,0.768820647475761,0.73051741222919,-0.815044686009087,0
65,1114969119,0.0656067237562565,0.17760156515958,0.532431113881311,0.825027606096877,-7.3883516879106,4.51289963160772,4.29070941200359,58.4960370442927,20.0073261797633,-89.8619513027695,0.779709824690618,0.734591180817276,-0.807322850026605,0
66,1114985786,0.0734497506537306,0.188222645185916,0.523424050588877,0.827770882088307,-7.37715975059107,4.51219387990732,4.92522909451584,55.536151979793,21.4407177235804,-92.8113253413405,0.792124733303014,0.741274222059391,-0.799689662940262,0
67,1115002453,0.0812142740692655,0.198421374182979,0.514266587757286,0.830399347706403,-7.70904642649,4.03705062574422,5.14696372953286,55.7662966877555,19.46904688714,-91.2638743688831,0.799660167130505,0.741502417140376,-0.794141019480675,0
68,1115019120,0.0884820785194229,0.207633131515253,0.505146622853238,0.832998375687505,-7.848012781575,3.82207716620993,5.13362169875533,55.5218530655779,15.7203921615791,-85.0039627851239,0.809417246249002,0.748280903735576,-0.782460819133444,0
69,1115035787,0.0953030226627298,0.215717647346183,0.495832375167526,0.83578315742213,-7.82079850818525,3.81960404118804,5.12966915520339,57.1925299086263,10.4887910756847,-78.7666872669344,0.81760681965528,0.750680502706968,-0.777334785390097,0
70,1115052454,0.101746753059284,0.222759991248784,0.486194137189771,0.838833025996848,-7.91671359712854,3.66576404573277,5.06172288379968,59.7984210918192,5.23661897056164,-73.4245706065838,0.828085735179971,0.751965976705203,-0.771154203326739,0
71,1115069121,0.107528158144398,0.228565534964533,0.476590800043197,0.842055046149975,-7.97272486749792,3.33932060187984,4.69715605259431,60.2931329351572,0.12040388237807,-65.3468508613127,0.835877702622234,0.754451467575465,-0.759823712931324,0
72,1115085788,0.112420164620859,0.23341013931251,0.468137128832841,0.844824858808545,-7.78026892711673,3.20855993758277,4.34989145156915,52.8219909755528,-0.965212623747582,-55.5929564986347,0.841640418935849,0.76023754171151,-0.756089613705163,0
73,1115102455,0.117026111174989,0.237829221954867,0.46027543164817,0.847283115321373,-7.34550332155839,3.36223492898829,4.57024067385428,48.4843316348883,-1.57048269160905,-51.8670958117721,0.849426000103504,0.762504765411097,-0.748058984408318,0
74,1115119122,0.122142516573558,0.241719843567962,0.451186373785015,0.850343212462642,-7.13568270364215,3.65259231499987,5.3715449423036,56.2502368734959,-8.20190334191129,-54.7371649633217,0.857832564079508,0.765011457991117,-0.740153936600689,0
75,1115135789,0.127664977085596,0.244908018770959,0.440354821205847,0.854288796255801,-7.11045216432507,3.7484112465749,5.50652565202695,67.9044130633279,-16.3891507683532,-57.1596295349664,0.86705012072543,0.769977119318383,-0.729645328580851,0
76,1115152456,0.132976465057557,0.247779881558337,0.429234070054007,0.858300939729536,-7.11852509784736,3.88174295605065,5.1426043753094,69.8664692254002,-17.8544943879652,-55.4694820332727,0.87395791826353,0.770766795660858,-0.721491749522609,0
77,1115169123,0.137976997306149,0.250624028500695,0.418763192238401,0.861851108590554,-7.14791626141556,4.01938948622547,5.31470535474966,65.1363520397705,-15.6307397071912,-52.9501419178947,0.882944958066533,0.773478944035917,-0.71287350157856,0
78,1115185790,0.142707923148233,0.253214555603025,0.408572648058842,0.865208199660444,-7.51494477068309,3.79311608407421,6.00560035237615,63.1086192469346,-15.6633428039629,-50.4111483780355,0.890686786657077,0.776302193641937,-0.704073945172001,0
79,1115202457,0.147226586849395,0.255258067010515,0.397968337151666,0.868785850469188,-7.81545298607104,3.44835855747986,6.1127681885963,66.0226121792517,-18.9870048029386,-48.1749246770793,0.899250798548382,0.778130671039301,-0.694407563856612,0
80,1115219124,0.151649481707264,0.256763337819016,0.386761042454174,0.872634470491348,-8.00865479203203,3.27726847620365,5.85411332763803,70.0112634642095,-22.9158750472135,-46.9374914059239,0.907188193751965,0.777899937416421,-0.68423974463045,0
81,1115235791,0.155735127958185,0.258076083615972,0.376300929238761,0.87609412487434,-8.17886757567347,3.34242650507329,5.54700289504223,64.9100175461328,-21.6326073205366,-43.4908731074296,0.913793589442867,0.780546453245822,-0.678239277175849,0
82,1115252458,0.159024538022482,0.259174498380782,0.367261188997523,0.879010235863002,-8.25382043455394,3.35289841080883,5.30755962357265,56.137920425449,-18.3381695224865,-36.2036166655591,0.917328759740036,0.779783839351129,-0.668967343334034,0
83,1115269125,0.161565739980466,0.259927418567094,0.359502179819648,0.881528463208383,-7.95388845084563,3.09817563791853,5.47645195702355,48.3471847781495,-16.4099620039022,-28.9633422267614,0.922149789623033,0.783604090017188,-0.664096815036758,0
84,1115285792,0.163918299961803,0.260400516675842,0.35200651891192,0.883976115342546,-7.55817363339359,2.80905235269791,5.79903100217691,46.6190126748641,-17.1772235980558,-26.7302290964502,0.928826995350132,0.783227220702379,-0.65657634310757,0
85,1115302459,0.166295254383992,0.260818182048725,0.344436307644241,0.886387835125552,-7.47223848873426,2.90860708503059,5.48914665846524,46.9194826920409,-17.510395973329,-26.9018075287334,0.932557781122188,0.78697744226427,-0.651136235792014,0
86,1115319126,0.168371335021429,0.261845632121145,0.338114126220855,0.888125439412749,-7.58824455314497,2.95467191430316,5.67919751284815,38.9778076527848,-10.3851320785343,-25.0363053328652,0.9383992371389,0.785124121741893,-0.64329392915343,0
87,1115335793,0.170238120335184,0.263194240796456,0.332208753110366,0.889598290439666,-7.76614799368915,3.05988976064899,6.46282014080014,36.5923577580663,-6.91090728342338,-24.0539314582784,0.941366758019367,0.785593834411599,-0.642153608632236,0
88,1115352460,0.171811306215826,0.264767212770993,0.326608721926496,0.890901757131184,-8.10688554908288,3.16310194449107,6.56306578453466,35.1752157394017,-4.0985750517902,-22.409643576091,0.943533559422548,0.789184276269901,-0.638264536701016,0
89,1115369127,0.17307484969914,0.266466835967647,0.321283283086248,0.892086079781729,-8.34177133528874,3.08362323383966,6.33579390057804,33.9790018445391,-1.99235678765866,-20.4305325246586,0.948755545931786,0.787236813972012,-0.632390086884985,0
90,1115385794,0.173902080862063,0.268145279230879,0.316627893063206,0.893086195634214,-8.33233871069593,2.8468320342858,6.45059740710643,30.2713201309475,0.0372603016176458,-16.6807086831146,0.953040406387155,0.792645886685493,-0.629231490417388,0
91,1115402461,0.174718464505606,0.269441428390589,0.311275738803634,0.894417234438097,-7.88530678615028,2.52448617334045,6.60596278729936,34.8801365520615,-3.66339284061498,-16.6396973044598,0.957611704320124,0.789662048585165,-0.627381433206579,0
92,1115419128,0.175788316395328,0.270507258108614,0.305330041921835,0.895934069354139,-7.49164149379272,2.35490704479242,6.40333728310961,38.2487781240693,-6.58687088790991,-18.5423007778432,0.96126072719021,0.790540342058403,-0.6230706194592,0
93,1115435795,0.176609191575652,0.27163663300659,0.300020466685218,0.897223747250273,-7.141805498793,2.59144343109556,6.0478513660395,34.4611374949767,-4.38843852029244,-16.1934339335385,0.963214321324715,0.793983536123486,-0.616169320987568,0
94,1115452462,0.177084378963213,0.272938754272968,0.295554020876767,0.898216777780681,-6.96055784371914,2.69411173997068,6.26036641404007,29.5490948841869,-0.948590199889094,-13.1848093126334,0.966187643857862,0.793750403421766,-0.613544540814896,0
95,1115469129,0.177309113017254,0.274231986426884,0.291651426779536,0.899053803350423,-7.28642406645443,2.68618717069081,6.76642069579982,26.2567004277444,0.586885312687747,-10.7458887092067,0.973460612996318,0.796971016678748,-0.609020114814455,0
96,1115485796,0.177313777241822,0.275945175342897,0.288571468545522,0.8995224244824,-7.67064955109438,3.08673420656994,6.99720233441086,21.419988383675,5.43412912638874,-9.10831956178327,0.975416089734054,0.794386830608753,-0.611136899030379,0
97,1115502463,0.177260578032745,0.278378932207355,0.286142612438955,0.899558926877612,-8.30209007732875,3.3567578138307,7.50565907121559,17.5705567977701,11.7271873781357,-9.47005262710075,0.977884427880232,0.799240191103791,-0.608010686236056,0
98,1115519130,0.177202540397551,0.281303899876748,0.283685134216609,0.899438780693434,-8.82555072464127,3.26194329882104,8.2403147592205,18.0938350825779,15.1471065608394,-10.6494963092263,0.981781280583295,0.798243355115503,-0.606714290364808,0
99,1115535797,0.177161619209934,0.283798825983524,0.279975417475551,0.899825401207745,-8.44196871631053,2.97574581258846,8.35750159018436,26.3378302590472,10.0727552771032,-11.7025017542754,0.986418353199809,0.80016861191089,-0.603852845888694,0
100,1115552464,0.177264366714474,0.285904094706547,0.275409322852432,0.900547554440803,-7.62605222269183,2.49286147749332,7.4469634599199,31.6126389531016,5.82880692825978,-13.0754581104805,0.990813201376543,0.798574625225558,-0.6000171800526,0
101,1115569131,0.177373503458547,0.288139795335686,0.271475543934592,0.901007839954885,-6.58141202854731,2.13400627242458,6.58373881168729,27.4274048352763,8.02519595550615,-12.4020892527365,0.992996583286782,0.801194269578849,-0.594766308421544,0
102,1115585798,0.177932738995,0.290519035446749,0.267418857770178,0.901346650820716,-5.90137333651399,1.66673668647408,6.52084588473584,27.3195939301313,8.27040022505827,-15.8171070978363,0.996508478974076,0.801007738948628,-0.593006869320773,0
103,1115602465,0.179440008231814,0.292290906149298,0.26155782594158,0.902194443186669,-5.68186875636229,1.45219909994017,6.73293557278374,36.8928299874961,-0.335718841859428,-23.5132266875321,1.00424064221507,0.802345594618364,-0.589564596269038,0
104,1115619132,0.181682200360988,0.293446058375917,0.254293234387789,0.903446700054975,-5.91557630361366,1.71950387626688,6.11298306552039,44.1963195152865,-7.88636491259334,-29.2336567545247,1.00785263352172,0.802351389597655,-0.581972216948082,0
105,1115635799,0.183986676906182,0.294584784225301,0.247680620697178,0.904446249234864,-6.28377002202959,2.09312720981748,5.85086053170093,39.6348521140329,-6.67767613025393,-28.5541696330295,1.01426261644471,0.801750625660771,-0.576481131158484,0
106,1115652466,0.186217988267326,0.29575432694067,0.241936544029141,0.905162387422708,-6.68609774016599,2.07027695103428,6.13459768376484,33.9910317928164,-4.62204664771357,-26.7282877977307,1.02080692122736,0.802369649317737,-0.570997950422976,0
107,1115669133,0.188361284454761,0.296491641490808,0.236982408880448,0.905788093830925,-7.04664997323211,2.16008427920805,6.28511870853462,28.6075826176002,-5.90873721664768,-23.93730777236,1.02841379986018,0.800994423329598,-0.566799181221344,0
108,1115685800,0.190165075024664,0.297350499016609,0.23331575427232,0.906081499526271,-7.05539152758198,2.38874412332058,6.33369733928052,20.9545782135731,-2.20031092337412,-19.7918887790683,1.02948675894125,0.799719136849856,-0.565292846940148,0
109,1115702467,0.191885926323058,0.298669065241845,0.230156855714551,0.906092932603658,-6.92807995731529,2.56359225473762,6.83072104317195,18.1587560347562,2.09329703506465,-19.3198924399804,1.03466066701025,0.800061978501702,-0.561288189061505,0
110,1115719134,0.193930135815978,0.299974777377545,0.225942950153013,0.906286940563441,-6.89526201553276,2.53296241756507,7.54179360510198,24.3954206985249,-0.179289516979933,-23.2246878122536,1.04005550268477,0.802022827600946,-0.557291313804223,0
111,1115735801,0.196474299902957,0.301281573734738,0.220266070183164,0.906702884704592,-6.81369266987198,2.78281749567377,7.37789083436997,32.9047620996161,-3.23697688164514,-29.0453707723336,1.04573719982764,0.799980923656314,-0.556632163237727,0
112,1115752468,0.19926766151698,0.302677369790134,0.213665953148473,0.90720762196734,-6.72546090044615,2.85968627547281,7.22210336255344,38.4617020195402,-4.37456474257952,-32.5232145536828,1.05555624666471,0.799519770289678,-0.549597846678345,0
113,1115769135,0.202300927889844,0.304095008163302,0.206597591819192,0.907699287010616,-6.49774156233066,2.85332708590088,6.98176323390791,40.9517961055105,-5.09444262805496,-35.0476051566093,1.05859235229995,0.796276402333923,-0.541729307004216,0
114,1115785802,0.205354190814997,0.305627218652775,0.199484720117325,0.908090031865232,-6.47508245370097,2.5950263929179,6.82305232650717,41.2544989290627,-4.15551574657177,-35.5756326876451,1.06587895486559,0.793996119903513,-0.540501968828423,0
115,1115802469,0.208832099432928,0.306719124826133,0.190987047077657,0.908755456963469,-6.44264932520355,2.57629129050564,7.00765804284911,48.8200417256674,-9.9271860750035,-40.1385289745742,1.07363938320542,0.794972907480326,-0.527827530545845,0
116,1115819136,0.212487713033035,0.307705753188746,0.182186314696473,0.909381266577366,-6.55762098702898,2.89860382139771,6.31004548064305,50.1991445519575,-11.0684596659227,-41.7990170698571,1.08289561829297,0.789439166287902,-0.521034171668137,0
117,1115835803,0.215825450492821,0.30862986027683,0.174563126577273,0.909777279945285,-6.69775126633725,3.17919009767962,5.97350506488906,43.1601291069155,-8.79116995262511,-37.5877962131007,1.08532228296361,0.790297731387882,-0.514453579250778,0
118,1115852470,0.218721064272208,0.309221839189535,0.168336456868681,0.910058123144215,-6.90340455907138,3.2511477631504,6.02812643988379,34.7415239570471,-7.98094718637864,-31.6535684840672,1.09098194910989,0.783578278494565,-0.51170750908174,0
119,1115869137,0.22096201734498,0.309504826493416,0.163768761588658,0.91025399861568,-7.02025005522193,3.3506635127665,5.80438075228797,25.1991690357616,-6.44305049516563,-23.8219883641542,1.0939467738387,0.784290188037751,-0.50764315473653,0
120,1115885804,0.222604792587476,0.309948668389223,0.160761901163715,0.910238727156268,-7.09566470368257,3.34608317870382,6.05535714478804,16.7088602338778,-1.92350697631812,-17.2825992199537,1.09821741319495,0.785413886358191,-0.506483405660477,0
121,1115902471,0.22389532055313,0.31033355006994,0.158503941446009,0.910187054226481,-7.20445165216921,3.10168876097975,6.44971080282764,12.6487725314042,-0.649413794414105,-13.4933244441815,1.10216912441059,0.78243827547035,-0.501772538430496,0
122,1115919138,0.225067669432944,0.31039414994592,0.156402342172194,0.910240805072166,-7.14922480919799,3.22041060775473,6.52514045406649,11.5632853720987,-2.49426163977636,-11.9069045277424,1.10595209478318,0.784645997243538,-0.500813696628006,0
123,1115935805,0.225879396291039,0.310320026354163,0.154909920321501,0.910320216275973,-7.1753008536932,3.43153052173018,6.21743610507109,8.36369732914897,-2.01631977056301,-8.17502252891546,1.10709213908072,0.785014364335426,-0.499086469992117,0
124,1115952472,0.225954786084463,0.310706447090027,0.155282943370635,0.910106117922722,-7.25079120791264,3.55240005746463,5.959573429628,-1.33146088513962,5.20765118175708,-0.556840393723967,1.10778231524114,0.785193578229251,-0.499752925382504,0
125,1115969139,0.225589019881475,0.311630105870305,0.156663794060901,0.909644285891261,-7.31731922610111,3.1378461051395,6.36622840656737,-6.12910190914644,11.1518788687378,3.37164823339434,1.11053010326084,0.787466178710685,-0.497584938914171,0
126,1115985806,0.2255574227823,0.312023436558666,0.156632195552377,0.909522720652084,-7.30529223713254,2.77327486965599,6.73557429569232,1.55587349974613,4.58435231610282,-0.642148283181424,1.11134559288126,0.789267720426537,-0.496661027602702,0
127,1116002473,0.225603101816327,0.312367771331634,0.156055775521646,0.909492281886162,-6.95436364968529,3.0792164496701,6.07190668165903,4.86273227270713,3.19714205723091,-2.08282576944655,1.1148320739799,0.789184702760983,-0.494996129051755,0
128,1116019140,0.225473150867481,0.313196724605272,0.155823618871955,0.909279203400181,-6.75595044269166,2.98311616386975,5.92191555066403,3.66042216749327,7.37119494246632,-1.05489662120529,1.11630395093426,0.786583415033727,-0.498306005812477,0
129,1116035807,0.225551890593287,0.314119232350314,0.154861880217893,0.909105742239495,-6.7633042629031,2.47050870097329,6.4636664986156,7.97898325994401,6.5434961838017,-3.97261891142583,1.11965275733715,0.7890356116476,-0.494531821247133,0
130,1116052474,0.22596482054741,0.314606353334359,0.152843884839733,0.909176269588979,-6.88379433082888,2.72771429346106,6.16532614118188,13.4937808581057,1.34695515575646,-7.47605334139044,1.12274832665807,0.787695253388347,-0.490795368565176,0
131,1116069141,0.226279572390349,0.315294530991163,0.151157327376762,0.909141560058838,-6.8858870969942,2.79622755605078,5.89758745067379,11.8685858892374,3.48074302574624,-6.51056781600716,1.12364921753493,0.78833643467334,-0.491897532399284,0
132,1116085808,0.226630332302473,0.316259568514004,0.149465782238786,0.908998656623625,-7.12180283778144,2.63693414347617,6.07157211735831,12.1619034128257,5.41912594758299,-7.19547163469195,1.12546452600189,0.784350521454356,-0.487214625866849,0
133,1116102475,0.226712515747324,0.31721018841939,0.148176430907096,0.908858007001143,-7.31327528255826,2.73731683945403,6.32008076082158,10.2415711128696,6.24312652424814,-4.60683672823295,1.12698539296787,0.78761007527559,-0.485052593895106,0
134,1116119142,0.226597394705757,0.31789359939013,0.146915021055391,0.908852714562511,-7.36185529485553,3.07104612666583,6.4500959541078,10.2510254651944,4.54444097398336,-2.81182042803869,1.12736911913997,0.784225382790387,-0.483212101293572,0
135,1116135809,0.22643432664663,0.318388975044594,0.145546325378852,0.908940164947536,-7.45558772444556,3.12161894461621,6.62060961552473,10.8513191194126,3.07724988495831,-2.40888903137809,1.12922605869082,0.789100903901636,-0.482567038062175,0
136,1116152476,0.226405291952217,0.318556215359541,0.143610048931987,0.909196752786541,-7.38208502076673,3.21097614904705,6.78293672178364,13.7918423584616,-0.329051171291694,-3.89259766136124,1.1336946385999,0.787469738905718,-0.479001997874865,0
137,1116169143,0.226533098408782,0.318435097927623,0.141369552835668,0.909558405636596,-7.10149526932705,3.41697519214837,6.38503312089406,15.0339443969472,-2.94694248094485,-5.09230971417932,1.13383325143828,0.786652452685076,-0.47538644323507,0
138,1116185810,0.22668856630962,0.318352510118985,0.139612621729049,0.909819921225828,-6.8902898722498,3.39690849154612,5.93526961354014,11.9271777328819,-1.72210817265634,-4.41860658133479,1.13197467291551,0.782161084034591,-0.47129179176539,0
139,1116202477,0.226832485815617,0.318228236843332,0.13853888075386,0.909991643463697,-6.43859978772363,3.34296636246578,5.73330742818102,7.53184241694272,-0.685562522543578,-2.97144999645275,1.13689568217263,0.784431092980861,-0.469249568359833,0
140,1116219144,0.227125123495207,0.318045370073198,0.13786602655307,0.910084765049256,-6.40073296933116,3.32524856715486,5.48721419708775,4.53756529913492,-0.366534613436691,-3.11806354176263,1.13462597404977,0.783654315431229,-0.470866600516558,0
141,1116235811,0.227334883188696,0.317952418261019,0.138000518376806,0.910044486569357,-6.54285041929208,3.64859827613514,5.37943311546023,-0.321163169592881,1.84870913447987,-1.15482058847088,1.13736515813959,0.782246744554775,-0.467846635281572,0
142,1116252478,0.227313769076975,0.3178176112648,0.139023981868614,0.909941068873887,-7.01772840538116,4.07185035973707,5.37977881299178,-5.51753542220262,3.34944675122213,2.13423480668529,1.1367735627276,0.785853872387039,-0.46707942369731,0
143,1116269145,0.226727739389383,0.317639017777254,0.141343038022329,0.909792356628424,-7.57001824968622,4.24157589750364,5.55740821541161,-12.532375762596,5.74399626916309,8.41861909939674,1.13591608132264,0.78559642822074,-0.466040382929823,0
144,1116285812,0.225956969788859,0.317334546965607,0.14352973052299,0.90974801432153,-7.96897300074799,3.98153544050776,6.07462245483613,-11.4282207965731,4.69732858653018,9.52348110235215,1.13319285271044,0.786717533080143,-0.469480733057508,0
145,1116302479,0.225169679525521,0.31671834582772,0.144743859986782,0.909965559696989,-8.10089630117353,3.920502707991,5.947020313346,-5.547715412775,0.68529175669538,8.19438879625424,1.13371033844606,0.786677605389951,-0.469781769371117,0
146,1116319146,0.224230118670851,0.316230250383652,0.145504574029057,0.91024595662918,-7.76450535774235,3.87109686646034,5.58024710586157,-2.13521221628775,0.793177285887725,8.10705756491175,1.13408835944631,0.789045870064281,-0.46952840693316,0
147,1116335813,0.22315981410917,0.315942987964478,0.14627917816899,0.910484556572511,-7.35364475073257,3.69907960526304,5.5658168630257,-1.69179494186924,2.28272059697574,8.66341585071326,1.13325399267193,0.790690039681998,-0.469412788893936,0
148,1116352480,0.222112144647036,0.315774962334277,0.146714565673569,0.910728941333422,-7.016204665615,3.50555826511519,5.53921960368247,0.556628544631124,2.47404622379718,7.64951786506528,1.13198736007597,0.789199441629559,-0.468104924181804,0
149,1116369147,0.221344458981102,0.315618178496082,0.146249897933501,0.911044874435733,-6.84801662573814,3.16001629871492,5.55419976909516,5.66818561376811,0.741407714311948,4.02107452466361,1.1328896486061,0.7898467171499,-0.467060014045715,0
150,1116385814,0.221077421351558,0.315282453010512,0.144437682869484,0.911514950156888,-6.79418447639685,3.04779726892776,5.47254328993282,12.9127340026362,-3.25592518521575,-1.62963620771038,1.13166398886564,0.791387549451278,-0.463520173652671,0
151,1116402481,0.221097134518144,0.314919527857188,0.142331102674322,0.911966888266006,-6.99490570262928,3.24859788760551,5.28792283767613,14.0831146947472,-4.11064439598221,-4.06865823294674,1.13418433685168,0.788275690979053,-0.461368701633984,0
152,1116419148,0.221185766913555,0.314387795289636,0.140412005546464,0.912426237778268,-7.21293647619669,3.39258637597031,5.20974694976842,12.5041978166786,-4.96940841095008,-3.92753910864769,1.13475877171654,0.788352761069285,-0.461023415174054,0
153,1116435815,0.221253830487798,0.313708525024177,0.138989867631573,0.912861172642034,-7.23940440855759,3.43637763594293,5.28847247690228,9.16953542247913,-5.07837982769582,-2.63293346466653,1.13185509703526,0.787755452820055,-0.458014305169805,0
154,1116452482,0.221198023017108,0.31296169988598,0.138014873979075,0.913278875031248,-7.33078783506991,3.28744507118166,5.44515067386186,6.49935005012879,-4.67263983480654,-0.867966575242859,1.13241560004483,0.788269574197796,-0.455002169197138,0
155,1116469149,0.221060949042464,0.31245752612084,0.137379883852766,0.913580384362258,-7.31732055796637,3.24934703213129,5.48731911775866,4.79290330025115,-2.31053263615417,-0.0400563670576632,1.13210750487006,0.786266261400244,-0.457896771067189,0
156,1116485816,0.220808512286371,0.312111846447837,0.137352770230488,0.91376365254852,-7.43611827849101,3.29450602784842,5.7015690417266,1.34857359490653,-0.0323644069207479,1.65550499267257,1.13057008271897,0.787430323422839,-0.455973621914542,0
157,1116502483,0.220685314447353,0.311470266126769,0.137031356769572,0.914060540975314,-7.3121923691811,3.41411993048361,5.90687937328039,2.5796637384924,-2.70113367328161,0.660021049353469,1.12915484957076,0.789521212217947,-0.456493185807861,0
158,1116519150,0.220617124716465,0.310731928268466,0.136666035030518,0.914382932859881,-7.35491451698595,3.51309665452558,5.80353882231444,2.61897181379383,-3.46705999389337,0.340867994942073,1.12966788938964,0.786878285183206,-0.453693620633791,0
159,1116535817,0.220450163460006,0.310101623057813,0.136392350335648,0.914677995568541,-7.3757864426951,3.65803963684612,5.7015986726715,2.38989629494312,-2.48587770132005,0.999161956849358,1.12907243838757,0.786044447868292,-0.455902997417134,0
160,1116552484,0.220209431574944,0.309665558003471,0.136207553173292,0.914911225688254,-7.44242779791603,3.46770131722801,5.86054979712944,2.21628949809452,-0.920648045875856,1.35680357377011,1.13017923799577,0.785277334360509,-0.455840491437323,0
161,1116569151,0.219943407434119,0.309366050513014,0.136122415874188,0.91508919358324,-7.42278185423127,3.42019079937427,5.87266569782482,1.79823203123552,0.240675338091428,1.50519696214169,1.12538246238431,0.786038924495161,-0.455633293171244,0
162,1116585818,0.219631369180021,0.309111460155667,0.136153086691215,0.915245597562204,-7.52545283304974,3.46626496381604,5.8506067235241,1.2165185666059,0.798992014747645,1.95675639165654,1.12891343962473,0.786478729989799,-0.455938284706527,0
163,1116602485,0.219144059108682,0.308916473135662,0.136733077702474,0.91534177193265,-7.4779586142954,3.5814701019913,5.71485533666044,-1.83607283207406,2.30385817132928,4.06949964231092,1.12467136678177,0.790592600795423,-0.453770251535848,0
164,1116619152,0.218399566200848,0.308925235262838,0.138127461393037,0.91530739804188,-7.56533889889058,3.43732569569214,5.64819910731177,-6.23888522012186,5.33752492034683,7.01159951314823,1.12585395969712,0.787489455658069,-0.458372715228225,0
165,1116635819,0.217614381025054,0.308880798177998,0.139825890246878,0.915251525049084,-7.5486973625174,3.24585946073826,5.64222439378694,-8.17261149633751,5.54153846286708,7.92056383708203,1.12303072736003,0.787666745548348,-0.45742022013626,0
166,1116652486,0.216740221949697,0.308728580650934,0.141803730269887,0.915206010557186,-7.44790853358165,2.94788866247734,5.67520483964869,-9.8947604435492,5.34304983096336,9.19095248550097,1.11992286627433,0.790514196786452,-0.460666618213669,0
167,1116669153,0.216056635905443,0.30835090854951,0.143168181907187,0.915282535049864,-7.36857704817675,2.66474818116217,5.7597739739452,-6.64820188672824,2.56564394602876,7.1009185552003,1.12135923599889,0.790695042502415,-0.45662802206108,0
168,1116685820,0.215689251789041,0.307570351514703,0.143726471003225,0.915544279139335,-7.10772216119839,2.67769864032689,5.69721340448077,-2.64124228317463,-1.86837115950644,4.09754125684813,1.11745582617623,0.790937675190432,-0.459201842799093,0
169,1116702487,0.215628355096694,0.306613556434588,0.143693284970581,0.915884697624756,-7.1188568965914,2.83661010288499,5.41241421558504,0.268152991979083,-4.31645533936266,1.22648685799814,1.11918691573543,0.790947304526765,-0.460326286569301,0
170,1116719154,0.21563120928868,0.305851606131891,0.143684564256173,0.916140121707241,-7.20531420333047,2.85081970939934,5.48068163921564,0.191662349931492,-2.93895891594985,0.567059153922071,1.12019955996096,0.791080060170485,-0.45983053008078,0
171,1116735821,0.215730585251052,0.305352006268128,0.143578991524807,0.91629991817526,-7.44046272285594,2.9528004400797,5.60235108201545,0.900803424046557,-1.32603845616838,-0.635099069849663,1.11737028329817,0.791401280155087,-0.46043070273863,0
172,1116752488,0.21599107140992,0.304989697625271,0.14346746364519,0.916376684714783,-7.58108560483497,3.09360466436767,5.67587213402996,0.728417057698292,-0.458436254041327,-1.91267053643076,1.11522723773018,0.789244436823637,-0.461104700162076,0
173,1116769155,0.216312907613809,0.304751816796588,0.143369161112916,0.916395296692764,-7.70338453155752,3.11199536263044,5.60332303013212,0.647337354595428,0.403417562931522,-2.47457927907469,1.11315001840055,0.790921917254453,-0.462489665847818,0
174,1116785822,0.216719319816675,0.304655657055537,0.143033184688582,0.916383748830204,-7.67345163976538,3.07115897726884,5.63899616900498,2.15008778971095,0.912688469436989,-3.68344204585906,1.11486144147807,0.788995726579215,-0.461572506295235,0
175,1116802489,0.217286660088696,0.304712193117941,0.142046859912135,0.91638402228643,-7.61331045719187,3.10544289094868,5.94535659602881,6.1527749392737,0.714427831498885,-6.18341241068338,1.11622142342563,0.789784299604316,-0.46004397930459,0
176,1116819156,0.218074866738937,0.304742866431052,0.140225495566775,0.916467101564062,-7.78098486807344,3.17155032983504,5.94531927221233,11.0046575951919,-1.0795645468622,-9.166122166378,1.11959907023942,0.786474453477151,-0.45991292544555,0
177,1116835823,0.218876666522481,0.304691470346033,0.137991200723068,0.916632173378932,-7.74924349522697,3.21635299728209,5.81967689669415,13.5423772795898,-2.40042056886711,-9.905334522694,1.11784509224441,0.788671365901169,-0.458716726980503,0
178,1116852490,0.219675069605838,0.304789262007955,0.135803445568428,0.916735400063759,-7.52026390764749,3.18638373522129,5.62095001584821,13.4250365852344,-1.26020893753224,-10.0178155889171,1.11615985357339,0.786360015854331,-0.457697531285796,0
179,1116869157,0.220453377252704,0.305025058459563,0.13378012909369,0.916767636443004,-7.18812643137348,2.9901802884364,5.7188340377513,12.5735301597493,0.021488755975926,-9.77951848850687,1.11860263380628,0.784858126031184,-0.454299232943428,0
180,1116885824,0.22142523522762,0.305051399337439,0.131423655567341,0.916865492710889,-7.09349067788464,2.7606069567489,5.79422994557159,14.0227966379838,-2.11105930687241,-11.3996937305391,1.12040046424797,0.782524851725801,-0.456624819439694,0
181,1116902491,0.222572224434454,0.304988026766868,0.128639403985983,0.917003714377037,-7.03956685861367,2.73160864984915,5.73237163840181,16.2712594980862,-3.5609532468763,-13.2427080611543,1.11955523889224,0.779544125748314,-0.452540193251513,0
182,1116919158,0.223803769867014,0.304687397077531,0.125699545700763,0.917211582387648,-7.24533118266485,2.84366639674062,5.80055700877294,16.7920572356835,-5.50564516740844,-13.7688706565771,1.12025854060391,0.781266527448498,-0.449245993499022,0
183,1116935825,0.225020731729009,0.304138382928409,0.1230175174616,0.917459647461085,-7.60315211874229,2.87365785869345,5.87092832319262,14.8648878731009,-6.73914758128539,-12.8468801862686,1.11823937896434,0.779037172646204,-0.449319172740249,0
184,1116952492,0.225949909283367,0.303494979599151,0.12108871736459,0.917700909000284,-7.96523786432224,2.89325929220117,5.96841703465263,10.5760343097357,-5.91215980940247,-9.3704013563035,1.11954423853784,0.775511303207166,-0.447209496777983,0
185,1116969159,0.226643775431417,0.302808359409312,0.11979388920025,0.917926533356734,-8.18099153695656,2.90000012262187,6.24125210744804,6.99913756792624,-4.9772696780665,-6.53055151753237,1.11932968766649,0.774917427469181,-0.447765719964342,0
186,1116985826,0.227372700517018,0.301942717783457,0.118815144535332,0.918158598318496,-8.13627271509733,2.95195642198052,6.1838450432987,4.67330653662956,-5.65947050250428,-5.91223107988859,1.11741378975038,0.775311972850879,-0.446224120162436,0
187,1117002493,0.227926540587734,0.301299277179939,0.119103514122278,0.918195290006586,-7.88526655938412,3.05235606709418,5.71251857487169,-2.76208557304427,-1.72925370031552,-2.64672367811429,1.11857932747383,0.775836975743002,-0.445415633958078,0
188,1117019160,0.228196018299883,0.301071732861375,0.120690176856364,0.917995789812953,-7.52397795599362,2.88406575351943,5.58686310489242,-9.91029424306299,3.64305028713336,1.13296791961311,1.11751318565629,0.775510760642966,-0.447329152275432,0
189,1117035827,0.228400846965174,0.301139347863804,0.122688703164956,0.917657685844485,-7.25841164355137,2.66701605720266,5.75701492670523,-12.0240096770553,6.48628273114117,1.9383541426229,1.11750345064963,0.77553850443326,-0.44821483047528,0
190,1117052494,0.228830128097502,0.301083680720679,0.124127401136993,0.917375483630092,-7.2161229746247,2.63586853502328,5.69938548397601,-9.08638618051766,4.52985560022991,-0.428500758828754,1.11698298219237,0.775146659166067,-0.451131607677388,0
191,1117069161,0.229363298073182,0.300933301567821,0.125293817042185,0.917133079174164,-7.39472046268396,2.92877214268405,5.42731614036012,-7.6841223541233,3.33726448026917,-1.48760689184419,1.11654595212444,0.77532063498335,-0.452570242945115,0
192,1117085828,0.229758101157121,0.300842683257356,0.126736441966971,0.916865731260985,-7.62136024459096,3.01765286153133,5.35927907165948,-9.06589466449725,4.31252685682134,-0.131013864552712,1.11498382879206,0.773175539271838,-0.450078852095165,0
193,1117102495,0.22997462796779,0.300854738929827,0.128291757853374,0.916591141906485,-7.89729509710444,2.92625502823238,5.49659984672286,-9.2569058055088,5.29252248013202,1.12801190273189,1.11405146072581,0.774941955214044,-0.451973764448352,0
194,1117119162,0.230352716870918,0.300774390207439,0.128936968059042,0.916432021643325,-7.99881416508936,2.74507791376284,5.81584463582164,-3.89975509924172,2.87038516780855,-1.49382791354835,1.11590120031771,0.77413267959633,-0.451180901077975,0
195,1117135829,0.230824708665828,0.300572481810525,0.128956091610871,0.916376813043655,-7.96945006873571,3.00989732585255,5.52033254813203,-0.240291690555004,0.802537280091133,-3.08346701431339,1.11373180924351,0.774961553230149,-0.453880412449032,0
196,1117152496,0.231180104196625,0.30057924577408,0.129254506057121,0.916242953095658,-7.85709734082656,3.18695745345616,5.20943345750508,-1.50070543665926,2.80751945431344,-2.07198573531756,1.11320887778408,0.774257787312181,-0.456175161694392,0
197,1117169163,0.231339445865132,0.300776685336434,0.130244113996176,0.91599777134783,-7.80318834499015,2.90809880439184,5.21115783084962,-5.26003298550761,5.4854682316221,0.242418379676849,1.11528916129727,0.773523497672713,-0.456337088990041,0
198,1117185830,0.231571488671048,0.300991558009888,0.131101109502076,0.915746267657575,-7.73670427431977,2.70081614716662,5.22405997973238,-4.55872454120602,5.306948743257,-0.504183899675649,1.11321224453476,0.773893697686491,-0.457417369295134,0
199,1117202497,0.231820263022711,0.301300573563947,0.132042314456582,0.915446425092734,-7.707685604772,2.80451197725452,5.25335900854801,-5.01970935980991,6.09382728783683,-0.581430248965138,1.11274207183531,0.774151206496322,-0.457380344953999,0
200,1117219164,0.232181429521919,0.301623287793687,0.132622576975699,0.91516469999777,-7.8133712239685,2.7723975196414,5.55441342808712,-2.94430307492962,5.44169935539259,-2.00649915760309,1.1115080707046,0.773875058663816,-0.458513736907323,0
201,1117235831,0.232632539384014,0.301912993639669,0.132608895198647,0.914956570994204,-7.74282241851993,2.86317210530926,5.70552180587895,0.625961045663859,4.03819723146793,-3.63870284995671,1.1124057960106,0.77592639571189,-0.460564659349621,0
202,1117252498,0.233162052095261,0.302194379472504,0.132095764880297,0.9148031063451,-7.76092659305894,2.96145239052194,5.5959460585977,3.64742390018609,2.9940821343139,-5.05938911618268,1.11462847578194,0.77471590182064,-0.459051534659934,0
203,1117269165,0.233597400664831,0.302427358089083,0.131771722332717,0.914661773922668,-7.62775125462277,2.76961628350129,5.40896619548725,2.58881474434323,3.04264836626488,-4.00248848459705,1.11207767735695,0.773093272391703,-0.460715306519706,0
204,1117285832,0.234158323733735,0.302453972422659,0.131256672715143,0.914583599163964,-7.37129971159675,2.7277229390047,5.54044001118691,3.25759794716738,1.17906856983502,-4.88648595213251,1.11519092216503,0.771920583235251,-0.459259653629856,0
205,1117302499,0.23478506171613,0.302190178053158,0.130670937132788,0.914593995864828,-7.53859234711189,2.88168996692547,5.7749734238662,3.1852375165142,-1.00878278595756,-5.02866746563672,1.11368471603021,0.771864719987989,-0.458993288274988,0
206,1117319166,0.235319515707728,0.301669563503587,0.13034693017826,0.914674738787368,-7.79848998851606,2.9571185387386,6.07844804317124,1.3874016945077,-2.26105557393857,-3.55072460264818,1.11354954113786,0.771138370820847,-0.453587167579925,0
207,1117335833,0.235705488088087,0.300817941494916,0.130390781598364,0.914849568527026,-7.92334456336119,3.20647814476874,6.15238445190156,-1.05835967081439,-3.80369998630694,-1.39543161213979,1.11581742074202,0.770973592431877,-0.457509383636748,0
208,1117352500,0.235970484261997,0.299891837373566,0.130499664305347,0.915069753652724,-7.92111134473154,3.03787132587204,6.29752896100879,-1.29247622791244,-4.14435492029669,-0.356232308119614,1.11460077922191,0.773710487083868,-0.455387269613628,0
209,1117369167,0.236048357172968,0.299094157304565,0.130896698519756,0.915254015265076,-7.75750263087817,3.22960194586236,6.21162922980568,-2.5311864762429,-2.61533545618519,1.24975343745618,1.11056457601071,0.771881462480374,-0.458205451571324,0
210,1117385834,0.236026953767455,0.298379427380319,0.131656844251734,0.915383782778089,-7.51192843399771,3.30276723458087,6.00362509254457,-4.52031245835357,-1.28841164449335,2.45586988044902,1.11226797377304,0.771537608415364,-0.456305173167112,0
211,1117402501,0.235743725038165,0.297242873401498,0.133093145499299,0.915618798921393,-7.56459317962017,3.25488404640033,5.57613526107319,-8.8274844853343,-2.80915475375635,6.0328187660389,1.11086459849669,0.772681935733585,-0.456467651729824,0
212,1117419168,0.235023325390027,0.296186168974334,0.135807119975887,0.915747899803639,-7.82035265209809,3.34843081430592,5.22680359576097,-15.953373436994,0.381760792955971,11.138173749823,1.10795739989628,0.776353261596014,-0.459583974546043,0
213,1117435835,0.233749471140794,0.295670516492249,0.139692414283156,0.915656136227104,-8.40967511257068,2.96666334715301,5.35058516315783,-21.5544758964553,6.62972439198285,16.1305229084014,1.10696388600905,0.77645073043388,-0.464649858586765,0
214,1117452502,0.232723639265305,0.294825876019551,0.142397405637073,0.91577311023214,-8.45648474520325,2.46855415642647,5.58076635940525,-14.9685940479489,1.9684101635142,12.8355884221994,1.10343256104922,0.775819961336221,-0.463302949322597,0
215,1117469169,0.232225293913412,0.293446830619929,0.143030774052204,0.91624372747647,-8.03430324725324,2.59732900528357,4.99063452247189,-3.49858419279544,-5.97297624454082,6.44291834828701,1.10280307633316,0.776654928332046,-0.461467271725209,0
216,1117485836,0.232240081914395,0.292216380875863,0.141463321832538,0.916876360081506,-7.56778983843317,2.7996127863258,4.55525594771344,9.72053013409025,-9.42020341612794,-1.08652327312744,1.10272209673031,0.776624687671527,-0.459862696516536,0
217,1117502503,0.232480126912246,0.291618886989084,0.138736597356749,0.917422242969935,-7.39791293198084,2.73012499172136,4.39543106597424,17.4863745256465,-7.36613909770651,-5.57502672911221,1.10501564931961,0.77489600194012,-0.45482857765992,0
218,1117519170,0.232914575156233,0.291592472558325,0.135449633310363,0.917811542454769,-7.52899989928872,2.66797599154544,4.83869561845601,21.3788982945637,-4.57245727584565,-8.70565295839418,1.10399352016846,0.773014828933347,-0.45423181863305,0
219,1117535837,0.233716520127237,0.291545869482519,0.130380329258297,0.918356447110704,-7.72625378623226,2.72311316399262,5.18348977849484,31.99687116317,-8.24043352216609,-14.3046263068368,1.10642808488184,0.771534983505915,-0.449354762101831,0
220,1117552504,0.234725263986636,0.291752015831886,0.123957464081311,0.918922934093477,-7.92357202914751,3.14390448225269,4.70868054738154,40.5566465207615,-9.0735524255544,-18.4886504323038,1.10850561544604,0.769397245162865,-0.44398672892908,0
221,1117569171,0.235467286643131,0.292770068111437,0.118249369490088,0.919161536811753,-7.77951644525602,3.35025053060188,4.56833872878243,37.5873438194946,-1.94765045017916,-16.5822956339635,1.11111656212378,0.766965124109472,-0.441759582896766,0
222,1117585838,0.235734464122089,0.294312236636415,0.113753777910016,0.919167910559513,-7.65862459424943,3.18659157789058,4.94468937159546,31.513926382392,4.13781746073573,-11.948178117408,1.11253509002374,0.765564173605539,-0.436693430863398,0
223,1117602505,0.235890333904183,0.295828005325386,0.109790128682772,0.919123315600033,-7.32830400948711,2.96569446102599,5.18619160575174,28.2805920220191,4.99726233695884,-10.2300139429688,1.10918482114912,0.762499846874609,-0.436048372840193,0
224,1117619172,0.235961236955844,0.297237416268365,0.106103577494777,0.919083371554063,-7.32988546597896,2.78621758207736,5.57903162933755,26.5297931074875,4.81833147579236,-9.03639791614549,1.11355781741084,0.759265288000819,-0.433770945356734,0
225,1117635839,0.235783747581431,0.298554111370569,0.103015590162859,0.91905345608598,-7.24769130411596,2.95835958725608,5.79707459391317,23.1202151992533,5.36440512222869,-6.14761366600372,1.11537138697708,0.7604388885813,-0.431646155380958,0
226,1117652506,0.235506063545078,0.299820630133648,0.100136291275047,0.919030579986021,-7.28166206280166,2.96689739124198,6.20904375719799,21.9389943501583,5.45468186344228,-5.03482256900193,1.11346154843744,0.758323989635079,-0.428849932016396,0
227,1117669173,0.235240971116634,0.300704300007331,0.0972624297683777,0.919118397825196,-7.40921778835189,3.08739071602851,6.45446416960436,21.3517605793824,2.83134327794676,-4.65331677128684,1.11420096048829,0.757060344682373,-0.425670562846156,0
228,1117685840,0.234747282602255,0.301190299217794,0.0952988484156454,0.919291165223839,-7.55938497944431,3.24738612838711,6.3037650475521,15.501023986517,1.79712095679616,-0.920684592828711,1.11665218440104,0.755271025570555,-0.424905524874877,0
229,1117702507,0.233804502839336,0.301349324967941,0.094793739721864,0.919531503377106,-7.54162914147531,3.22015333475083,6.19192974596346,6.73738049327391,2.26390808923183,5.25531731372983,1.11783997639205,0.756233527998822,-0.424885846863805,0
230,1117719174,0.232656220364419,0.301126638729665,0.0949021877388099,0.919884452165327,-7.7299184984221,3.02597364375597,6.08299271105313,2.74891012676764,0.758217757333728,8.25183040142185,1.1137363021596,0.75730240453481,-0.423459865474155,0
231,1117735841,0.231507848795288,0.300238885436157,0.0955751841751897,0.9203945413724,-7.62046752198479,2.73615413635407,6.4384866580451,-1.77828701639353,-2.85693132953653,10.1117175562827,1.11181554330181,0.756676706131308,-0.424903488457429,0
232,1117752508,0.230459377571772,0.298856507574997,0.0965747752306659,0.921003027116878,-7.82330817338682,2.90027139239652,6.22029514178465,-4.75541284152644,-5.71049015874417,10.6498893238633,1.11107618268102,0.755796528626738,-0.422800583845234,0
233,1117769175,0.229252687199198,0.297289378590015,0.098376035181131,0.921620521956596,-7.87958310939838,2.86117843083453,6.05086941844494,-9.78637010198114,-5.50853095889673,13.4460649802707,1.10785870797273,0.756073927822911,-0.423879327227906,0
234,1117785842,0.228123297928502,0.295426432492117,0.0999096831653188,0.922334559222959,-7.79671158839283,2.68448595385346,5.94383132963479,-8.64371534299175,-8.04601629824606,12.7730046671181,1.10468273271719,0.760629319293561,-0.423840118102799,0
235,1117802509,0.227287281093463,0.293220780253272,0.100443707067676,0.923186399158538,-7.60442168951557,2.79021566570785,5.56875647256787,-3.33580556085899,-12.2638650915352,9.35623547250768,1.10359029133595,0.762170570854349,-0.42354511998486,0
236,1117819176,0.226676322862238,0.290967021701447,0.100165647113366,0.924079477141552,-7.7371891743144,3.11231559610128,4.96721159316741,1.31951589938131,-14.0789323931418,6.40287376530908,1.10369412030895,0.760584883366116,-0.423490619684068,0
237,1117835843,0.226029537980021,0.289019404529102,0.100238287651418,0.92484091467392,-7.90159294824007,3.14024862119422,4.74233397201065,-0.468937297137821,-11.3236019285635,6.91582685072152,1.10156381595882,0.76124021955292,-0.421180244586335,0
238,1117852510,0.225391726785423,0.287567184343986,0.100343892333182,0.925437619322115,-8.03091940414797,3.01764762836529,4.92686255718284,-0.0631996938457662,-7.8338315606252,6.32733250870478,1.09985670772502,0.762401817992106,-0.423474128337354,0
239,1117869177,0.224686332664379,0.286386540399773,0.100314422068373,0.92597830326459,-7.98225170918666,3.17100619707171,4.83979169538032,1.2947573969723,-6.19033492592594,6.22303440190523,1.09695279735285,0.760960386551369,-0.422394546914747,0
240,1117885844,0.223999363691596,0.285408751058647,0.0999956877935497,0.926480972447679,-7.85132724156737,3.16053793945707,4.67864925779631,3.36625947284849,-5.31524216751385,5.338611615715,1.09471031974855,0.760014141866048,-0.419798085796472,0
241,1117902511,0.223160054339891,0.284804010170157,0.100029293577337,0.92686590527672,-7.6802987393921,3.17144561825746,4.56306228143708,1.89021412636647,-2.09230498011567,6.5604365762333,1.09521931959155,0.76233564515322,-0.420880019132378,0
242,1117919178,0.222290196493849,0.284599064720018,0.0999631956037891,0.927144972713489,-7.57213376069463,3.02067238946737,4.70862141544787,3.10253605150783,0.497491496147307,6.11616807981981,1.09479409902714,0.761920211698425,-0.420932087664857,0
243,1117935845,0.221281422969048,0.284665615436789,0.0999243170375372,0.927370017900821,-7.90623536642893,2.68063963151106,4.90524967679163,3.56030548922494,2.44564741659426,6.78593960921027,1.09232882398476,0.76026502426685,-0.419047301361275,0
244,1117952512,0.220241718639915,0.284591479008778,0.100005310820505,0.927631507255886,-7.86651860469574,2.89362805014045,5.12886312715435,2.65682368159426,1.6524353105528,7.38679263895428,1.09297292599615,0.763242024586343,-0.420244119470246,0
245,1117969179,0.219285706787678,0.284403595078052,0.100129184000887,0.927902214900161,-7.76495938818122,3.01467509562302,5.0390791658806,2.04384422437869,0.896566986034557,7.03698362453902,1.09491655945787,0.763017405143668,-0.419222196561502,0
246,1117985846,0.218372723901171,0.284364192336894,0.100737872933074,0.928063704995238,-7.78551150392843,2.75891270091543,5.54738830943985,-0.997566554450488,2.73992215466025,7.44426464493641,1.09222855212931,0.763167424804559,-0.417088417359737,0
247,1118002513,0.217817771613419,0.284164948117123,0.100833906975189,0.928244700407752,-7.86749385918977,2.49461311261186,5.96541354892169,1.34911779130782,0.658819412698308,4.31137722499009,1.09120664706013,0.763030497902316,-0.421168551665992,0
248,1118019180,0.217583603137068,0.283794169825579,0.100683618983903,0.928429347708917,-7.98263512727711,2.69876295269168,5.82718760935792,2.05369478476515,-1.02994998374486,1.93382119974433,1.0916055983448,0.760297893519229,-0.422195707685093,0
249,1118035847,0.217490025037495,0.283310556053302,0.100722101198822,0.928594785774749,-7.90078403366578,2.64046659480169,5.66913411180596,0.399108386382334,-1.53058058731731,1.47238426914293,1.08984455006574,0.765569076313908,-0.421863794220615,0
250,1118052514,0.217626851476331,0.282641664081268,0.10070305853823,0.928768613403208,-7.9406016514334,2.55997330366882,5.53335555585326,0.0513793671756469,-2.98042172549826,0.0500188069337861,1.09397762665023,0.763356303784724,-0.419296004339072,0
251,1118069181,0.217994665092776,0.282110828566763,0.100931943077155,0.928818900143151,-7.92709356070472,2.82133825409109,5.28594807275701,-1.85420046423431,-1.65823777078353,-1.20181715850606,1.09481006462377,0.76378180030422,-0.419921066885077,0
252,1118085848,0.218457310974662,0.281906876001071,0.101763805584605,0.928681347081966,-7.98288589998752,2.9104376346328,5.25487199260137,-5.53327849334114,1.61599618055087,-1.1372222282184,1.09261092847858,0.763018899116297,-0.419645025901145,0
253,1118102515,0.218941250400082,0.281871844017636,0.10280816899532,0.928462962541412,-7.99286842408223,2.8948234659005,5.31535002318366,-6.73941748860068,3.13732611074666,-1.0960662000436,1.09289200366448,0.764979991615172,-0.419235776841989,0
254,1118119182,0.219421317871136,0.281835270480637,0.103505383352163,0.928283254827923,-7.76023930295054,3.11753838122865,5.19038261938088,-4.49554660040229,2.51585451703805,-1.67703908485552,1.09435028302868,0.762314541993685,-0.420209326332118,0
255,1118135849,0.219939339009361,0.28198102668203,0.1035051187568,0.928116414109036,-7.6179806671129,3.20605709648918,4.97808875769656,0.158361176456821,2.56120578314379,-3.38372517892071,1.0970510489291,0.763261648198185,-0.42077261125636,0
256,1118152516,0.220353018820126,0.282515767417632,0.103559611075501,0.927849554190319,-7.69377697124112,3.17112054447864,4.82008586127461,0.517063392832404,5.3772037823477,-3.04865214818907,1.0984341644748,0.764385095282151,-0.421539441429085,0
257,1118169183,0.220592191506687,0.283451692934211,0.103908941491034,0.927468142146791,-7.70078113719073,3.20136442228195,4.81389224842152,-0.513126593216283,8.70698182484012,-1.83020700710428,1.09699755523313,0.766060976441456,-0.423630473231138,0
258,1118185850,0.220755749414186,0.284476773826647,0.104242012394878,0.927077918572991,-7.83141236176095,3.03002574843252,4.90536477330855,-0.149917748367054,9.29822997858141,-1.46599796777453,1.10055794120367,0.765725356205694,-0.423888631690743,0
259,1118202517,0.22080596449646,0.285626510067519,0.104541446349366,0.92667864375123,-7.77838607978292,3.09806409796885,5.00438342813511,0.458007856207428,10.1186833023671,-0.913595819674057,1.10046472191718,0.765367449960215,-0.42574496089867,0
260,1118219184,0.220809227665443,0.286820885066036,0.104453538835089,0.926318802083037,-7.71667671929283,3.21700352680127,5.18213989834633,3.10399277809066,9.75149082995431,-1.34981780169828,1.10135571017322,0.765297281691508,-0.425708521603966,0
261,1118235851,0.220930008126117,0.288170467168155,0.103587529753854,0.925968323994387,-7.76327420385218,3.15672032666688,5.40296248424112,8.06220027000472,9.44297367103328,-3.73652575009358,1.10137373518049,0.763473094343116,-0.425122834571212,0
262,1118252518,0.221152109718706,0.289751535539325,0.102101023728888,0.925586934314159,-7.70139015004913,2.87540377556427,5.68480201858265,12.138077797127,9.95425538988994,-5.82332531640679,1.1016804116165,0.762909520141242,-0.425339898837989,0
263,1118269185,0.221518099743027,0.291362623174773,0.100177049884877,0.925203821857279,-7.6624888347458,2.97532738014445,5.79723803983555,14.6870577960655,9.38342369170559,-7.6251310889038,1.10569169938819,0.763595293286732,-0.423932708361445,0
264,1118285852,0.221932271771079,0.292852795584421,0.0982699833904521,0.924838535761436,-7.69522988808027,3.00951435987885,5.72190370934156,14.3200129254836,8.57321171896036,-7.7828338651145,1.1072257475108,0.763067784398481,-0.42370671809789,0
265,1118302519,0.222432880903335,0.294161874261344,0.0964463375136364,0.924494731842373,-7.67623659483624,2.99344813248561,5.57476108690519,13.3569522299949,7.44951251724588,-8.00289343974108,1.11161792871196,0.76222244319884,-0.419832132663007,0
266,1118319186,0.223046386976229,0.295469139121562,0.0950160582606542,0.924078051766311,-7.92135780711601,2.73309135548672,5.57708128307839,10.5813350989247,8.10937202745102,-8.03308553547742,1.11171251088011,0.759337550489948,-0.420886458482803,0
267,1118335853,0.223587855214063,0.296589094691384,0.0942576904502303,0.923665993583129,-7.80392356745169,2.88665267552599,5.66494333721764,6.17956214500247,7.98052644512792,-6.06636427644951,1.11414713739068,0.760348675252226,-0.421470875920463,0
268,1118352520,0.224089874522742,0.297444219281596,0.093836121343914,0.923312215279032,-7.68774798139609,3.02212359162666,5.5688769199188,3.75650771968689,6.72065968860943,-4.86228033028293,1.11499913619877,0.757194834574214,-0.421801986871415,0
269,1118369187,0.224426788166361,0.298262067276529,0.0942027097192208,0.92292914433277,-7.62559950781498,3.1547048300906,5.49338912839652,-0.984240574601339,7.86436403106006,-2.22429655414161,1.11895415598818,0.75909439073253,-0.422058862198878,0
270,1118385854,0.224730504589788,0.299091574010922,0.0946516768200759,0.922540779986249,-7.62013385715803,3.04634477373499,5.57639412652593,-1.4263035647133,8.09799085333838,-1.86669032826563,1.11741136234255,0.759410700761356,-0.42238349447917,0
271,1118402521,0.225078627913223,0.299639707278603,0.0950263204706327,0.922239478387532,-7.73208762747971,2.9993730090394,5.57198783887349,-1.42292374711835,5.99177087219355,-1.98705589335304,1.11896821193316,0.758893869493911,-0.424977678620066,0
272,1118419188,0.225494374687033,0.300017532465062,0.0949781309423355,0.92202002247282,-7.70350842206903,3.0641046818622,5.59926891692884,0.90990965930736,4.04227239505462,-3.04756264030168,1.11865636446906,0.759566482195009,-0.423226646880516,0
273,1118435855,0.225895406787919,0.300163235298889,0.0949673952708175,0.921875529126629,-7.72683025644394,3.12615262151021,5.40060970967938,0.392333310866143,2.4844038775245,-2.60878694297125,1.12086964418835,0.759871360040455,-0.423473772576528,0
274,1118452522,0.226172354407303,0.300408032508625,0.0949688321057706,0.921727726085431,-7.66432650959355,3.00967980544353,5.54796808520936,0.719430375256856,3.21350171156051,-1.8701763468538,1.11953204000024,0.759667111734216,-0.424441355330868,0
275,1118469189,0.226379914943256,0.300290028174225,0.0952956839874819,0.921681488206618,-7.54057653690245,3.08969996190588,5.47098210894974,-1.69685722369041,1.2559434859472,-0.36409294849633,1.12236517963775,0.760033862320574,-0.42636461452432,0
276,1118485856,0.226525258988395,0.300369041886372,0.0952784712394443,0.921621808897108,-7.70840329673896,3.12902614792162,5.31113124074615,0.907917161953691,2.03789867375603,-0.833225893078235,1.11790217114071,0.75741472909074,-0.425724529507565,0
277,1118502523,0.226652622165349,0.300642193579924,0.0953117594969135,0.921497980902088,-7.63227870983177,3.25885605254878,5.28204940274126,0.881302495044739,3.48415629545572,-0.847487955380448,1.12608298721828,0.761429918228173,-0.425693102977741,0
278,1118519190,0.227062180439561,0.300727566913832,0.0943024730894427,0.921473135952066,-7.74663411303752,3.08949834343629,5.45230654068227,6.6700632281891,0.27176118159449,-4.51798985879594,1.1229697460894,0.758718809202221,-0.42407310769301,0
279,1118535857,0.227457726226653,0.300784451192472,0.0929210162234338,0.921497358349252,-7.80083186687604,3.04694587846011,5.37260156155779,9.04227917876242,-0.586917433017464,-5.10126914068657,1.12354946765422,0.760673808904222,-0.422001490157623,0
280,1118552524,0.227716241769312,0.300856996135937,0.0916932048501085,0.921532819434466,-7.64229251032137,3.24591414909722,5.06776045731155,8.38163833620148,-0.192890017821359,-3.90567838750232,1.12418066274326,0.758640249971798,-0.423336407462878,0
281,1118569191,0.227709189460542,0.301164375075934,0.0910633963439887,0.921496609905128,-7.67762222614771,3.16571527741709,5.11905419778308,5.45452616848083,2.53540519987949,-1.25296155453953,1.12475145640859,0.756744282146177,-0.422280479482061,0
282,1118585858,0.22758104311619,0.301377547201277,0.0905931764349162,0.921504920898701,-7.66564723689189,2.95688235300724,5.2494714811617,4.56673398571955,2.16157103247154,-0.031503912857394,1.1283559714272,0.75829530013337,-0.421106544922412,0
283,1118602525,0.227229181521298,0.301623647582624,0.0905816780658134,0.92151236230606,-7.63848018383709,3.2051537858999,5.3373934762335,2.17031708512923,3.2214138072213,2.31680009552548,1.12646180249213,0.759382193950514,-0.420513675532759,0
284,1118619192,0.226712782902473,0.301789067419262,0.0912028759226293,0.921524122461409,-7.57218904038282,3.25933183831824,5.22958141853063,-1.62641420654782,3.78956392313962,4.72036331954804,1.12740076216009,0.759313511492289,-0.421925442329938,0
285,1118635859,0.226152876779306,0.302119887378219,0.0919617244048873,0.921477884281276,-7.7532257656844,2.91653692038375,5.44645402129381,-2.1952747396673,5.19525394489057,5.07537521904468,1.12680198244366,0.759688601803541,-0.42511630529285,0
286,1118652526,0.225816734353627,0.302192650224435,0.0920665772617279,0.92152598986003,-7.84040820725552,2.87206072772189,5.58390460635563,1.14223023327198,2.20259273742187,2.6143965249827,1.12318017315746,0.760310013890866,-0.424588782036129,0
287,1118669193,0.22567149607278,0.302016367483463,0.091910738476568,0.921634909161464,-7.85152725772224,2.97795028297624,5.48434490562625,2.04908867600129,-0.0282615832313325,1.12373810095735,1.12626078533655,0.75999562400792,-0.425529609325783,0
288,1118685860,0.225297841779728,0.301784239661909,0.0928647514307506,0.921706728370139,-7.7468929074625,3.07343065451474,5.38204874910101,-4.6210449862189,1.55772803901161,4.85634586846077,1.12610559132544,0.759813603625152,-0.424662222689526,0
289,1118702527,0.224898616559071,0.301470778968677,0.094375798293123,0.921753324048452,-7.66744606114211,3.03187260528101,5.62881851597686,-8.2451534739659,1.97062604256089,6.18169940109041,1.12618808460466,0.76175864297829,-0.42587517031026,0
290,1118719194,0.224396491032702,0.301250536051426,0.096215532695913,0.921757506402297,-7.80918546093535,2.96756416237135,5.62593000645655,-9.99912551876289,3.23003287876046,7.3867326747645,1.12689545564886,0.762692612600989,-0.427707393537841,0
291,1118735861,0.224150133140463,0.300769401605312,0.0973557305122828,0.921854840312462,-7.77521122925871,2.96457203301755,5.8126069364342,-6.4371341694889,0.137967186330508,4.63640962590378,1.12765990068079,0.763905365534558,-0.428297283898466,0
292,1118752528,0.224130067461278,0.300328202043846,0.0976240252645433,0.921975180581376,-7.73152112437103,3.06543589306993,5.71155526474714,-1.29625453524767,-1.14580162867758,1.4106577325359,1.12721548178894,0.760934246839325,-0.430128588054422,0
293,1118769195,0.224184647279225,0.299884044990891,0.0978290957612681,0.922084742042033,-7.80709231187928,3.10181124041344,5.46293615145274,-1.0577958045651,-1.28683903057556,0.790978813524534,1.12637315296414,0.764326122731835,-0.428159777416133,0
294,1118785862,0.224133382048795,0.299525130642714,0.0985561036067362,0.922136441968699,-7.81182025503066,3.03022948402874,5.51144297611885,-4.06807717848734,0.249182217137067,2.39481975774209,1.12710164920644,0.763812059478279,-0.427794695055578,0
295,1118802529,0.224206901566516,0.299107509176399,0.0991654132450342,0.922188800658615,-7.78935250811635,2.99972419280196,5.42082931461149,-3.66536761794928,-0.394345455464318,1.40079159977076,1.12534595817336,0.760304909225323,-0.428547709290629,0
296,1118819196,0.224314827578896,0.298765074074816,0.099592247734619,0.922227560221709,-7.81371265222399,2.94732045219139,5.35030867698106,-2.46597599552534,-0.202594415614186,0.728712598876472,1.12778294059409,0.764849705876634,-0.428967992450181,0
297,1118835863,0.224494445678463,0.298368138809397,0.0998001138320145,0.922289886576912,-7.79285234951879,3.10286675162107,5.21082757809467,-1.29304113048064,-0.989534231443527,-0.0985186562776251,1.12758350541648,0.764406411769402,-0.429450140242206,0
298,1118852530,0.224649099471059,0.298116134248127,0.100265947789207,0.922283195294009,-7.77867784344089,3.08173152269519,5.15101765885462,-2.71735511623403,0.479712070447233,0.387848698878892,1.12556723683087,0.765764661173407,-0.431235206045778,0
299,1118869197,0.224794236237405,0.297981726245804,0.100938309456975,0.922217924279278,-7.85219715586487,3.01486293965194,5.25877893573351,-3.88640948407675,1.66672279351335,0.707893075591821,1.12527607848212,0.768074541303662,-0.431829243839122,0
300,1118885864,0.225044707141515,0.297784371207151,0.101247307496577,0.922186711451127,-7.79069182300105,3.0032446499765,5.3644207257212,-1.8818566167694,0.556140882026525,-0.601059968999302,1.12903725424113,0.764455089615784,-0.431184170892304,0
301,1118902531,0.225503644199375,0.2974937281748,0.100890381122292,0.922207524989066,-7.79910057064893,3.0372509232165,5.27444158226993,1.84285708304815,-1.33941711904098,-3.16835741616026,1.13123806184857,0.763806289896772,-0.427875552180246,0
302,1118919198,0.226085144599679,0.297320570427505,0.100036580474579,0.922214003558262,-7.80156809107292,2.98748310249546,5.22189811014367,4.85644949152585,-1.40698334143606,-5.01719754480039,1.12976575511569,0.764927741665417,-0.428246541085653,0
303,1118935865,0.226747824144362,0.297159610121089,0.0987070870456377,0.92224644283697,-7.874320593212,2.9930456720551,5.30918377114443,7.76664629042163,-2.1996404334375,-6.48771741594431,1.13032490328353,0.764871773596479,-0.427321622277306,0
304,1118952532,0.227473632448381,0.296942514216667,0.0971149498678938,0.922306660663133,-7.84746302435412,2.99133167607093,5.34163744547169,9.2477635498727,-3.0811466914416,-7.34830419800981,1.12964886331074,0.76276253384877,-0.427580456949577,0
305,1118969199,0.228253908483979,0.296667828374138,0.0951810027458522,0.922403886367493,-7.86593620828522,2.8865410903874,5.51362504041911,11.2375437543754,-4.10089830378669,-8.28681212376729,1.132126299459,0.764289714935682,-0.427509886185489,0
306,1118985866,0.229023003171358,0.296385788589017,0.0929490808901332,0.922531515289596,-7.67044474166908,3.02429223809039,5.46794536541796,13.1667180604304,-4.67769855006866,-8.76272297145172,1.13723860988751,0.761607910828778,-0.422648514181924,0
307,1119002533,0.229913253545798,0.295993229712697,0.0904147056490058,0.922687967197273,-7.59479786473438,3.01875542271037,5.31806973282846,14.6831346154081,-5.99435012051309,-10.0231419059687,1.13534933151156,0.762623797486137,-0.420227432471777,0
308,1119019200,0.230722672275285,0.295625932391291,0.088114870966279,0.922826162454515,-7.66338774548068,3.03212826826224,5.28375228245015,13.3850909694998,-5.37992479522556,-9.071292588984,1.13411183655955,0.758509934491195,-0.422111956615223,0
309,1119035867,0.231395400955556,0.295266558423764,0.0863010437614387,0.922944179102339,-7.60996743739692,2.97113093538028,5.35258887631978,10.5781584731994,-4.44232977952761,-7.24904423524218,1.13718735213922,0.756727946586853,-0.418562435077028,0
310,1119052534,0.231931564693229,0.29486483438069,0.0849452737386606,0.923063800186132,-7.68537732371291,2.95657786660171,5.4422630468828,7.88173062552935,-3.9073503326762,-5.41940530138374,1.1384668715948,0.759454757517524,-0.419751399022241,0
311,1119069201,0.232360905316505,0.29454265802175,0.0838899564893306,0.923155191441934,-7.60240273646852,2.99749609546058,5.56966001510942,6.30641010323232,-2.8073894880248,-4.22105316546083,1.13680046122621,0.75802944062594,-0.419705507358729,0
312,1119085868,0.232847806576383,0.294131572977411,0.0824969920185357,0.923289100476278,-7.57718315653431,3.03903532361082,5.65198708591444,8.21765514420436,-4.02831662711715,-5.14725557490469,1.13837476633655,0.75709953404545,-0.416716583582762,0
313,1119102535,0.233364621055571,0.293694764283083,0.0808458194607109,0.923443713795281,-7.66456208704532,3.10425755039329,5.55104180001574,9.77180061934662,-4.66156021828436,-5.80967512582444,1.13839159593731,0.758243341345514,-0.416740102343362,0
314,1119119202,0.233960759454263,0.293218072286779,0.0788336487509221,0.92361830912159,-7.69832387117064,2.93747913195615,5.540465333508,11.8520297209088,-5.57814498956719,-6.98455592784631,1.13974599163808,0.756200881014097,-0.41125254324403,0
315,1119135869,0.234665617584677,0.292595469510313,0.076462585536746,0.923836247480406,-7.82787577697244,2.85153074954572,5.45220011361126,13.7035877704288,-7.2306281888999,-8.23929500412928,1.14031644027322,0.754884779588161,-0.412318684779023,0
316,1119152536,0.235349323203496,0.291936204287033,0.0741957270220429,0.924055703291639,-7.76143208536613,3.05144712788997,5.21672449375884,13.0285723932268,-7.29448307685112,-7.86200416661447,1.14100715381239,0.753716933620548,-0.409472513833485,0
317,1119169203,0.235900938988741,0.291402430092994,0.072288783196593,0.924234657727183,-7.67079243652056,3.06353744727655,5.16242616857988,11.1870475905946,-5.77488179815893,-6.42494910176601,1.1415742133013,0.754229286344335,-0.406904723889202,0
318,1119185870,0.236422544106809,0.290953022513638,0.0702771432241588,0.924398097395539,-7.70350445118086,2.85703689301057,5.42061507735104,12.0390527992978,-5.37314087234288,-6.50827681881481,1.14041889585718,0.751131221078524,-0.406111175322393,0
319,1119202537,0.236969546759632,0.290313101732586,0.068001691141779,0.924629388929855,-7.60495231865905,3.08612518358836,5.26894793057538,13.3894752093694,-7.16566433158666,-6.98437442299043,1.14232265985355,0.752086386948261,-0.406300423705233,0
320,1119219204,0.237376838952253,0.289847721757654,0.0661578095187726,0.924804670598398,-7.64583339510553,3.29544891029095,5.11777100679841,11.18198669002,-5.18182901353707,-5.40539943774266,1.14255546086752,0.748590427417639,-0.40279168111004,0
321,1119235871,0.237568067011587,0.289579176490437,0.0651745424666579,0.924909505353773,-7.60081110442451,3.26160962387644,5.0969430526933,6.42226360401744,-2.29498707773899,-2.52850233508275,1.14334531483005,0.748932453389868,-0.40139233897187,0
322,1119252538,0.237631451390246,0.289414919861277,0.0651631900036961,0.924945434142143,-7.70302967189733,3.13801088558572,5.05312553288638,0.629929791537757,0.14295267060629,0.0515979287170438,1.14241189005611,0.751224991335249,-0.404984016665979,0
323,1119269205,0.237380602108676,0.289246941590409,0.0669505568304668,0.924934743353934,-7.6846709109479,3.28874785290994,4.98035977180266,-10.2186712281634,3.28428927447023,5.54654355337401,1.14258480885496,0.75073323714258,-0.405009518863857,0
324,1119285872,0.236773399145212,0.289448730777596,0.0694762414162158,0.92484098178397,-7.5922637684732,3.11549192112593,5.56529896941649,-13.6509787004893,7.16214743456499,8.95974717119613,1.14048154774926,0.75209485894852,-0.408691955265296,0
325,1119302539,0.236236964763563,0.289485089011711,0.0713956196381476,0.924820601638862,-7.75024221213461,3.03650208537218,5.68257117116884,-10.1718075868348,4.94991324112427,7.49543983589206,1.14404608206874,0.75022988430886,-0.406405739787574,0
326,1119319206,0.235743116277296,0.289172013668526,0.0730053990358692,0.924918883659737,-7.75018910259229,3.2611033889895,5.3754214751888,-8.79689580690562,1.97524552887025,6.96962213412463,1.14244301167015,0.754217081265313,-0.410182120612384,0
327,1119335873,0.235160836768035,0.289065276694393,0.0745686987607247,0.924975759587939,-7.69622616354049,3.30568381838332,5.38438730719985,-8.01612334670775,3.33758797312973,7.25793106069894,1.1406357583005,0.75400096948196,-0.409521355271763,0
328,1119352540,0.234438376765017,0.288901527329037,0.0762261243906695,0.92507520395215,-7.78383048153795,3.07267892014695,5.3823069709086,-8.4147769384651,3.1158939550721,8.42503084426775,1.14148943899838,0.755827360491777,-0.41266596065232,0
329,1119369207,0.233646297631661,0.288558595761691,0.0782485939327284,0.925213760145518,-7.70115955633635,3.10035800644049,5.290251116903,-10.8686936447261,2.52295186531097,9.74424825521343,1.13798124576989,0.756087548676558,-0.414159892377017,0
330,1119385874,0.23266618198047,0.28837557059087,0.0809819789871246,0.925282603926146,-7.66818200387642,3.17624746077043,5.25976573882469,-14.8096371587048,4.92340279239532,12.1475953490299,1.13776722279667,0.758610118239461,-0.415145843998214,0
331,1119402541,0.231678311619926,0.288123357826818,0.0834090017555896,0.925393445527726,-7.85148529887749,2.92934597325604,5.53745760232654,-12.9401343899496,3.91441423144744,11.6868514396981,1.13848272227261,0.758692916160242,-0.418810718445585,0
332,1119419208,0.230919487580196,0.287639288689659,0.0847256166863849,0.925614066301349,-7.84533633986183,2.9609477623109,5.60645830457408,-6.60209435456493,0.310532962272405,8.31310894299845,1.13540642458878,0.761920149576345,-0.419203494090745,0
333,1119435875,0.230458343902441,0.28697281249628,0.0849428780884399,0.925915905509659,-7.8615879919954,3.13898500175242,5.51120662212421,-0.454183579260885,-2.92091468575143,4.49756069966633,1.13565958504829,0.76059294605634,-0.41909609495412,0
334,1119452542,0.229962220869628,0.286352675902996,0.0849702873274376,0.926228682479329,-7.77314024225985,3.25488582752276,5.25032636292224,0.879425873736243,-2.92060589845072,4.352987444379,1.1365426115671,0.761499430477433,-0.417374913313044,0
335,1119469209,0.229365430673755,0.285825913392408,0.0855221190043924,0.926488539382024,-7.74788863693801,3.08996746887721,5.28601494955982,-2.12262298308411,-1.34885053107736,5.85905324464715,1.13383232384688,0.762095561577684,-0.417982284812715,0
336,1119485876,0.228939305608739,0.285194804074626,0.0859385276404179,0.926749851655354,-7.85365696600324,2.83728390800784,5.41149512886042,-1.81676939111962,-2.31236876869534,4.60956688164747,1.13538311900367,0.763230549405935,-0.418804734329679,0
337,1119502543,0.228687440294835,0.284499605047236,0.0859237180433012,0.927027046022379,-7.93404973057257,2.92445890697813,5.37581817411941,0.522562158435974,-3.54744586171897,2.70582163399594,1.13658013369142,0.760784195925327,-0.417954733506574,0
338,1119519210,0.228477043594118,0.283946966503975,0.0859880196706594,0.927242374590808,-7.86139884601512,3.15691486893834,5.26595581099714,0.181612001687357,-2.44675991549044,2.37357150650796,1.1340424319471,0.763730068367901,-0.416429812261418,0
339,1119535877,0.228243626204591,0.283486698050395,0.0862889199688722,0.927412724419969,-7.92893057770388,3.13795836651868,5.29289001437765,-1.36363917132025,-1.31145719988946,3.00953346519935,1.13317927113581,0.762796800416501,-0.416434351662072,0
340,1119552544,0.22793000844502,0.283133759222061,0.0868820716536697,0.927542285431885,-7.8750718714738,2.95892112506571,5.30713176735424,-2.77135880435169,-0.110613916585824,3.8354388020055,1.13323678803387,0.76310864894019,-0.416349717435154,0
341,1119569211,0.2277519042078,0.282732296233783,0.0871143651902303,0.927686696128384,-7.78021955339315,2.92202566364566,5.32067053291138,-0.87549137317252,-1.07219861263647,2.38048790550414,1.13221315920757,0.762863136656849,-0.420062732459032,0
342,1119585878,0.227718744952252,0.282329474299861,0.0871414652163355,0.927814963329912,-7.88684374012723,2.93134506791459,5.14508590494653,-0.0426251139381628,-1.38645879202196,1.18151672596811,1.13255426298371,0.764324153914824,-0.416802477142771,0
343,1119602545,0.227602932032529,0.282001925521969,0.0876771025002134,0.927892528814229,-7.87312977052514,3.11261189977342,5.10352013108354,-2.90554674705257,-0.0277518388403717,2.46577771287714,1.13272704232018,0.762416770942348,-0.418891905431566,0
344,1119619212,0.227424917701333,0.281822925848463,0.0886457809048307,0.927898523979064,-7.88602007497565,3.00587835090091,5.26072342908403,-5.59029548349123,1.85725405596909,3.67669118383047,1.13275998787282,0.765142861200828,-0.419566321418829,0
345,1119635879,0.227315440174889,0.281605939630402,0.0895809445428969,0.927901417068525,-7.87716799766758,2.97537378773442,5.34796036453977,-6.17207709032108,1.76285865928106,3.66914860048328,1.13306119651294,0.76570324060441,-0.421015866101432,0
346,1119652546,0.227234358235531,0.281435002847966,0.0906449245184295,0.927869809438965,-7.78389547118972,3.10124435926847,5.42421254351233,-6.85709319929323,2.24743424497018,3.54152830621663,1.13272176019839,0.765376870414658,-0.420919920014358,0
347,1119669213,0.22724997851832,0.281183077529867,0.0915389928874675,0.927854588260145,-7.79717931829637,3.08503135672476,5.38741432155712,-6.26052587845884,1.44703719455203,2.81281441513314,1.13145093618314,0.765782906379369,-0.421637156191822,0
348,1119685880,0.227247172203441,0.280860019539243,0.0925940935774308,0.927848428346209,-7.80026570477099,3.12369098112539,5.27235152944894,-7.09871220565072,1.13753985248556,3.09074542069823,1.1289192317689,0.766224753381437,-0.422321188453844,0
349,1119702547,0.227236072587268,0.280549957497501,0.0940047621926445,0.92780310052746,-7.79440428955617,3.19293350443306,5.11113805407437,-10.245518109872,2.21158344634872,4.45828185770975,1.13262383207821,0.765998709632868,-0.424878403934843,0
350,1119719214,0.227056960103454,0.280384291367878,0.0962396249965413,0.927667893485182,-7.86491815214917,3.07128418683643,5.12714073604387,-15.209682473822,4.77388879927045,7.02843509254671,1.13363542648093,0.768755389349714,-0.426752366789916,0
351,1119735881,0.226911657685524,0.279993843368301,0.0983472964790412,0.927600321559624,-7.79334197223314,2.97736922508548,5.28769766194996,-14.5346744177797,2.88774586043423,6.62426640813337,1.13053336623421,0.771228393667537,-0.425247217908544,0
352,1119752548,0.226873946918259,0.279202860953227,0.0999680872989938,0.92767470385208,-7.76584891176103,2.99984597398122,5.3904433965997,-10.7906740042309,-1.33193467837232,4.39911476178571,1.13255120508421,0.770181263526652,-0.426579606875115,0
353,1119769215,0.22706209265076,0.2781015990635,0.100654543467041,0.927885213568372,-7.72780275766959,3.17352155460781,5.32099720739603,-6.2193146597207,-4.96641244724172,2.03632579590891,1.13299008416915,0.770193528719705,-0.426411724410505,0
354,1119785882,0.227112110871696,0.277257049087275,0.101642198981273,0.928018039271366,-7.83479298475506,3.27907308286473,5.16417657747791,-6.88731782925634,-2.87402939824023,2.67826004597557,1.12805915460924,0.771597500684985,-0.428860586844062,0
355,1119802549,0.227145046146066,0.276525053805943,0.102483895798933,0.928135805650657,-7.96012352623083,3.01600542519054,5.3537501159031,-5.54792118598634,-2.43589211129224,2.22862330189634,1.13152673934105,0.773018413859033,-0.427777532379442,0
356,1119819216,0.227383958425925,0.27572548979699,0.102727360086671,0.928288252223624,-7.9330727325878,2.93902971401989,5.3449216840372,-2.38335735213586,-3.94629655561679,0.0230214510939144,1.1317829222815,0.771472612214885,-0.426393951285814,0
357,1119835883,0.227633412538149,0.275140466308806,0.103060549120387,0.928363763031827,-7.80851107632392,3.16273371346782,5.0411355305456,-2.51987649785105,-2.37126803223713,-0.280531275653513,1.1318167694473,0.770417558718473,-0.429467178772699,0
358,1119852550,0.227660785611205,0.274877935077591,0.10417017197843,0.928310973097029,-7.71997041864383,3.26954928627122,4.97890710259354,-6.85929906089185,1.37762569022639,2.33720215387553,1.13215001899217,0.771931557400018,-0.430723341572352,0
359,1119869217,0.227583172799719,0.274768175468154,0.105615464125473,0.928199182797462,-7.62830340931424,3.22908358624549,5.14219252951684,-8.61621956600966,3.05946649306917,3.43265735692888,1.13144324464466,0.772380067253733,-0.431556116986474,0
360,1119885884,0.227427101553735,0.274788339378476,0.107314397026291,0.92803658452206,-7.54275973360771,3.23572098452855,5.18148034220436,-9.81683564017411,4.39380424766946,4.14292161374111,1.13056825626555,0.772269857490836,-0.43320531970738,0
361,1119902551,0.227218027752861,0.275039562130272,0.109092561181807,0.927806025105508,-7.59066737065545,3.19127688858701,5.21207853729499,-10.0461590669846,6.21130242849019,4.4456205061649,1.13193028847795,0.776205597089855,-0.433979973224719,0
362,1119919218,0.227123501823785,0.275151983271288,0.110052546942106,0.927682455333038,-7.6736289515265,3.06024246876834,5.5287334820892,-5.12275813222368,3.73348945079076,2.3834304774676,1.13097619463811,0.77399771637179,-0.434637231065572,0
363,1119935885,0.227258823319076,0.274960107646194,0.109876426997025,0.927727081213645,-7.65978367531549,3.25095464500346,5.34063192270255,1.35864363275005,-0.476127453966442,-0.751684890375996,1.13049113196544,0.774939810952341,-0.43402886149909,0
364,1119952552,0.227168669448555,0.27495721389537,0.110189072502541,0.927712937523725,-7.66502055990621,3.48209624075014,5.0718115729248,-1.08208100368112,1.77243437689819,1.36779097627101,1.13134504860984,0.774534677511012,-0.434788239937563,0
365,1119969219,0.226834728489297,0.275084751645253,0.110960396624841,0.927664904879081,-7.73174082314593,3.29635448566608,5.17552748008391,-3.37687503196698,3.56525503189946,3.62415591024659,1.129946680225,0.777185118219912,-0.434398952630224,0
366,1119985886,0.226415740311874,0.275138724089544,0.111800968561635,0.927650332007747,-7.78311381884176,3.13457041466435,5.37821694523314,-3.75715673299455,3.20440733197387,4.40209845170938,1.13211249331252,0.775603154712701,-0.438721133634061,0
367,1120002553,0.226018372567965,0.274977264738969,0.112309493787703,0.927733677702579,-7.70698858368452,3.21733007513675,5.34126981851811,-1.9657448867811,1.1218928639116,3.96986307791628,1.13201520791181,0.775916731923864,-0.438553789285698,0
368,1120019220,0.225546220409457,0.274883425778879,0.113023948363478,0.927789626902244,-7.67038019626046,3.24756593557284,5.26834761474475,-3.0344372787824,1.9728256502469,4.7169540498956,1.1277394307755,0.77872894313465,-0.439771166396795,0
369,1120035887,0.225007039208386,0.274838974358625,0.114163751844704,0.927794162648654,-7.67258997674255,3.12417765506333,5.31493074211536,-5.59252757948839,3.09784087078739,5.8255432248206,1.12842070987995,0.779129445772978,-0.439697457107067,0
370,1120052554,0.224456987307569,0.274721046427841,0.11558483837617,0.927786372305584,-7.69821322881011,2.95680940360543,5.4240642072551,-7.48755027976514,3.09560323577345,6.45652825714865,1.12806984070422,0.780598572630748,-0.441052519222851,0
371,1120069221,0.224084223774204,0.274488622932411,0.116800877393919,0.92779297883536,-7.75519824482903,3.01588924373058,5.53028364868783,-6.68465431950442,1.88371252560754,5.05489808658007,1.12768814550929,0.781480735696671,-0.442944920587522,0
372,1120085888,0.223814240393011,0.274214554133679,0.117943124067969,0.927794688270877,-7.81452148135404,3.18131976818184,5.52947505489845,-6.46953785936576,1.43387333754983,4.27996750031404,1.12834481485549,0.779695371586694,-0.440750571537099,0
373,1120102555,0.22362098852716,0.27385082165825,0.119183370997347,0.927790226853541,-7.8678624013618,3.15881796322521,5.44379245339058,-7.37944923438984,0.962087327956195,4.03038401091056,1.12980846040555,0.777639884166493,-0.443812413648557,0
374,1120119222,0.223361976952629,0.273562187681992,0.120928881346258,0.927711896214983,-7.95548929594721,3.12424577273628,5.36505163456374,-10.4313801584846,2.41423687063763,5.22558615549945,1.1287458930781,0.780842983735592,-0.442507207416329,0
375,1120135889,0.223079759433964,0.273205148241985,0.122768191839239,0.927643433102117,-7.92628920418319,3.12404999062509,5.46539467776588,-11.0957537754062,2.12555822542504,5.62555158926758,1.12738946018692,0.782178545449981,-0.447708868510496,0
376,1120152556,0.222862677742673,0.272649932372705,0.124351450107403,0.927648078800744,-8.0367096366671,3.13289530871708,5.59583795861673,-9.81908167433987,0.272382094282092,4.99752944199221,1.12798396597465,0.782412143820789,-0.446116682291698,0
377,1120169223,0.222693709122898,0.271973878357445,0.125712685830302,0.927703639116301,-7.91657568186466,3.18340662963134,5.47783875682092,-8.63580558300946,-0.974572394927576,4.45387714602142,1.12496025607012,0.782601322046742,-0.44980420804126,0
378,1120185890,0.222555504294711,0.271309530241434,0.126978013416514,0.927759004492597,-7.81046302405481,3.12963302588815,5.38706960957395,-8.06698402629346,-1.07243190707724,4.06640110097904,1.12604129086554,0.785367806539213,-0.44780542620576,0
379,1120202557,0.222450364112826,0.270600860219994,0.128245230076856,0.927816884367171,-7.77226552494277,2.97197007500267,5.37749132452645,-8.20896749435007,-1.38446391894202,3.89676446375656,1.12521071158021,0.786097797586455,-0.452444273596413,0
380,1120219224,0.222461761833506,0.269912537014308,0.129304371267192,0.927867644901808,-7.60426004226627,2.95009936878343,5.31573612106109,-7.07155706191572,-1.66318417440205,2.73696921651159,1.12189502803845,0.784996089113759,-0.453713929080446,0
381,1120235891,0.222652168713072,0.269132070597428,0.130032414776051,0.927946933531662,-7.67291867887258,2.95502463248141,5.2342050777305,-5.41025007037986,-2.96731958675405,1.10882415871993,1.1261481541508,0.784157613518472,-0.45219347559961,0
382,1120252558,0.222832020658018,0.268453316064076,0.130823295719099,0.927989209506695,-7.72920732750765,3.01144397140227,5.13971401985783,-5.668803473466,-2.14598672472509,1.14444133555399,1.12293707546759,0.785755883008509,-0.454108568259855,0
383,1120269225,0.222954044963515,0.267813758685795,0.131730855308148,0.928016307104987,-7.81487396990246,3.00213583823678,5.19634785181071,-6.26215385495608,-1.64184096039598,1.66924294762035,1.12230693110031,0.786077231510891,-0.455625693826414,0
384,1120285892,0.223010286355836,0.267192527186606,0.132736225990608,0.928038609059393,-7.89052975711504,2.95484670549082,5.18127834768954,-6.74472000301797,-1.30966734815964,2.24517061208426,1.12018282191874,0.785419525058918,-0.454522431048968,0
385,1120302559,0.22308123734132,0.266526978215085,0.133556308717674,0.928095277345764,-7.88046780153806,2.94774450502659,5.23413342887883,-5.62758893086102,-1.95931454471656,1.90659275613433,1.12149440516539,0.788620331680412,-0.454871095660339,0
386,1120319226,0.223173708216398,0.265972611972871,0.134248414745933,0.928132225913676,-7.86613734444875,3.02332044206851,5.19166849766408,-4.70012115793784,-1.43293083813503,1.4044208079616,1.12265354463961,0.788082754356765,-0.454767114361989,0
387,1120335893,0.223282906575937,0.265507526591604,0.134838577825535,0.928153572898471,-7.79708460475122,3.14791192802658,5.1815699799016,-3.95931545398237,-1.01168780463925,1.00579784700357,1.12206281855021,0.78662296021992,-0.455067311738829,0
388,1120352560,0.223417982123435,0.265178813101401,0.135383749322087,0.92813568122636,-7.77243735539224,3.0807548052438,5.26851963170394,-3.54857354850429,-0.16689433153844,0.568769987539593,1.12156211273448,0.784718727973981,-0.454965085928268,0
389,1120369227,0.223608611266911,0.264889920581594,0.135633679618319,0.928135778803271,-7.79396367509932,3.04827828878335,5.26782168142857,-1.68947756376669,-0.452899666277921,-0.333602592245535,1.11846010397983,0.78927155858168,-0.45764076219636,0
390,1120385894,0.223788275047872,0.264670568366391,0.135780985803724,0.928133515226057,-7.74607166961382,3.0409166099783,5.19720494984649,-0.911490830048927,-0.155599167041728,-0.519601813482261,1.12293832587028,0.788361080605102,-0.458794359727498,0
391,1120402561,0.223938845386746,0.264557877708828,0.136018371538663,0.928094567095952,-7.69036194810133,3.09719077586122,5.15510805615216,-1.3035778392873,0.753797900626277,-0.325968779438984,1.12446958865778,0.789035356478936,-0.453978378944246,0
392,1120419228,0.224096285392545,0.264543206973851,0.136309437457019,0.928018040652984,-7.68360820796015,3.09422113919329,5.18449494407897,-1.54316704697318,1.51963725556449,-0.425775283240069,1.12127433496899,0.786291134148086,-0.455000816047677,0
393,1120435895,0.224213006553729,0.264560209731432,0.136775223516174,0.927916462485228,-7.73217766667653,3.09293929313999,5.24115218965826,-2.56103122220707,2.07273054346998,0.0821463693684888,1.12236263115691,0.788293866228675,-0.458429821069195,0
394,1120452562,0.224322763447044,0.264592260034028,0.137176180790376,0.927821604163933,-7.70931304776831,3.1097930200018,5.31239688013116,-2.10621966757395,2.06071269148152,0.00333962312379243,1.12209294985767,0.78794229653146,-0.458062451227649,0
395,1120469229,0.224410985432741,0.264641132942985,0.137484379614668,0.927740710400125,-7.7202735555659,3.1198907868599,5.28470595432771,-1.43700691997652,2.01954374596661,-0.0246804874000969,1.11906970288515,0.789021503552057,-0.4582679909458,0
396,1120485896,0.224513137494699,0.264685247385319,0.137650645148475,0.927678754094901,-7.73601279549063,3.10318989084897,5.35764192230513,-0.5476409001929,1.72020712120585,-0.340357654784119,1.12363973758376,0.786016666992839,-0.460741333127867,0
397,1120502563,0.224674287292268,0.264644563329694,0.137532610516711,0.927668852971903,-7.7642199153856,3.12055192271636,5.3835114435185,1.0763856207573,0.590774882986778,-1.07357121220332,1.12183947721574,0.787830555133283,-0.458778649124676,0
398,1120519230,0.22487480455122,0.264581390938083,0.137262021248337,0.927678364181326,-7.725213100468,3.0980526730156,5.34340146994748,1.96111506210208,0.136906357196956,-1.55124716127654,1.12204381688435,0.787606075808403,-0.460040176041583,0
399,1120535897,0.225107950841395,0.264450560337926,0.136933703559892,0.927707643837387,-7.76397770998952,3.07876147420424,5.36653937265923,2.18512088919439,-0.45033616133842,-1.77082351768327,1.12150327763264,0.789131378767098,-0.458391169009401,0
400,1120552564,0.225377450562007,0.264265531846547,0.136545060168721,0.92775221907552,-7.79490363538822,3.14409668930674,5.32863010722687,2.43487853147536,-0.953718809407792,-2.03632822917123,1.12295756480196,0.786004079029253,-0.458208562754281,0
401,1120569231,0.225604995353264,0.264073457975525,0.136373430210106,0.927776849461783,-7.78062021902786,3.20029010014341,5.28976877908319,1.09605324966225,-0.588064139488503,-1.39872514705031,1.12206251303073,0.785193931689797,-0.459755036201577,0
402,1120585898,0.225849710484445,0.263949063635135,0.136322641102323,0.927760172460057,-7.8697017621258,3.12683655037716,5.35681852340869,0.360357303386313,0.0874025712497234,-1.42007315398574,1.12182581247859,0.786612445911759,-0.460196839675969,0
403,1120602565,0.226103370203743,0.263856785832669,0.136217054696714,0.927740144955641,-7.890733763492,3.06147803135621,5.47654860223446,0.740647699684811,0.20248930811553,-1.6127933258641,1.12021986043621,0.789114591092089,-0.4580528795982,0
404,1120619232,0.226407409745214,0.263744207778751,0.135984533729705,0.927732118804742,-7.82473674434376,3.19048602456884,5.38081189082681,1.43880076185592,-0.192996267012641,-2.12410875021482,1.12020759058055,0.786481966967172,-0.458124788999889,0
405,1120635899,0.226705848052678,0.263691549729621,0.135966600620463,0.927676834126854,-7.77587656933754,3.19205538055641,5.27330793197418,0.127567325889814,0.612004228202488,-1.82966331202333,1.12212345190757,0.788044057437295,-0.459374228531591,0
406,1120652566,0.226920702804343,0.263779147629431,0.136339948536431,0.927544594263671,-7.75222971377654,3.1501586678453,5.22702127432098,-2.06953191340898,2.33207210919572,-0.842344930588187,1.12019800454084,0.7870333227204,-0.458412945191363,0
407,1120669233,0.227096154770081,0.263901238591128,0.136832906830636,0.927394321940236,-7.71861506422279,3.08191322132739,5.36401142993343,-2.72442902999901,2.80563211988768,-0.438830919293716,1.1213346298744,0.784869343266538,-0.462086941626321,0
408,1120685900,0.227321527197394,0.263899595418114,0.1370866149874,0.927302101152638,-7.6867528050709,3.11433519925375,5.36146943435097,-1.42740974139414,1.49037915255142,-0.985746474235753,1.12062219613308,0.786147923451035,-0.459114959981346,0
409,1120702567,0.227506166280705,0.263916183756046,0.137443342620027,0.927199288085002,-7.68999249749717,3.14987121489993,5.23139663942176,-2.00068800650299,1.82953342939673,-0.567771228898348,1.11912510283184,0.784964656328133,-0.46146885237997,0
410,1120719234,0.227678248416617,0.263948935351548,0.137807024996317,0.927093737756,-7.7496301711181,3.10793716303177,5.29078618047898,-1.99851874973023,1.95708105527161,-0.499415544609749,1.12050300807889,0.786757487297605,-0.461554234800557,0
411,1120735901,0.227850387048477,0.263848955643306,0.137989308759139,0.927052792669313,-7.80042389100221,3.15628282206544,5.36078214197922,-0.984597381816139,0.706014410221579,-0.607840404902217,1.12236440818323,0.786240245673195,-0.461693201001097,0
412,1120752568,0.228017070833875,0.263729321402949,0.138068186876877,0.927034107362405,-7.8028349132146,3.22711013458974,5.23812761554239,-0.322270669660082,0.382023098559605,-0.710760619762212,1.1240847002705,0.784973698783859,-0.461006947551599,0
413,1120769235,0.228062949270869,0.263719296120151,0.138432778075437,0.926971299436008,-7.77978392827974,3.18827075429981,5.23039160418554,-1.80963301593747,1.7264339522027,0.410064320030932,1.12110936908728,0.78730721261858,-0.461771626986498,0
414,1120785902,0.228080922399171,0.263722695663498,0.138657400332069,0.926932337316308,-7.76168601507757,3.10505113002403,5.39094476980861,-0.819601778300784,1.56971328924636,0.351581021217646,1.12071423820589,0.784184082673624,-0.461563737638968,0
415,1120802569,0.228163517372727,0.263550423072898,0.138475785287254,0.926988155656414,-7.80441741114063,3.12473734082239,5.30863990461812,1.4659324800003,-0.419817116508985,-0.479620280558808,1.11905822212078,0.784388932470505,-0.460766178815337,0
416,1120819236,0.228313228890654,0.263275098413343,0.137774833123654,0.927133964120999,-7.83968880655037,3.13613687056787,5.31191570333961,4.58657520803163,-2.12359649879101,-1.6136064025686,1.12180779343769,0.782531023585295,-0.462467563847243,0
417,1120835903,0.22845849815131,0.263040988678341,0.136661683962585,0.927329357366669,-7.87849760225348,3.09544150463372,5.35229001708157,7.33444681555867,-2.59733213811126,-2.29131578265338,1.1208210824935,0.78462378748347,-0.461659469736544,0
418,1120852570,0.228593051739672,0.262802885385515,0.135158433368436,0.927583989738278,-7.79122512548967,3.10357839442038,5.38489929054457,9.87371778208905,-3.32766625734205,-2.81400620593623,1.11979047748703,0.786157975750197,-0.457360486387594,0
419,1120869237,0.228692800736065,0.262538963192155,0.133417424627495,0.927886138760166,-7.72168045745579,3.18057140426467,5.19883913615507,11.5694368878751,-3.96683008668778,-3.00487226800953,1.11981049654088,0.783472777910093,-0.457184248435716,0
420,1120885904,0.228676146964457,0.262382404681134,0.132043636671232,0.928131009899934,-7.71006618863266,3.24844084122017,4.93119039441248,9.43293814244843,-2.44970596501211,-1.69524529541788,1.11820063827706,0.783188982379494,-0.455770814533241,0
421,1120902571,0.228544194680618,0.26229134676517,0.131195945926777,0.928309444238438,-7.76847136525172,3.16709737563078,5.00431361334696,6.38736985951904,-1.01334446458672,-0.225626449970442,1.12031328199007,0.782389542570042,-0.45414749752742,0
422,1120919238,0.228332238820382,0.26223914911616,0.130673235377227,0.928450064861946,-7.78996822107372,3.06682781263176,5.06884173079189,4.37080088535902,-0.0757701092672557,0.859474301593311,1.11959182634681,0.782296024532048,-0.455535773235144,0
423,1120935905,0.228077235138318,0.262159594341482,0.130340406519088,0.928581983636776,-7.77375202023601,3.04331273501154,5.13415624807244,3.24098333888562,0.0740230314355166,1.4452102078591,1.11818774692439,0.781769967500961,-0.454188263135021,0
424,1120952572,0.227806509174219,0.262150818720556,0.130108400082348,0.928683448140436,-7.81371972116769,3.07443813674646,5.21970781239572,2.77194666432939,0.722798445888626,1.5686185044755,1.11702851501182,0.783604304652395,-0.455253777099231,0
425,1120969239,0.227474422262258,0.262169232298878,0.13007460653554,0.928764382169608,-7.86094924348847,3.09369475030643,5.1936944809935,1.63732782343775,1.29732670060008,2.263739797227,1.11760626402558,0.779651542752984,-0.453956876448754,0
426,1120985906,0.227104426496522,0.262289426596208,0.130379030704045,0.928778307517027,-7.86477628724951,3.11332847937543,5.07587774850256,-0.871582829036834,2.83562222142652,3.30899375772729,1.11555875484697,0.781537802994528,-0.455255866692059,0
427,1121002573,0.226607098419042,0.262551546587801,0.131351313626047,0.928688721121974,-7.87903628466305,3.00788680372133,5.14253254229771,-4.38089796676871,4.92005879503907,4.7318359441694,1.11649139741199,0.782872283415154,-0.456679904802635,0
428,1121019240,0.226201191776805,0.262663134275819,0.132093898994623,0.928650795821311,-7.88787950469341,2.91414898459791,5.37123456027016,-3.78607277106455,3.63036058632702,4.3411255110561,1.11402695004759,0.784418490515791,-0.457577901618702,0
429,1121035907,0.225897396811933,0.26261454524923,0.132580092085834,0.928669201556531,-7.83628188383441,2.92575466098693,5.36706780600334,-1.98862739860798,1.79476534076636,3.05180678391497,1.11827875727004,0.783137771953946,-0.459356402788991,0
430,1121052574,0.22567412201295,0.262572408292069,0.13298789948682,0.928677091161115,-7.77068708763566,3.0104399824974,5.37531339713102,-1.3338582477866,1.53826977663185,2.15004874946993,1.1162537479859,0.784245526287405,-0.457132839004078,0
431,1121069241,0.225489597377143,0.262554399218001,0.133467769765199,0.928658162813353,-7.83798479269467,3.02814946770374,5.31505078837956,-1.99682604003115,1.87683551591864,2.07843582460205,1.11536218419627,0.778283577202961,-0.457732963211732,0
432,1121085908,0.225330583073179,0.262529488349872,0.133983761919758,0.928629499650148,-7.89507615047835,3.04366023535465,5.27360514064006,-2.58604743794412,2.00066841573851,2.19403316747236,1.11487458372406,0.782703276949888,-0.459404765396775,0
433,1121102575,0.225210577134987,0.262440670159163,0.134496328997985,0.928609620927438,-7.90582181435371,3.05542165930916,5.33931471222252,-2.55226905101821,1.46371523957935,1.88026578143819,1.11368490419645,0.783316016168144,-0.459840378399122,0
434,1121119242,0.225121690167267,0.262324574085778,0.135033647836676,0.928585998386186,-7.88853452171439,3.07721026169123,5.29928177285883,-2.73750986004279,1.27350585373341,1.68899988546459,1.11521437241766,0.782230714129118,-0.458247761108864,0
435,1121135909,0.225023810353606,0.262205626413882,0.135647267208017,0.928553882739093,-7.83911853834968,3.14806634802773,5.26618233913496,-3.06346523826735,1.33105895804712,1.75159066151573,1.11328374458503,0.781873338031618,-0.460280248005844,0
436,1121152576,0.224917369403811,0.262150508036828,0.136278457904935,0.928502810974504,-7.79118578078227,3.12324701292778,5.31203474792301,-3.18829985581526,1.85003701588499,1.83036254991886,1.11101690922513,0.784302877339184,-0.462154198190461,0
437,1121169243,0.224796342810548,0.262068594403034,0.136860709238286,0.92846960227754,-7.82069494711808,3.17679581373337,5.19677091364025,-2.53464249059401,1.44713726847456,1.62903423048924,1.11399373867731,0.784442895390787,-0.459857660158866,0
438,1121185910,0.224667164989757,0.261984497064577,0.137419939518583,0.928442000609621,-7.7561982907575,3.19235460859352,5.17233032487738,-2.4605042650645,1.42715965264703,1.71207059136282,1.11211779125273,0.783002216861663,-0.463777750942909,0
439,1121202577,0.224566195744378,0.261895122083969,0.137861462740882,0.928426187614538,-7.75693068248789,3.2284844040014,5.13185316439237,-2.18141412578332,1.33402205490674,1.65940367026265,1.10974021197854,0.784178291052359,-0.461264329046441,0
440,1121219244,0.22443965484569,0.261810309562061,0.13827853863619,0.928418681895407,-7.75329866796409,3.22192910616313,5.20154806626851,-2.00125971318801,1.34529290151462,1.80782955088995,1.11153423848675,0.784004777000302,-0.463328234238412,0
441,1121235911,0.224267069374907,0.2617421574239,0.138682634529793,0.928419329560166,-7.76480387377302,3.24683748105558,5.15587685022301,-1.71569649026496,1.42190792346452,2.00521645525835,1.11190371655198,0.78351245604011,-0.465006621001746,0
442,1121252578,0.224078380925883,0.261731194825989,0.138973363005063,0.928424507018022,-7.76876585236929,3.24664835435981,5.18006090337232,-0.987550173246737,1.66503057192656,1.93894038556863,1.11004817236513,0.785310606413954,-0.462193084074656,0
443,1121269245,0.223875308217838,0.261656517925337,0.139131204284458,0.928470904763263,-7.8229803417263,3.22595305947275,5.19945966472996,-0.183942757526642,0.995137339286137,1.91819318486658,1.11136878442268,0.785689293818929,-0.465504391624318,0
444,1121285912,0.223631332606953,0.261584116719713,0.139309336953727,0.928523389901363,-7.81579857206625,3.23866494172927,5.1894819878947,-0.21087782101235,1.05703532972302,2.20475459057627,1.10945723790294,0.786094167938969,-0.464077356302574,0
445,1121302579,0.223302108416415,0.26158269710128,0.139633454614576,0.928554338370352,-7.8314101685875,3.23949565486727,5.21745439152197,-0.796658827548783,1.8104606257263,2.82516147907245,1.10979215539676,0.786176454659535,-0.463771028900743,0
446,1121319246,0.222959298772778,0.261593513630611,0.139939914621994,0.928587532229855,-7.79363429019489,3.18075175127499,5.24359900537797,-0.704294302276443,1.89291005164896,2.91753714550423,1.10941973530103,0.786661448060752,-0.464534339532511,0
447,1121335913,0.222632911330714,0.261598708544075,0.140076349933079,0.928643806133389,-7.80522611688572,3.13489605071402,5.28699133606164,0.436474790890602,1.50802479752337,2.49062279892804,1.10718645876333,0.786041644843327,-0.466082522525174,0
448,1121352580,0.222342720517857,0.26159335577148,0.140124091858307,0.928707634150716,-7.78304828943911,3.15286844102392,5.21489522122295,0.687966473597316,1.35432968425117,2.30111777529573,1.10863881674548,0.785737445886667,-0.466614651757064,0
449,1121369247,0.222039889273782,0.261584519677381,0.140384348668802,0.928743269846558,-7.83312718801621,3.14290186792032,5.23224287076293,-0.478491996232449,1.63537281236321,2.57084658502507,1.10627587103085,0.783750410229653,-0.464254989311354,0
450,1121385914,0.221679797204699,0.261563985015783,0.140911497996685,0.928755241700566,-7.83485913173065,3.10561203533893,5.21597372413669,-2.12363560480617,2.06456810509723,3.39132264285759,1.10952358861051,0.784541508412765,-0.467081777393812,0
451,1121402581,0.221390099544652,0.261461252827563,0.141365770410341,0.928784235465773,-7.84712072732295,3.03787569800232,5.36015104855211,-1.76816828516239,1.27735079644447,2.81990336566033,1.11034626003024,0.785846046094035,-0.464719263169755,0
452,1121419248,0.221129094613769,0.261174140770104,0.141638085233335,0.928885700460356,-7.83386765284152,3.09625855679901,5.30952493125526,-0.803961951611664,-0.360341740457009,2.55135263895215,1.10705971738232,0.788150043734155,-0.466598015264064,0
453,1121435915,0.220850590249387,0.260918899001159,0.142076867628271,0.928956677469654,-7.75743754399947,3.16871065139647,5.19988152319235,-1.99991051854597,0.240731162341331,3.02132764829854,1.10660374045571,0.788386916283911,-0.466348167422255,0
454,1121452582,0.220533999419199,0.260757754773445,0.142768169878915,0.928971150302909,-7.83428665318756,3.11777579810217,5.31262394224348,-3.44640395853517,1.35798599447544,3.52741584382344,1.10535571814762,0.786098356487966,-0.467771550865619,0
455,1121469249,0.220244497790579,0.260510485608128,0.143258906609452,0.929033655880268,-7.82157981045544,3.06176184340172,5.41718385092659,-2.21468588195952,0.357814786526574,3.08815142977986,1.10615804642573,0.78636090741859,-0.466439087302858,0
456,1121485916,0.220057407986142,0.260096696014781,0.143147485329126,0.929211086544151,-7.80793138931666,3.10137295289849,5.33219084470138,1.30248692540792,-1.92182028114879,1.70060868305913,1.10573214140641,0.787115800581168,-0.468643434035707,0
457,1121502583,0.21980989443514,0.259686107959353,0.143147953739744,0.929384419377396,-7.76867209770905,3.16713075014926,5.1590631561244,0.616954070846036,-1.6329380298518,2.33605792350792,1.10490054721804,0.784883076482853,-0.467377036448684,0
458,1121519250,0.219473389954487,0.259333964667549,0.143408011816401,0.929522171881103,-7.78575825786542,3.19224282521793,5.10420965895024,-0.805748328643161,-0.727398899852218,3.23658470292936,1.10332981889833,0.786848509964168,-0.468706827479516,0
459,1121535917,0.21904329143187,0.258943306478335,0.143914131698993,0.929654303064362,-7.8534039944429,3.13716057775702,5.18974224848574,-2.20978645741274,-0.532050353642182,4.24849380566855,1.10200169953367,0.786334151567721,-0.468230486464709,0
460,1121552584,0.218589230566117,0.258477200769905,0.144476093153937,0.92980371233376,-7.83731931691835,3.21774900006532,5.10057353635428,-2.72726284963999,-0.895006250338217,4.6782238360964,1.10222617358262,0.789636270625974,-0.466802283797487,0
461,1121569251,0.218056305492815,0.258073370515352,0.145329873223528,0.929907958356365,-7.8325049806763,3.18784793169514,5.13078095062655,-4.4293137411204,0.10612273433256,5.58409575118177,1.09993720242332,0.786206447432683,-0.469872844777235,0
462,1121585918,0.217532729797627,0.257693256396781,0.146021990488171,0.930027566993736,-7.82746260671233,3.14130489159477,5.27721986985181,-3.36603786104976,-0.022652325553853,5.23530378974595,1.09957713013828,0.78843985970764,-0.470495887350483,0
463,1121602585,0.217124022132141,0.2571904670811,0.146185558548993,0.930236531817304,-7.83862855823384,3.13697284606674,5.32364917824926,-0.322105206576621,-1.85759718351169,3.84785210422645,1.10273084058744,0.788560840985326,-0.471350103415775,0
464,1121619252,0.216741177109632,0.256675162324633,0.146071061140405,0.930486092474289,-7.83026305412336,3.21867663305153,5.11795396384651,1.44260287525165,-2.45432612558428,3.25582631504431,1.09767240921231,0.788995503665219,-0.469974672011872,0
465,1121635919,0.216209265486622,0.256333279560403,0.14642685157419,0.930648150723792,-7.81587634011123,3.16316532409952,5.07521346124648,-1.20261656901006,-0.315751684281002,4.78224407243501,1.09734312604396,0.790427013241423,-0.47030111304198,0
466,1121652586,0.215625960866671,0.256027260292296,0.146837072601342,0.930803073210126,-7.86066163257893,3.13045498777826,5.24116533271313,-1.28718395317975,0.00479001274028146,5.06205975991488,1.09622787938799,0.787150035679753,-0.469427287198138,0
467,1121669253,0.215150768884758,0.255651312601432,0.146998088844118,0.930990931690335,-7.89282566564913,3.09678538600635,5.24780965033924,-0.0278850525248036,-0.952039557682368,4.10401156190717,1.09541608546645,0.787568800549149,-0.469531830955523,0
468,1121685920,0.214699996209563,0.255344949651052,0.147296404879463,0.931131911935629,-7.85083401519587,3.24888950949676,5.15267293525955,-0.852619513410329,-0.264418351416319,4.01864973226456,1.09394955791032,0.792230597808609,-0.470855868764046,0
469,1121702587,0.214237050288158,0.255180483077019,0.147821571589257,0.931200402874317,-7.85439037146076,3.14524738455909,5.21545131422051,-2.09264259647517,1.09304546176491,4.19803176107682,1.09378470076208,0.790338150839115,-0.470867798006218,0
470,1121719254,0.213763162281203,0.255016011929806,0.14833054656147,0.931273425513545,-7.82220675693247,3.04271729416021,5.26041403216952,-2.00613203441423,1.08667781102339,4.27303404975989,1.09278777559055,0.788432574136854,-0.47354143082681,0
471,1121735921,0.213379009590553,0.254712487937208,0.148638708035682,0.931395448361476,-7.86299198213914,3.05615502286045,5.30079855397626,-1.02215327076255,-0.281025118092229,3.55353527147164,1.09045590169417,0.790357751369119,-0.47259312719277,0
472,1121752588,0.213094857835853,0.254309545135611,0.148873983600428,0.931533023474625,-7.90457754856168,3.11446724881332,5.26095712816834,-0.871860862671995,-1.14945355218031,2.91883633202412,1.09310153395395,0.789724217997266,-0.472731050027682,0
473,1121769255,0.212786335773943,0.25393767714577,0.149266609725,0.931642158049384,-7.90198041032185,3.11520625756879,5.27448179660069,-1.81254193388489,-0.65121240466678,3.26848862923123,1.09153486189052,0.79005350725878,-0.473168508568799,0
474,1121785922,0.212519353450545,0.253557217868172,0.149614043963583,0.931750985792222,-7.8337704842609,3.07068971710165,5.35977419946214,-1.63388225798051,-0.805026171807464,2.95021544762474,1.09140386383938,0.791699003826018,-0.474959073950332,0
475,1121802589,0.212328950769766,0.253231672609304,0.149785901791351,0.931855310805844,-7.75750870574749,3.03558669301408,5.28360362953684,-0.547363797717689,-0.788549713754433,2.07680888142597,1.0898382474777,0.789138719257827,-0.473725243535271,0
476,1121819256,0.212157951638778,0.253058231209773,0.15005784613349,0.93189762205255,-7.74234773162457,3.06587979039328,5.22265208148618,-1.07627391087804,0.425896851884005,1.88837681680025,1.09006128306755,0.792248438945179,-0.474845875990621,0
477,1121835923,0.2120445837872,0.25294753738674,0.150392111101284,0.93189959262519,-7.83498747346584,3.0471521836978,5.14552498934647,-1.51162399231682,0.922664730744446,1.49226910562622,1.09106414257478,0.789366057771592,-0.473444740478321,0
478,1121852590,0.211950620715421,0.252932565414055,0.150882400412652,0.931845777463808,-7.86939494881226,3.0379420674064,5.11115054034483,-2.44213926216033,1.82986950753339,1.44367316721713,1.09154477416437,0.790611807057063,-0.474070237948051,0
479,1121869257,0.21191659745691,0.252930208341977,0.151321458548228,0.931782958426053,-7.96285031930069,2.93323024541011,5.19774398637229,-2.24410228121072,1.79945277921443,0.968658170965703,1.08845846261165,0.790841846991074,-0.476486539180043,0
480,1121885924,0.21194951191346,0.25287708142545,0.151568992418644,0.931749658774603,-7.94111427139585,3.04154433980954,5.22908548070416,-1.1481614291805,1.0592864180704,0.284569337588553,1.08998782369341,0.789002589695423,-0.474919797110356,0
481,1121902591,0.21203116928737,0.252868285632129,0.151882485555695,0.931682415822861,-7.88966681304334,3.12527510554457,5.11335781054274,-1.62544165943773,1.44590153255919,-0.00788380520847676,1.09105968075788,0.791078667950158,-0.476214006827332,0
482,1121919258,0.212095940274565,0.252990316941221,0.152368533144983,0.931555173760672,-7.88844753245143,3.0483185916541,5.09615631342733,-2.60438061022295,2.66503690578317,0.196580512271857,1.09158552757808,0.791858134712353,-0.477340377002906,0
483,1121935925,0.212172355160377,0.253112792120558,0.152787337069562,0.931435899996251,-7.84412086068068,2.9820350679337,5.15374126079049,-2.19155339884048,2.54326299734343,0.0210886090085536,1.09057817540352,0.792092022276269,-0.478957702851079,0
