sep=,
DeviceTag:,Xsens_4,,,,,,,,,,,,,,,,,
FirmwareVersion:,2.2.1,,,,,,,,,,,,,,,,,
AppVersion:,2023.0.0,,,,,,,,,,,,,,,,,
StartTime:,2023-07-04 14:47:22.000 +0200,,,,,,,,,,,,,,,,,
© Movella Technologies B. V. 2005-2023,,,,,,,,,,,,,,,,,,,

PacketCounter,SampleTimeFine,Quat_W,Quat_X,Quat_Y,Quat_Z,Acc_X,Acc_Y,Acc_Z,Gyr_X,Gyr_Y,Gyr_Z,Mag_X,Mag_Y,Mag_Z,Status,
0, 1472502074, 0.47920865, -0.49561444, -0.47813863, -0.544159, 0.0, 0.0, 0.0, 0.0, 0.0, 0.0, -0.671142578125, -0.05615234375, 0.634765625, 0, 
1, 1472518741, 0.47929728, -0.49552366, -0.4773557, -0.5448507, 9.943605422973633, 0.40674081444740295, 0.5528936386108398, -2.032752275466919, -2.3106369972229004, 0.1816004514694214, -0.671875, -0.052978515625, 0.63671875, 0, 
2, 1472535408, 0.47966534, -0.49544582, -0.47706687, -0.5448503, 9.971427917480469, 0.3729936182498932, 0.48093628883361816, -1.7065739631652832, -1.9736888408660889, -0.27180197834968567, -0.67236328125, -0.0556640625, 0.635498046875, 0, 
3, 1472552075, 0.47962642, -0.49585465, -0.47666523, -0.5448642, 10.02460765838623, 0.3872489631175995, 0.49190109968185425, -2.103980779647827, -0.1457746922969818, -0.8500215411186218, -0.670166015625, -0.053955078125, 0.6376953125, 0, 
4, 1472568742, 0.47968447, -0.49612322, -0.47650155, -0.5447118, 9.991525650024414, 0.4092028737068176, 0.5310646891593933, -1.389540195465088, 0.391137957572937, -0.7357632517814636, -0.671142578125, -0.05908203125, 0.63720703125, 0, 
5, 1472585409, 0.4795738, -0.49649888, -0.4762533, -0.5446842, 10.017983436584473, 0.4309651553630829, 0.5757085680961609, 0.3828650414943695, -0.20637431740760803, 0.01911347731947899, -0.671875, -0.053955078125, 0.639404296875, 0, 
6, 1472602076, 0.47978544, -0.4965982, -0.47626635, -0.5443956, 10.024578094482422, 0.4385777711868286, 0.5819264650344849, 0.9349082708358765, -0.8181848526000977, 0.9699337482452393, -0.6689453125, -0.0556640625, 0.6376953125, 0, 
7, 1472618743, 0.48000652, -0.4966445, -0.47617278, -0.54424036, 9.956119537353516, 0.4029378294944763, 0.5337430834770203, 1.6649727821350098, -0.14837437868118286, 1.3811328411102295, -0.66845703125, -0.057373046875, 0.6376953125, 0, 
8, 1472635410, 0.48044693, -0.49646854, -0.4760094, -0.544155, 10.100800514221191, 0.3688463270664215, 0.5057587623596191, 3.675787925720215, 2.075237274169922, 1.60247802734375, -0.6689453125, -0.054443359375, 0.639404296875, 0, 
9, 1472652077, 0.4815436, -0.49589366, -0.4757871, -0.54390466, 10.071072578430176, 0.3099724054336548, 0.6172182559967041, 6.372971534729004, 5.639641761779785, 3.2695062160491943, -0.670654296875, -0.052978515625, 0.635986328125, 0, 
10, 1472668744, 0.48297852, -0.4951536, -0.4755299, -0.5435311, 9.8939790725708, 0.274982213973999, 0.8090795874595642, 8.393792152404785, 6.72575044631958, 4.2046918869018555, -0.667724609375, -0.051025390625, 0.635986328125, 0, 
11, 1472685411, 0.48393703, -0.49469453, -0.4754559, -0.5431612, 9.90943717956543, 0.2617470920085907, 0.8639960289001465, 6.840993404388428, 2.5759146213531494, 2.498704671859741, -0.6728515625, -0.04736328125, 0.634521484375, 0, 
12, 1472702078, 0.48424673, -0.49455702, -0.4759364, -0.54258925, 9.918792724609375, 0.3546518087387085, 0.7127684950828552, 5.455050945281982, -3.997271776199341, -0.25269490480422974, -0.673095703125, -0.049560546875, 0.63671875, 0, 
13, 1472718745, 0.4840371, -0.494624, -0.47654888, -0.5421773, 9.86840534210205, 0.5414595603942871, 0.520628035068512, 4.038079738616943, -6.2325439453125, -2.191358804702759, -0.670654296875, -0.04833984375, 0.63671875, 0, 
14, 1472735412, 0.48360863, -0.49478877, -0.47687325, -0.54212433, 9.936980247497559, 0.6928397417068481, 0.37296995520591736, 0.34836477041244507, -4.587080955505371, -2.24739933013916, -0.66796875, -0.04833984375, 0.64013671875, 0, 
15, 1472752079, 0.4829424, -0.4952431, -0.47672236, -0.542436, 10.033225059509277, 0.7577510476112366, 0.23420773446559906, -4.50994873046875, -2.909308671951294, -1.0021737813949585, -0.6689453125, -0.048828125, 0.6376953125, 0, 
16, 1472768746, 0.48245004, -0.49568933, -0.4762819, -0.5428534, 9.974668502807617, 0.7128588557243347, 0.23368416726589203, -5.799407482147217, -0.23380553722381592, 0.8745265007019043, -0.6689453125, -0.050537109375, 0.641845703125, 0, 
17, 1472785413, 0.48216885, -0.49618158, -0.47564012, -0.54321605, 9.882428169250488, 0.6063427329063416, 0.3099533021450043, -5.558161735534668, 1.306113362312317, 3.0555379390716553, -0.66845703125, -0.051025390625, 0.64111328125, 0, 
18, 1472802080, 0.4819129, -0.4967151, -0.47529578, -0.5432568, 9.831204414367676, 0.41561973094940186, 0.37234777212142944, -3.6686863899230957, -0.6161646842956543, 3.4098381996154785, -0.66845703125, -0.0517578125, 0.640625, 0, 
19, 1472818747, 0.4814265, -0.49716276, -0.4754826, -0.54311526, 9.888052940368652, 0.2937343418598175, 0.3900339901447296, -1.654401183128357, -3.3558530807495117, 0.8436119556427002, -0.666259765625, -0.048828125, 0.641845703125, 0, 
20, 1472835414, 0.4807093, -0.4974087, -0.47620636, -0.54289114, 10.030339241027832, 0.257241815328598, 0.41347765922546387, -0.15347132086753845, -5.422132968902588, -2.6016104221343994, -0.666259765625, -0.05224609375, 0.64501953125, 0, 
21, 1472852081, 0.47987732, -0.49747312, -0.47705007, -0.54282755, 10.090601921081543, 0.3639926314353943, 0.45593708753585815, 0.2542637586593628, -4.985705375671387, -4.858576774597168, -0.6650390625, -0.052734375, 0.646240234375, 0, 
22, 1472868748, 0.47922102, -0.49733633, -0.47794157, -0.5427482, 10.05933952331543, 0.505291223526001, 0.5690541863441467, 1.6985254287719727, -3.9622080326080322, -5.123270511627197, -0.663330078125, -0.052734375, 0.64794921875, 0, 
23, 1472885415, 0.47854236, -0.4973911, -0.4787256, -0.5426058, 9.990499496459961, 0.6286177039146423, 0.6782837510108948, 0.9174278378486633, -4.8062238693237305, -3.99308443069458, -0.66552734375, -0.053955078125, 0.646240234375, 0, 
24, 1472902082, 0.47800973, -0.49756467, -0.4793257, -0.5423863, 9.963227272033691, 0.6101205945014954, 0.6361318230628967, 0.732375979423523, -4.692579746246338, -2.073758125305176, -0.665771484375, -0.0556640625, 0.650634765625, 0, 
25, 1472918749, 0.4776941, -0.49779364, -0.47957933, -0.54223025, 9.975419998168945, 0.5180295705795288, 0.582152247428894, -0.11464245617389679, -3.0204291343688965, -0.050597891211509705, -0.66455078125, -0.054443359375, 0.65234375, 0, 
26, 1472935416, 0.47761494, -0.49785325, -0.4796583, -0.54217535, 9.966373443603516, 0.37779587507247925, 0.5163260698318481, 0.024351274594664574, -0.8292111754417419, 0.489554762840271, -0.659423828125, -0.056640625, 0.65185546875, 0, 
27, 1472952083, 0.47743368, -0.49786457, -0.47975302, -0.54224086, 9.953062057495117, 0.291640043258667, 0.5348467826843262, 0.569837749004364, -0.6399076581001282, -0.5794616937637329, -0.662353515625, -0.05615234375, 0.65234375, 0, 
28, 1472968750, 0.47702366, -0.4977862, -0.48018724, -0.54228926, 9.961752891540527, 0.29780587553977966, 0.5681260228157043, 0.5938881039619446, -2.335314989089966, -3.033440113067627, -0.666259765625, -0.057861328125, 0.65185546875, 0, 
29, 1472985417, 0.4764272, -0.4976645, -0.48090044, -0.54229325, 9.98580551147461, 0.3935321271419525, 0.5100783109664917, 1.2678736448287964, -3.9313066005706787, -4.8178391456604, -0.662353515625, -0.05712890625, 0.65478515625, 0, 
30, 1473002084, 0.47585866, -0.49748284, -0.4816039, -0.5423349, 10.068992614746094, 0.5034739971160889, 0.4541405737400055, 1.355661153793335, -3.4912164211273193, -5.070342540740967, -0.662353515625, -0.05712890625, 0.65576171875, 0, 
31, 1473018751, 0.47563484, -0.49722642, -0.48207277, -0.5423497, 10.129730224609375, 0.5472726821899414, 0.436684250831604, 1.886394739151001, -1.4027053117752075, -3.1570475101470947, -0.66455078125, -0.057861328125, 0.65576171875, 0, 
32, 1473035418, 0.47573274, -0.49692598, -0.48231873, -0.5423206, 10.04690933227539, 0.5122383236885071, 0.47359341382980347, 2.3874685764312744, 0.40788865089416504, -1.195523977279663, -0.662841796875, -0.058837890625, 0.657470703125, 0, 
33, 1473052085, 0.4758395, -0.49663436, -0.48258954, -0.54225326, 10.017465591430664, 0.4408018887042999, 0.5095328092575073, 2.734712839126587, 0.18464834988117218, -1.1015125513076782, -0.659912109375, -0.06005859375, 0.65625, 0, 
34, 1473068752, 0.4758586, -0.49643835, -0.48298138, -0.54206717, 10.004900932312012, 0.3758242726325989, 0.49335765838623047, 3.5067694187164307, -1.2642300128936768, -1.1584367752075195, -0.66064453125, -0.0576171875, 0.65576171875, 0, 
35, 1473085419, 0.47584665, -0.4961481, -0.48366046, -0.54173756, 10.018409729003906, 0.3233160972595215, 0.4318189322948456, 4.818511009216309, -2.4864299297332764, -2.179551124572754, -0.662841796875, -0.0576171875, 0.657470703125, 0, 
36, 1473102086, 0.47583756, -0.49570638, -0.48454165, -0.5413624, 9.950883865356445, 0.3622996509075165, 0.3896143436431885, 6.174794673919678, -2.7246925830841064, -3.2939608097076416, -0.662841796875, -0.059326171875, 0.65625, 0, 
37, 1473118753, 0.47561696, -0.49524727, -0.4855428, -0.5410794, 9.9190673828125, 0.4611172676086426, 0.33672472834587097, 5.765350341796875, -3.419334888458252, -4.90117073059082, -0.663330078125, -0.05712890625, 0.657470703125, 0, 
38, 1473135420, 0.47531936, -0.4947918, -0.48639315, -0.5409938, 9.939400672912598, 0.6125974655151367, 0.28911256790161133, 4.003938674926758, -2.5087132453918457, -5.334498882293701, -0.66064453125, -0.060546875, 0.6591796875, 0, 
39, 1473152087, 0.47510847, -0.49450734, -0.4867271, -0.54113877, 9.996257781982422, 0.6743348836898804, 0.2564573287963867, 2.392770290374756, -0.2665513753890991, -3.359182357788086, -0.662353515625, -0.061767578125, 0.65576171875, 0, 
40, 1473168754, 0.47528845, -0.49423268, -0.4868415, -0.5411287, 9.90373420715332, 0.649747371673584, 0.2563551664352417, 2.9256298542022705, 1.2130751609802246, -0.5969680547714233, -0.659423828125, -0.0615234375, 0.660888671875, 0, 
41, 1473185421, 0.47548246, -0.49403062, -0.48687342, -0.54111415, 9.877117156982422, 0.5568984746932983, 0.24571318924427032, 2.7547547817230225, 1.3003631830215454, 0.032534532248973846, -0.658203125, -0.059814453125, 0.65966796875, 0, 
42, 1473202088, 0.4755898, -0.49380824, -0.48704836, -0.54106534, 9.925545692443848, 0.4854978621006012, 0.2461962252855301, 2.7578539848327637, 0.5147704482078552, -0.7490818500518799, -0.6611328125, -0.05712890625, 0.660888671875, 0, 
43, 1473218755, 0.47553542, -0.4935331, -0.48738897, -0.54105735, 9.929598808288574, 0.48237913846969604, 0.22065651416778564, 2.4780352115631104, -0.22167789936065674, -2.2588350772857666, -0.66064453125, -0.060546875, 0.65966796875, 0, 
44, 1473235422, 0.4753652, -0.49319422, -0.4875988, -0.5413269, 9.994403839111328, 0.553359866142273, 0.23524795472621918, 1.0029101371765137, 1.040611982345581, -3.3854100704193115, -0.66162109375, -0.060546875, 0.6591796875, 0, 
45, 1473252089, 0.47533458, -0.4928684, -0.48765287, -0.54160196, 10.015848159790039, 0.6391527056694031, 0.25907838344573975, 1.2431058883666992, 2.042529344558716, -2.2998924255371094, -0.66064453125, -0.060546875, 0.6591796875, 0, 
46, 1473268756, 0.47557512, -0.49258798, -0.48755383, -0.5417348, 9.984363555908203, 0.6349689960479736, 0.32516470551490784, 1.689125418663025, 2.8088226318359375, -0.14936044812202454, -0.66064453125, -0.062255859375, 0.658447265625, 0, 
47, 1473285423, 0.47593325, -0.4924242, -0.487325, -0.5417751, 9.956689834594727, 0.57515549659729, 0.32952961325645447, 1.6774718761444092, 2.8945231437683105, 1.4385566711425781, -0.662841796875, -0.06103515625, 0.65966796875, 0, 
48, 1473302090, 0.47614992, -0.49238768, -0.48726428, -0.54167247, 9.930065155029297, 0.5092905759811401, 0.32545989751815796, 2.012549877166748, 0.925751805305481, 1.2396353483200073, -0.66455078125, -0.058349609375, 0.65966796875, 0, 
49, 1473318757, 0.47618285, -0.49236888, -0.4874473, -0.54149604, 9.92609977722168, 0.49231645464897156, 0.27887797355651855, 1.9365185499191284, -0.8322975039482117, -0.003701035398989916, -0.659912109375, -0.0576171875, 0.656982421875, 0, 
50, 1473335424, 0.47612423, -0.49232706, -0.48761335, -0.5414361, 9.980613708496094, 0.540235698223114, 0.22825850546360016, 1.3706573247909546, -0.5801404714584351, -0.7587890028953552, -0.658935546875, -0.060546875, 0.657958984375, 0, 
51, 1473352091, 0.47632605, -0.49216107, -0.48767453, -0.5413545, 9.9708890914917, 0.5664732456207275, 0.21915125846862793, 1.7820996046066284, 1.0160877704620361, 0.19112835824489594, -0.658935546875, -0.06103515625, 0.65869140625, 0, 
52, 1473368758, 0.47661737, -0.49208623, -0.4875335, -0.54129314, 9.962608337402344, 0.5419125556945801, 0.2609175145626068, 2.7296671867370605, 1.835668683052063, 1.5174180269241333, -0.658935546875, -0.059814453125, 0.657470703125, 0, 
53, 1473385425, 0.4771166, -0.49190044, -0.48740464, -0.54113823, 9.934521675109863, 0.4902855157852173, 0.30212125182151794, 2.8825747966766357, 2.5272116661071777, 2.1301891803741455, -0.662353515625, -0.056640625, 0.656982421875, 0, 
54, 1473402092, 0.47758496, -0.49171877, -0.4874064, -0.54088837, 9.899529457092285, 0.4563368856906891, 0.32790452241897583, 3.6069016456604004, 1.6642169952392578, 1.888789176940918, -0.659423828125, -0.05712890625, 0.65625, 0, 
55, 1473418759, 0.47766015, -0.49176008, -0.48751456, -0.5406869, 9.864630699157715, 0.48586446046829224, 0.34691593050956726, 2.455559730529785, -0.6255261301994324, 0.6665512919425964, -0.663330078125, -0.055419921875, 0.657958984375, 0, 
56, 1473435426, 0.47756696, -0.4918943, -0.48780647, -0.54038405, 9.97486400604248, 0.5219123363494873, 0.24305030703544617, 1.9603768587112427, -2.5227997303009033, 0.02974274940788746, -0.659423828125, -0.055419921875, 0.656982421875, 0, 
57, 1473452093, 0.47765875, -0.4919446, -0.48794773, -0.5401294, 10.055039405822754, 0.5395311713218689, 0.20951969921588898, 1.9330737590789795, -0.9292415976524353, 0.7741245627403259, -0.659912109375, -0.058837890625, 0.660400390625, 0, 
58, 1473468760, 0.4779532, -0.49192256, -0.48774952, -0.54006803, 10.036242485046387, 0.50611412525177, 0.2016124278306961, 2.0502004623413086, 1.8708730936050415, 1.8399970531463623, -0.6572265625, -0.05712890625, 0.657958984375, 0, 
59, 1473485427, 0.47821283, -0.49189004, -0.48771915, -0.53989524, 9.944740295410156, 0.49162042140960693, 0.2633495032787323, 2.324755907058716, 0.8457121253013611, 1.4448316097259521, -0.659423828125, -0.052001953125, 0.656982421875, 0, 
60, 1473502094, 0.47821176, -0.4919804, -0.48803705, -0.53952646, 9.978257179260254, 0.512053370475769, 0.23889021575450897, 2.45780086517334, -2.3180899620056152, 0.33038461208343506, -0.66162109375, -0.05615234375, 0.65576171875, 0, 
61, 1473518761, 0.47802103, -0.49222827, -0.48841432, -0.5391279, 9.973852157592773, 0.5593352317810059, 0.12781471014022827, 2.4272964000701904, -3.7764134407043457, 0.08092974126338959, -0.662353515625, -0.0537109375, 0.658203125, 0, 
62, 1473535428, 0.4779818, -0.49239105, -0.48849207, -0.53894347, 9.980535507202148, 0.5914784073829651, 0.09066647291183472, 0.8151817321777344, -1.2531524896621704, 0.6492882370948792, -0.659423828125, -0.05419921875, 0.658203125, 0, 
63, 1473552095, 0.4779764, -0.49257463, -0.48838565, -0.538877, 9.952312469482422, 0.5771952867507935, 0.07830660045146942, 0.029115235432982445, -0.17070864140987396, 1.0987911224365234, -0.65771484375, -0.0537109375, 0.65869140625, 0, 
64, 1473568762, 0.4778666, -0.4927609, -0.48841777, -0.53877485, 9.891105651855469, 0.5857203006744385, 0.15056701004505157, 0.5744096040725708, -1.0671019554138184, 0.3870270848274231, -0.65771484375, -0.051513671875, 0.6591796875, 0, 
65, 1473585429, 0.47769073, -0.49298534, -0.48855746, -0.5385989, 9.950435638427734, 0.5934804081916809, 0.13196001946926117, 0.31342896819114685, -2.051436185836792, 0.13708557188510895, -0.658935546875, -0.0537109375, 0.659912109375, 0, 
66, 1473602096, 0.4776178, -0.4932217, -0.48842934, -0.53856343, 10.00277328491211, 0.5810331106185913, 0.18108688294887543, -0.5657716989517212, -0.36346980929374695, 1.0229777097702026, -0.65673828125, -0.052490234375, 0.660888671875, 0, 
67, 1473618763, 0.4776199, -0.49344364, -0.48796773, -0.53877646, 10.026296615600586, 0.5304154753684998, 0.24199359118938446, -2.6872589588165283, 1.8680686950683594, 1.5612157583236694, -0.655517578125, -0.05078125, 0.66162109375, 0, 
68, 1473635430, 0.47755423, -0.49371, -0.48767778, -0.5388533, 10.070123672485352, 0.44538962841033936, 0.29759153723716736, -1.992885947227478, 0.4489842653274536, 1.324272632598877, -0.655517578125, -0.052490234375, 0.663818359375, 0, 
69, 1473652097, 0.47734925, -0.49394473, -0.48776022, -0.5387453, 10.050247192382812, 0.4143422544002533, 0.2853083312511444, -0.3973938524723053, -1.7574024200439453, 0.03456433489918709, -0.6572265625, -0.052490234375, 0.66162109375, 0, 
70, 1473668764, 0.47702718, -0.49404755, -0.4879943, -0.5387242, 9.985488891601562, 0.4927886128425598, 0.28359493613243103, 0.008689109236001968, -1.863951563835144, -1.6499830484390259, -0.65673828125, -0.055419921875, 0.663818359375, 0, 
71, 1473685431, 0.4766595, -0.4941561, -0.4879964, -0.5389481, 9.998176574707031, 0.5897783041000366, 0.2859216630458832, -1.5206900835037231, -0.428923100233078, -1.8084872961044312, -0.658447265625, -0.05322265625, 0.662109375, 0, 
72, 1473702098, 0.47660813, -0.4941664, -0.48788387, -0.53908604, 9.960322380065918, 0.6126578450202942, 0.2942110300064087, -0.6541227698326111, 1.0517535209655762, -0.2979397475719452, -0.662353515625, -0.052001953125, 0.66650390625, 0, 
73, 1473718765, 0.4767911, -0.4941989, -0.48791334, -0.53886765, 9.971529960632324, 0.552251398563385, 0.3246863782405853, 1.3753952980041504, 0.050002384930849075, 1.3258732557296753, -0.656005859375, -0.054931640625, 0.6630859375, 0, 
74, 1473735432, 0.476866, -0.49433026, -0.48793462, -0.53866154, 9.962311744689941, 0.45996975898742676, 0.24552451074123383, 1.590683102607727, -0.5625317096710205, 1.279309630393982, -0.655029296875, -0.056396484375, 0.666015625, 0, 
75, 1473752099, 0.4767603, -0.4943261, -0.48798817, -0.53871036, 9.995923042297363, 0.4434967041015625, 0.21341301500797272, 0.726190447807312, 0.09714256972074509, -0.7953512072563171, -0.655029296875, -0.056396484375, 0.666015625, 0, 
76, 1473768766, 0.47663444, -0.49414554, -0.4879795, -0.5389952, 10.014008522033691, 0.4661937355995178, 0.2288903146982193, 0.3892810046672821, 1.7028027772903442, -2.0254011154174805, -0.655029296875, -0.0537109375, 0.667724609375, 0, 
77, 1473785433, 0.4766239, -0.49387303, -0.4880931, -0.5391514, 10.004213333129883, 0.4938950836658478, 0.2964925169944763, 1.3261293172836304, 1.5585134029388428, -1.9272401332855225, -0.65380859375, -0.052978515625, 0.66552734375, 0, 
78, 1473802100, 0.47654065, -0.49367896, -0.48825872, -0.5392529, 10.029399871826172, 0.5380374193191528, 0.32552823424339294, 1.142063856124878, 0.6605324149131775, -1.9364739656448364, -0.6572265625, -0.0576171875, 0.664794921875, 0, 
79, 1473818767, 0.47652122, -0.49356776, -0.48842412, -0.53922206, 10.052351951599121, 0.5183079242706299, 0.26446548104286194, 2.0160973072052, 0.14165744185447693, -0.9710928201675415, -0.655029296875, -0.0537109375, 0.666015625, 0, 
80, 1473835434, 0.4768602, -0.4932706, -0.48858106, -0.5390522, 9.988570213317871, 0.47257545590400696, 0.25582748651504517, 3.6269445419311523, 1.551918625831604, 0.19303655624389648, -0.654296875, -0.052490234375, 0.664794921875, 0, 
81, 1473852101, 0.47730327, -0.49285752, -0.48861086, -0.5390108, 9.930047988891602, 0.4287340044975281, 0.2385624200105667, 3.528104782104492, 3.189927577972412, 0.19555938243865967, -0.655029296875, -0.05712890625, 0.663818359375, 0, 
82, 1473868768, 0.47769254, -0.49243304, -0.48873967, -0.538937, 9.961885452270508, 0.3827085793018341, 0.2741599678993225, 4.513105869293213, 2.6567609310150146, -0.2579967677593231, -0.659423828125, -0.0537109375, 0.664306640625, 0, 
83, 1473885435, 0.4779043, -0.4919911, -0.4890556, -0.5388663, 9.947287559509277, 0.3666379153728485, 0.2867986857891083, 4.3195109367370605, 1.5026010274887085, -1.6445273160934448, -0.656005859375, -0.055419921875, 0.6630859375, 0, 
84, 1473902102, 0.47780934, -0.49157506, -0.48954242, -0.5388881, 9.926717758178711, 0.40741387009620667, 0.2411801964044571, 3.9942691326141357, 0.15533463656902313, -3.574969530105591, -0.654296875, -0.052001953125, 0.66259765625, 0, 
85, 1473918769, 0.47763607, -0.4911294, -0.4902557, -0.5387995, 10.015658378601074, 0.5108097791671753, 0.16831456124782562, 4.355433464050293, -1.152456283569336, -4.402618885040283, -0.65673828125, -0.05419921875, 0.661376953125, 0, 
86, 1473935436, 0.47771624, -0.49066132, -0.49065116, -0.5387952, 10.071144104003906, 0.5826676487922668, 0.10813015699386597, 4.3500800132751465, 1.155510663986206, -2.728316307067871, -0.656005859375, -0.05419921875, 0.660888671875, 0, 
87, 1473952103, 0.4783271, -0.4900634, -0.4906214, -0.5388245, 10.010677337646484, 0.5497927069664001, 0.08884380012750626, 4.5892133712768555, 4.936431884765625, 0.11495620757341385, -0.65771484375, -0.0537109375, 0.659912109375, 0, 
88, 1473968770, 0.4792007, -0.48937073, -0.49042678, -0.5388551, 9.944097518920898, 0.41988271474838257, 0.216791570186615, 5.208836555480957, 6.739798069000244, 1.3209177255630493, -0.659423828125, -0.0537109375, 0.660400390625, 0, 
89, 1473985437, 0.47962332, -0.4888715, -0.49028528, -0.5390608, 9.898275375366211, 0.3878763020038605, 0.3271404206752777, 2.84429669380188, 4.93476676940918, -0.45853134989738464, -0.656005859375, -0.05078125, 0.659912109375, 0, 
90, 1474002104, 0.47951856, -0.48857504, -0.4904764, -0.53924906, 9.93263053894043, 0.4220314025878906, 0.2757680416107178, 1.5056488513946533, 1.237855315208435, -2.8114163875579834, -0.658203125, -0.052734375, 0.65869140625, 0, 
91, 1474018771, 0.47929254, -0.48824424, -0.49084443, -0.5394145, 10.040940284729004, 0.5035739541053772, 0.15984588861465454, 2.016622304916382, 0.3049640357494354, -3.9031193256378174, -0.656005859375, -0.052490234375, 0.657470703125, 0, 
92, 1474035438, 0.47920296, -0.48790038, -0.49104157, -0.53962576, 10.005986213684082, 0.5752272009849548, 0.11144926398992538, 1.538740634918213, 1.532977819442749, -3.033350706100464, -0.655517578125, -0.055419921875, 0.65869140625, 0, 
93, 1474052105, 0.47910458, -0.48766416, -0.49086943, -0.5400832, 9.974457740783691, 0.6242994666099548, 0.11571043729782104, -0.7108293771743774, 3.1885576248168945, -2.2609357833862305, -0.6572265625, -0.05712890625, 0.6591796875, 0, 
94, 1474068772, 0.47903323, -0.4874808, -0.49065894, -0.54050314, 10.046547889709473, 0.6142252683639526, 0.1060822457075119, -0.4907521903514862, 3.1221628189086914, -1.7108772993087769, -0.659912109375, -0.05322265625, 0.656982421875, 0, 
95, 1474085439, 0.47924197, -0.4871973, -0.49039242, -0.54081523, 10.055292129516602, 0.5813265442848206, 0.1477239727973938, 0.18686385452747345, 4.2311859130859375, -0.4948117136955261, -0.662841796875, -0.055419921875, 0.6552734375, 0, 
96, 1474102106, 0.47963068, -0.48691145, -0.48992503, -0.54115176, 10.019486427307129, 0.49206772446632385, 0.24905911087989807, 0.29197198152542114, 5.629120349884033, 0.7723509669303894, -0.658935546875, -0.0576171875, 0.6552734375, 0, 
97, 1474118773, 0.4800623, -0.4865671, -0.48958066, -0.5413904, 10.003411293029785, 0.40810003876686096, 0.30744466185569763, 1.714456558227539, 5.2873005867004395, 0.6521826386451721, -0.659912109375, -0.05712890625, 0.654052734375, 0, 
98, 1474135440, 0.480553, -0.48601007, -0.4896019, -0.5414361, 10.060802459716797, 0.3982606828212738, 0.38949424028396606, 4.499107837677002, 4.421245574951172, -0.44941332936286926, -0.663330078125, -0.055419921875, 0.6513671875, 0, 
99, 1474152107, 0.48111036, -0.48528785, -0.48994163, -0.5412817, 10.024665832519531, 0.4372941255569458, 0.44375842809677124, 6.879618167877197, 3.5238537788391113, -1.1876611709594727, -0.663330078125, -0.05712890625, 0.65478515625, 0, 
100, 1474168774, 0.48152044, -0.4847345, -0.49018264, -0.5411946, 9.96444320678711, 0.5310348272323608, 0.5151787400245667, 6.233677864074707, 3.010331630706787, -1.0224336385726929, -0.6611328125, -0.054443359375, 0.650634765625, 0, 
101, 1474185441, 0.48204467, -0.48428175, -0.49041256, -0.540925, 9.911855697631836, 0.5814915299415588, 0.4847133159637451, 6.021168231964111, 2.385855197906494, 0.33517420291900635, -0.66455078125, -0.052734375, 0.6484375, 0, 
102, 1474202108, 0.4825113, -0.48397064, -0.49084967, -0.5403907, 9.8538236618042, 0.5652219653129578, 0.39780837297439575, 6.956660747528076, 0.08560407161712646, 0.7828972339630127, -0.6611328125, -0.051025390625, 0.650146484375, 0, 
103, 1474218775, 0.48276013, -0.4837502, -0.49127242, -0.53998137, 9.980116844177246, 0.5466110706329346, 0.29225727915763855, 5.501153469085693, -0.5201554894447327, -0.08750578761100769, -0.662841796875, -0.052734375, 0.650146484375, 0, 
104, 1474235442, 0.48316014, -0.48332784, -0.49142846, -0.5398599, 10.018245697021484, 0.5751909017562866, 0.2116621732711792, 4.899242401123047, 2.6062395572662354, -0.26965051889419556, -0.658203125, -0.051025390625, 0.650146484375, 0, 
105, 1474252109, 0.48405582, -0.48258248, -0.49124217, -0.539894, 9.998469352722168, 0.5719252824783325, 0.2900696098804474, 5.562945365905762, 7.1310577392578125, 1.085485816001892, -0.659912109375, -0.0537109375, 0.646728515625, 0, 
106, 1474268776, 0.48541763, -0.48165727, -0.49105456, -0.53966796, 10.016420364379883, 0.5210113525390625, 0.428079217672348, 9.383736610412598, 8.578139305114746, 3.12237548828125, -0.66162109375, -0.050537109375, 0.642822265625, 0, 
107, 1474285443, 0.48682678, -0.48078915, -0.49125448, -0.5389905, 9.90715217590332, 0.424272745847702, 0.509074330329895, 12.252591133117676, 5.732644557952881, 3.706281900405884, -0.666748046875, -0.050048828125, 0.645751953125, 0, 
108, 1474302110, 0.48765343, -0.48019582, -0.49178648, -0.5382865, 9.709685325622559, 0.432601660490036, 0.4433901011943817, 10.662960052490234, 1.539061188697815, 1.4528359174728394, -0.6650390625, -0.043212890625, 0.6435546875, 0, 
109, 1474318777, 0.48772702, -0.47982657, -0.4927957, -0.5376258, 9.79784870147705, 0.5627424716949463, 0.29106438159942627, 8.554086685180664, -3.3288192749023438, -2.3381454944610596, -0.666259765625, -0.0419921875, 0.64306640625, 0, 
110, 1474335444, 0.48728916, -0.47975525, -0.49384174, -0.5371264, 9.997955322265625, 0.7234988212585449, 0.0992189571261406, 5.314341068267822, -5.750173568725586, -3.8898589611053467, -0.662841796875, -0.04248046875, 0.645263671875, 0, 
111, 1474352111, 0.48686475, -0.47980198, -0.49431962, -0.53702974, 9.939201354980469, 0.842284619808197, -0.011962811462581158, 1.758849859237671, -2.8655810356140137, -2.891155242919922, -0.659912109375, -0.043212890625, 0.645751953125, 0, 
112, 1474368778, 0.4870377, -0.47965074, -0.4939672, -0.53733236, 9.955668449401855, 0.8144965767860413, 0.02832019329071045, -0.3350333571434021, 4.005455493927002, 0.04737069085240364, -0.662841796875, -0.044921875, 0.64404296875, 0, 
113, 1474385445, 0.48773837, -0.47943252, -0.49324843, -0.5375517, 9.945378303527832, 0.6413120031356812, 0.2558876574039459, 0.7202165126800537, 7.037603855133057, 3.284355640411377, -0.663818359375, -0.044921875, 0.6435546875, 0, 
114, 1474402112, 0.4882338, -0.47945607, -0.4928071, -0.5374859, 9.823629379272461, 0.4378109872341156, 0.44627100229263306, 1.4637274742126465, 3.60496187210083, 3.4049525260925293, -0.663818359375, -0.0419921875, 0.641845703125, 0, 
115, 1474418779, 0.4880718, -0.47976828, -0.4931078, -0.53707844, 9.882040977478027, 0.33353596925735474, 0.39788803458213806, 1.9209591150283813, -3.328204393386841, 0.6248155236244202, -0.66552734375, -0.043212890625, 0.642333984375, 0, 
116, 1474435446, 0.487506, -0.4801142, -0.49405077, -0.53641593, 10.068276405334473, 0.30767980217933655, 0.16811375319957733, 3.863248109817505, -7.80384635925293, -2.0230584144592285, -0.663330078125, -0.0419921875, 0.6435546875, 0, 
117, 1474452113, 0.48695025, -0.4801619, -0.4948574, -0.5361345, 9.96934986114502, 0.4194333255290985, 0.1391860544681549, 2.947728157043457, -4.947106838226318, -3.855929136276245, -0.658203125, -0.044677734375, 0.645263671875, 0, 
118, 1474468780, 0.4864184, -0.4799843, -0.49515945, -0.53649735, 9.986577987670898, 0.5678242444992065, 0.22300247848033905, 0.0887352004647255, -0.17310984432697296, -5.0179057121276855, -0.656982421875, -0.047607421875, 0.646240234375, 0, 
119, 1474485447, 0.48613548, -0.47983542, -0.49537197, -0.53669095, 10.041738510131836, 0.7011725902557373, 0.37828999757766724, 1.199289083480835, 0.33214545249938965, -3.133854627609253, -0.6611328125, -0.043701171875, 0.645263671875, 0, 
120, 1474502114, 0.48598677, -0.4800646, -0.4956145, -0.53639644, 9.950510025024414, 0.7111708521842957, 0.41420137882232666, 1.630914330482483, -2.352705955505371, 0.15781265497207642, -0.66162109375, -0.043701171875, 0.646484375, 0, 
121, 1474518781, 0.48572132, -0.480651, -0.49572292, -0.5360115, 9.94487190246582, 0.5748052000999451, 0.23289361596107483, -0.01999071054160595, -3.911891460418701, 1.7009841203689575, -0.66064453125, -0.043212890625, 0.65087890625, 0, 
122, 1474535448, 0.4855296, -0.48106784, -0.49581924, -0.53572214, 10.140325546264648, 0.43711796402931213, 0.058010999113321304, 0.2877330780029297, -2.6784160137176514, 1.1078646183013916, -0.659423828125, -0.04541015625, 0.648681640625, 0, 
123, 1474552115, 0.48563734, -0.48105985, -0.49553216, -0.53589725, 10.125391960144043, 0.36148571968078613, 0.07829324156045914, -0.17280887067317963, 2.755580425262451, 0.47505155205726624, -0.656005859375, -0.044189453125, 0.6513671875, 0, 
124, 1474568782, 0.48576194, -0.48077586, -0.49495426, -0.53657264, 9.921568870544434, 0.4044422507286072, 0.31209099292755127, -2.098743438720703, 6.465895175933838, -1.1350781917572021, -0.662841796875, -0.044189453125, 0.650390625, 0, 
125, 1474585449, 0.48537248, -0.48071656, -0.49460128, -0.5373033, 9.965682983398438, 0.5309736132621765, 0.4716683030128479, -3.8774242401123047, 3.326155424118042, -3.2048089504241943, -0.662841796875, -0.043701171875, 0.649169921875, 0, 
126, 1474602116, 0.48479024, -0.48102972, -0.49478808, -0.53737664, 10.058932304382324, 0.6720114946365356, 0.39645183086395264, -1.6631993055343628, -2.6950838565826416, -2.252342462539673, -0.662109375, -0.048828125, 0.6474609375, 0, 
127, 1474618783, 0.48458824, -0.48150635, -0.49458176, -0.53732204, 10.012667655944824, 0.6540480256080627, 0.27855417132377625, -1.657525897026062, -1.0955575704574585, 1.4571192264556885, -0.656982421875, -0.04541015625, 0.645751953125, 0, 
128, 1474635450, 0.48485187, -0.4818454, -0.49386236, -0.537442, 9.957367897033691, 0.5158125758171082, 0.15466606616973877, -2.426912307739258, 3.270447015762329, 3.8138461112976074, -0.660400390625, -0.048095703125, 0.64697265625, 0, 
129, 1474652117, 0.4851556, -0.48201495, -0.4932383, -0.53758883, 9.996063232421875, 0.4113894999027252, 0.19504611194133759, -1.3366692066192627, 3.829226493835449, 2.9856982231140137, -0.6640625, -0.044921875, 0.6474609375, 0, 
130, 1474668784, 0.4853582, -0.48197472, -0.49279732, -0.5378462, 10.061866760253906, 0.3802788555622101, 0.27349555492401123, -0.8231922388076782, 4.018280506134033, 0.9034432172775269, -0.662841796875, -0.044921875, 0.646240234375, 0, 
131, 1474685451, 0.48552203, -0.48182288, -0.49229562, -0.53829366, 9.951983451843262, 0.3985042870044708, 0.3886621296405792, -1.4416495561599731, 5.142166614532471, -0.06335301697254181, -0.66162109375, -0.044921875, 0.644775390625, 0, 
132, 1474702118, 0.48538053, -0.4818564, -0.4921593, -0.53851587, 9.84814739227295, 0.4857397675514221, 0.47483208775520325, -0.9741725921630859, 1.4560307264328003, -1.037051796913147, -0.662841796875, -0.047607421875, 0.64697265625, 0, 
133, 1474718785, 0.48494017, -0.4821266, -0.4924519, -0.5384034, 9.947172164916992, 0.6159219145774841, 0.38661104440689087, 0.15511052310466766, -2.9611546993255615, -1.6402822732925415, -0.66455078125, -0.047607421875, 0.645263671875, 0, 
134, 1474735452, 0.48462206, -0.48248902, -0.49264982, -0.53818387, 10.031023025512695, 0.6676657795906067, 0.25007981061935425, 0.21683712303638458, -2.930912733078003, -0.20487597584724426, -0.66162109375, -0.0458984375, 0.649169921875, 0, 
135, 1474752119, 0.48498124, -0.4825434, -0.49212486, -0.5382921, 10.074185371398926, 0.5926973819732666, 0.22565318644046783, -0.49840396642684937, 3.9957354068756104, 2.5579922199249268, -0.663330078125, -0.047607421875, 0.646240234375, 0, 
136, 1474768786, 0.48589626, -0.482282, -0.49122065, -0.53852695, 10.108816146850586, 0.4381328821182251, 0.4207339882850647, 0.8832414746284485, 8.76369571685791, 4.4026198387146, -0.662109375, -0.043701171875, 0.646484375, 0, 
137, 1474785453, 0.48673406, -0.48199695, -0.49062687, -0.53856695, 9.976560592651367, 0.32957687973976135, 0.6168379187583923, 2.064934730529785, 6.875986576080322, 3.6230063438415527, -0.663818359375, -0.042724609375, 0.64306640625, 0, 
138, 1474802120, 0.48687, -0.48194712, -0.49086627, -0.53827035, 9.927517890930176, 0.3429073989391327, 0.6112297177314758, 3.218440294265747, -0.2761176824569702, 0.1699274331331253, -0.66552734375, -0.04541015625, 0.64404296875, 0, 
139, 1474818787, 0.48627567, -0.482311, -0.4918998, -0.53753763, 9.937494277954102, 0.4805321991443634, 0.35878655314445496, 4.235483646392822, -8.35818099975586, -2.295794725418091, -0.662841796875, -0.04248046875, 0.646484375, 0, 
140, 1474835454, 0.48555124, -0.4827214, -0.49297687, -0.536837, 9.963574409484863, 0.6313986778259277, 0.03968287259340286, 3.4097108840942383, -9.02476692199707, -2.894223213195801, -0.662353515625, -0.043212890625, 0.6474609375, 0, 
141, 1474852121, 0.48543578, -0.4826335, -0.49317622, -0.53683734, 10.044571876525879, 0.7187489867210388, -0.026103077456355095, 1.4595398902893066, 0.15863226354122162, -1.7581775188446045, -0.662353515625, -0.043701171875, 0.648681640625, 0, 
142, 1474868788, 0.48608857, -0.48217544, -0.49239573, -0.53737444, 10.052763938903809, 0.6823881268501282, 0.20052020251750946, -0.04452769085764885, 9.21771240234375, 1.3013752698898315, -0.662109375, -0.04248046875, 0.645751953125, 0, 
143, 1474885455, 0.4873042, -0.4817073, -0.4915423, -0.5374749, 9.94426441192627, 0.4397750198841095, 0.49208855628967285, 2.951115846633911, 9.96030330657959, 5.049142837524414, -0.663818359375, -0.04150390625, 0.6435546875, 0, 
144, 1474902122, 0.48837546, -0.481329, -0.491775, -0.53662753, 9.918665885925293, 0.137625053524971, 0.5732229948043823, 9.403053283691406, 2.3587636947631836, 4.391746997833252, -0.66455078125, -0.039306640625, 0.642578125, 0, 
145, 1474918789, 0.488526, -0.48092687, -0.49353942, -0.5352293, 9.954033851623535, 0.053428567945957184, 0.3628222346305847, 14.029585838317871, -7.638603687286377, -2.3284335136413574, -0.659912109375, -0.03857421875, 0.64306640625, 0, 
146, 1474935456, 0.48781893, -0.4801531, -0.4958943, -0.5343919, 10.000216484069824, 0.29414036870002747, 0.11593347787857056, 12.94980525970459, -9.290916442871094, -10.600842475891113, -0.65771484375, -0.039794921875, 0.646484375, 0, 
147, 1474952123, 0.4871507, -0.4787384, -0.4975512, -0.5347305, 10.203031539916992, 0.6648023724555969, 0.03292306512594223, 8.896330833435059, -0.5450003743171692, -14.288213729858398, -0.660400390625, -0.04150390625, 0.644775390625, 0, 
148, 1474968790, 0.48766977, -0.47688168, -0.49808648, -0.53541744, 10.258646011352539, 0.8435158133506775, 0.15305887162685394, 8.893275260925293, 10.063982009887695, -8.910223960876465, -0.66455078125, -0.043212890625, 0.64404296875, 0, 
149, 1474985457, 0.48893204, -0.474851, -0.49784353, -0.5362964, 10.1272554397583, 0.7017502784729004, 0.453599214553833, 8.709136962890625, 16.52843475341797, -4.828372001647949, -0.662841796875, -0.042724609375, 0.638916015625, 0, 
150, 1475002124, 0.48990864, -0.47279575, -0.4977636, -0.53729445, 10.116998672485352, 0.5053918957710266, 0.6050872206687927, 8.004305839538574, 15.477229118347168, -6.892513751983643, -0.66943359375, -0.0439453125, 0.63330078125, 0, 
151, 1475018791, 0.49019432, -0.47075456, -0.49846926, -0.5381711, 10.099623680114746, 0.49620941281318665, 0.615077555179596, 8.56528091430664, 9.979795455932617, -11.57692813873291, -0.6689453125, -0.04443359375, 0.63232421875, 0, 
152, 1475035458, 0.490208, -0.4685415, -0.49956635, -0.53907186, 10.02975845336914, 0.6278510689735413, 0.5285512208938599, 10.206571578979492, 8.481476783752441, -14.496371269226074, -0.670166015625, -0.046630859375, 0.62890625, 0, 
153, 1475052125, 0.49013814, -0.46624795, -0.50034887, -0.5403967, 9.963973999023438, 0.8283100128173828, 0.4657840430736542, 8.192061424255371, 10.976051330566406, -15.460630416870117, -0.66943359375, -0.05126953125, 0.626953125, 0, 
154, 1475068792, 0.49010733, -0.46385154, -0.5007828, -0.5420823, 9.8816499710083, 0.9962596297264099, 0.40814271569252014, 6.081707000732422, 13.83492660522461, -15.756401062011719, -0.6728515625, -0.052978515625, 0.62353515625, 0, 
155, 1475085459, 0.48997283, -0.46160388, -0.5005314, -0.54435, 9.912840843200684, 1.1375162601470947, 0.5604297518730164, 0.5136764645576477, 17.09064292907715, -15.401079177856445, -0.678955078125, -0.060302734375, 0.615478515625, 0, 
156, 1475102126, 0.4897071, -0.4598394, -0.49934596, -0.54716384, 9.923527717590332, 1.190863013267517, 0.7385273575782776, -6.920816898345947, 19.721628189086914, -13.074882507324219, -0.681884765625, -0.06103515625, 0.6162109375, 0, 
157, 1475118793, 0.48935628, -0.45869255, -0.49802583, -0.5496379, 9.831549644470215, 1.1106576919555664, 0.8386210203170776, -8.774609565734863, 16.46040916442871, -9.699166297912598, -0.68310546875, -0.07177734375, 0.60986328125, 0, 
158, 1475135460, 0.4890149, -0.45788893, -0.49706283, -0.5514807, 9.771467208862305, 0.9506338834762573, 0.8722476959228516, -6.416018009185791, 12.000237464904785, -7.4691362380981445, -0.685791015625, -0.071044921875, 0.608642578125, 0, 
159, 1475152127, 0.48859698, -0.4572011, -0.49647656, -0.552948, 9.805337905883789, 0.8198952674865723, 0.7763565182685852, -4.5170512199401855, 8.816215515136719, -7.308465480804443, -0.689697265625, -0.0751953125, 0.605224609375, 0, 
160, 1475168794, 0.4880649, -0.45648724, -0.49599952, -0.5544336, 9.865851402282715, 0.7397345900535583, 0.7259446382522583, -4.594132423400879, 8.200895309448242, -8.255264282226562, -0.68798828125, -0.0751953125, 0.604736328125, 0, 
161, 1475185461, 0.48725587, -0.45581055, -0.49544713, -0.556193, 9.889806747436523, 0.742110013961792, 0.7878440022468567, -6.919084072113037, 8.219191551208496, -9.892322540283203, -0.692626953125, -0.080322265625, 0.601806640625, 0, 
162, 1475202128, 0.4859473, -0.4554172, -0.49504802, -0.55801255, 9.815666198730469, 0.9107419848442078, 0.8624088168144226, -8.888786315917969, 5.133967876434326, -11.513873100280762, -0.692138671875, -0.085205078125, 0.60009765625, 0, 
163, 1475218795, 0.48409823, -0.45553952, -0.49476656, -0.5597669, 9.790678977966309, 1.116684079170227, 0.92977374792099, -11.745795249938965, 0.708294153213501, -11.997671127319336, -0.69140625, -0.08984375, 0.599853515625, 0, 
164, 1475235462, 0.48222783, -0.45610192, -0.49461886, -0.5610522, 9.772351264953613, 1.2690601348876953, 0.8324137330055237, -11.08497428894043, -2.964601755142212, -9.426972389221191, -0.69091796875, -0.0908203125, 0.60205078125, 0, 
165, 1475252129, 0.48075032, -0.457001, -0.49418244, -0.5619724, 9.782285690307617, 1.243687391281128, 0.6819937825202942, -10.96776008605957, -3.1293997764587402, -4.651703834533691, -0.69140625, -0.095458984375, 0.603759765625, 0, 
166, 1475268796, 0.47965422, -0.45806858, -0.49351555, -0.5626255, 9.815427780151367, 1.0457433462142944, 0.5179163813591003, -10.25983715057373, -2.543508768081665, -0.9807747006416321, -0.69140625, -0.09765625, 0.6025390625, 0, 
167, 1475285463, 0.478946, -0.45903882, -0.492903, -0.562975, 9.764602661132812, 0.7850656509399414, 0.437540739774704, -7.514094352722168, -1.972171425819397, 1.0147496461868286, -0.69140625, -0.098876953125, 0.606689453125, 0, 
168, 1475302130, 0.4784734, -0.4595043, -0.4925913, -0.56327003, 9.843265533447266, 0.6113260388374329, 0.44128355383872986, -3.7647409439086914, -0.3600313663482666, -0.57234787940979, -0.6904296875, -0.10205078125, 0.607177734375, 0, 
169, 1475318797, 0.47806087, -0.45964605, -0.49274, -0.5633744, 9.869653701782227, 0.6149991750717163, 0.5731884241104126, -0.049707844853401184, -0.9905776381492615, -2.2860679626464844, -0.689697265625, -0.098876953125, 0.6083984375, 0, 
170, 1475335464, 0.47724468, -0.45985433, -0.49359035, -0.56315213, 9.826976776123047, 0.7960259914398193, 0.6895386576652527, 2.082479238510132, -5.969034671783447, -4.820343017578125, -0.69091796875, -0.102783203125, 0.608154296875, 0, 
171, 1475352131, 0.47598603, -0.46021408, -0.49450466, -0.5631214, 9.987212181091309, 1.1068967580795288, 0.7284448742866516, -0.06207240745425224, -7.630756378173828, -6.851579189300537, -0.68798828125, -0.102783203125, 0.60986328125, 0, 
172, 1475368798, 0.4749, -0.4607252, -0.49469477, -0.56345326, 10.102316856384277, 1.3711519241333008, 0.8041263818740845, -3.979022741317749, -4.101938247680664, -4.559521675109863, -0.688720703125, -0.106689453125, 0.611572265625, 0, 
173, 1475385465, 0.4742663, -0.46160012, -0.49389726, -0.56397015, 10.003610610961914, 1.4536134004592896, 0.9734757542610168, -8.134088516235352, -0.1536698192358017, 0.973884642124176, -0.688720703125, -0.10546875, 0.61328125, 0, 
174, 1475402132, 0.47404003, -0.4630435, -0.49255708, -0.56414926, 9.968547821044922, 1.216629147529602, 1.0229474306106567, -9.7568941116333, -0.3075958788394928, 7.315484523773193, -0.688232421875, -0.10498046875, 0.614990234375, 0, 
175, 1475418799, 0.47410557, -0.46468684, -0.49190664, -0.56330985, 9.91325855255127, 0.8400543928146362, 0.8488699197769165, -3.4130797386169434, -5.611636161804199, 10.246941566467285, -0.6875, -0.103759765625, 0.615478515625, 0, 
176, 1475435466, 0.47415727, -0.46616757, -0.49172518, -0.5622002, 9.840983390808105, 0.5611629486083984, 0.6103222966194153, -0.1775665134191513, -7.4248366355896, 9.012434005737305, -0.68408203125, -0.100830078125, 0.61962890625, 0, 
177, 1475452133, 0.47403452, -0.46695164, -0.4919298, -0.56147367, 9.90272331237793, 0.5143164992332458, 0.4805822968482971, 1.7445836067199707, -5.348719596862793, 3.4672043323516846, -0.68359375, -0.100830078125, 0.618896484375, 0, 
178, 1475468800, 0.4736644, -0.46726218, -0.49220544, -0.56128615, 9.949128150939941, 0.7468554973602295, 0.613187849521637, 0.924810528755188, -2.846179246902466, -1.106231689453125, -0.6806640625, -0.100341796875, 0.623046875, 0, 
179, 1475485467, 0.47311723, -0.46763387, -0.49246168, -0.56121325, 9.869818687438965, 1.062356948852539, 0.7146332263946533, -0.23440104722976685, -3.2383995056152344, -1.9053480625152588, -0.68359375, -0.099853515625, 0.62353515625, 0, 
180, 1475502134, 0.47268137, -0.46836248, -0.49257794, -0.5608708, 9.997655868530273, 1.2740976810455322, 0.7307382225990295, -0.8611181378364563, -4.6783576011657715, 1.0433589220046997, -0.6826171875, -0.096923828125, 0.62353515625, 0, 
181, 1475518801, 0.47269416, -0.46939695, -0.4922762, -0.56025994, 10.102210998535156, 1.1810681819915771, 0.6303392052650452, -1.4341384172439575, -3.8922922611236572, 6.009521007537842, -0.68310546875, -0.099609375, 0.625732421875, 0, 
182, 1475535468, 0.47328284, -0.47021127, -0.4914932, -0.5597672, 10.060888290405273, 0.9293304085731506, 0.54963618516922, -0.6761817336082458, 0.9099937081336975, 8.702709197998047, -0.68359375, -0.0986328125, 0.624755859375, 0, 
183, 1475552135, 0.4739521, -0.47066963, -0.49048948, -0.55969596, 10.01448917388916, 0.7681378722190857, 0.6460216045379639, -1.4771424531936646, 4.644352436065674, 7.153706073760986, -0.68310546875, -0.0947265625, 0.624755859375, 0, 
184, 1475568802, 0.47416648, -0.47100928, -0.48981696, -0.55981773, 9.952118873596191, 0.767831563949585, 0.8066050410270691, -2.0656964778900146, 3.090210437774658, 3.275505542755127, -0.6796875, -0.093994140625, 0.62255859375, 0, 
185, 1475585469, 0.47388774, -0.47154847, -0.48969233, -0.5597089, 10.030735969543457, 0.9551633596420288, 0.8199722170829773, -1.3732632398605347, -1.8750288486480713, 1.0216137170791626, -0.68310546875, -0.096435546875, 0.625244140625, 0, 
186, 1475602136, 0.4736456, -0.47232252, -0.48974407, -0.5592157, 10.085661888122559, 1.070676326751709, 0.6411346793174744, 0.01751268468797207, -4.473361015319824, 2.642366409301758, -0.6796875, -0.09228515625, 0.62646484375, 0, 
187, 1475618803, 0.47379088, -0.4730947, -0.48944125, -0.55870473, 10.016940116882324, 1.0422254800796509, 0.44417765736579895, -0.347090482711792, -2.1091291904449463, 5.3084821701049805, -0.681396484375, -0.09228515625, 0.6298828125, 0, 
188, 1475635470, 0.47431275, -0.47353822, -0.48870322, -0.5585322, 10.021173477172852, 0.942398190498352, 0.4077437222003937, -0.7413403987884521, 2.9623265266418457, 5.980143070220947, -0.67578125, -0.091796875, 0.628173828125, 0, 
189, 1475652137, 0.4750575, -0.47359297, -0.48776338, -0.55867445, 9.993036270141602, 0.8720909357070923, 0.5913121700286865, -0.6117914319038391, 6.901676177978516, 5.162201881408691, -0.677978515625, -0.0888671875, 0.627197265625, 0, 
190, 1475668804, 0.47562686, -0.47365135, -0.48688832, -0.5589037, 9.830204010009766, 0.8878495693206787, 0.7918128371238708, -1.1100225448608398, 6.378178119659424, 4.011525630950928, -0.684326171875, -0.08740234375, 0.623779296875, 0, 
191, 1475685471, 0.4757873, -0.47406697, -0.48643997, -0.55880517, 9.845019340515137, 0.9284324645996094, 0.8474500179290771, -1.1802140474319458, 1.1303526163101196, 3.2910525798797607, -0.680908203125, -0.08740234375, 0.624267578125, 0, 
192, 1475702138, 0.47578233, -0.47474992, -0.48655957, -0.55812514, 9.892030715942383, 0.9199168086051941, 0.6379045248031616, 1.469759225845337, -4.2171630859375, 3.6014277935028076, -0.680908203125, -0.087890625, 0.624267578125, 0, 
193, 1475718805, 0.4760626, -0.4751851, -0.48653415, -0.55753744, 9.961181640625, 0.892527163028717, 0.4611171782016754, 2.5372393131256104, -1.5123660564422607, 4.062193393707275, -0.678466796875, -0.083984375, 0.6259765625, 0, 
194, 1475735472, 0.47679022, -0.47518754, -0.4859121, -0.5574562, 9.915443420410156, 0.8485312461853027, 0.49574244022369385, 1.3875809907913208, 5.247492790222168, 4.6144232749938965, -0.677978515625, -0.08837890625, 0.6259765625, 0, 
195, 1475752139, 0.47748286, -0.4751416, -0.48495588, -0.55773515, 9.8678617477417, 0.8363791704177856, 0.6980122923851013, -0.6398885846138, 7.653933048248291, 4.280881881713867, -0.6826171875, -0.082275390625, 0.620361328125, 0, 
196, 1475768806, 0.47803798, -0.47516876, -0.4843949, -0.55772406, 9.888614654541016, 0.8428971171379089, 0.8297421336174011, 0.7098560333251953, 4.605842590332031, 3.608112335205078, -0.681884765625, -0.085693359375, 0.62158203125, 0, 
197, 1475785473, 0.47831583, -0.4754794, -0.48436418, -0.5572477, 9.929631233215332, 0.867279589176178, 0.8150427341461182, 2.7279701232910156, -0.6372503638267517, 3.32377290725708, -0.680908203125, -0.08056640625, 0.6220703125, 0, 
198, 1475802140, 0.47851518, -0.47593924, -0.48431176, -0.5567292, 9.946812629699707, 0.8567173480987549, 0.707455039024353, 1.8485839366912842, -1.5749826431274414, 3.7049412727355957, -0.680908203125, -0.078857421875, 0.623291015625, 0, 
199, 1475818807, 0.4788644, -0.4763151, -0.48403478, -0.556348, 9.998586654663086, 0.8118840456008911, 0.5700326561927795, 1.0471686124801636, 0.40746602416038513, 4.263611316680908, -0.680908203125, -0.08056640625, 0.62109375, 0, 
200, 1475835474, 0.47946858, -0.47651467, -0.4835693, -0.55606157, 10.008978843688965, 0.7347679138183594, 0.5747905373573303, 1.661982536315918, 2.8956823348999023, 4.988803863525391, -0.68310546875, -0.078369140625, 0.622802734375, 0, 
201, 1475852141, 0.4802309, -0.47652394, -0.48319414, -0.5557218, 9.928266525268555, 0.6752321720123291, 0.6765495538711548, 3.1575469970703125, 3.662975311279297, 4.820374965667725, -0.6806640625, -0.075439453125, 0.618896484375, 0, 
202, 1475868808, 0.48057136, -0.4767158, -0.48310167, -0.5553432, 9.872879981994629, 0.6835590600967407, 0.7407475113868713, 2.4170069694519043, 0.5025467872619629, 3.0143589973449707, -0.681396484375, -0.074951171875, 0.619384765625, 0, 
203, 1475885475, 0.48051625, -0.47714123, -0.4831757, -0.55496097, 9.968334197998047, 0.765609085559845, 0.6311776041984558, 0.8834844827651978, -2.276949882507324, 1.7346712350845337, -0.680908203125, -0.071533203125, 0.62109375, 0, 
204, 1475902142, 0.48057002, -0.4775823, -0.48325115, -0.55446917, 10.010496139526367, 0.7789351940155029, 0.5137807130813599, 1.2527300119400024, -2.3699238300323486, 2.527627944946289, -0.6796875, -0.074951171875, 0.6220703125, 0, 
205, 1475918809, 0.48074096, -0.4779358, -0.48314577, -0.5541083, 9.950165748596191, 0.7681424617767334, 0.521622359752655, 1.3294847011566162, -0.5560388565063477, 2.906881093978882, -0.67578125, -0.06884765625, 0.621826171875, 0, 
206, 1475935476, 0.4809609, -0.47825053, -0.48278254, -0.55396223, 9.978046417236328, 0.7237470149993896, 0.5229161977767944, -0.7903246283531189, 1.247965931892395, 3.028381586074829, -0.68017578125, -0.072265625, 0.622314453125, 0, 
207, 1475952143, 0.4812227, -0.4785235, -0.4825122, -0.5537346, 9.98399829864502, 0.6876473426818848, 0.5312835574150085, 0.5477467775344849, 1.0219402313232422, 3.064066171646118, -0.6796875, -0.071044921875, 0.623291015625, 0, 
208, 1475968810, 0.48161432, -0.47866118, -0.48222825, -0.5535224, 10.030263900756836, 0.6484253406524658, 0.6213443875312805, 1.2804495096206665, 2.0664777755737305, 3.099655866622925, -0.678466796875, -0.072021484375, 0.622314453125, 0, 
209, 1475985477, 0.4818002, -0.4789139, -0.48199087, -0.5533489, 9.998547554016113, 0.6198358535766602, 0.6847904920578003, 0.6334148645401001, 0.953176736831665, 2.453517198562622, -0.6796875, -0.06982421875, 0.62158203125, 0, 
210, 1476002144, 0.48164567, -0.47933486, -0.48212096, -0.55300546, 10.000486373901367, 0.6357642412185669, 0.7056604623794556, 0.5892585515975952, -2.622093439102173, 1.032511830329895, -0.681884765625, -0.067626953125, 0.6240234375, 0, 
211, 1476018811, 0.4813295, -0.4798282, -0.4825831, -0.5524494, 10.025236129760742, 0.714573323726654, 0.5879334807395935, 1.5813536643981934, -5.255270957946777, 0.24307730793952942, -0.68017578125, -0.06640625, 0.62353515625, 0, 
212, 1476035478, 0.4812487, -0.4801728, -0.48285055, -0.55198663, 9.954075813293457, 0.7982203960418701, 0.5698660612106323, 1.2656387090682983, -2.996128797531128, 0.9365795850753784, -0.678466796875, -0.06884765625, 0.625, 0, 
213, 1476052145, 0.48121548, -0.48050204, -0.48246598, -0.5520655, 9.921680450439453, 0.789175808429718, 0.650530219078064, -2.0056023597717285, 1.2333667278289795, 1.5071921348571777, -0.67578125, -0.068115234375, 0.62841796875, 0, 
214, 1476068812, 0.48122504, -0.48094952, -0.48218733, -0.55191076, 9.975639343261719, 0.7313939332962036, 0.6994050145149231, -1.2734507322311401, -0.21476249396800995, 2.475102424621582, -0.67578125, -0.06640625, 0.6279296875, 0, 
215, 1476085479, 0.48122117, -0.481572, -0.48232794, -0.55124825, 9.96999740600586, 0.6552920937538147, 0.6958209872245789, 1.0360594987869263, -4.0195231437683105, 3.272740125656128, -0.677490234375, -0.06640625, 0.629150390625, 0, 
216, 1476102146, 0.4810628, -0.48229387, -0.4826317, -0.550489, 9.93675422668457, 0.5686858296394348, 0.5470907092094421, 1.5174885988235474, -5.744704246520996, 2.8299601078033447, -0.6787109375, -0.064697265625, 0.62841796875, 0, 
217, 1476118813, 0.48065355, -0.48292005, -0.4831075, -0.5498796, 9.962371826171875, 0.5683290362358093, 0.46251577138900757, 0.8111671805381775, -6.309952735900879, 0.4670861065387726, -0.67236328125, -0.064208984375, 0.63037109375, 0, 
218, 1476135480, 0.47999787, -0.48343745, -0.4835586, -0.5496011, 10.045117378234863, 0.6192816495895386, 0.4361397922039032, -0.4885302484035492, -5.506147861480713, -1.8129757642745972, -0.670654296875, -0.065185546875, 0.63427734375, 0, 
219, 1476152147, 0.47956786, -0.4838482, -0.48376518, -0.54943323, 10.05356502532959, 0.6916931867599487, 0.46602195501327515, -0.743267834186554, -3.17758846282959, -0.8693846464157104, -0.677001953125, -0.065185546875, 0.6376953125, 0, 
220, 1476168814, 0.47925502, -0.48437104, -0.4840262, -0.5490156, 9.953393936157227, 0.6890014410018921, 0.5872645974159241, 0.032284803688526154, -4.238165378570557, 0.5728792548179626, -0.6728515625, -0.064697265625, 0.634765625, 0, 
221, 1476185481, 0.47886947, -0.48500112, -0.4844862, -0.5483897, 9.915026664733887, 0.6441591382026672, 0.566586971282959, 0.9554562568664551, -6.232230186462402, 0.6887768507003784, -0.666748046875, -0.06787109375, 0.640380859375, 0, 
222, 1476202148, 0.47821644, -0.48577398, -0.4850598, -0.54776806, 9.89470386505127, 0.6110281944274902, 0.5004242062568665, 0.8472554683685303, -7.9642252922058105, -0.1713169664144516, -0.67138671875, -0.0634765625, 0.639404296875, 0, 
223, 1476218815, 0.47773898, -0.48640501, -0.48558295, -0.54716086, 9.938672065734863, 0.5651834607124329, 0.3936415910720825, 0.8245881199836731, -6.69200325012207, 0.07585202157497406, -0.66796875, -0.061767578125, 0.642822265625, 0, 
224, 1476235482, 0.47744468, -0.48678827, -0.4860951, -0.5466218, 9.95828628540039, 0.5163450241088867, 0.38459697365760803, 1.5815460681915283, -4.910396575927734, -0.2763034403324127, -0.669677734375, -0.06689453125, 0.64208984375, 0, 
225, 1476252149, 0.47709092, -0.4870138, -0.48653355, -0.54633963, 9.91392993927002, 0.5374186038970947, 0.46555352210998535, 1.6629303693771362, -3.349212884902954, -1.563047170639038, -0.666259765625, -0.064453125, 0.647216796875, 0, 
226, 1476268816, 0.47649744, -0.4872643, -0.4870955, -0.5461334, 9.930704116821289, 0.6560470461845398, 0.5294867157936096, 0.5539003610610962, -4.428557872772217, -3.073364019393921, -0.669677734375, -0.06396484375, 0.64501953125, 0, 
227, 1476285483, 0.47577998, -0.48771062, -0.48782966, -0.545705, 9.995020866394043, 0.7409716248512268, 0.45841774344444275, 0.764693021774292, -6.9030022621154785, -2.73740291595459, -0.666748046875, -0.064453125, 0.6484375, 0, 
228, 1476302150, 0.47542134, -0.48823103, -0.4884116, -0.5450312, 9.996114730834961, 0.7350624203681946, 0.38196298480033875, 2.069096565246582, -6.299860000610352, 0.1833101063966751, -0.666259765625, -0.0673828125, 0.65234375, 0, 
229, 1476318817, 0.475296, -0.48870656, -0.4884616, -0.54466975, 9.947957992553711, 0.6050466895103455, 0.336800754070282, 0.5462805032730103, -2.521871566772461, 1.7101856470108032, -0.662353515625, -0.065673828125, 0.65234375, 0, 
230, 1476335484, 0.47515607, -0.48893556, -0.4884039, -0.5446381, 9.983222007751465, 0.5236604809761047, 0.3402761220932007, -0.4236084818840027, -0.20221227407455444, 0.09956938028335571, -0.6650390625, -0.064453125, 0.65234375, 0, 
231, 1476352151, 0.47486997, -0.48906764, -0.4885409, -0.54464585, 10.013158798217773, 0.5456295013427734, 0.4356323480606079, -0.23182053864002228, -0.8495476841926575, -1.5714802742004395, -0.66455078125, -0.068359375, 0.650634765625, 0, 
232, 1476368818, 0.47443074, -0.48933652, -0.48874453, -0.5446045, 9.954819679260254, 0.6282700896263123, 0.46350017189979553, -0.12456736713647842, -2.2198524475097656, -1.721596121788025, -0.662353515625, -0.064453125, 0.65234375, 0, 
233, 1476385485, 0.47382218, -0.48985788, -0.48898655, -0.5444483, 9.991103172302246, 0.6741330027580261, 0.4167431592941284, -1.5151257514953613, -4.287188529968262, -1.285008430480957, -0.666748046875, -0.0673828125, 0.65283203125, 0, 
234, 1476402152, 0.47302818, -0.4905721, -0.48922017, -0.5442857, 10.037808418273926, 0.7109568119049072, 0.3071787357330322, -2.6427764892578125, -5.623544692993164, -1.2735981941223145, -0.66455078125, -0.0673828125, 0.65673828125, 0, 
235, 1476418819, 0.47216997, -0.49126747, -0.4892705, -0.54435855, 10.042428016662598, 0.7451039552688599, 0.18664300441741943, -4.41878604888916, -4.388512134552002, -1.725341796875, -0.659423828125, -0.067138671875, 0.657470703125, 0, 
236, 1476435486, 0.471499, -0.4919407, -0.48869985, -0.5448445, 10.068340301513672, 0.7496912479400635, 0.23237276077270508, -7.5255560874938965, -0.26613521575927734, -0.3409499228000641, -0.662353515625, -0.072265625, 0.65966796875, 0, 
237, 1476452153, 0.47122607, -0.49257562, -0.48768902, -0.5454124, 10.076201438903809, 0.6304347515106201, 0.29746416211128235, -7.493649959564209, 2.9537851810455322, 2.2681972980499268, -0.66064453125, -0.070068359375, 0.657958984375, 0, 
238, 1476468820, 0.471262, -0.4930575, -0.48699066, -0.54557, 9.93664836883545, 0.47198057174682617, 0.40773358941078186, -3.9528400897979736, 2.123356819152832, 3.165781259536743, -0.6611328125, -0.07177734375, 0.657958984375, 0, 
239, 1476485487, 0.47101516, -0.49356183, -0.48684663, -0.54545563, 9.908689498901367, 0.40392518043518066, 0.45604458451271057, -1.7057483196258545, -1.6128636598587036, 1.1862648725509644, -0.662353515625, -0.07177734375, 0.658935546875, 0, 
240, 1476502154, 0.47040972, -0.4941123, -0.48736027, -0.5450209, 10.008325576782227, 0.46745115518569946, 0.3481724262237549, 0.45089879631996155, -6.2124247550964355, -1.2075237035751343, -0.65478515625, -0.072265625, 0.658935546875, 0, 
241, 1476518821, 0.46973616, -0.49474, -0.48790944, -0.544541, 9.930625915527344, 0.5882904529571533, 0.19154435396194458, 0.23100097477436066, -7.004286766052246, -1.1872832775115967, -0.661865234375, -0.070556640625, 0.665283203125, 0, 
242, 1476535488, 0.4691535, -0.4953577, -0.48785523, -0.54453015, 9.882365226745605, 0.6611698269844055, 0.1649383306503296, -3.367903709411621, -3.120690107345581, -0.34460610151290894, -0.658447265625, -0.071044921875, 0.6640625, 0, 
243, 1476552155, 0.4686278, -0.4959887, -0.48743534, -0.5447844, 9.917598724365234, 0.689113199710846, 0.1756681203842163, -5.48172664642334, -0.8951063752174377, 0.30649441480636597, -0.658203125, -0.074462890625, 0.661865234375, 0, 
244, 1476568822, 0.46806225, -0.49673644, -0.4868557, -0.5451076, 9.962409019470215, 0.6723847985267639, 0.24914412200450897, -6.631839275360107, -0.7030366659164429, 0.8789638876914978, -0.65771484375, -0.07177734375, 0.66796875, 0, 
245, 1476585489, 0.46763363, -0.49755427, -0.48612684, -0.5453801, 9.918895721435547, 0.5808109045028687, 0.2733299136161804, -7.084506034851074, -0.22077512741088867, 2.2979462146759033, -0.658935546875, -0.07275390625, 0.666259765625, 0, 
246, 1476602156, 0.46729186, -0.49843952, -0.4855252, -0.5454005, 9.896470069885254, 0.48419854044914246, 0.22508157789707184, -5.657819747924805, -1.4550191164016724, 3.223761796951294, -0.655517578125, -0.07177734375, 0.668701171875, 0, 
247, 1476618823, 0.46703127, -0.49917427, -0.48540986, -0.5450542, 9.922492027282715, 0.36564818024635315, 0.1704678237438202, -1.766111135482788, -3.434919595718384, 2.5364582538604736, -0.6572265625, -0.073974609375, 0.669677734375, 0, 
248, 1476635490, 0.4666958, -0.49967936, -0.4857065, -0.54461443, 9.850844383239746, 0.3802773952484131, 0.15010178089141846, 0.5888552069664001, -4.465638160705566, 0.3649233281612396, -0.65771484375, -0.072265625, 0.669677734375, 0, 
249, 1476652157, 0.4661812, -0.5000716, -0.48602802, -0.54440826, 9.879810333251953, 0.5027400255203247, 0.1609106808900833, -0.43932175636291504, -3.923443078994751, -1.5269008874893188, -0.65673828125, -0.07275390625, 0.671875, 0, 
250, 1476668824, 0.46556297, -0.5006302, -0.4863219, -0.5441614, 9.926660537719727, 0.6245642304420471, 0.14567585289478302, -1.274699330329895, -4.940863132476807, -1.1353278160095215, -0.65673828125, -0.070556640625, 0.6708984375, 0, 
251, 1476685491, 0.4650277, -0.50132674, -0.48658574, -0.543742, 9.918987274169922, 0.6481112837791443, 0.10879939049482346, -1.1308262348175049, -5.688426494598389, 0.291933536529541, -0.655029296875, -0.0732421875, 0.673583984375, 0, 
252, 1476702158, 0.4645793, -0.50203496, -0.48678765, -0.5432909, 9.95362377166748, 0.6286084651947021, 0.04991156607866287, -0.8219308257102966, -5.341035842895508, 0.9770606160163879, -0.651611328125, -0.075439453125, 0.6787109375, 0, 
253, 1476718825, 0.46417752, -0.50277495, -0.48675352, -0.54298025, 9.930861473083496, 0.5632201433181763, 0.018171561881899834, -2.0412614345550537, -4.057466983795166, 1.6274949312210083, -0.654541015625, -0.074462890625, 0.67919921875, 0, 
254, 1476735492, 0.46382585, -0.5033454, -0.48671633, -0.5427855, 9.945188522338867, 0.5045284628868103, -0.0011017294600605965, -1.809581995010376, -2.8483433723449707, 0.8873134255409241, -0.65283203125, -0.07373046875, 0.679931640625, 0, 
255, 1476752159, 0.46354136, -0.5037855, -0.4868447, -0.54250515, 10.10177993774414, 0.47167450189590454, 0.02261483110487461, -0.28930824995040894, -2.959803581237793, 0.40016642212867737, -0.6494140625, -0.074951171875, 0.67919921875, 0, 
256, 1476768826, 0.4633285, -0.50408137, -0.4871735, -0.5421168, 10.034396171569824, 0.460660457611084, 0.014698412269353867, 1.5770827531814575, -3.1902284622192383, -0.16982501745224, -0.6533203125, -0.071533203125, 0.68212890625, 0, 
257, 1476785493, 0.4629004, -0.5042111, -0.4875888, -0.54198843, 9.942207336425781, 0.539060652256012, 0.11913248151540756, 0.6417838931083679, -2.674004554748535, -2.661595106124878, -0.648193359375, -0.07763671875, 0.6826171875, 0, 
258, 1476802160, 0.4622137, -0.5044039, -0.4880581, -0.54197305, 10.046899795532227, 0.6670660972595215, 0.1359708309173584, -0.2764507234096527, -3.538087844848633, -3.957841634750366, -0.648193359375, -0.075927734375, 0.68212890625, 0, 
259, 1476818827, 0.4619104, -0.5045266, -0.4883975, -0.54181135, 10.128768920898438, 0.7394229769706726, 0.16562987864017487, 1.1209845542907715, -2.0988070964813232, -1.844600796699524, -0.6494140625, -0.071533203125, 0.685546875, 0, 
260, 1476835494, 0.4621435, -0.50461566, -0.48826277, -0.541651, 9.94884204864502, 0.7113816738128662, 0.22315926849842072, 1.0152041912078857, 1.313937783241272, 1.6836061477661133, -0.648681640625, -0.074951171875, 0.684326171875, 0, 
261, 1476852161, 0.4623233, -0.50485706, -0.48785612, -0.5416391, 10.007525444030762, 0.5805599093437195, 0.1906622052192688, -0.8819092512130737, 1.9551132917404175, 2.4774842262268066, -0.647705078125, -0.07373046875, 0.680419921875, 0, 
262, 1476868828, 0.4625508, -0.5049809, -0.48776087, -0.5414151, 10.080605506896973, 0.48330846428871155, 0.13524897396564484, 1.4576443433761597, 0.8164175748825073, 1.852784514427185, -0.6494140625, -0.071533203125, 0.683349609375, 0, 
263, 1476885495, 0.46257538, -0.50504416, -0.48777866, -0.5413191, 9.923893928527832, 0.49505814909935, 0.09780395030975342, 0.8965468406677246, 0.44015422463417053, 0.092000812292099, -0.64990234375, -0.075927734375, 0.683349609375, 0, 
264, 1476902162, 0.46245816, -0.5050673, -0.48770636, -0.54146296, 9.928056716918945, 0.5532137751579285, 0.012541509233415127, -0.39154133200645447, 1.2424978017807007, -1.021203875541687, -0.650390625, -0.074951171875, 0.683349609375, 0, 
265, 1476918829, 0.46232095, -0.5050868, -0.48784024, -0.54144126, 10.044002532958984, 0.6191686391830444, -0.019004298374056816, 0.7498949766159058, -0.04751155897974968, -1.297385573387146, -0.646484375, -0.072509765625, 0.682861328125, 0, 
266, 1476935496, 0.4622169, -0.5050407, -0.48789358, -0.541525, 10.009360313415527, 0.6681593656539917, -0.047497715801000595, 0.35813599824905396, 0.9281850457191467, -1.4468357563018799, -0.64697265625, -0.074951171875, 0.683349609375, 0, 
267, 1476952163, 0.46221945, -0.5049529, -0.48764053, -0.54183257, 9.98772144317627, 0.7207438349723816, -0.017993366345763206, -0.9606874585151672, 3.1989617347717285, -0.8331234455108643, -0.648681640625, -0.074951171875, 0.681640625, 0, 
268, 1476968830, 0.462241, -0.5050026, -0.48715568, -0.542204, 9.983955383300781, 0.6806933879852295, 0.05165480822324753, -2.4516990184783936, 3.708674192428589, 0.3065648376941681, -0.6494140625, -0.07275390625, 0.679931640625, 0, 
269, 1476985497, 0.46252933, -0.5050261, -0.486807, -0.54224926, 9.962950706481934, 0.5795819163322449, 0.011834213510155678, -0.12228785455226898, 3.117302656173706, 1.780217170715332, -0.648681640625, -0.07763671875, 0.6826171875, 0, 
270, 1477002164, 0.46294817, -0.5049325, -0.48662335, -0.54214376, 9.977106094360352, 0.4558756351470947, 0.010022716596722603, 2.133518934249878, 2.9612960815429688, 1.7825353145599365, -0.647705078125, -0.075927734375, 0.680908203125, 0, 
271, 1477018831, 0.46319574, -0.5046507, -0.48657972, -0.5422338, 9.937577247619629, 0.43908169865608215, 0.06933095306158066, 2.045449733734131, 3.327749729156494, -0.5960588455200195, -0.651123046875, -0.06982421875, 0.679931640625, 0, 
272, 1477035498, 0.4631709, -0.50433517, -0.4866799, -0.5424587, 9.906255722045898, 0.5487025380134583, 0.10323480516672134, 0.8520001173019409, 2.5250730514526367, -2.6599559783935547, -0.651123046875, -0.07666015625, 0.679931640625, 0, 
273, 1477052165, 0.46289194, -0.5042068, -0.48694268, -0.54258037, 9.935845375061035, 0.6571232676506042, 0.09727850556373596, 0.7041187882423401, 0.12154506146907806, -3.21545672416687, -0.649169921875, -0.0771484375, 0.676513671875, 0, 
274, 1477068832, 0.4628277, -0.5041471, -0.48705024, -0.54259413, 9.964394569396973, 0.6909897923469543, 0.05214472860097885, 1.1373381614685059, 0.7096958160400391, -1.2970269918441772, -0.648193359375, -0.07666015625, 0.67919921875, 0, 
275, 1477085499, 0.4630003, -0.5041073, -0.48687106, -0.5426447, 9.946381568908691, 0.6535608172416687, 0.015577103942632675, 0.7225086688995361, 2.470536947250366, 0.535894513130188, -0.648193359375, -0.0771484375, 0.680419921875, 0, 
276, 1477102166, 0.463211, -0.5040304, -0.48660704, -0.54277307, 9.937005043029785, 0.5681033134460449, 0.024672582745552063, 0.38847416639328003, 3.2777655124664307, 0.6030188798904419, -0.652099609375, -0.074462890625, 0.680419921875, 0, 
277, 1477118833, 0.4632116, -0.50394994, -0.48645422, -0.5429843, 9.954691886901855, 0.5542811751365662, 0.04607987403869629, -0.39090102910995483, 2.5104098320007324, -0.8414669036865234, -0.650390625, -0.075927734375, 0.679931640625, 0, 
278, 1477135500, 0.4632387, -0.5037844, -0.48634073, -0.54321605, 10.001482009887695, 0.5631491541862488, 0.1225515827536583, 0.1685187816619873, 2.87044095993042, -1.2292368412017822, -0.65625, -0.0771484375, 0.679931640625, 0, 
279, 1477152167, 0.46346825, -0.503527, -0.48636144, -0.5432406, 10.026290893554688, 0.5740476250648499, 0.14360277354717255, 2.352520227432251, 2.743382692337036, -0.5866589546203613, -0.6494140625, -0.075927734375, 0.677490234375, 0, 
280, 1477168834, 0.46370146, -0.50332946, -0.48657256, -0.54303575, 9.933198928833008, 0.5885607004165649, 0.1850242167711258, 3.645052671432495, 1.1284765005111694, -0.2998991310596466, -0.6533203125, -0.075439453125, 0.677490234375, 0, 
281, 1477185501, 0.46365488, -0.5033292, -0.4870103, -0.54268324, 9.963715553283691, 0.6259303689002991, 0.09508883953094482, 3.4572858810424805, -1.7772783041000366, -0.9956554770469666, -0.650390625, -0.076171875, 0.6787109375, 0, 
282, 1477202168, 0.46350485, -0.50343096, -0.48748633, -0.54228926, 9.99276065826416, 0.6711561679840088, -0.03801078349351883, 3.0458364486694336, -2.7712044715881348, -1.039837121963501, -0.65283203125, -0.074951171875, 0.67822265625, 0, 
283, 1477218835, 0.4636148, -0.50340104, -0.4873867, -0.5423126, 9.99560260772705, 0.6605255603790283, -0.0699448212981224, 0.7539482116699219, 1.8705849647521973, 0.1539067178964615, -0.651611328125, -0.072021484375, 0.679931640625, 0, 
284, 1477235502, 0.46403575, -0.50315654, -0.48694098, -0.5425797, 10.003134727478027, 0.6092159152030945, 0.03837414085865021, 0.1686212122440338, 5.650789260864258, 1.0180023908615112, -0.651611328125, -0.075439453125, 0.676513671875, 0, 
285, 1477252169, 0.46437654, -0.50298584, -0.4867213, -0.5426437, 9.947031021118164, 0.5738122463226318, 0.16734927892684937, 1.515401005744934, 3.7031991481781006, 0.8342183828353882, -0.651123046875, -0.075439453125, 0.676513671875, 0, 
286, 1477268836, 0.46434808, -0.5030317, -0.48700535, -0.54237044, 9.925161361694336, 0.6032063961029053, 0.19021159410476685, 2.5530550479888916, -1.1183401346206665, -0.48335006833076477, -0.651611328125, -0.07666015625, 0.676513671875, 0, 
287, 1477285503, 0.4641731, -0.50322074, -0.4874624, -0.54193413, 9.98747444152832, 0.6409079432487488, 0.0754350945353508, 2.9606106281280518, -3.252063751220703, -0.6256093978881836, -0.651611328125, -0.074462890625, 0.676025390625, 0, 
288, 1477302170, 0.4641923, -0.503342, -0.4875454, -0.5417306, 9.963991165161133, 0.676205039024353, -0.05605310574173927, 1.492093563079834, -0.3604731559753418, 0.42378777265548706, -0.651123046875, -0.072021484375, 0.679443359375, 0, 
289, 1477318837, 0.4643533, -0.5033613, -0.48719338, -0.5418912, 9.907105445861816, 0.6507059931755066, 0.0022160413209348917, -0.7037857174873352, 3.139892578125, 0.9576908349990845, -0.6533203125, -0.0732421875, 0.6787109375, 0, 
290, 1477335504, 0.4643845, -0.50344574, -0.48672196, -0.5422095, 9.938572883605957, 0.6348546743392944, 0.10992354899644852, -2.2345030307769775, 3.3955585956573486, 0.6066303849220276, -0.650390625, -0.0732421875, 0.677001953125, 0, 
291, 1477352171, 0.46444112, -0.50354946, -0.48650336, -0.542261, 9.971427917480469, 0.6179738640785217, 0.11241371184587479, -0.4118649661540985, 1.6754481792449951, 0.7440937161445618, -0.65380859375, -0.070556640625, 0.67822265625, 0, 
292, 1477368838, 0.46455154, -0.5036705, -0.4863029, -0.5422339, 9.934342384338379, 0.579989492893219, 0.1227121576666832, -0.06201474368572235, 1.4539048671722412, 1.1959335803985596, -0.65283203125, -0.076171875, 0.6787109375, 0, 
293, 1477385505, 0.46457466, -0.50381196, -0.48614588, -0.54222333, 9.925975799560547, 0.5648858547210693, 0.11804403364658356, -0.0073380377143621445, 1.0195581912994385, 0.7321581840515137, -0.651123046875, -0.074951171875, 0.677734375, 0, 
294, 1477402172, 0.4644899, -0.50394094, -0.4861943, -0.54213274, 9.94567584991455, 0.5714314579963684, 0.1279817372560501, 0.7013653516769409, -0.2293424904346466, -0.16586142778396606, -0.652099609375, -0.071533203125, 0.676025390625, 0, 
295, 1477418839, 0.46440786, -0.50405383, -0.48624855, -0.54204947, 10.02306079864502, 0.5816236138343811, 0.1314256191253662, 0.4634105861186981, -0.17025402188301086, -0.2503321170806885, -0.6533203125, -0.072265625, 0.677001953125, 0, 
296, 1477435506, 0.4644128, -0.50410604, -0.48651436, -0.54175794, 9.967829704284668, 0.5940023064613342, 0.08101560920476913, 2.4053077697753906, -1.0538729429244995, -0.19742268323898315, -0.650390625, -0.074462890625, 0.679931640625, 0, 
297, 1477452173, 0.46455383, -0.5040538, -0.48689935, -0.5413396, 9.936186790466309, 0.6215943694114685, 0.0905170664191246, 4.385265827178955, -1.0148712396621704, -0.04818389192223549, -0.6533203125, -0.0732421875, 0.680419921875, 0, 
298, 1477468840, 0.4647913, -0.5039796, -0.48714873, -0.5409804, 9.884167671203613, 0.6286506652832031, 0.06803371012210846, 3.9992823600769043, 0.022321471944451332, 0.5208214521408081, -0.650390625, -0.0693359375, 0.67822265625, 0, 
299, 1477485507, 0.4649436, -0.50391465, -0.48721522, -0.5408503, 9.914875984191895, 0.610343337059021, 0.11973028630018234, 2.071215867996216, 1.0742158889770508, 0.14341190457344055, -0.65380859375, -0.071533203125, 0.67822265625, 0, 
300, 1477502174, 0.4650206, -0.5039123, -0.48724386, -0.5407603, 9.989948272705078, 0.5963915586471558, 0.1479731947183609, 1.4874765872955322, 0.8537160754203796, 0.07453935593366623, -0.65283203125, -0.071533203125, 0.677734375, 0, 
301, 1477518841, 0.46495932, -0.5040813, -0.48739687, -0.5405176, 10.061253547668457, 0.5597289204597473, 0.1402757167816162, 1.4553583860397339, -1.174803376197815, 0.1928187906742096, -0.651611328125, -0.074951171875, 0.68212890625, 0, 
302, 1477535508, 0.46486068, -0.5042064, -0.48761538, -0.54028857, 10.048495292663574, 0.5458399057388306, 0.042648326605558395, 1.827383041381836, -1.2964764833450317, -0.36765754222869873, -0.64990234375, -0.07373046875, 0.679443359375, 0, 
303, 1477552175, 0.46490344, -0.5040751, -0.48786533, -0.54014856, 10.039389610290527, 0.5913195610046387, 0.07638651132583618, 3.00339674949646, 0.3424034118652344, -1.0943474769592285, -0.64697265625, -0.0732421875, 0.679443359375, 0, 
304, 1477568842, 0.46494818, -0.50389975, -0.4879259, -0.5402192, 9.985296249389648, 0.6750772595405579, 0.16416199505329132, 1.7318412065505981, 1.848199725151062, -1.2502646446228027, -0.64990234375, -0.0732421875, 0.6787109375, 0, 
305, 1477585509, 0.4649596, -0.50390244, -0.48784515, -0.5402795, 9.922294616699219, 0.7154362797737122, 0.19845621287822723, 0.5336406826972961, 1.4851653575897217, -0.24868011474609375, -0.648193359375, -0.071044921875, 0.67822265625, 0, 
306, 1477602176, 0.46501562, -0.504145, -0.48775277, -0.5400884, 9.980195999145508, 0.6631242632865906, 0.13176125288009644, 0.5256173610687256, -0.1032191812992096, 1.5739580392837524, -0.654541015625, -0.070556640625, 0.679931640625, 0, 
307, 1477618843, 0.4651963, -0.5043576, -0.48766857, -0.5398103, 9.98425579071045, 0.5602741241455078, 0.028320370241999626, 1.311997652053833, 0.09246183931827545, 2.1916401386260986, -0.65283203125, -0.068115234375, 0.67822265625, 0, 
308, 1477635510, 0.4653865, -0.504341, -0.48741144, -0.5398941, 9.96817684173584, 0.4917443096637726, 0.05386463552713394, -0.010008161887526512, 2.7724595069885254, 0.9017846584320068, -0.648193359375, -0.072021484375, 0.681640625, 0, 
309, 1477652177, 0.46549854, -0.50414956, -0.4870715, -0.5402829, 9.99069595336914, 0.5009049773216248, 0.1342676430940628, -0.4985320568084717, 4.5080790519714355, -0.6698170304298401, -0.65380859375, -0.071044921875, 0.677001953125, 0, 
310, 1477668844, 0.4655442, -0.5039573, -0.48700824, -0.5404802, 9.936607360839844, 0.5780500769615173, 0.2619922459125519, 0.7225343585014343, 2.727471113204956, -1.2634681463241577, -0.650390625, -0.071044921875, 0.677734375, 0, 
311, 1477685511, 0.46548218, -0.5039978, -0.48714685, -0.540371, 9.952116012573242, 0.6244516372680664, 0.2617391049861908, 1.4139553308486938, -0.2109334021806717, -0.6014886498451233, -0.65380859375, -0.070556640625, 0.67529296875, 0, 
312, 1477702178, 0.4655679, -0.5041527, -0.48745853, -0.53987104, 9.970429420471191, 0.5991069674491882, 0.09602237492799759, 3.416330575942993, -2.0591583251953125, 0.9844177961349487, -0.651611328125, -0.070556640625, 0.6787109375, 0, 
313, 1477718845, 0.46582216, -0.5041575, -0.48743272, -0.53967047, 9.926498413085938, 0.5047677755355835, 0.06459613889455795, 2.348876476287842, 1.185662865638733, 1.3198606967926025, -0.6533203125, -0.0693359375, 0.67822265625, 0, 
314, 1477735512, 0.46618444, -0.5039157, -0.48708537, -0.5398974, 9.935250282287598, 0.45722585916519165, 0.1225816160440445, 0.8502008318901062, 4.972039699554443, 0.640394389629364, -0.6533203125, -0.071533203125, 0.67822265625, 0, 
315, 1477752179, 0.46648568, -0.50364447, -0.48689374, -0.54006296, 9.956390380859375, 0.4681713581085205, 0.2716381251811981, 1.792914628982544, 4.176394462585449, -0.03356544300913811, -0.652099609375, -0.06884765625, 0.6787109375, 0, 
316, 1477768846, 0.46661836, -0.5034472, -0.4871364, -0.5399134, 9.951820373535156, 0.49655184149742126, 0.2946876287460327, 3.29438853263855, 0.8317276239395142, -0.9043075442314148, -0.65283203125, -0.067138671875, 0.675537109375, 0, 
317, 1477785513, 0.4666291, -0.50336754, -0.4875379, -0.539616, 9.928139686584473, 0.5359966158866882, 0.20404212176799774, 3.456894636154175, -1.046374797821045, -1.036769986152649, -0.650390625, -0.067138671875, 0.676513671875, 0, 
318, 1477802180, 0.4666182, -0.5033811, -0.4879424, -0.53924704, 9.905640602111816, 0.5538318753242493, 0.0994577556848526, 3.386991500854492, -1.7231457233428955, -0.5872735977172852, -0.64990234375, -0.06982421875, 0.67724609375, 0, 
319, 1477818847, 0.46674934, -0.5033577, -0.48803356, -0.53907293, 9.939435958862305, 0.5533016920089722, 0.007446547970175743, 2.526212692260742, 0.582733690738678, 0.27032285928726196, -0.651123046875, -0.067626953125, 0.67724609375, 0, 
320, 1477835514, 0.46702558, -0.5032257, -0.48787925, -0.5390964, 9.956157684326172, 0.5134851336479187, 0.028430426493287086, 1.6009923219680786, 2.938641309738159, 0.6629784107208252, -0.651611328125, -0.067626953125, 0.67724609375, 0, 
321, 1477852181, 0.46723247, -0.50305, -0.48749465, -0.5394289, 9.936193466186523, 0.4785842299461365, 0.16839753091335297, -0.3016727864742279, 4.6815667152404785, 0.06390369683504105, -0.651123046875, -0.06982421875, 0.675537109375, 0, 
322, 1477868848, 0.4673354, -0.5029355, -0.48713523, -0.5397711, 9.965270042419434, 0.48317310214042664, 0.23400649428367615, -0.4988008737564087, 4.068641185760498, -0.23961320519447327, -0.654541015625, -0.068359375, 0.6748046875, 0, 
323, 1477885515, 0.46735418, -0.5029766, -0.4871537, -0.5396999, 9.937506675720215, 0.4811127483844757, 0.2461199015378952, 1.2282953262329102, 0.5512877106666565, -0.00636475533246994, -0.65625, -0.067138671875, 0.676025390625, 0, 
324, 1477902182, 0.46735004, -0.5030897, -0.48745435, -0.5393264, 9.987046241760254, 0.4762735664844513, 0.13706357777118683, 2.8813648223876953, -1.7538361549377441, 0.14624853432178497, -0.65283203125, -0.067138671875, 0.673828125, 0, 
325, 1477918849, 0.4674576, -0.50308967, -0.48765886, -0.5390482, 10.027684211730957, 0.454582542181015, 0.0668422281742096, 3.039504289627075, -0.3174310028553009, 0.20458786189556122, -0.652587890625, -0.067626953125, 0.673828125, 0, 
326, 1477935516, 0.4675807, -0.50297034, -0.48748374, -0.5392113, 9.97624397277832, 0.44639453291893005, 0.08276152610778809, 0.6773535013198853, 2.926865339279175, -0.24746349453926086, -0.652587890625, -0.06591796875, 0.673095703125, 0, 
327, 1477952183, 0.46765304, -0.502817, -0.4873452, -0.5394168, 9.936005592346191, 0.5159248113632202, 0.16697606444358826, 0.2749587297439575, 2.896418571472168, -0.8127806782722473, -0.649169921875, -0.070556640625, 0.672607421875, 0, 
328, 1477968850, 0.4676547, -0.5028829, -0.48731396, -0.53938216, 9.97550106048584, 0.5354354381561279, 0.19820146262645721, 1.4308662414550781, 0.7098175287246704, 0.058204859495162964, -0.64697265625, -0.068115234375, 0.6748046875, 0, 
329, 1477985517, 0.46774256, -0.5030338, -0.48737842, -0.5391069, 9.97850513458252, 0.5047760009765625, 0.14628693461418152, 2.2380759716033936, -0.47522440552711487, 1.1081334352493286, -0.65380859375, -0.068359375, 0.67431640625, 0, 
330, 1478002184, 0.46777165, -0.50316906, -0.4872988, -0.5390274, 9.940067291259766, 0.479892373085022, 0.14750559628009796, 0.8201826810836792, 0.5212953090667725, 0.7046693563461304, -0.654541015625, -0.063720703125, 0.676513671875, 0, 
331, 1478018851, 0.46769315, -0.50323737, -0.487254, -0.5390722, 10.005597114562988, 0.5100738406181335, 0.12727715075016022, -0.18817009031772614, 0.7032990455627441, -0.4324127733707428, -0.651611328125, -0.067626953125, 0.673095703125, 0, 
332, 1478035518, 0.46760765, -0.50333434, -0.48721105, -0.5390948, 10.000509262084961, 0.5331552624702454, 0.1418037712574005, 0.29252901673316956, 0.509442925453186, -0.30357450246810913, -0.652099609375, -0.06494140625, 0.675048828125, 0, 
333, 1478052185, 0.4676556, -0.50341916, -0.48709202, -0.53908145, 9.989680290222168, 0.521084189414978, 0.179284006357193, 0.2061309963464737, 1.104009747505188, 0.5347291231155396, -0.652099609375, -0.0693359375, 0.673828125, 0, 
334, 1478068852, 0.46773756, -0.5035446, -0.48702738, -0.53895164, 9.968291282653809, 0.48481330275535583, 0.17899242043495178, 1.3159676790237427, 0.5058252215385437, 0.9737691879272461, -0.651123046875, -0.067138671875, 0.6748046875, 0, 
335, 1478085519, 0.46765476, -0.50372213, -0.4871449, -0.5387515, 9.940791130065918, 0.4891955554485321, 0.17375347018241882, 1.3024057149887085, -1.0754964351654053, 0.1372968703508377, -0.65087890625, -0.0654296875, 0.67333984375, 0, 
336, 1478102186, 0.46753645, -0.50381994, -0.48725405, -0.53866386, 9.959693908691406, 0.508603572845459, 0.13274115324020386, 0.8504376411437988, -0.4913412034511566, -0.5915125012397766, -0.65283203125, -0.06591796875, 0.6748046875, 0, 
337, 1478118853, 0.46747828, -0.50385654, -0.48716232, -0.53876305, 10.052652359008789, 0.530822217464447, 0.1766037493944168, -0.06281514465808868, 1.22958242893219, -0.4785988926887512, -0.6494140625, -0.067138671875, 0.677734375, 0, 
338, 1478135520, 0.4674525, -0.50393176, -0.48706314, -0.53880477, 9.963772773742676, 0.5403875112533569, 0.19221311807632446, 0.21193227171897888, 1.0232913494110107, -0.019555294886231422, -0.65380859375, -0.0654296875, 0.675537109375, 0, 
339, 1478152187, 0.46748063, -0.5039779, -0.48717114, -0.53863966, 9.911399841308594, 0.5609790086746216, 0.19851744174957275, 1.68817138671875, -0.08410569280385971, 0.03328370302915573, -0.65283203125, -0.064208984375, 0.67431640625, 0, 
340, 1478168854, 0.46750876, -0.5040725, -0.4874164, -0.53830457, 9.940474510192871, 0.5235925912857056, 0.1689741611480713, 2.49769926071167, -1.3001519441604614, 0.26997068524360657, -0.651123046875, -0.063720703125, 0.6767578125, 0, 
341, 1478185521, 0.4677053, -0.5040094, -0.48755717, -0.53806525, 9.93879222869873, 0.49160656332969666, 0.1480047106742859, 2.8678221702575684, 0.5121195316314697, 0.42054134607315063, -0.654296875, -0.0654296875, 0.672607421875, 0, 
342, 1478202188, 0.46795127, -0.5037891, -0.4873294, -0.53826404, 10.00881576538086, 0.47241687774658203, 0.21644866466522217, 1.005298376083374, 3.9713895320892334, -0.061438459903001785, -0.651123046875, -0.06591796875, 0.675537109375, 0, 
343, 1478218855, 0.46801424, -0.5036869, -0.48728204, -0.5383481, 9.957403182983398, 0.47488290071487427, 0.2954484820365906, 1.1709742546081543, 1.944490671157837, -0.5992411375045776, -0.65283203125, -0.06494140625, 0.675537109375, 0, 
344, 1478235522, 0.4677177, -0.50379544, -0.48765227, -0.5381687, 9.968826293945312, 0.5423763990402222, 0.28317010402679443, 1.5192430019378662, -2.3067374229431152, -1.8211973905563354, -0.651123046875, -0.0654296875, 0.6748046875, 0, 
345, 1478252189, 0.4673278, -0.50396824, -0.48818678, -0.537861, 9.975079536437988, 0.5978525280952454, 0.1127791553735733, 2.142143964767456, -3.829822063446045, -2.1063051223754883, -0.650390625, -0.067626953125, 0.677734375, 0, 
346, 1478268856, 0.46720555, -0.5039854, -0.48828566, -0.5378614, 9.974355697631836, 0.626637876033783, 0.06556422263383865, 1.1462324857711792, 0.11803612858057022, -1.1227775812149048, -0.6494140625, -0.06591796875, 0.675537109375, 0, 
347, 1478285523, 0.467502, -0.5037529, -0.48793373, -0.5381409, 9.925518035888672, 0.5826425552368164, 0.1564391702413559, 0.6254493594169617, 4.8577046394348145, 0.2610958516597748, -0.6533203125, -0.06591796875, 0.6748046875, 0, 
348, 1478302190, 0.46783474, -0.50358605, -0.48762727, -0.5382858, 9.945596694946289, 0.4936654269695282, 0.24363771080970764, 1.1119945049285889, 4.119386196136475, 0.8922887444496155, -0.654541015625, -0.067138671875, 0.675537109375, 0, 
349, 1478318857, 0.46802825, -0.5034703, -0.4876966, -0.5381628, 9.993351936340332, 0.438833624124527, 0.2810792326927185, 3.0431981086730957, 1.3358047008514404, 0.10875152051448822, -0.654541015625, -0.06494140625, 0.6748046875, 0, 
350, 1478335524, 0.468138, -0.503275, -0.48800567, -0.53797007, 9.986405372619629, 0.410998672246933, 0.20345723628997803, 3.835028648376465, 0.3196081221103668, -1.0728201866149902, -0.65283203125, -0.063720703125, 0.67724609375, 0, 
351, 1478352191, 0.46824777, -0.5029279, -0.48829007, -0.53794104, 9.999234199523926, 0.47405940294265747, 0.1338067650794983, 3.5349881649017334, 1.5194863080978394, -2.025228261947632, -0.64990234375, -0.06640625, 0.671630859375, 0, 
352, 1478368858, 0.46824664, -0.50262874, -0.48844925, -0.53807694, 9.964052200317383, 0.5605199933052063, 0.19235564768314362, 2.530099630355835, 1.9632264375686646, -2.3795289993286133, -0.652099609375, -0.06494140625, 0.675048828125, 0, 
353, 1478385525, 0.46809596, -0.502549, -0.48850283, -0.5382339, 9.990925788879395, 0.62059086561203, 0.1645461916923523, 0.5407096743583679, 1.048724889755249, -1.8927335739135742, -0.64990234375, -0.0625, 0.67333984375, 0, 
354, 1478402192, 0.4680629, -0.50251865, -0.48844254, -0.53834575, 9.988103866577148, 0.6213052272796631, 0.11850326508283615, 0.08147399127483368, 1.4525089263916016, -0.7466678023338318, -0.652099609375, -0.063232421875, 0.673828125, 0, 
355, 1478418859, 0.4683065, -0.5023716, -0.48806864, -0.5386102, 9.976168632507324, 0.5591949224472046, 0.12385626882314682, -0.20900602638721466, 4.352173805236816, 0.47932887077331543, -0.65380859375, -0.067626953125, 0.672119140625, 0, 
356, 1478435526, 0.46866995, -0.5021905, -0.48759335, -0.5388933, 9.993144035339355, 0.4764895439147949, 0.16601285338401794, 0.4152843654155731, 5.289548397064209, 1.090729832649231, -0.652587890625, -0.068115234375, 0.672119140625, 0, 
357, 1478452193, 0.4688877, -0.50204635, -0.48741242, -0.53900176, 10.007246971130371, 0.42215901613235474, 0.22122196853160858, 2.0212647914886475, 3.1395790576934814, 0.22819635272026062, -0.656005859375, -0.067626953125, 0.669189453125, 0, 
358, 1478468860, 0.4689459, -0.5018621, -0.48753402, -0.5390128, 9.976000785827637, 0.42834505438804626, 0.2193668931722641, 2.651900291442871, 1.4191228151321411, -1.2350506782531738, -0.655029296875, -0.0693359375, 0.669677734375, 0, 
359, 1478485527, 0.4689344, -0.501663, -0.48775682, -0.5390067, 9.965521812438965, 0.49090394377708435, 0.18694862723350525, 3.2738287448883057, 0.8697689771652222, -1.8392034769058228, -0.652587890625, -0.0654296875, 0.672607421875, 0, 
360, 1478502194, 0.46896738, -0.50140494, -0.48801428, -0.53898513, 9.954421997070312, 0.5591338276863098, 0.20405636727809906, 3.2206053733825684, 1.050428032875061, -1.9375691413879395, -0.655029296875, -0.067626953125, 0.672119140625, 0, 
361, 1478518861, 0.46902844, -0.50124216, -0.4880758, -0.53902745, 9.98169994354248, 0.609422504901886, 0.13717952370643616, 2.550102710723877, 1.6637625694274902, -1.0419118404388428, -0.655029296875, -0.0654296875, 0.669189453125, 0, 
362, 1478535528, 0.46925133, -0.5010479, -0.4879888, -0.53909284, 9.963724136352539, 0.605712354183197, 0.19813910126686096, 2.261229991912842, 2.869544506072998, -0.10615824162960052, -0.6572265625, -0.066162109375, 0.668701171875, 0, 
363, 1478552195, 0.46956986, -0.5008863, -0.4878106, -0.5391272, 9.987967491149902, 0.5676467418670654, 0.19222907721996307, 2.3931736946105957, 3.2603557109832764, 0.774617612361908, -0.658447265625, -0.066162109375, 0.672119140625, 0, 
364, 1478568862, 0.46989778, -0.5008021, -0.48777318, -0.53895366, 9.932559967041016, 0.5000929236412048, 0.17123740911483765, 3.343571901321411, 1.8320000171661377, 1.253831386566162, -0.6533203125, -0.0654296875, 0.6708984375, 0, 
365, 1478585529, 0.47006077, -0.500751, -0.48782504, -0.5388116, 9.925127029418945, 0.4756859540939331, 0.13983434438705444, 3.012655258178711, 0.9793271422386169, 0.34579700231552124, -0.655517578125, -0.0615234375, 0.6669921875, 0, 
366, 1478602196, 0.47011748, -0.5006317, -0.4879874, -0.53872603, 9.948972702026367, 0.5117238759994507, 0.10653962194919586, 2.360607385635376, 0.6827833652496338, -0.8418190479278564, -0.65380859375, -0.06103515625, 0.668701171875, 0, 
367, 1478618863, 0.47010657, -0.5004804, -0.48804602, -0.53882295, 9.991103172302246, 0.5519401431083679, 0.14927628636360168, 1.2605162858963013, 1.5429604053497314, -1.4318779706954956, -0.65771484375, -0.06494140625, 0.6669921875, 0, 
368, 1478635530, 0.4702901, -0.5003073, -0.48795232, -0.5389084, 9.970726013183594, 0.5867616534233093, 0.18147146701812744, 1.9767367839813232, 2.7467188835144043, -0.2254621982574463, -0.65380859375, -0.06201171875, 0.66650390625, 0, 
369, 1478652197, 0.47050104, -0.50024265, -0.4879047, -0.5388277, 9.912914276123047, 0.5916963219642639, 0.21927298605442047, 2.125123977661133, 1.7045637369155884, 0.6228240132331848, -0.658447265625, -0.0654296875, 0.669189453125, 0, 
370, 1478668864, 0.4705914, -0.5003666, -0.48792127, -0.5386185, 9.963754653930664, 0.5821526050567627, 0.1839706003665924, 2.3334579467773438, -0.02637467533349991, 1.0044020414352417, -0.65673828125, -0.06201171875, 0.668212890625, 0, 
371, 1478685531, 0.47065985, -0.50052094, -0.487895, -0.5384391, 9.981414794921875, 0.5330082774162292, 0.14958928525447845, 1.5686113834381104, 0.016264062374830246, 1.0823030471801758, -0.656005859375, -0.06201171875, 0.6669921875, 0, 
372, 1478702198, 0.4708131, -0.5005547, -0.487656, -0.5384904, 9.944733619689941, 0.5044264197349548, 0.14076104760169983, 0.700763463973999, 2.2291626930236816, 0.9762535691261292, -0.6572265625, -0.06103515625, 0.66943359375, 0, 
373, 1478718865, 0.47087875, -0.50057, -0.48739612, -0.538654, 9.915075302124023, 0.5229600071907043, 0.24646084010601044, -0.09639980643987656, 2.4569623470306396, 0.2996686100959778, -0.66064453125, -0.058837890625, 0.664794921875, 0, 
374, 1478735532, 0.4707986, -0.50072557, -0.4874258, -0.53855264, 9.944374084472656, 0.5413734316825867, 0.27024683356285095, 0.6720516085624695, -0.40879786014556885, 0.09574026614427567, -0.6572265625, -0.058837890625, 0.667724609375, 0, 
375, 1478752199, 0.4706772, -0.5009977, -0.48768026, -0.538175, 9.972769737243652, 0.5601657032966614, 0.17697621881961823, 1.6213223934173584, -2.6765975952148438, 0.44660863280296326, -0.655517578125, -0.06201171875, 0.667724609375, 0, 
376, 1478768866, 0.47062004, -0.50121284, -0.48770374, -0.5380034, 9.990033149719238, 0.5178616642951965, 0.0836387425661087, 1.3055304288864136, -0.7581166625022888, 0.6288814544677734, -0.65771484375, -0.059814453125, 0.668212890625, 0, 
377, 1478785533, 0.47084695, -0.5012139, -0.48752302, -0.5379677, 9.949806213378906, 0.49381810426712036, 0.16131871938705444, 1.3711503744125366, 2.102098226547241, 1.225093960762024, -0.654296875, -0.060302734375, 0.66943359375, 0, 
378, 1478802200, 0.47090995, -0.5013101, -0.48725894, -0.53806216, 9.913861274719238, 0.4992799460887909, 0.27546656131744385, -0.11126796156167984, 1.923065423965454, 0.8031246066093445, -0.65673828125, -0.06103515625, 0.668701171875, 0, 
379, 1478818867, 0.47075692, -0.5016055, -0.48736876, -0.5378211, 9.956369400024414, 0.49310049414634705, 0.2189449965953827, 1.1273685693740845, -1.9027099609375, 0.46937835216522217, -0.656005859375, -0.059814453125, 0.669921875, 0, 
380, 1478835534, 0.47055057, -0.50192803, -0.4877331, -0.53737026, 9.937568664550781, 0.505176305770874, 0.15606848895549774, 2.1577162742614746, -3.745185375213623, 0.16042517125606537, -0.65673828125, -0.060302734375, 0.66943359375, 0, 
381, 1478852201, 0.47035897, -0.50222963, -0.48771733, -0.53727067, 9.890050888061523, 0.4955207109451294, 0.09836433827877045, -0.03099776990711689, -1.164539098739624, 0.32373175024986267, -0.654296875, -0.0615234375, 0.6708984375, 0, 
382, 1478868868, 0.4703136, -0.5023934, -0.48736584, -0.5374761, 9.937211036682129, 0.4974045753479004, 0.1478085070848465, -1.1437671184539795, 1.9831401109695435, 0.5748386383056641, -0.652099609375, -0.056396484375, 0.6728515625, 0, 
383, 1478885535, 0.47046652, -0.50242877, -0.4869912, -0.53764886, 10.022201538085938, 0.4500825107097626, 0.23986369371414185, -1.0215561389923096, 3.0456316471099854, 1.0603017807006836, -0.654296875, -0.05810546875, 0.66943359375, 0, 
384, 1478902202, 0.47053325, -0.502621, -0.4868099, -0.5375751, 10.035784721374512, 0.3674841523170471, 0.28120601177215576, -0.020413322374224663, 0.7069169282913208, 1.395578384399414, -0.65673828125, -0.0576171875, 0.667724609375, 0, 
385, 1478918869, 0.47038484, -0.50288075, -0.48693785, -0.53734595, 10.062994956970215, 0.35318315029144287, 0.22389541566371918, 0.8362545371055603, -1.7932535409927368, 0.2649889886379242, -0.655517578125, -0.0615234375, 0.672119140625, 0, 
386, 1478935536, 0.4700649, -0.5030817, -0.4873432, -0.53707033, 10.011922836303711, 0.4235340356826782, 0.1514052450656891, 2.1247782707214355, -3.194345235824585, -1.3832457065582275, -0.651611328125, -0.05859375, 0.669921875, 0, 
387, 1478952203, 0.46967643, -0.5032062, -0.48772737, -0.5369448, 9.972246170043945, 0.5359892249107361, 0.12516847252845764, 1.0661542415618896, -2.572648525238037, -2.3052902221679688, -0.650390625, -0.064208984375, 0.672119140625, 0, 
388, 1478968870, 0.46936858, -0.5033754, -0.48766556, -0.53711164, 9.971381187438965, 0.5982240438461304, 0.14017321169376373, -0.3483007252216339, 0.027034206315875053, -1.2548750638961792, -0.652099609375, -0.059326171875, 0.67041015625, 0, 
389, 1478985537, 0.46945655, -0.5034834, -0.48743036, -0.53714675, 10.04815673828125, 0.5781514644622803, 0.14721207320690155, -0.10934701561927795, 1.6397632360458374, 1.0263136625289917, -0.655029296875, -0.06103515625, 0.67431640625, 0, 
390, 1479002204, 0.46976706, -0.5035762, -0.48712638, -0.5370641, 10.025590896606445, 0.4621317982673645, 0.17319104075431824, 1.1472184658050537, 2.2668392658233643, 2.4196829795837402, -0.655029296875, -0.05859375, 0.672119140625, 0, 
391, 1479018871, 0.47003335, -0.503575, -0.48701552, -0.53693277, 9.988558769226074, 0.3928506076335907, 0.207436665892601, 1.8053430318832397, 1.6587613821029663, 1.4261726140975952, -0.654296875, -0.0576171875, 0.671142578125, 0, 
392, 1479035538, 0.4700507, -0.5035403, -0.487128, -0.53684825, 9.999601364135742, 0.39698001742362976, 0.20450925827026367, 1.7128618955612183, 0.38816037774086, -0.5281785726547241, -0.65283203125, -0.0546875, 0.671630859375, 0, 
393, 1479052205, 0.47004172, -0.5033973, -0.48742887, -0.5367171, 9.988031387329102, 0.4760272204875946, 0.2219487428665161, 2.3448429107666016, -0.08980453014373779, -1.4926633834838867, -0.65380859375, -0.060302734375, 0.671142578125, 0, 
394, 1479068872, 0.4700285, -0.50332886, -0.4875673, -0.5366669, 10.0307035446167, 0.5417653918266296, 0.1910727620124817, 2.137136459350586, 0.4544205367565155, -0.958830714225769, -0.65380859375, -0.05810546875, 0.669921875, 0, 
395, 1479085539, 0.47008994, -0.50329983, -0.48764658, -0.53656834, 10.01184368133545, 0.5577876567840576, 0.16858096420764923, 1.8884625434875488, 0.5722004771232605, -0.18724162876605988, -0.6533203125, -0.06103515625, 0.669921875, 0, 
396, 1479102206, 0.47018284, -0.503294, -0.48761535, -0.5365208, 9.98141098022461, 0.5364224910736084, 0.15496817231178284, 1.9195691347122192, 1.1446956396102905, 0.2268388569355011, -0.65380859375, -0.059326171875, 0.67041015625, 0, 
397, 1479118873, 0.4703908, -0.5031785, -0.48745355, -0.536594, 9.973967552185059, 0.5041086077690125, 0.1521712988615036, 1.4441336393356323, 2.761727809906006, 0.3442346453666687, -0.652099609375, -0.059814453125, 0.671630859375, 0, 
398, 1479135540, 0.47062954, -0.50305647, -0.48718038, -0.53674704, 9.97103500366211, 0.4642600119113922, 0.19656729698181152, 1.0572923421859741, 3.5314152240753174, 0.5655155777931213, -0.655029296875, -0.05859375, 0.671142578125, 0, 
399, 1479152207, 0.4708511, -0.502867, -0.4871445, -0.53676283, 9.972722053527832, 0.45870545506477356, 0.20919105410575867, 2.359800100326538, 2.470895290374756, -0.1014326885342598, -0.65380859375, -0.0615234375, 0.66650390625, 0, 
400, 1479168874, 0.47091985, -0.5027381, -0.48721716, -0.53675723, 9.96747875213623, 0.4592111110687256, 0.224464550614357, 2.9713032245635986, 1.344064712524414, -0.7587184906005859, -0.655517578125, -0.0576171875, 0.668701171875, 0, 
401, 1479185541, 0.4709758, -0.50252545, -0.4873324, -0.53680277, 9.956358909606934, 0.4836251139640808, 0.190365269780159, 2.298509359359741, 1.61383056640625, -1.407219409942627, -0.6533203125, -0.056884765625, 0.67041015625, 0, 
402, 1479202208, 0.47110385, -0.50223255, -0.48738223, -0.5369194, 9.977704048156738, 0.5155715942382812, 0.19718334078788757, 2.227421522140503, 2.605029344558716, -1.414544701576233, -0.6572265625, -0.05712890625, 0.669921875, 0, 
403, 1479218875, 0.47128856, -0.50197935, -0.4873907, -0.536986, 9.969472885131836, 0.5374640822410583, 0.21664319932460785, 2.2211077213287354, 2.6043503284454346, -0.7682849168777466, -0.656005859375, -0.059326171875, 0.669921875, 0, 
404, 1479235542, 0.47139305, -0.5018583, -0.48735446, -0.5370407, 9.968806266784668, 0.5078649520874023, 0.2061980664730072, 1.9888516664505005, 1.9743419885635376, -0.4213096797466278, -0.651611328125, -0.056884765625, 0.667236328125, 0, 
405, 1479252209, 0.47151363, -0.501703, -0.48737156, -0.5370644, 9.973631858825684, 0.49085545539855957, 0.16869214177131653, 2.020893096923828, 1.8560881614685059, -0.5631912350654602, -0.656005859375, -0.0576171875, 0.6669921875, 0, 
406, 1479268876, 0.4715971, -0.50149834, -0.48728338, -0.537262, 9.985796928405762, 0.4659286439418793, 0.2057943046092987, 1.3256235122680664, 2.866957187652588, -1.0615885257720947, -0.652587890625, -0.056396484375, 0.667236328125, 0, 
407, 1479285543, 0.4718072, -0.50116307, -0.48720822, -0.5374587, 9.979362487792969, 0.4598177373409271, 0.21658965945243835, 1.9145750999450684, 3.714738130569458, -1.079146385192871, -0.652587890625, -0.056396484375, 0.666015625, 0, 
408, 1479302210, 0.47199753, -0.5008353, -0.4871505, -0.5376494, 9.985180854797363, 0.5002111196517944, 0.28106269240379333, 1.9210035800933838, 3.5423130989074707, -1.166844129562378, -0.656005859375, -0.06103515625, 0.667724609375, 0, 
409, 1479318877, 0.47207367, -0.50066376, -0.48712242, -0.5377676, 9.93237018585205, 0.48480159044265747, 0.30557143688201904, 2.1253163814544678, 2.262702703475952, -0.9255021810531616, -0.652587890625, -0.05810546875, 0.664794921875, 0, 
410, 1479335544, 0.47209686, -0.5005331, -0.48736164, -0.5376521, 9.969405174255371, 0.4807831048965454, 0.2263711541891098, 3.0837368965148926, 0.2417902797460556, -1.1514956951141357, -0.65771484375, -0.06103515625, 0.664306640625, 0, 
411, 1479352211, 0.47213253, -0.5004204, -0.487546, -0.53755873, 9.997672080993652, 0.48494696617126465, 0.17972369492053986, 3.628615379333496, 0.5076693296432495, -0.9122539758682251, -0.656005859375, -0.0576171875, 0.664794921875, 0, 
412, 1479368878, 0.4723784, -0.50012916, -0.4874887, -0.53766567, 9.918931007385254, 0.4836253523826599, 0.21151705086231232, 2.7077362537384033, 3.319098472595215, -0.5623461008071899, -0.65771484375, -0.06103515625, 0.664794921875, 0, 
413, 1479385545, 0.47258186, -0.4998303, -0.48718306, -0.53804165, 9.921488761901855, 0.4678232669830322, 0.29582852125167847, 1.229640245437622, 4.951882839202881, -0.760870099067688, -0.658935546875, -0.058837890625, 0.66259765625, 0, 
414, 1479402212, 0.4728106, -0.49956292, -0.48721647, -0.5380588, 9.954180717468262, 0.46596017479896545, 0.35347917675971985, 3.2990691661834717, 2.5705673694610596, -0.5648496747016907, -0.65673828125, -0.0576171875, 0.660888671875, 0, 
415, 1479418879, 0.47293508, -0.49941367, -0.48743746, -0.53788775, 9.932912826538086, 0.46372851729393005, 0.3444751501083374, 3.773468255996704, 0.5204117298126221, -0.5894699096679688, -0.65380859375, -0.056396484375, 0.66259765625, 0, 
416, 1479435546, 0.47300646, -0.49927965, -0.4876736, -0.53773534, 9.95719051361084, 0.4551611840724945, 0.2409270852804184, 3.3729236125946045, 0.29270192980766296, -0.8507193922996521, -0.65771484375, -0.056396484375, 0.666015625, 0, 
417, 1479452213, 0.47320554, -0.49904865, -0.48797837, -0.53749824, 10.015864372253418, 0.4268922507762909, 0.220709890127182, 4.677481174468994, 0.5643118619918823, -0.6642013192176819, -0.656005859375, -0.060546875, 0.66357421875, 0, 
418, 1479468880, 0.47338498, -0.4988581, -0.48816165, -0.5373505, 9.964341163635254, 0.4486653208732605, 0.19161303341388702, 4.616626262664795, 1.0876051187515259, -0.4620467722415924, -0.658935546875, -0.05712890625, 0.661376953125, 0, 
419, 1479485547, 0.4735435, -0.49865514, -0.48834985, -0.5372283, 9.940326690673828, 0.4682305157184601, 0.20985311269760132, 4.206437587738037, 1.1270612478256226, -0.6825721263885498, -0.658447265625, -0.056640625, 0.660400390625, 0, 
420, 1479502214, 0.47364715, -0.49849004, -0.4884628, -0.5371872, 10.014677047729492, 0.48739439249038696, 0.212154358625412, 3.0031020641326904, 1.308463215827942, -0.7761992812156677, -0.66064453125, -0.055419921875, 0.661376953125, 0, 
421, 1479518881, 0.47361812, -0.4984375, -0.4886794, -0.5370646, 9.959884643554688, 0.4897330105304718, 0.22078625857830048, 2.735346555709839, -0.17350681126117706, -0.9781809449195862, -0.658447265625, -0.055419921875, 0.660888671875, 0, 
422, 1479535548, 0.4737023, -0.49829826, -0.48884732, -0.53696674, 9.939151763916016, 0.5066130757331848, 0.2013968527317047, 3.0916192531585693, 0.7671899199485779, -0.7671579718589783, -0.6572265625, -0.05810546875, 0.660400390625, 0, 
423, 1479552215, 0.47384635, -0.49822783, -0.48893556, -0.53682476, 9.933738708496094, 0.517225980758667, 0.20714837312698364, 3.663877487182617, 0.8556115031242371, 0.11644173413515091, -0.6572265625, -0.055908203125, 0.660888671875, 0, 
424, 1479568882, 0.47408858, -0.4981658, -0.48888814, -0.5367117, 9.930254936218262, 0.49471035599708557, 0.238693505525589, 3.073216438293457, 1.683868408203125, 0.8739308714866638, -0.655517578125, -0.052001953125, 0.659912109375, 0, 
425, 1479585549, 0.47433996, -0.49810356, -0.48874864, -0.53667426, 10.00889778137207, 0.4225679039955139, 0.23202311992645264, 1.8408361673355103, 2.2460289001464844, 0.963639497756958, -0.66015625, -0.055419921875, 0.65966796875, 0, 
426, 1479602216, 0.47441196, -0.4981658, -0.48877007, -0.5365333, 10.03158950805664, 0.37974855303764343, 0.19974997639656067, 2.190321207046509, 0.31688034534454346, 0.5089884400367737, -0.65771484375, -0.05322265625, 0.662109375, 0, 
427, 1479618883, 0.47431105, -0.49818918, -0.48901522, -0.53637755, 10.051344871520996, 0.40058135986328125, 0.16115976870059967, 2.452249765396118, -0.9018936157226562, -0.9782450795173645, -0.658447265625, -0.05322265625, 0.660888671875, 0, 
428, 1479635550, 0.47417137, -0.49813932, -0.4894088, -0.5361884, 9.981870651245117, 0.4849780797958374, 0.14492353796958923, 3.3038978576660156, -1.3558019399642944, -1.7670652866363525, -0.656494140625, -0.052490234375, 0.6591796875, 0, 
429, 1479652217, 0.474015, -0.49809286, -0.48959833, -0.5361967, 9.939080238342285, 0.6001923680305481, 0.18956899642944336, 1.6805132627487183, -0.08852389454841614, -1.765630841255188, -0.655029296875, -0.0546875, 0.661376953125, 0, 
430, 1479668884, 0.47401795, -0.49811313, -0.48950696, -0.5362587, 9.96349048614502, 0.6505512595176697, 0.18486742675304413, 1.3862874507904053, 1.3303747177124023, -0.15021207928657532, -0.65478515625, -0.05419921875, 0.6591796875, 0, 
431, 1479685551, 0.47419468, -0.49829045, -0.48923945, -0.536182, 9.982388496398926, 0.5843544006347656, 0.20366385579109192, 1.1441705226898193, 1.428855538368225, 2.074564218521118, -0.6572265625, -0.052001953125, 0.660400390625, 0, 
432, 1479702218, 0.47450274, -0.49848312, -0.48889494, -0.5360444, 9.959909439086914, 0.46702563762664795, 0.19194641709327698, 0.9897516369819641, 1.8342663049697876, 3.0630102157592773, -0.656005859375, -0.052490234375, 0.660400390625, 0, 
433, 1479718885, 0.47467053, -0.49862373, -0.48858958, -0.5360436, 9.964951515197754, 0.369004487991333, 0.1782957911491394, 0.5856472253799438, 1.9060460329055786, 1.7955143451690674, -0.65673828125, -0.052001953125, 0.66162109375, 0, 
434, 1479735552, 0.4746732, -0.498653, -0.4884482, -0.53614277, 9.932757377624512, 0.3689945638179779, 0.22421690821647644, 0.5834572911262512, 1.5665366649627686, -0.07911122590303421, -0.659423828125, -0.0498046875, 0.658203125, 0, 
435, 1479752219, 0.47441626, -0.49866202, -0.4885934, -0.5362295, 9.912378311157227, 0.4655889868736267, 0.267545223236084, 0.5639277100563049, -0.2190462201833725, -2.0515966415405273, -0.6572265625, -0.052001953125, 0.662109375, 0, 
436, 1479768886, 0.47398284, -0.49881345, -0.48887584, -0.53621453, 9.983016014099121, 0.5700185298919678, 0.22918738424777985, 0.5340888500213623, -2.12764048576355, -2.360063076019287, -0.6572265625, -0.052001953125, 0.66162109375, 0, 
437, 1479785553, 0.4737472, -0.49902606, -0.48900166, -0.5361101, 10.003409385681152, 0.6095232963562012, 0.16300860047340393, 0.4884085953235626, -1.4966717958450317, -0.6032111048698425, -0.655517578125, -0.052001953125, 0.66259765625, 0, 
438, 1479802220, 0.4738422, -0.4992034, -0.48864818, -0.5361833, 9.914717674255371, 0.5842969417572021, 0.23389832675457, -0.493306964635849, 1.9227195978164673, 1.5712878704071045, -0.658447265625, -0.051025390625, 0.664306640625, 0, 
439, 1479818887, 0.47401452, -0.4994107, -0.48813406, -0.53630626, 9.94252872467041, 0.4723292887210846, 0.2502801716327667, -1.2844964265823364, 2.758155345916748, 2.3439722061157227, -0.658447265625, -0.054931640625, 0.662109375, 0, 
440, 1479835554, 0.47400397, -0.49973175, -0.48791847, -0.5362127, 9.971240043640137, 0.36876538395881653, 0.2152106910943985, 0.2710079848766327, 0.03603706881403923, 1.7458512783050537, -0.65771484375, -0.04931640625, 0.66259765625, 0, 
441, 1479852221, 0.47379228, -0.4998913, -0.48808718, -0.5360975, 9.945185661315918, 0.36271584033966064, 0.2092342972755432, 0.6110037565231323, -1.4086921215057373, -0.8079975247383118, -0.65771484375, -0.05322265625, 0.6630859375, 0, 
442, 1479868888, 0.4733355, -0.49999595, -0.4882507, -0.5362544, 9.977702140808105, 0.45899394154548645, 0.21318374574184418, -0.29793331027030945, -1.0492947101593018, -2.752321481704712, -0.656005859375, -0.055419921875, 0.662109375, 0, 
443, 1479885555, 0.47290525, -0.50012404, -0.48828042, -0.5364874, 9.960654258728027, 0.5926786065101624, 0.20126231014728546, -0.7641229033470154, -0.3383501470088959, -2.3587567806243896, -0.65673828125, -0.055908203125, 0.663818359375, 0, 
444, 1479902222, 0.47285202, -0.5002747, -0.488106, -0.5365526, 9.980705261230469, 0.6133413314819336, 0.2304236739873886, 0.18345095217227936, 0.9261552095413208, 0.3544285297393799, -0.655517578125, -0.048583984375, 0.664306640625, 0, 
445, 1479918889, 0.47318307, -0.50041175, -0.48782432, -0.5363894, 9.9674072265625, 0.5091975927352905, 0.27768632769584656, 0.7687906622886658, 1.784116268157959, 2.821418046951294, -0.654296875, -0.052490234375, 0.66259765625, 0, 
446, 1479935556, 0.47328517, -0.5006638, -0.48746204, -0.53639334, 9.950220108032227, 0.39344990253448486, 0.2662670910358429, -0.6089226603507996, 1.4509594440460205, 2.106618881225586, -0.65771484375, -0.05029296875, 0.664306640625, 0, 
447, 1479952223, 0.47322768, -0.5007991, -0.48736835, -0.53640294, 9.939416885375977, 0.34240755438804626, 0.21848838031291962, -0.144282728433609, 0.47904711961746216, 0.1761385202407837, -0.655517578125, -0.05029296875, 0.663818359375, 0, 
448, 1479968890, 0.47297642, -0.5008931, -0.4874405, -0.5364713, 9.97354507446289, 0.413410484790802, 0.2059648036956787, -0.21005617082118988, -0.35333362221717834, -1.4385948181152344, -0.652587890625, -0.0498046875, 0.663818359375, 0, 
449, 1479985557, 0.47275242, -0.5009779, -0.487565, -0.5364763, 9.989301681518555, 0.49396970868110657, 0.19803331792354584, 0.16039954125881195, -0.622420608997345, -1.3474009037017822, -0.655517578125, -0.051513671875, 0.667236328125, 0, 
450, 1480002224, 0.47258675, -0.50108373, -0.48759404, -0.5364971, 10.002938270568848, 0.5228236317634583, 0.1640835404396057, 0.08189660310745239, -0.13260334730148315, -0.7799514532089233, -0.65673828125, -0.052001953125, 0.6650390625, 0, 
451, 1480018891, 0.47253647, -0.5011853, -0.48738444, -0.5366368, 10.00325870513916, 0.528422474861145, 0.18397679924964905, -0.8207782506942749, 1.4542124271392822, 0.06663144379854202, -0.654296875, -0.0537109375, 0.666015625, 0, 
452, 1480035558, 0.4725245, -0.5013572, -0.48690498, -0.53692216, 10.018009185791016, 0.5072286128997803, 0.23110796511173248, -2.0661187171936035, 2.714587450027466, 0.9077524542808533, -0.655029296875, -0.05419921875, 0.66552734375, 0, 
453, 1480052225, 0.47266853, -0.5014994, -0.4863583, -0.5371577, 9.988797187805176, 0.4572180509567261, 0.23028548061847687, -1.5077875852584839, 3.392209768295288, 1.7794678211212158, -0.6572265625, -0.0537109375, 0.663818359375, 0, 
454, 1480068892, 0.47285876, -0.5016406, -0.48584926, -0.537319, 9.967863082885742, 0.38479143381118774, 0.25849029421806335, -1.0635995864868164, 3.167664051055908, 2.0562775135040283, -0.65771484375, -0.054931640625, 0.664306640625, 0, 
455, 1480085559, 0.47293478, -0.50174695, -0.4854595, -0.5375054, 9.945183753967285, 0.35018715262413025, 0.2830638587474823, -0.8562005162239075, 2.6178739070892334, 1.0261343717575073, -0.656005859375, -0.052001953125, 0.663330078125, 0, 
456, 1480102226, 0.47288644, -0.50176764, -0.4853623, -0.5376163, 9.984598159790039, 0.38166311383247375, 0.29167890548706055, -0.04064095392823219, 1.2914435863494873, -0.49194949865341187, -0.65673828125, -0.0537109375, 0.6630859375, 0, 
457, 1480118893, 0.4728543, -0.50172913, -0.4852791, -0.5377556, 10.0052490234375, 0.4597809612751007, 0.2865247428417206, 0.35602930188179016, 1.6245492696762085, -0.7669273614883423, -0.659423828125, -0.051025390625, 0.66162109375, 0, 
458, 1480135560, 0.47306287, -0.5016141, -0.48509383, -0.53784645, 9.988615036010742, 0.5145093202590942, 0.2930431067943573, 0.7105474472045898, 2.8538436889648438, 0.3656468689441681, -0.658447265625, -0.05419921875, 0.660400390625, 0, 
459, 1480152227, 0.4733192, -0.501622, -0.4846883, -0.53797907, 9.978963851928711, 0.47565263509750366, 0.3183080852031708, 0.07726071029901505, 3.437941551208496, 1.58934485912323, -0.65771484375, -0.055419921875, 0.6591796875, 0, 
460, 1480168894, 0.47358102, -0.5016644, -0.48433352, -0.5380288, 9.974580764770508, 0.4488670825958252, 0.3256163001060486, 0.7273750305175781, 2.8876523971557617, 1.827824592590332, -0.658447265625, -0.052001953125, 0.660400390625, 0, 
461, 1480185561, 0.47387606, -0.50164676, -0.48420778, -0.53789866, 9.945953369140625, 0.43670934438705444, 0.3262944519519806, 1.9511241912841797, 1.8332802057266235, 1.5330866575241089, -0.656005859375, -0.04931640625, 0.660400390625, 0, 
462, 1480202228, 0.47411188, -0.501577, -0.48413795, -0.53781873, 9.973567962646484, 0.4222699999809265, 0.27588725090026855, 1.6274052858352661, 1.80721914768219, 0.7757062315940857, -0.656494140625, -0.05078125, 0.6591796875, 0, 
463, 1480218895, 0.47418895, -0.5015429, -0.48404148, -0.53786945, 9.983224868774414, 0.4275527596473694, 0.268999844789505, 0.7626948356628418, 1.6955732107162476, -0.01831948198378086, -0.659423828125, -0.048583984375, 0.659423828125, 0, 
464, 1480235562, 0.47427756, -0.501386, -0.4841223, -0.5378647, 9.929376602172852, 0.481167197227478, 0.2578195333480835, 1.6236146688461304, 1.4028717279434204, -0.8265282511711121, -0.655517578125, -0.04931640625, 0.659912109375, 0, 
465, 1480252229, 0.47444373, -0.501267, -0.484133, -0.53781945, 9.961894035339355, 0.5261959433555603, 0.2882065773010254, 1.7444043159484863, 1.6132928133010864, -0.0360562838613987, -0.655029296875, -0.052001953125, 0.660400390625, 0, 
466, 1480268896, 0.4746831, -0.50125337, -0.48398155, -0.53775734, 9.93816089630127, 0.5108885169029236, 0.2746375799179077, 1.646601915359497, 1.9578218460083008, 1.2151689529418945, -0.65771484375, -0.051513671875, 0.65869140625, 0, 
467, 1480285563, 0.47496444, -0.50122684, -0.48371455, -0.5377739, 9.975692749023438, 0.4255494475364685, 0.30942827463150024, 1.092829942703247, 2.7903244495391846, 1.4696184396743774, -0.658203125, -0.051025390625, 0.657470703125, 0, 
468, 1480302230, 0.47516128, -0.50117725, -0.4835078, -0.5378322, 10.06386947631836, 0.3698284327983856, 0.28919801115989685, 0.986844539642334, 2.5426878929138184, 0.7373512387275696, -0.652587890625, -0.0498046875, 0.65771484375, 0, 
469, 1480318897, 0.47515613, -0.50114805, -0.4834938, -0.53787655, 10.0206937789917, 0.36250585317611694, 0.33182772994041443, 0.8749683499336243, 1.113896369934082, -0.5639084577560425, -0.656005859375, -0.05029296875, 0.6591796875, 0, 
470, 1480335564, 0.47505814, -0.50103647, -0.48362252, -0.53795135, 9.991930961608887, 0.4268506169319153, 0.333530455827713, 1.2738862037658691, 0.7488386034965515, -1.7724437713623047, -0.6572265625, -0.05029296875, 0.65771484375, 0, 
471, 1480352231, 0.4750441, -0.50092095, -0.48389176, -0.5378293, 9.941730499267578, 0.46982160210609436, 0.3385024666786194, 2.7033565044403076, -0.09760358929634094, -1.3180358409881592, -0.656494140625, -0.051513671875, 0.65869140625, 0, 
472, 1480368898, 0.47510102, -0.50083274, -0.48402593, -0.5377402, 9.939364433288574, 0.5306300520896912, 0.3084213137626648, 2.4209892749786377, 0.5971601009368896, -0.6017640233039856, -0.65771484375, -0.04931640625, 0.6552734375, 0, 
473, 1480385565, 0.475392, -0.50064564, -0.48402467, -0.5376586, 10.00230598449707, 0.47798454761505127, 0.2674233019351959, 2.719966411590576, 2.1975693702697754, 0.36968088150024414, -0.658935546875, -0.047607421875, 0.656982421875, 0, 
474, 1480402232, 0.47585225, -0.50038, -0.4838935, -0.5376166, 10.003645896911621, 0.42839938402175903, 0.2972261309623718, 2.814464807510376, 3.609713554382324, 1.0477004051208496, -0.656005859375, -0.05029296875, 0.65478515625, 0, 
475, 1480418899, 0.4761298, -0.5001981, -0.4837084, -0.5377068, 9.953001976013184, 0.4022638201713562, 0.3308483958244324, 1.8107670545578003, 3.3402934074401855, 0.4228017032146454, -0.658203125, -0.047607421875, 0.654296875, 0, 
476, 1480435566, 0.47623447, -0.5000655, -0.4838436, -0.53761584, 10.006237030029297, 0.382333368062973, 0.2794923782348633, 2.4765048027038574, 0.8992619514465332, -0.5733723044395447, -0.658935546875, -0.048095703125, 0.65771484375, 0, 
477, 1480452233, 0.47624326, -0.4999062, -0.48408356, -0.53754014, 9.998763084411621, 0.4286492168903351, 0.24361096322536469, 2.6278629302978516, 0.38967159390449524, -1.426262378692627, -0.6572265625, -0.04931640625, 0.654296875, 0, 
478, 1480468900, 0.47627065, -0.4996554, -0.4840453, -0.5377833, 9.9785737991333, 0.45668825507164, 0.2524382472038269, 1.1159323453903198, 2.805243730545044, -1.7428224086761475, -0.659912109375, -0.04638671875, 0.656982421875, 0, 
479, 1480485567, 0.47633046, -0.49944106, -0.48394868, -0.53801626, 9.976170539855957, 0.49251630902290344, 0.2991880774497986, 0.431708425283432, 2.918394088745117, -1.2842463254928589, -0.66064453125, -0.048828125, 0.653564453125, 0, 
480, 1480502234, 0.4763594, -0.49934903, -0.48384553, -0.5381689, 9.950827598571777, 0.5070878267288208, 0.33455806970596313, 0.4721316993236542, 2.1179399490356445, -0.6939505338668823, -0.659423828125, -0.05029296875, 0.653564453125, 0, 
481, 1480518901, 0.47649774, -0.49929824, -0.48362413, -0.5382927, 9.975654602050781, 0.4544031023979187, 0.3257385194301605, 0.643916130065918, 2.627530336380005, 0.36011457443237305, -0.662353515625, -0.04541015625, 0.65380859375, 0, 
482, 1480535568, 0.47684467, -0.49919897, -0.48338914, -0.5382887, 9.992558479309082, 0.3628704845905304, 0.3039601445198059, 1.099169135093689, 3.0786852836608887, 1.4070466756820679, -0.66162109375, -0.051025390625, 0.652587890625, 0, 
483, 1480552235, 0.47697613, -0.49913144, -0.48322096, -0.5383858, 9.960342407226562, 0.30373701453208923, 0.31055334210395813, 1.1150872707366943, 2.405519485473633, 0.18881681561470032, -0.659912109375, -0.051025390625, 0.65185546875, 0, 
484, 1480568902, 0.47675553, -0.4990405, -0.48329076, -0.5386029, 9.977785110473633, 0.3341333270072937, 0.31868255138397217, 0.5263665914535522, 0.9568392634391785, -2.401068925857544, -0.659423828125, -0.05029296875, 0.65185546875, 0, 
485, 1480585569, 0.47637466, -0.49892953, -0.4835411, -0.53881794, 9.985048294067383, 0.4679681360721588, 0.3293880224227905, 0.43294429779052734, -0.11152410507202148, -3.6874027252197266, -0.659912109375, -0.051513671875, 0.65087890625, 0, 
486, 1480602236, 0.47613183, -0.49891853, -0.48364744, -0.53894717, 10.012247085571289, 0.5321819186210632, 0.3071219325065613, 0.4290255606174469, 0.15836332738399506, -2.064159631729126, -0.659912109375, -0.0498046875, 0.653564453125, 0, 
487, 1480618903, 0.47631788, -0.49887943, -0.48361388, -0.5388491, 10.004504203796387, 0.4938896894454956, 0.29288449883461, 1.9250634908676147, 1.356871247291565, 0.6456577777862549, -0.6611328125, -0.04931640625, 0.65087890625, 0, 
488, 1480635570, 0.47676992, -0.4987673, -0.48345476, -0.53869593, 9.967641830444336, 0.3906893730163574, 0.3049267530441284, 2.6990725994110107, 2.729846477508545, 1.9959657192230225, -0.659912109375, -0.048828125, 0.650146484375, 0, 
489, 1480652237, 0.4770526, -0.49866968, -0.48340023, -0.5385849, 9.926971435546875, 0.3214496970176697, 0.35075560212135315, 2.4835736751556396, 1.9205166101455688, 0.9266929626464844, -0.662353515625, -0.050537109375, 0.6513671875, 0, 
490, 1480668904, 0.47689664, -0.49867624, -0.48364824, -0.53849435, 9.956095695495605, 0.3236979842185974, 0.333137571811676, 1.9419418573379517, -0.834826648235321, -1.4473414421081543, -0.6572265625, -0.051513671875, 0.65087890625, 0, 
491, 1480685571, 0.47648755, -0.49867752, -0.48407754, -0.5384693, 9.964659690856934, 0.4360564947128296, 0.315120130777359, 1.7003374099731445, -2.0223593711853027, -3.2348005771636963, -0.663330078125, -0.051025390625, 0.653076171875, 0, 
492, 1480702238, 0.47623596, -0.4986151, -0.48433796, -0.5385156, 9.992162704467773, 0.5410653948783875, 0.3041855990886688, 1.3763624429702759, -0.47245821356773376, -2.52663516998291, -0.659912109375, -0.051513671875, 0.653564453125, 0, 
493, 1480718905, 0.47622156, -0.49864402, -0.4843417, -0.53849816, 9.982187271118164, 0.570268452167511, 0.33747753500938416, 1.1489217281341553, 0.6009251475334167, -0.2537514269351959, -0.662353515625, -0.051025390625, 0.653564453125, 0, 
494, 1480735572, 0.47628173, -0.49884278, -0.48435134, -0.53825206, 9.963019371032715, 0.5194864273071289, 0.3030829429626465, 1.5676509141921997, -0.5852053761482239, 1.3149816989898682, -0.663330078125, -0.054443359375, 0.654052734375, 0, 
495, 1480752239, 0.47627676, -0.4991196, -0.48435834, -0.53799367, 9.971923828125, 0.4479365348815918, 0.23140162229537964, 1.6512508392333984, -1.104784607887268, 1.4055737257003784, -0.65771484375, -0.0498046875, 0.654296875, 0, 
496, 1480768906, 0.47632143, -0.49919236, -0.4842864, -0.53795147, 9.994550704956055, 0.382459819316864, 0.23186078667640686, 0.9251564145088196, 0.7966702580451965, 0.4515647292137146, -0.658935546875, -0.048095703125, 0.65478515625, 0, 
497, 1480785573, 0.4764065, -0.49907985, -0.48412526, -0.53812534, 9.97301959991455, 0.389430969953537, 0.3304133415222168, 0.421725869178772, 2.6447033882141113, -0.42615047097206116, -0.65771484375, -0.0498046875, 0.653564453125, 0, 
498, 1480802240, 0.47637606, -0.49899632, -0.4841153, -0.53823876, 9.917913436889648, 0.4181678593158722, 0.43146824836730957, 0.8914114832878113, 1.456107497215271, -1.0703097581863403, -0.662353515625, -0.048095703125, 0.653076171875, 0, 
499, 1480818907, 0.47622463, -0.4991133, -0.48444346, -0.5379692, 9.972569465637207, 0.49052008986473083, 0.4044540822505951, 2.1428608894348145, -2.1166656017303467, -0.7651217579841614, -0.6611328125, -0.04638671875, 0.653076171875, 0, 
500, 1480835574, 0.47612032, -0.49933422, -0.48489547, -0.5374488, 9.99931812286377, 0.4989655911922455, 0.2985265552997589, 2.983367681503296, -3.623230457305908, 0.1416894793510437, -0.658935546875, -0.0498046875, 0.656494140625, 0, 
501, 1480852241, 0.47610354, -0.49952695, -0.48500586, -0.537185, 9.976573944091797, 0.45542436838150024, 0.22110824286937714, 1.8592897653579712, -1.2058522701263428, 0.7282458543777466, -0.6572265625, -0.0498046875, 0.6552734375, 0, 
502, 1480868908, 0.4761281, -0.4995707, -0.48479208, -0.5373156, 9.965677261352539, 0.42407479882240295, 0.22883111238479614, 0.039853356778621674, 1.9009872674942017, 0.20967835187911987, -0.6611328125, -0.0498046875, 0.6552734375, 0, 
503, 1480885575, 0.47607082, -0.4995507, -0.48458508, -0.53757143, 9.955666542053223, 0.44152989983558655, 0.33775004744529724, -0.5764457583427429, 2.2645978927612305, -0.7448621392250061, -0.658203125, -0.0498046875, 0.652587890625, 0, 
