DeviceTag:;Xsens_5;;;;;;;;;;;;;;;
FirmwareVersion:;2.2.1;;;;;;;;;;;;;;;
AppVersion:;2023.0.0;;;;;;;;;;;;;;;
StartTime:;2023-07-04 14:47:22.000 +0200;;;;;;;;;;;;;;;
© Movella Technologies B. V. 2005-2023;;;;;;;;;;;;;;;;
;;;;;;;;;;;;;;;;
PacketCounter;SampleTimeFine;Quat_W;Quat_X;Quat_Y;Quat_Z;Acc_X;Acc_Y;Acc_Z;Gyr_X;Gyr_Y;Gyr_Z;Mag_X;Mag_Y;Mag_Z;Status;
0;2164768552;0.4489716;-0.48519447;-0.37788367;-0.64823973;0;0;0;0;0;0;-0.918701172;-0.229248047;0.456787109;0; 
1;2164785219;0.44851476;-0.48565787;-0.3778334;-0.6482383;9.573111534;0.518027484;2.412673473;-2.276008368;-2.442567825;-0.695576847;-0.918457031;-0.225341797;0.456298828;0; 
2;2164801886;0.44850594;-0.48591703;-0.37802076;-0.6479409;9.568496704;0.494838983;2.384225607;-1.736553907;-3.090710402;-0.732600093;-0.916992188;-0.229248047;0.458496094;0; 
3;2164818553;0.44827545;-0.4863987;-0.37807563;-0.647707;9.577206612;0.520783067;2.417306662;-0.557063401;-3.423790216;-0.768150449;-0.91796875;-0.230224609;0.458007813;0; 
4;2164835220;0.44794005;-0.48683637;-0.37811288;-0.6475887;9.607146263;0.53724581;2.429245234;-0.492212147;-3.854801655;-0.825292587;-0.916503906;-0.230957031;0.458007813;0; 
5;2164851887;0.4475111;-0.48729238;-0.37809068;-0.6475551;9.629295349;0.523962677;2.445366859;-1.355423927;-4.158004284;-0.634208858;-0.918212891;-0.232421875;0.463623047;0; 
6;2164868554;0.4471038;-0.4877268;-0.37810412;-0.6475013;9.615927696;0.520117044;2.455600739;-1.35763967;-4.533396721;-0.642904401;-0.916503906;-0.228515625;0.4609375;0; 
7;2164885221;0.44682822;-0.4880752;-0.3782822;-0.6473253;9.620294571;0.49745214;2.448452711;-1.084826112;-5.089487553;-0.793123007;-0.916992188;-0.231445313;0.464111328;0; 
8;2164901888;0.4464809;-0.48849604;-0.37841436;-0.64717;9.573651314;0.509755135;2.449186325;-1.03294754;-5.400066853;-0.801242113;-0.916992188;-0.233154297;0.463134766;0; 
9;2164918555;0.4459764;-0.48906144;-0.37856066;-0.64700526;9.509403229;0.542243242;2.462795973;-1.298909783;-6.587715149;-0.956980169;-0.915283203;-0.232421875;0.461914063;0; 
10;2164935222;0.44530326;-0.48974156;-0.37882453;-0.6468001;9.481803894;0.516919672;2.459469318;-1.820115924;-8.238775253;-1.52020371;-0.921142578;-0.232421875;0.465820313;0; 
11;2164951889;0.44451448;-0.49048656;-0.379201;-0.64655733;9.522662163;0.539013386;2.44125843;-2.534659147;-9.474114418;-2.284141302;-0.919433594;-0.232910156;0.469726563;0; 
12;2164968556;0.4435879;-0.49133116;-0.37969482;-0.6462626;9.528000832;0.539160252;2.337552547;-2.906248808;-10.8208847;-2.856624126;-0.916748047;-0.235107422;0.471435547;0; 
13;2164985223;0.44260845;-0.492208;-0.3804521;-0.64582145;9.586367607;0.584356666;2.265804529;-1.249375343;-12.0915184;-3.319510221;-0.915039063;-0.234619141;0.4765625;0; 
14;2165001890;0.4416902;-0.49300563;-0.38143277;-0.645263;9.63766861;0.661771119;2.211108446;-0.115398072;-12.31963825;-3.670891285;-0.915771484;-0.238037109;0.477050781;0; 
15;2165018557;0.4406817;-0.49385917;-0.38228202;-0.64479715;9.731788635;0.751675844;2.169025421;-0.892346919;-11.70524025;-3.399972439;-0.915283203;-0.240722656;0.479980469;0; 
16;2165035224;0.439652;-0.49474794;-0.3830213;-0.64438;9.773180008;0.750839531;2.138523579;-1.332667828;-11.07562923;-2.782795668;-0.916503906;-0.241210938;0.483398438;0; 
17;2165051891;0.43878153;-0.49550816;-0.38375798;-0.6439505;9.776881218;0.789241314;2.131196499;-0.814829886;-9.894406319;-2.276803255;-0.916503906;-0.243408203;0.487792969;0; 
18;2165068558;0.437941;-0.49621692;-0.38431373;-0.6436455;9.774198532;0.811562538;2.119571447;-1.539169788;-8.453421593;-1.830924273;-0.914794922;-0.241699219;0.485595703;0; 
19;2165085225;0.437225;-0.49681816;-0.3846592;-0.64346206;9.761026382;0.79521811;2.094846964;-2.188785076;-6.514130592;-1.104560852;-0.909912109;-0.244628906;0.489990234;0; 
20;2165101892;0.4367457;-0.49723408;-0.3850212;-0.64324987;9.763487816;0.734227598;2.086407185;-0.739233911;-5.1434021;-0.465677381;-0.913818359;-0.243896484;0.490722656;0; 
21;2165118559;0.43659338;-0.49735346;-0.38565597;-0.6428806;9.736332893;0.708269656;2.177174091;2.779074192;-4.279306412;-0.322976202;-0.913818359;-0.243896484;0.491210938;0; 
22;2165135226;0.43658045;-0.49730736;-0.386434;-0.6424576;9.719654083;0.751051486;2.277899027;4.571041584;-3.861511946;-0.533243656;-0.912597656;-0.241210938;0.492919922;0; 
23;2165151893;0.43650314;-0.49734926;-0.38702846;-0.6421198;9.725613594;0.768903434;2.326839447;2.627357483;-3.769460201;-0.325614274;-0.916015625;-0.243896484;0.4921875;0; 
24;2165168560;0.43623227;-0.49753088;-0.38739958;-0.6419394;9.641666412;0.728090107;2.319475174;0.657779038;-3.834836721;-0.423377991;-0.912841797;-0.243896484;0.494628906;0; 
25;2165185227;0.43598413;-0.49767798;-0.3878657;-0.64171237;9.587039948;0.643652499;2.301282167;1.354277968;-4.220115185;-0.658361733;-0.912109375;-0.245117188;0.496337891;0; 
26;2165201894;0.43584526;-0.49768957;-0.38857687;-0.64136755;9.577955246;0.65403372;2.290977716;3.442993879;-4.595968723;-1.150778651;-0.912353516;-0.243896484;0.497802734;0; 
27;2165218561;0.43570346;-0.49766013;-0.3893765;-0.64100164;9.60799408;0.696255684;2.295990229;3.875990152;-4.863352776;-1.627136707;-0.913818359;-0.245117188;0.495605469;0; 
28;2165235228;0.4353935;-0.49774477;-0.39003623;-0.6407452;9.630102158;0.720825255;2.317971706;2.383665085;-5.08038187;-1.899655581;-0.912841797;-0.245117188;0.49609375;0; 
29;2165251895;0.43503058;-0.49787298;-0.39057523;-0.64056385;9.635115623;0.690848887;2.282262564;1.319828987;-4.876812458;-1.870329261;-0.913330078;-0.24609375;0.499023438;0; 
30;2165268562;0.43470615;-0.49795565;-0.391129;-0.64038193;9.686605453;0.673962414;2.233002186;1.69015038;-4.663087368;-1.922873735;-0.912841797;-0.247314453;0.500244141;0; 
31;2165285229;0.43447387;-0.49795413;-0.39175647;-0.6401572;9.724597931;0.651999474;2.223178387;2.757969379;-4.420303822;-1.918173671;-0.911865234;-0.249023438;0.500732422;0; 
32;2165301896;0.43427476;-0.49789375;-0.39247546;-0.63989866;9.747908592;0.695758462;2.26211381;3.760322332;-4.448183537;-2.169933558;-0.911132813;-0.249023438;0.501220703;0; 
33;2165318563;0.4340543;-0.49786282;-0.39310545;-0.6396857;9.740056992;0.703849375;2.246064901;3.061608076;-4.234201908;-2.065907717;-0.911865234;-0.249511719;0.504150391;0; 
34;2165335230;0.43379593;-0.49787214;-0.39360732;-0.639545;9.764842987;0.706914425;2.211588144;2.026265621;-3.896460295;-1.947448969;-0.911376953;-0.250732422;0.503417969;0; 
35;2165351897;0.4335859;-0.49785882;-0.39413255;-0.6393744;9.722473145;0.634418309;2.172543287;2.621747971;-3.820646048;-1.78939271;-0.910644531;-0.25;0.501953125;0; 
36;2165368564;0.43355048;-0.49767113;-0.39493978;-0.6390461;9.671620369;0.679887176;2.160489082;5.303655624;-3.953859091;-2.073387146;-0.911865234;-0.252197266;0.503417969;0; 
37;2165385231;0.43347436;-0.49751616;-0.39572808;-0.6387309;9.658836365;0.721791804;2.138794661;5.160043716;-4.076722145;-2.134267807;-0.908447266;-0.251708984;0.505859375;0; 
38;2165401898;0.4333337;-0.4974234;-0.396337;-0.63852084;9.683691025;0.738690376;2.100859642;3.630106926;-3.619228125;-1.982179642;-0.913085938;-0.255126953;0.506347656;0; 
39;2165418565;0.43316075;-0.4973681;-0.39681876;-0.638382;9.664983749;0.757576466;2.075989962;2.954815865;-3.198745012;-1.75895226;-0.91015625;-0.253417969;0.506347656;0; 
40;2165435232;0.4330436;-0.4972696;-0.3973133;-0.63823056;9.655202866;0.750969112;2.046638012;3.172895193;-2.922767878;-1.6885432;-0.911376953;-0.253417969;0.509765625;0; 
41;2165451899;0.43298644;-0.49713755;-0.3977926;-0.6380737;9.678834915;0.740190625;2.01112318;3.308488369;-2.559925556;-1.48554945;-0.91015625;-0.25390625;0.507568359;0; 
42;2165468566;0.43295962;-0.49700856;-0.39815107;-0.6379687;9.65678215;0.771483243;1.982583642;2.843720675;-1.904637337;-1.084147215;-0.909667969;-0.252685547;0.511474609;0; 
43;2165485233;0.43298364;-0.4968642;-0.39842966;-0.637891;9.689448357;0.79433316;1.952916503;2.44370079;-1.34003067;-0.756791174;-0.909912109;-0.25390625;0.513183594;0; 
44;2165501900;0.43303418;-0.4967175;-0.39865685;-0.63782895;9.673212051;0.781569481;1.941156387;2.309400797;-1.001277089;-0.515378714;-0.911376953;-0.256103516;0.509033203;0; 
45;2165518567;0.43307227;-0.496597;-0.39880764;-0.6378028;9.681255341;0.798009872;1.973573327;2.04956007;-0.732664168;-0.295544952;-0.909179688;-0.256103516;0.510253906;0; 
46;2165535234;0.4330676;-0.49654853;-0.39883667;-0.6378255;9.709077835;0.786367953;1.979487062;0.989886105;-0.605830014;-0.025753573;-0.910888672;-0.255126953;0.511474609;0; 
47;2165551901;0.43304142;-0.49655673;-0.398799;-0.6378605;9.693693161;0.760341287;1.94603622;0.267966449;-0.655646622;0.190795392;-0.910400391;-0.255615234;0.509765625;0; 
48;2165568568;0.43304005;-0.49656057;-0.39881474;-0.6378485;9.692344666;0.744141996;1.935844302;0.781782806;-0.848907232;0.242968455;-0.911376953;-0.254394531;0.510253906;0; 
49;2165585235;0.4330758;-0.49657673;-0.39886165;-0.63778245;9.713381767;0.766684294;1.915374398;1.054634929;-1.054884672;0.460279405;-0.908203125;-0.256103516;0.509765625;0; 
50;2165601902;0.43314475;-0.4966268;-0.3988709;-0.6376908;9.699233055;0.767080963;1.911842465;1.171147108;-1.036738157;0.932564795;-0.910888672;-0.255126953;0.510742188;0; 
51;2165618569;0.4332382;-0.49670783;-0.39884752;-0.63757885;9.691188812;0.771342278;1.912324429;0.922140419;-1.058175921;1.260561109;-0.910400391;-0.256103516;0.510253906;0; 
52;2165635236;0.43334597;-0.49681216;-0.3988154;-0.6374444;9.689535141;0.763144732;1.925347447;1.080888033;-1.131300092;1.50803113;-0.907714844;-0.256103516;0.512451172;0; 
53;2165651903;0.43346706;-0.49692595;-0.398841;-0.6372574;9.664772987;0.766838968;1.907211423;1.446560383;-1.468273401;1.535884619;-0.910400391;-0.256103516;0.510253906;0; 
54;2165668570;0.43354484;-0.49709383;-0.3988867;-0.6370447;9.65190506;0.764105439;1.909503102;1.367878318;-1.943210006;1.513448119;-0.909912109;-0.25390625;0.513671875;0; 
55;2165685237;0.43358725;-0.49730608;-0.39891234;-0.63683414;9.652740479;0.785994112;1.876952767;0.843637526;-2.160981894;1.504509211;-0.910400391;-0.254394531;0.512451172;0; 
56;2165701904;0.43357378;-0.49758616;-0.3988641;-0.6366548;9.666438103;0.76985383;1.846098661;0.103853092;-2.257285595;1.618370414;-0.908203125;-0.255126953;0.513183594;0; 
57;2165718571;0.43362334;-0.49784118;-0.39893904;-0.63637465;9.681764603;0.765751004;1.848845363;1.237343073;-2.658546686;1.708386183;-0.909179688;-0.252197266;0.511962891;0; 
58;2165735238;0.43376338;-0.49800774;-0.399258;-0.6359487;9.68309021;0.767473698;1.869320273;3.163380623;-3.235614777;1.438492775;-0.908203125;-0.256103516;0.515380859;0; 
59;2165751905;0.43380988;-0.49826047;-0.3995377;-0.6355431;9.756101608;0.841448724;1.874172926;2.593523026;-3.647299767;1.382951379;-0.906494141;-0.256103516;0.515380859;0; 
60;2165768572;0.43366718;-0.49870455;-0.3995367;-0.635293;9.761880875;0.833869517;1.836945653;-0.18866317;-3.610776663;1.607165217;-0.906005859;-0.254394531;0.517578125;0; 
61;2165785239;0.43354306;-0.49914935;-0.3995294;-0.635033;9.752718925;0.803601265;1.793286562;-0.260660499;-3.569373608;1.724445701;-0.906982422;-0.254394531;0.515380859;0; 
62;2165801906;0.4335323;-0.49947703;-0.39969367;-0.634679;9.733747482;0.811577201;1.77261579;1.4928298;-3.559435129;1.593897581;-0.905517578;-0.251220703;0.518798828;0; 
63;2165818573;0.43357763;-0.49975494;-0.39988455;-0.63430893;9.792286873;0.850330353;1.795605063;1.78211236;-3.317023754;1.626182318;-0.907226563;-0.254394531;0.517578125;0; 
64;2165835240;0.43360603;-0.5000563;-0.39998412;-0.6339892;9.761169434;0.857016385;1.798010468;1.422254086;-2.98026824;1.847681046;-0.903320313;-0.25390625;0.519287109;0; 
65;2165851907;0.43367153;-0.500319;-0.39999434;-0.63373077;9.755000114;0.922336698;1.825524688;1.074945807;-2.221952677;2.032963276;-0.905029297;-0.25;0.520996094;0; 
66;2165868574;0.43373403;-0.5005872;-0.39989194;-0.6335406;9.718017578;0.903005362;1.840794802;0.11541722;-1.695278883;2.193004131;-0.905517578;-0.249511719;0.516357422;0; 
67;2165885241;0.4337637;-0.50086284;-0.39975515;-0.6333887;9.701415062;0.85077244;1.84474659;-0.19313255;-1.573106408;2.107009649;-0.908203125;-0.25;0.520996094;0; 
68;2165901908;0.43383822;-0.5010581;-0.39969802;-0.6332191;9.763784409;0.799891949;1.873999715;0.529843569;-1.399439454;1.857964516;-0.905029297;-0.249511719;0.519775391;0; 
69;2165918575;0.43395075;-0.50118977;-0.39976853;-0.6329934;9.757070541;0.820514202;1.93138659;1.568579316;-1.593045831;1.583383322;-0.907226563;-0.250976563;0.522705078;0; 
70;2165935242;0.4340263;-0.5013074;-0.39989492;-0.6327685;9.757528305;0.889287651;1.954861283;1.823912144;-1.796397805;1.213612914;-0.905029297;-0.249511719;0.520263672;0; 
71;2165951909;0.43396172;-0.5015354;-0.39991274;-0.63262093;9.730488777;0.900207877;1.951333165;0.299431682;-2.084438324;1.06180644;-0.907226563;-0.250976563;0.522705078;0; 
72;2165968576;0.4337826;-0.50182676;-0.39986736;-0.63254154;9.692045212;0.854680657;1.970007658;-0.658464193;-2.254570723;0.782666504;-0.902832031;-0.252685547;0.521484375;0; 
73;2165985243;0.43357983;-0.50210553;-0.39987993;-0.6324512;9.709383011;0.787458122;1.958259225;-0.332247913;-2.483189583;0.504230797;-0.901611328;-0.250488281;0.520996094;0; 
74;2166001910;0.43351093;-0.5022403;-0.40004665;-0.63228613;9.709009171;0.799399555;1.953398466;1.317869306;-2.226755142;0.363911629;-0.904296875;-0.250488281;0.520996094;0; 
75;2166018577;0.433484;-0.50230867;-0.40031016;-0.6320834;9.714080811;0.848344743;1.95190227;2.194566727;-2.252457619;0.146267727;-0.905517578;-0.250976563;0.524169922;0; 
76;2166035244;0.43343085;-0.50236;-0.40057728;-0.6319099;9.734013557;0.851533949;1.949127555;2.061598301;-2.171957016;-0.109596752;-0.906738281;-0.248779297;0.523193359;0; 
77;2166051911;0.43335277;-0.5023973;-0.40079743;-0.63179404;9.754107475;0.87564975;1.961878181;1.539304137;-1.86080122;-0.277628869;-0.903808594;-0.249511719;0.524902344;0; 
78;2166068578;0.43321052;-0.50246173;-0.40096658;-0.6317331;9.744997025;0.831927955;1.932444215;0.916966558;-1.82171607;-0.449720591;-0.904052734;-0.250976563;0.525878906;0; 
79;2166085245;0.43310985;-0.5024728;-0.40116072;-0.63167;9.757835388;0.780295849;1.944090128;1.346594095;-1.566024542;-0.488126844;-0.904541016;-0.254882813;0.523681641;0; 
80;2166101912;0.43300954;-0.5024542;-0.40145496;-0.6315669;9.724627495;0.769607306;1.927558184;2.266743183;-1.861223817;-0.744561195;-0.903808594;-0.252197266;0.522705078;0; 
81;2166118579;0.4329104;-0.5024122;-0.40180358;-0.63144654;9.702572823;0.777672887;1.951752067;2.450642347;-2.000133753;-0.972847104;-0.901123047;-0.252685547;0.525878906;0; 
82;2166135246;0.43275967;-0.50240195;-0.40208197;-0.63138056;9.690587044;0.7939803;1.937752008;1.710780978;-1.895813584;-1.029797077;-0.903320313;-0.252685547;0.526611328;0; 
83;2166151913;0.43258938;-0.5023676;-0.4023892;-0.63132894;9.697701454;0.759617388;1.877028942;1.790807962;-1.89491713;-1.324765682;-0.903808594;-0.250488281;0.525878906;0; 
84;2166168580;0.43253225;-0.50221574;-0.40288842;-0.6311706;9.709299088;0.7618559;1.848899961;3.529782534;-2.026284695;-1.529744267;-0.903808594;-0.254394531;0.523681641;0; 
85;2166185247;0.43246326;-0.5020515;-0.40334627;-0.6310559;9.745136261;0.788725138;1.836965561;3.501505375;-1.712631583;-1.557866693;-0.904052734;-0.256103516;0.524414063;0; 
86;2166201914;0.43237025;-0.5019316;-0.40375754;-0.63095206;9.723286629;0.801912665;1.837733269;3.117891788;-1.793862343;-1.400220871;-0.90234375;-0.255615234;0.526611328;0; 
87;2166218581;0.43226832;-0.50179523;-0.40420994;-0.6308407;9.73963356;0.803424239;1.832321048;3.234518766;-1.906340361;-1.62161684;-0.900146484;-0.2578125;0.524902344;0; 
88;2166235248;0.43202734;-0.5017541;-0.40452325;-0.6308378;9.716947556;0.812597632;1.813711524;1.68168509;-1.910797119;-1.783796549;-0.902832031;-0.2578125;0.528320313;0; 
89;2166251915;0.4316887;-0.50177234;-0.40475702;-0.630905;9.721986771;0.80802691;1.757201076;0.562896669;-1.969527125;-1.987519979;-0.90234375;-0.254394531;0.532226563;0; 
90;2166268582;0.43133983;-0.5017977;-0.404997;-0.63096964;9.729227066;0.776671708;1.730859876;0.325940788;-2.069826126;-2.065023899;-0.904052734;-0.258789063;0.526611328;0; 
91;2166285249;0.43107992;-0.50172853;-0.40534538;-0.63097835;9.7384758;0.814712107;1.733243108;1.760264754;-1.906340241;-2.115826607;-0.901367188;-0.2578125;0.532226563;0; 
92;2166301916;0.43084267;-0.50164336;-0.40578064;-0.63092834;9.75617218;0.855193138;1.727814794;2.291280508;-2.239984512;-2.212886333;-0.902832031;-0.258789063;0.530029297;0; 
93;2166318583;0.4305236;-0.50160474;-0.40609887;-0.6309722;9.799132347;0.896420836;1.727114201;1.168355227;-1.989927411;-2.299930811;-0.901855469;-0.260498047;0.532226563;0; 
94;2166335250;0.4300749;-0.5016964;-0.4061226;-0.63119;9.805581093;0.911998332;1.702084064;-1.385903239;-1.439292908;-1.987251043;-0.904052734;-0.259521484;0.529296875;0; 
95;2166351917;0.4296671;-0.5017967;-0.4061;-0.63140255;9.776024818;0.851506114;1.658497453;-1.546674132;-1.245417476;-1.622001171;-0.901855469;-0.26171875;0.532226563;0; 
96;2166368584;0.42938936;-0.5018262;-0.40622294;-0.6314888;9.783072472;0.800608158;1.687159657;0.1411964;-1.430341005;-1.375837207;-0.903564453;-0.26171875;0.531494141;0; 
97;2166385251;0.4291933;-0.50178254;-0.40647024;-0.6314978;9.791454315;0.85041362;1.678175688;1.375766993;-1.514030814;-1.435732722;-0.900878906;-0.262695313;0.532714844;0; 
98;2166401918;0.42896846;-0.50181276;-0.40674767;-0.631448;9.72149086;0.848012924;1.72005403;1.366021276;-2.20046401;-1.284477115;-0.903076172;-0.264404297;0.532226563;0; 
99;2166418585;0.42875305;-0.50187016;-0.40719834;-0.6312579;9.693614006;0.862117529;1.736389637;1.700869322;-3.351460695;-1.480478287;-0.900878906;-0.267822266;0.531005859;0; 
100;2166435252;0.4283281;-0.5021044;-0.40765226;-0.63106745;9.688270569;0.874094784;1.73918438;1.484851599;-4.631352901;-1.736771703;-0.900878906;-0.263916016;0.534423828;0; 
101;2166451919;0.4277919;-0.5024515;-0.40825456;-0.6307653;9.655892372;0.870229244;1.71625793;1.504445434;-6.2776227;-2.123677492;-0.900390625;-0.267822266;0.537841797;0; 
102;2166468586;0.42724952;-0.50281495;-0.40910015;-0.63029546;9.6731987;0.889951229;1.695055366;2.1795578;-7.731309891;-2.582067966;-0.902587891;-0.266601563;0.537841797;0; 
103;2166485253;0.42669415;-0.5032105;-0.41005155;-0.6297374;9.657582283;0.895371199;1.615727186;2.740104914;-8.525650024;-2.654769659;-0.897705078;-0.265625;0.540527344;0; 
104;2166501920;0.4261729;-0.5035827;-0.4112478;-0.6290123;9.633135796;0.956686795;1.595143199;4.458026886;-9.623042107;-2.928736925;-0.897705078;-0.267822266;0.543457031;0; 
105;2166518587;0.42564392;-0.5039641;-0.41266802;-0.6281343;9.680467606;1.015495539;1.566621542;5.804385185;-10.86968994;-3.259064198;-0.901123047;-0.270019531;0.545166016;0; 
106;2166535254;0.42494622;-0.50448084;-0.41402373;-0.6272993;9.65222168;1.077455401;1.5730654;4.423527241;-11.59341526;-3.498376369;-0.8984375;-0.270507813;0.547851563;0; 
107;2166551921;0.4239507;-0.5051888;-0.41540876;-0.6264868;9.636281967;1.108052135;1.562688947;2.893923283;-13.2769022;-4.39357996;-0.900146484;-0.269287109;0.549560547;0; 
108;2166568588;0.4225893;-0.50617415;-0.41671857;-0.625741;9.690127373;1.023252487;1.490805387;0.30059731;-15.06844902;-5.098301888;-0.897460938;-0.271484375;0.555175781;0; 
109;2166585255;0.42131215;-0.5070573;-0.4181429;-0.6249365;9.762201309;1.04403019;1.405252218;1.551599383;-14.92710495;-5.251389503;-0.896240234;-0.273193359;0.55859375;0; 
110;2166601922;0.42014036;-0.5078852;-0.41955945;-0.624103;9.780569077;1.108125448;1.290609002;2.129038334;-14.4623909;-4.841265678;-0.894775391;-0.276611328;0.565917969;0; 
111;2166618589;0.4190819;-0.5086606;-0.42100042;-0.62321216;9.814225197;1.147319198;1.25579989;2.946289301;-14.17410564;-4.41877079;-0.890869141;-0.276611328;0.562988281;0; 
112;2166635256;0.41825205;-0.5092486;-0.4224641;-0.62229824;9.821550369;1.237830639;1.264884233;4.448141098;-12.84708309;-3.984070778;-0.889892578;-0.277099609;0.568115234;0; 
113;2166651923;0.41744795;-0.5097795;-0.42369768;-0.62156457;9.799655914;1.296552181;1.283263922;3.193347931;-11.23076439;-3.737522364;-0.893798828;-0.278076172;0.572509766;0; 
114;2166668590;0.4164849;-0.51043564;-0.4245999;-0.62105626;9.762219429;1.218115211;1.275646091;0.203678668;-10.48813534;-3.5195961;-0.890625;-0.279785156;0.57421875;0; 
115;2166685257;0.4155417;-0.5110704;-0.42529967;-0.62068725;9.828448296;1.118716121;1.243097186;-0.937322557;-9.273283958;-3.17331171;-0.892822266;-0.280273438;0.579833984;0; 
116;2166701924;0.4148279;-0.5115225;-0.42601004;-0.62030494;9.848937988;1.026332736;1.226934433;0.474571317;-7.901569366;-2.725908518;-0.889648438;-0.284423828;0.578125;0; 
117;2166718591;0.41443056;-0.51170075;-0.4270294;-0.6197223;9.82354641;1.070611;1.250506878;4.274830818;-7.393312931;-2.696595192;-0.888427734;-0.284179688;0.582763672;0; 
118;2166735258;0.41417888;-0.5117481;-0.4281511;-0.619077;9.842806816;1.165250421;1.274419546;5.781716347;-6.92599535;-2.643436193;-0.888671875;-0.284179688;0.585449219;0; 
119;2166751925;0.41376096;-0.51195455;-0.4288724;-0.6186866;9.803346634;1.18956852;1.342925668;2.28943634;-6.06154108;-2.195123911;-0.889160156;-0.285888672;0.581542969;0; 
120;2166768592;0.41324666;-0.51225823;-0.4293448;-0.6184513;9.794994354;1.11761272;1.328731179;0.158856362;-5.520830631;-1.876732111;-0.887939453;-0.284179688;0.586181641;0; 
121;2166785259;0.4127517;-0.5125691;-0.4296835;-0.61828893;9.822052002;1.037715554;1.282366276;-0.575530291;-4.87240696;-1.510150552;-0.889648438;-0.287109375;0.587890625;0; 
122;2166801926;0.4124515;-0.512734;-0.4300127;-0.6181236;9.856931686;1.057865858;1.235839248;0.49572739;-3.671235323;-1.077206254;-0.888183594;-0.286376953;0.587158203;0; 
123;2166818593;0.4122736;-0.51283616;-0.43038458;-0.61789876;9.823901176;1.063389063;1.25621891;1.464053988;-3.38206768;-0.730115652;-0.886474609;-0.287109375;0.587890625;0; 
124;2166835260;0.41211855;-0.5129172;-0.43077162;-0.6176652;9.842622757;1.146573067;1.307929277;1.695746541;-3.310211182;-0.727989793;-0.885253906;-0.288818359;0.587158203;0; 
125;2166851927;0.41179025;-0.5131009;-0.43075302;-0.61774427;9.859965324;1.161524415;1.329140663;-1.853143096;-2.021687269;-0.614282191;-0.889160156;-0.285400391;0.589355469;0; 
126;2166868594;0.41124082;-0.5135324;-0.43025595;-0.61809826;9.818211555;1.120904684;1.253949285;-6.180230618;-1.422068715;0.090624154;-0.886962891;-0.288818359;0.588378906;0; 
127;2166885261;0.4108499;-0.5138888;-0.42992532;-0.6182919;9.79907608;0.999875009;1.20268476;-4.224738598;-1.681935072;0.406800121;-0.887695313;-0.291992188;0.588378906;0; 
128;2166901928;0.41071603;-0.5139923;-0.42991805;-0.6182999;9.791540146;1.078413963;1.216727138;-0.677314997;-1.42589736;0.124753043;-0.885986328;-0.291015625;0.591064453;0; 
129;2166918595;0.41054398;-0.5141277;-0.42976665;-0.6184069;9.834836006;1.1724962;1.229189396;-1.806143403;-0.925463617;0.282680929;-0.884765625;-0.289794922;0.588867188;0; 
130;2166935262;0.41014603;-0.51451486;-0.42911285;-0.61880285;9.820560455;1.144820929;1.208368182;-6.305540085;-0.235175848;1.029265761;-0.888183594;-0.291503906;0.587890625;0; 
131;2166951929;0.4099307;-0.5148149;-0.428646;-0.61901957;9.769797325;1.049373746;1.183670759;-4.089118958;-0.494645298;1.393375754;-0.886474609;-0.289794922;0.591064453;0; 
132;2166968596;0.40995824;-0.51488847;-0.4285516;-0.6190053;9.797118187;1.071168423;1.181815028;-0.324359238;-0.689391434;1.088020921;-0.888671875;-0.291015625;0.587890625;0; 
133;2166985263;0.4099561;-0.5149691;-0.42835182;-0.6190781;9.809244156;1.209890366;1.179786205;-1.154121041;-0.20805195;1.106346846;-0.887451172;-0.291503906;0.586181641;0; 
134;2167001930;0.40980992;-0.51523;-0.42784566;-0.61930776;9.779715538;1.214904904;1.153477907;-3.938580036;0.013120105;1.672797203;-0.886474609;-0.291503906;0.586181641;0; 
135;2167018597;0.40971664;-0.51548487;-0.42750007;-0.619396;9.746703148;1.088058949;1.138400197;-2.63555932;-0.763706565;1.717734694;-0.884765625;-0.291503906;0.588867188;0; 
136;2167035264;0.40987524;-0.5155128;-0.4275715;-0.6192184;9.753632545;1.103057146;1.224019885;1.453091741;-1.176340222;1.392965913;-0.888671875;-0.291992188;0.588867188;0; 
137;2167051931;0.40988263;-0.5156262;-0.42775577;-0.6189919;9.787220001;1.185388803;1.246474385;1.301733375;-2.485353947;0.73817718;-0.889648438;-0.291503906;0.586669922;0; 
138;2167068598;0.4096335;-0.5159454;-0.42785585;-0.6188218;9.817604065;1.209655046;1.233461261;-0.711149514;-3.688600063;0.398053378;-0.889892578;-0.290283203;0.591796875;0; 
139;2167085265;0.40931895;-0.5162924;-0.4280139;-0.61863095;9.828529358;1.19359231;1.172119021;-0.713288128;-4.245868683;0.060874987;-0.887695313;-0.293701172;0.590087891;0; 
140;2167101932;0.4090805;-0.5165747;-0.42826718;-0.6183776;9.815574646;1.19859755;1.11569047;0.326542735;-4.242218971;0.03769549;-0.886962891;-0.291992188;0.590576172;0; 
141;2167118599;0.40894115;-0.51677877;-0.42861333;-0.6180595;9.772823334;1.259244084;1.101981163;1.483929396;-4.1115942;0.086795039;-0.888671875;-0.290283203;0.593994141;0; 
142;2167135266;0.408871;-0.51692146;-0.4290363;-0.6176932;9.752627373;1.287023664;1.136065006;2.370334148;-4.037381649;0.073566094;-0.886474609;-0.291503906;0.593994141;0; 
143;2167151933;0.40885043;-0.51698637;-0.4295613;-0.6172874;9.812427521;1.248841166;1.214736819;3.313124895;-3.994236946;-0.184910908;-0.887207031;-0.291992188;0.593505859;0; 
144;2167168600;0.40896806;-0.516835;-0.43023485;-0.6168668;9.863617897;1.24145472;1.293108344;5.088776588;-3.148031473;-0.714427948;-0.886474609;-0.291992188;0.594970703;0; 
145;2167185267;0.40919682;-0.5164828;-0.43106866;-0.6164281;9.875455856;1.246924162;1.349837303;6.781391621;-2.50020957;-1.346677303;-0.888916016;-0.294189453;0.593505859;0; 
146;2167201934;0.40964904;-0.51588434;-0.4320604;-0.6159341;9.872355461;1.255805492;1.405068755;9.102197647;-1.454506993;-1.526709318;-0.887207031;-0.291503906;0.595703125;0; 
147;2167218601;0.41038787;-0.514928;-0.43318057;-0.6154557;9.87505722;1.36547029;1.553484321;11.62576962;0.584450006;-1.866295695;-0.885986328;-0.291503906;0.594970703;0; 
148;2167235268;0.41131428;-0.5136392;-0.4343266;-0.6151065;9.885687828;1.501600027;1.685109258;12.95508671;2.901492119;-2.502682924;-0.887695313;-0.293212891;0.592773438;0; 
149;2167251935;0.41214332;-0.51213866;-0.43530944;-0.6151079;9.942127228;1.58954215;1.752706647;11.47554016;5.165680885;-3.938774586;-0.890380859;-0.290771484;0.591796875;0; 
150;2167268602;0.41281602;-0.5104769;-0.43596062;-0.61557686;9.988411903;1.470929503;1.754333854;8.582416534;7.923733234;-5.212801933;-0.889160156;-0.294189453;0.588378906;0; 
151;2167285269;0.41360313;-0.50850356;-0.43656075;-0.6162561;9.972306252;1.482871413;1.708573461;9.022893906;10.42777729;-6.063197136;-0.889648438;-0.293701172;0.586181641;0; 
152;2167301936;0.4144022;-0.5063425;-0.43717983;-0.6170591;9.9215765;1.459947944;1.669703722;9.309833527;11.6020813;-6.976763725;-0.889648438;-0.294433594;0.583740234;0; 
153;2167318603;0.4151912;-0.50400555;-0.43777198;-0.6180214;9.817316055;1.594727397;1.680294991;9.185025215;12.91798973;-7.894598961;-0.891357422;-0.297119141;0.578857422;0; 
154;2167335270;0.41570646;-0.5016647;-0.43801853;-0.61940336;9.764603615;1.699345827;1.632438421;5.516475201;14.5213089;-9.047158241;-0.892822266;-0.297607422;0.575927734;0; 
155;2167351937;0.4157813;-0.49957642;-0.43760684;-0.62132895;9.736337662;1.738572001;1.494928479;-1.164175391;15.85056019;-9.422104836;-0.897216797;-0.300537109;0.571533203;0; 
156;2167368604;0.41554976;-0.49769586;-0.43668994;-0.6236339;9.722608566;1.683064699;1.311501145;-6.111532211;16.77418518;-9.430698395;-0.896728516;-0.306152344;0.565917969;0; 
157;2167385271;0.41514763;-0.49589458;-0.43574318;-0.6259945;9.71518898;1.597929001;1.19077003;-7.221127033;16.19802666;-9.962265968;-0.899414063;-0.310058594;0.5625;0; 
158;2167401938;0.41459045;-0.49421626;-0.43483692;-0.6283167;9.631952286;1.589485884;1.157450318;-7.814355373;14.96729469;-10.27969646;-0.898193359;-0.312988281;0.55859375;0; 
159;2167418605;0.4137458;-0.49275964;-0.43388548;-0.6306709;9.555334091;1.673390269;1.157446504;-9.717253685;13.4023695;-10.78822517;-0.902099609;-0.319580078;0.555908203;0; 
160;2167435272;0.41246408;-0.49169916;-0.43274316;-0.6331183;9.547322273;1.654400349;1.155767083;-13.43562222;11.25553703;-11.1073103;-0.902587891;-0.321289063;0.552490234;0; 
161;2167451939;0.41081122;-0.49097487;-0.43155083;-0.6355641;9.545944214;1.548002481;1.101811171;-15.86067486;8.842370033;-11.54092216;-0.903076172;-0.326416016;0.549072266;0; 
162;2167468606;0.40901855;-0.4903687;-0.43075266;-0.6377262;9.560352325;1.450482488;1.07892406;-14.10559845;5.8636446;-12.32946873;-0.903076172;-0.33203125;0.546875;0; 
163;2167485273;0.40703842;-0.4900561;-0.43026003;-0.6395631;9.597223282;1.445654035;1.125460982;-13.26043987;2.091669798;-12.40401459;-0.905517578;-0.335205078;0.546875;0; 
164;2167501940;0.40499175;-0.49003097;-0.42988145;-0.64113426;9.525954247;1.459990859;1.1515131;-13.0065279;-0.558383048;-11.49718285;-0.900390625;-0.342529297;0.549072266;0; 
165;2167518607;0.40292373;-0.49023718;-0.42958036;-0.64248043;9.484416962;1.444948077;1.238821149;-12.71341419;-2.592020512;-10.55105877;-0.903808594;-0.348632813;0.547363281;0; 
166;2167535274;0.4008581;-0.49068737;-0.4293505;-0.64358145;9.51134491;1.345541835;1.264394283;-12.34375668;-4.668584824;-9.391405106;-0.903320313;-0.352050781;0.549072266;0; 
167;2167551941;0.3991925;-0.49096683;-0.42949387;-0.6443074;9.543661118;1.363762856;1.279340148;-7.760549068;-5.009794712;-8.368530273;-0.903320313;-0.3515625;0.547363281;0; 
168;2167568608;0.3978063;-0.4910461;-0.4298632;-0.6448578;9.563140869;1.482795238;1.303501248;-4.749224186;-4.493788242;-8.02206707;-0.901611328;-0.357666016;0.550292969;0; 
169;2167585275;0.39641163;-0.4912482;-0.4301761;-0.6453539;9.543089867;1.443208218;1.314664245;-5.203669548;-5.079358578;-7.367764473;-0.901611328;-0.359375;0.550292969;0; 
170;2167601942;0.39509985;-0.49129707;-0.43058753;-0.64584666;9.671377182;1.610791326;1.430226326;-4.056873322;-4.420842648;-7.792025089;-0.902832031;-0.364501953;0.551513672;0; 
171;2167618609;0.39366958;-0.49150607;-0.43059933;-0.64655256;9.673102379;1.559703469;1.459684372;-7.296881676;-3.670506239;-7.080440521;-0.902832031;-0.366699219;0.550292969;0; 
172;2167635276;0.39183834;-0.4922892;-0.42995724;-0.647496;9.653632164;1.545148969;1.528079987;-13.8139019;-4.833530426;-5.609391212;-0.900146484;-0.370117188;0.552490234;0; 
173;2167651943;0.38989675;-0.4934474;-0.42938524;-0.6481659;9.798053741;1.408772826;1.75065577;-14.07086468;-7.944568634;-4.505701065;-0.902832031;-0.371582031;0.552490234;0; 
174;2167668610;0.38684493;-0.49607316;-0.42866;-0.64847004;9.506118774;1.41361022;1.440060616;-21.37075806;-18.60575485;-3.645120144;-0.900878906;-0.374511719;0.560302734;0; 
175;2167685277;0.3857234;-0.49678126;-0.42797083;-0.6490509;9.672184944;1.309041739;1.785146832;-10.33700752;-3.518085003;-1.570353627;-0.900390625;-0.377685547;0.559814453;0; 
176;2167701944;0.38506123;-0.4972634;-0.42797297;-0.64907336;9.595495224;1.525337577;1.700039148;-3.431833029;-4.916485786;-1.09213841;-0.902587891;-0.377685547;0.558837891;0; 
177;2167718611;0.3839769;-0.49822623;-0.42747727;-0.6493042;9.629925728;1.557204723;1.668879747;-8.977383614;-6.285346985;-0.425555229;-0.900390625;-0.379394531;0.559814453;0; 
178;2167735278;0.38313156;-0.49907818;-0.42715704;-0.6493598;9.569225311;1.509330153;1.695564628;-6.566432476;-6.164465904;0.165925503;-0.899902344;-0.379882813;0.562011719;0; 
179;2167751945;0.38259524;-0.49975267;-0.42699036;-0.6492669;9.609300613;1.562655449;1.65883553;-3.91194272;-5.392690659;0.873924553;-0.899902344;-0.37890625;0.561523438;0; 
180;2167768612;0.38200822;-0.50058943;-0.42666024;-0.64918494;9.66958046;1.539825678;1.646892905;-5.270376682;-5.81072855;1.646352649;-0.898193359;-0.380126953;0.562011719;0; 
181;2167785279;0.3817551;-0.5012698;-0.42641017;-0.64897317;9.691383362;1.510071039;1.731302142;-2.969933748;-4.800768375;2.732125998;-0.898925781;-0.382324219;0.565429688;0; 
182;2167801946;0.3818917;-0.5016949;-0.42642748;-0.64855295;9.677012444;1.605790377;1.721952438;0.852064252;-3.955613136;3.334370852;-0.899414063;-0.382324219;0.563232422;0; 
183;2167818613;0.38201785;-0.5021167;-0.42642027;-0.6481569;9.686415672;1.727090001;1.768892288;0.646253228;-3.840573072;3.293262005;-0.898925781;-0.379394531;0.566162109;0; 
184;2167835280;0.38196123;-0.5026998;-0.426067;-0.64797026;9.705320358;1.771428585;1.820007682;-2.56020689;-3.481598377;3.597054243;-0.898193359;-0.377685547;0.566162109;0; 
185;2167851947;0.38183624;-0.50339806;-0.4254132;-0.64793146;9.745978355;1.68512845;1.740819573;-4.869961262;-2.917069197;4.282847881;-0.898681641;-0.377685547;0.565429688;0; 
186;2167868614;0.38182935;-0.5041191;-0.42473868;-0.6478176;9.726222992;1.583021522;1.685453057;-4.392258167;-2.894875526;5.142767429;-0.897705078;-0.377685547;0.562744141;0; 
187;2167885281;0.3822061;-0.50456846;-0.42441466;-0.6474577;9.742669106;1.599391937;1.679599643;-0.066055149;-2.351706982;5.482981205;-0.898193359;-0.374267578;0.567626953;0; 
188;2167901948;0.38273662;-0.5049017;-0.42415416;-0.6470551;9.748241425;1.69909656;1.656811714;1.179714441;-1.71520555;5.717221737;-0.899414063;-0.374755859;0.570556641;0; 
189;2167918615;0.38321453;-0.50529826;-0.42365468;-0.64678997;9.705449104;1.767247677;1.640232563;-0.63370949;-1.056203723;6.137719154;-0.898193359;-0.372070313;0.568847656;0; 
190;2167935282;0.38370422;-0.50570726;-0.42315942;-0.64650404;9.640398026;1.673400521;1.634986043;-0.546613514;-1.172933698;6.273569584;-0.899414063;-0.373779297;0.568847656;0; 
191;2167951949;0.38432652;-0.5060296;-0.42274213;-0.64615506;9.673283577;1.618544698;1.631280422;0.67520839;-0.836472332;6.509614944;-0.899414063;-0.367675781;0.566650391;0; 
192;2167968616;0.38514498;-0.50621235;-0.4223524;-0.6457794;9.665537834;1.660841465;1.629376411;1.918308139;0.175184473;6.951127052;-0.899414063;-0.369384766;0.568847656;0; 
193;2167985283;0.38601944;-0.5063886;-0.42191026;-0.645408;9.620508194;1.672232985;1.548971295;1.882924318;0.509238124;7.357242584;-0.897216797;-0.366455078;0.568847656;0; 
194;2168001950;0.38689917;-0.50655895;-0.42152607;-0.6449983;9.581323624;1.647454739;1.536475897;2.298093557;0.260461986;7.271427155;-0.899414063;-0.364746094;0.569335938;0; 
195;2168018617;0.38790417;-0.5065762;-0.4214098;-0.64445686;9.622138977;1.680839539;1.557700634;4.703165054;0.123421215;6.806799889;-0.898193359;-0.359375;0.567626953;0; 
196;2168035284;0.3888417;-0.5065856;-0.42115125;-0.6440533;9.626612663;1.707344532;1.547224283;3.481285095;0.819715381;6.626486778;-0.898193359;-0.359863281;0.570556641;0; 
197;2168051951;0.3895435;-0.5067802;-0.42060354;-0.64383423;9.6460495;1.6917665;1.536501527;0.342794031;0.727612138;6.64220047;-0.898681641;-0.359375;0.567138672;0; 
198;2168068618;0.39020884;-0.50702614;-0.4201085;-0.6435607;9.643111229;1.550804496;1.54016757;0.349773437;0.042741194;6.585787296;-0.899658203;-0.355957031;0.564941406;0; 
199;2168085285;0.39108416;-0.507089;-0.41996536;-0.6430729;9.658825874;1.513657212;1.51110816;3.869330883;-0.21861726;6.355965614;-0.898681641;-0.35546875;0.565917969;0; 
200;2168101952;0.3920235;-0.50708526;-0.41999936;-0.6424816;9.685594559;1.586912513;1.528395534;5.322172642;-0.582061529;6.106100559;-0.899169922;-0.352539063;0.565917969;0; 
201;2168118619;0.3927749;-0.507193;-0.41993392;-0.6419803;9.688656807;1.667872667;1.508334637;3.67272687;-1.039376259;5.711728573;-0.899658203;-0.350830078;0.564208984;0; 
202;2168135286;0.39330658;-0.5074268;-0.41975367;-0.6415878;9.672772408;1.609956622;1.521724224;1.639270663;-1.554025054;5.209169388;-0.899169922;-0.350830078;0.565429688;0; 
203;2168151953;0.39374644;-0.50772136;-0.41953036;-0.6412309;9.67814064;1.515705466;1.468624711;1.067979217;-1.822522879;5.072294712;-0.899169922;-0.348144531;0.565917969;0; 
204;2168168620;0.39423636;-0.50794697;-0.4193735;-0.64085376;9.726341248;1.506052136;1.428797126;1.735126019;-1.630850434;4.915621758;-0.899169922;-0.346435547;0.565917969;0; 
205;2168185287;0.39478603;-0.5081227;-0.41937375;-0.6403758;9.708049774;1.503946662;1.405552864;2.998677492;-2.023467779;4.75696373;-0.898193359;-0.347412109;0.569824219;0; 
206;2168201954;0.39536366;-0.5082413;-0.4194505;-0.6398748;9.705067635;1.565135598;1.43002665;3.994499922;-1.931236386;4.56417799;-0.899169922;-0.345947266;0.566650391;0; 
207;2168218621;0.39585456;-0.5083459;-0.41941634;-0.6395107;9.729397774;1.622670293;1.445495963;2.588285208;-1.371944308;4.130990028;-0.897460938;-0.341308594;0.568847656;0; 
208;2168235288;0.39611462;-0.50862855;-0.4191278;-0.6393139;9.727134705;1.544869423;1.404330373;-0.544308305;-1.572863102;4.041703224;-0.899169922;-0.339599609;0.565917969;0; 
209;2168251955;0.39635727;-0.5088967;-0.4189295;-0.63908;9.751027107;1.501534581;1.416919112;-0.007133137;-1.924371719;3.723875046;-0.899169922;-0.342529297;0.567626953;0; 
210;2168268622;0.39662486;-0.5090665;-0.41892022;-0.63878465;9.798136711;1.433182478;1.441108584;1.627040148;-2.113572598;3.101537466;-0.896972656;-0.340332031;0.569335938;0; 
211;2168285289;0.39693445;-0.5092086;-0.41898385;-0.63843745;9.771662712;1.496819139;1.425855398;1.847104549;-2.308472395;3.028823376;-0.895263672;-0.338134766;0.568847656;0; 
212;2168301956;0.39713585;-0.50941676;-0.41908002;-0.6380828;9.71253109;1.542075276;1.434761047;1.532708883;-3.014269114;2.669400454;-0.896972656;-0.338623047;0.568847656;0; 
213;2168318623;0.39720082;-0.50970393;-0.41912398;-0.6377841;9.712037086;1.570255756;1.452288985;0.62482816;-3.391582251;2.362688065;-0.896972656;-0.339111328;0.571044922;0; 
214;2168335290;0.39712024;-0.5100859;-0.41907227;-0.637563;9.69728756;1.494956851;1.411793947;-0.844860494;-3.70150876;2.123234987;-0.895996094;-0.335693359;0.572021484;0; 
215;2168351957;0.39708734;-0.51042306;-0.41916862;-0.63725007;9.706528664;1.466444612;1.410919547;0.01584786;-4.135926247;1.896422148;-0.894775391;-0.335205078;0.571533203;0; 
216;2168368624;0.3970083;-0.5107817;-0.41937286;-0.6368775;9.738344193;1.453300595;1.424808502;0.90400672;-4.810410976;1.609252453;-0.896484375;-0.337402344;0.571533203;0; 
217;2168385291;0.3969094;-0.5111384;-0.41961893;-0.63649106;9.732889175;1.469160676;1.396916747;1.262315512;-4.997742653;1.439978123;-0.896484375;-0.337890625;0.570556641;0; 
218;2168401958;0.39691874;-0.51140195;-0.41991845;-0.6360757;9.763619423;1.483551741;1.36814034;1.411317348;-4.618891716;1.432716727;-0.895996094;-0.339599609;0.571533203;0; 
219;2168418625;0.39681852;-0.51173073;-0.42018467;-0.6356977;9.766269684;1.521554351;1.351729512;1.326552272;-4.908623219;1.261073351;-0.894287109;-0.336425781;0.574462891;0; 
220;2168435292;0.39666432;-0.51206553;-0.42049935;-0.6353162;9.787743568;1.444066405;1.374272466;1.22659862;-5.249181747;0.876268148;-0.895263672;-0.333496094;0.573730469;0; 
221;2168451959;0.39658365;-0.5122956;-0.42089757;-0.63491714;9.749500275;1.465482712;1.414600968;2.172334909;-4.871317863;0.652707636;-0.896972656;-0.336181641;0.577148438;0; 
222;2168468626;0.39644903;-0.5125843;-0.42117348;-0.6345854;9.734298706;1.453961492;1.403452754;0.867470026;-4.741589069;0.807766914;-0.894775391;-0.335205078;0.577636719;0; 
223;2168485293;0.39624497;-0.5129331;-0.42144194;-0.63425267;9.697696686;1.348380327;1.406969905;0.56460005;-5.174073219;0.731082618;-0.893310547;-0.337402344;0.577880859;0; 
224;2168501960;0.39625505;-0.5130868;-0.42198274;-0.6337623;9.663649559;1.334593058;1.403421879;3.935424089;-4.952138901;0.624892354;-0.894287109;-0.337402344;0.580078125;0; 
225;2168518627;0.39637467;-0.51308316;-0.4227645;-0.63316923;9.679171562;1.430206776;1.434675694;5.937338352;-4.989943504;0.053869918;-0.898925781;-0.336669922;0.580566406;0; 
226;2168535294;0.3962746;-0.5132605;-0.4232442;-0.6327673;9.709496498;1.482344866;1.488189697;3.159550905;-4.882101536;0.219929889;-0.896728516;-0.335693359;0.581787109;0; 
227;2168551961;0.39611253;-0.5134787;-0.4235439;-0.6324913;9.731929779;1.398164988;1.456291795;0.910691679;-4.406242371;0.269323945;-0.895996094;-0.336669922;0.583251953;0; 
228;2168568628;0.39597988;-0.5136739;-0.42385766;-0.63220537;9.740268707;1.335689664;1.435675621;1.452156782;-4.267959595;0.345790654;-0.897216797;-0.335693359;0.580566406;0; 
229;2168585295;0.39595637;-0.51376104;-0.42432714;-0.63183445;9.716359138;1.341346025;1.460464954;2.698266029;-4.254013062;0.141106769;-0.895019531;-0.334960938;0.583984375;0; 
230;2168601962;0.3959375;-0.5137843;-0.42478305;-0.6315209;9.732058525;1.376358867;1.461384416;2.89317894;-3.704480886;-0.105780467;-0.890625;-0.336181641;0.584472656;0; 
231;2168618629;0.39583275;-0.51387215;-0.42503914;-0.63134277;9.737752914;1.437940478;1.445226192;1.174515128;-3.218671083;0.050079226;-0.891845703;-0.336669922;0.587890625;0; 
232;2168635296;0.39555743;-0.51411456;-0.42507833;-0.63129157;9.768568993;1.369114637;1.406299353;-1.186213851;-3.361026764;0.183214068;-0.893798828;-0.335205078;0.584960938;0; 
233;2168651963;0.39535058;-0.51426834;-0.42513534;-0.6312576;9.805645943;1.391897678;1.376183987;-0.53639394;-2.753851652;0.126853287;-0.894042969;-0.336669922;0.587402344;0; 
234;2168668630;0.39508682;-0.5144509;-0.425073;-0.6313159;9.81264782;1.392013907;1.338570595;-1.691193938;-2.409002542;0.123549268;-0.892822266;-0.336181641;0.587890625;0; 
235;2168685297;0.39476043;-0.51470965;-0.4248452;-0.63146245;9.817332268;1.402443051;1.331143141;-3.143280506;-2.171521664;0.414996207;-0.894042969;-0.336669922;0.587402344;0; 
236;2168701964;0.39444026;-0.51498795;-0.4244683;-0.631689;9.838385582;1.390903473;1.308415174;-4.037752628;-1.551246166;0.811083734;-0.891113281;-0.337890625;0.587402344;0; 
237;2168718631;0.3940329;-0.5153655;-0.42390722;-0.63201225;9.798786163;1.366849184;1.304279923;-5.534712315;-1.376874685;1.131370544;-0.890625;-0.336669922;0.589599609;0; 
238;2168735298;0.39372116;-0.51565087;-0.42356518;-0.63220286;9.75248909;1.312995315;1.286560416;-4.247623444;-1.840669632;0.78171891;-0.893310547;-0.338867188;0.587402344;0; 
239;2168751965;0.3934892;-0.51585007;-0.4233817;-0.6323078;9.773089409;1.347611189;1.287535071;-2.246246576;-1.901537895;0.610203385;-0.892822266;-0.339599609;0.589599609;0; 
240;2168768632;0.3930777;-0.5162092;-0.42295787;-0.63255405;9.764564514;1.387674332;1.246311903;-4.777461052;-1.971345663;0.764302313;-0.891845703;-0.340576172;0.588378906;0; 
241;2168785299;0.39248595;-0.5167189;-0.42250055;-0.63281107;9.7322855;1.315284848;1.225601792;-6.022942066;-3.023784399;0.503091156;-0.893554688;-0.339599609;0.590576172;0; 
242;2168801966;0.3919607;-0.51714385;-0.42225656;-0.6329523;9.706868172;1.322267413;1.246060133;-4.219475269;-3.438966513;0.108911611;-0.890136719;-0.340087891;0.589599609;0; 
243;2168818633;0.39136982;-0.5175892;-0.42197064;-0.63314456;9.698490143;1.402639985;1.252319694;-4.828301907;-3.422997236;-0.108841173;-0.892333984;-0.341796875;0.588378906;0; 
244;2168835300;0.39054906;-0.51823235;-0.42143542;-0.63348156;9.695321083;1.370254278;1.18800211;-7.893771172;-3.790257215;-0.063058466;-0.893554688;-0.345214844;0.591796875;0; 
245;2168851967;0.38973227;-0.51891696;-0.4209525;-0.6337453;9.67206955;1.252666235;1.176793098;-7.3536129;-4.33556509;0.107438907;-0.892333984;-0.343505859;0.590576172;0; 
246;2168868634;0.38916555;-0.519397;-0.4208387;-0.63377583;9.730898857;1.275499105;1.187131524;-3.941641569;-4.577566147;-0.128434911;-0.892578125;-0.343505859;0.595703125;0; 
247;2168885301;0.38854736;-0.51989204;-0.4207089;-0.63383543;9.718102455;1.336426735;1.167278051;-3.496774197;-4.546126366;-0.235047758;-0.889648438;-0.343505859;0.593505859;0; 
248;2168901968;0.3878608;-0.5204863;-0.42052975;-0.6338871;9.70884037;1.334886193;1.165727973;-4.869525909;-5.149588108;-0.131828606;-0.887939453;-0.345214844;0.593017578;0; 
249;2168918635;0.38718578;-0.5211112;-0.42038536;-0.63388216;9.706122398;1.294842958;1.139449596;-4.622721672;-5.5466609;0.028628599;-0.890380859;-0.345703125;0.596923828;0; 
250;2168935302;0.3866243;-0.5216485;-0.42029044;-0.63384587;9.718556404;1.279180527;1.11533916;-3.541647196;-5.06355381;0.189732462;-0.890380859;-0.347412109;0.598632813;0; 
251;2168951969;0.38612434;-0.5221756;-0.42030668;-0.6337058;9.758156776;1.272806168;1.114950538;-2.509583235;-5.504796505;0.301237345;-0.889892578;-0.349609375;0.599121094;0; 
252;2168968636;0.38578317;-0.52258873;-0.4204491;-0.6334787;9.739583969;1.269724846;1.13551414;-0.721369028;-5.179900646;0.449112386;-0.891357422;-0.347167969;0.600097656;0; 
253;2168985303;0.38562664;-0.5228618;-0.42067772;-0.63319683;9.771552086;1.360498309;1.184007883;0.33919543;-4.5207057;0.623650134;-0.887695313;-0.349121094;0.600830078;0; 
254;2169001970;0.38536793;-0.5232084;-0.42071947;-0.63304;9.774766922;1.369603276;1.164171696;-0.928229868;-4.135746956;0.783550143;-0.889892578;-0.346679688;0.603515625;0; 
255;2169018637;0.38526666;-0.5234335;-0.4207441;-0.63289934;9.808586121;1.348633766;1.245319843;-0.539070487;-3.093297005;1.095359087;-0.889160156;-0.346191406;0.601318359;0; 
256;2169035304;0.38527867;-0.5235847;-0.42082393;-0.6327136;9.830304146;1.26812923;1.251163006;0.888459742;-2.703228474;1.345287919;-0.889404297;-0.348388672;0.605224609;0; 
257;2169051971;0.38551912;-0.5235152;-0.42108226;-0.6324527;9.844031334;1.298069596;1.299438596;3.317709446;-1.826083302;1.254977584;-0.888671875;-0.348388672;0.604248047;0; 
258;2169068638;0.3858224;-0.5234066;-0.42118242;-0.63229114;9.853263855;1.377560854;1.307864428;2.71746254;-0.698074043;1.722908616;-0.887695313;-0.348876953;0.602539063;0; 
259;2169085305;0.38607398;-0.52340186;-0.42110243;-0.63219476;9.802289963;1.368350983;1.311197996;0.661441565;-0.664956927;2.205887556;-0.887695313;-0.348388672;0.603515625;0; 
260;2169101972;0.38633275;-0.5233786;-0.42114365;-0.6320284;9.740133286;1.30177927;1.352255464;1.96749723;-1.085760832;1.989857197;-0.887695313;-0.345703125;0.601318359;0; 
261;2169118639;0.38665068;-0.52321464;-0.42128006;-0.631879;9.77967453;1.356034875;1.37893784;2.543590784;-0.546818256;1.410344005;-0.889892578;-0.346191406;0.602539063;0; 
262;2169135306;0.38667598;-0.5232676;-0.4210471;-0.63197494;9.744847298;1.371228576;1.305369258;-1.229947448;-0.462437272;1.463131785;-0.891601563;-0.345458984;0.601806641;0; 
263;2169151973;0.3865332;-0.52344483;-0.4208288;-0.6320609;9.746006966;1.311687708;1.284415007;-1.585105896;-1.511494994;1.123046398;-0.890380859;-0.346679688;0.601806641;0; 
264;2169168640;0.38658738;-0.5234105;-0.42088258;-0.6320202;9.783052444;1.269361377;1.274375439;0.970689297;-1.237464786;0.691946328;-0.890380859;-0.344482422;0.603515625;0; 
265;2169185307;0.3867247;-0.5232739;-0.42091662;-0.63202655;9.809090614;1.438495994;1.257521749;1.367225051;-0.329417735;0.707838953;-0.888183594;-0.346679688;0.601806641;0; 
266;2169201974;0.38669598;-0.5232857;-0.4206448;-0.63221544;9.802223206;1.446565628;1.184743881;-1.759797335;-0.021668343;1.00127089;-0.889404297;-0.347900391;0.604736328;0; 
267;2169218641;0.38664383;-0.523325;-0.4202297;-0.632491;9.832790375;1.362851977;1.212403893;-2.723526478;0.492346555;1.276415348;-0.887695313;-0.346191406;0.604736328;0; 
268;2169235308;0.38681316;-0.5231497;-0.41999355;-0.6326892;9.82316494;1.335190773;1.195748925;0.066817127;1.358094215;1.231170416;-0.886962891;-0.347412109;0.600341797;0; 
269;2169251975;0.38701686;-0.52294534;-0.41970408;-0.63292533;9.815372467;1.39503336;1.20424664;0.402305096;1.916592121;1.441143274;-0.889160156;-0.345703125;0.601318359;0; 
270;2169268642;0.38723716;-0.5227581;-0.41932443;-0.63319683;9.804368973;1.366963387;1.215435982;-1.084095955;2.140728712;1.679879546;-0.888671875;-0.344482422;0.600341797;0; 
271;2169285309;0.38756388;-0.5224728;-0.41906777;-0.6334026;9.734642982;1.328253269;1.185042739;0.175888821;2.298989773;1.58229506;-0.891601563;-0.344482422;0.601806641;0; 
272;2169301976;0.38799027;-0.52207154;-0.4189183;-0.63357127;9.761208534;1.354970098;1.195838809;1.191790819;2.647488594;1.371412635;-0.887451172;-0.345214844;0.598632813;0; 
273;2169318643;0.3882885;-0.5217774;-0.41863397;-0.6338186;9.768466949;1.371617079;1.194993377;-0.140908271;2.480698824;1.420640469;-0.889648438;-0.344482422;0.597412109;0; 
274;2169335310;0.38857287;-0.52152145;-0.4183223;-0.6340608;9.717499733;1.322363496;1.175461054;-0.368579596;2.334117413;1.589056849;-0.890380859;-0.346191406;0.598632813;0; 
275;2169351977;0.38891125;-0.5211737;-0.41814768;-0.63425434;9.733944893;1.305482507;1.191164851;1.609354615;2.441165447;1.295278907;-0.895263672;-0.344970703;0.596191406;0; 
276;2169368644;0.38929972;-0.52079237;-0.41802618;-0.63440937;9.749757767;1.323062181;1.215444446;1.715416908;2.397957087;1.268859506;-0.891845703;-0.346191406;0.593017578;0; 
277;2169385311;0.3895988;-0.5205045;-0.4177194;-0.6346641;9.765018463;1.304752946;1.183332205;0.50150311;2.638767958;1.597509265;-0.891357422;-0.343505859;0.594482422;0; 
278;2169401978;0.3900429;-0.5201906;-0.41749904;-0.63479376;9.765317917;1.263455749;1.172096729;1.176845908;2.420047998;2.105126858;-0.890136719;-0.343994141;0.593994141;0; 
279;2169418645;0.39058936;-0.51978457;-0.41746077;-0.63481534;9.757980347;1.300961733;1.20020318;3.52158618;2.314831257;2.001203775;-0.893066406;-0.346191406;0.593017578;0; 
280;2169435312;0.39107436;-0.5194173;-0.41744003;-0.6348311;9.775490761;1.383203745;1.246116161;3.786293983;1.961478114;1.858476996;-0.889160156;-0.341796875;0.593505859;0; 
281;2169451979;0.39153063;-0.5191415;-0.41731712;-0.6348562;9.777007103;1.349003673;1.255653977;0.579737008;1.523411274;2.03608799;-0.892333984;-0.343505859;0.590576172;0; 
282;2169468646;0.39181507;-0.5190442;-0.41693476;-0.6350115;9.777395248;1.235493779;1.218948483;-0.514418244;1.583780527;2.567154884;-0.893554688;-0.343505859;0.590576172;0; 
283;2169485313;0.39225817;-0.518864;-0.41678014;-0.63498676;9.758084297;1.229000688;1.195721269;2.107214451;1.183377147;2.734494925;-0.891845703;-0.341308594;0.588378906;0; 
284;2169501980;0.39289117;-0.51851153;-0.41689172;-0.63481;9.764357567;1.312436581;1.209737062;5.152283192;1.256527066;2.569280386;-0.891113281;-0.339111328;0.589599609;0; 
285;2169518647;0.39359558;-0.5181029;-0.4171127;-0.63456213;9.784424782;1.390177846;1.255347729;4.812646389;1.00618875;2.337575436;-0.893554688;-0.340576172;0.590087891;0; 
286;2169535314;0.39397377;-0.51796526;-0.4169182;-0.6345678;9.801306725;1.391009808;1.268562675;1.26990962;1.014679193;2.60431838;-0.891113281;-0.337890625;0.588867188;0; 
287;2169551981;0.39421463;-0.5179489;-0.4165279;-0.63468766;9.77626133;1.308094263;1.234770656;-0.564708829;1.05152297;2.768380642;-0.893310547;-0.338867188;0.587890625;0; 
288;2169568648;0.39456913;-0.5178486;-0.41633326;-0.6346768;9.7251091;1.262654901;1.242794275;1.342291355;0.753609002;2.687585592;-0.892333984;-0.338378906;0.590087891;0; 
289;2169585315;0.39497083;-0.5177042;-0.41628215;-0.6345784;9.723443985;1.32567203;1.260754466;3.017426252;0.439533204;2.563658714;-0.895019531;-0.336669922;0.586669922;0; 
290;2169601982;0.39533976;-0.5175463;-0.4161962;-0.6345338;9.749119759;1.36902225;1.284798622;2.39613843;0.666730583;2.330915689;-0.895507813;-0.338867188;0.585693359;0; 
291;2169618649;0.39533722;-0.5176903;-0.41573787;-0.6347183;9.734294891;1.355346918;1.246105909;-0.419215888;0.289250642;2.495349407;-0.892822266;-0.335205078;0.586669922;0; 
292;2169635316;0.3955325;-0.5176711;-0.4154781;-0.63478243;9.733746529;1.322852612;1.250386119;-0.325306922;0.358840346;2.212726116;-0.892822266;-0.338378906;0.590087891;0; 
293;2169651983;0.39567095;-0.51766455;-0.41526073;-0.63484365;9.740130424;1.305646777;1.232024789;0.618719578;0.12461219;1.993301988;-0.895019531;-0.337402344;0.585693359;0; 
294;2169668650;0.3957242;-0.5177045;-0.41504216;-0.6349209;9.726730347;1.307551622;1.276750088;1.151386857;-0.150474623;1.854711652;-0.893310547;-0.336181641;0.585693359;0; 
295;2169685317;0.3958674;-0.51768655;-0.41493404;-0.6349171;9.764487267;1.285870194;1.306104064;1.304320335;-0.337959588;1.770496964;-0.89453125;-0.336181641;0.585693359;0; 
296;2169701984;0.39595023;-0.5177427;-0.41479927;-0.63490766;9.797627449;1.265938282;1.313386679;2.074045897;-0.642763495;2.006121159;-0.892822266;-0.334472656;0.585693359;0; 
297;2169718651;0.3962439;-0.51765174;-0.4149238;-0.63471717;9.760422707;1.265850902;1.324737191;3.74650383;-0.867463648;1.924121976;-0.895019531;-0.334472656;0.583984375;0; 
298;2169735318;0.39658302;-0.5175056;-0.415136;-0.63448566;9.731923103;1.331948161;1.335862994;4.337966442;-0.903872371;1.735420823;-0.893310547;-0.332763672;0.586669922;0; 
299;2169751985;0.39686218;-0.51738805;-0.41525796;-0.6343271;9.709394455;1.351033092;1.356637836;2.692297697;-0.772568583;1.580104828;-0.895996094;-0.333496094;0.582763672;0; 
300;2169768652;0.39685965;-0.5174729;-0.41504136;-0.63440126;9.726005554;1.276877761;1.344766378;0.990795255;-0.49961409;1.77408278;-0.897216797;-0.332763672;0.586669922;0; 
301;2169785319;0.3969947;-0.5174613;-0.41502503;-0.6343368;9.766393661;1.183903813;1.337543488;2.348178625;-0.792956293;1.676267862;-0.895019531;-0.333984375;0.584472656;0; 
302;2169801986;0.39741147;-0.5171977;-0.4153109;-0.6341039;9.809483528;1.200302005;1.381482363;4.771396637;-0.427399099;1.421652079;-0.895019531;-0.332275391;0.583251953;0; 
303;2169818653;0.39772892;-0.51698136;-0.4155495;-0.6339249;9.794505119;1.32733345;1.41130209;5.070809841;-0.47578159;1.300504327;-0.895507813;-0.332763672;0.583251953;0; 
304;2169835320;0.39776778;-0.51698947;-0.41552547;-0.63390964;9.781173706;1.347798705;1.427442789;2.064402819;-0.930752635;1.244258404;-0.897705078;-0.332275391;0.583251953;0; 
305;2169851987;0.3977;-0.51708716;-0.41534466;-0.63399076;9.772457123;1.291127205;1.40462923;0.376986921;-0.864838481;1.319329262;-0.896728516;-0.329345703;0.584960938;0; 
306;2169868654;0.39771476;-0.5171309;-0.4151444;-0.6340772;9.754828453;1.225033522;1.380283594;-0.394166678;-0.439488351;1.42988658;-0.895996094;-0.331054688;0.583984375;0; 
307;2169885321;0.397701;-0.51718843;-0.41494766;-0.63416755;9.739509583;1.183293462;1.34457469;0.74620682;-0.443983376;1.496774197;-0.897705078;-0.331787109;0.583984375;0; 
308;2169901988;0.39791015;-0.5170714;-0.41501758;-0.634086;9.749124527;1.203222275;1.390932679;3.180514574;-0.439590752;1.422894239;-0.896484375;-0.330078125;0.582275391;0; 
309;2169918655;0.39813024;-0.51692474;-0.41509423;-0.63401735;9.761416435;1.277903557;1.393787622;3.316339016;-0.248443201;1.330906391;-0.896484375;-0.332275391;0.581787109;0; 
310;2169935322;0.3983339;-0.51681376;-0.41505572;-0.634005;9.741444588;1.307436943;1.434751391;1.206863999;-0.071036816;1.43892777;-0.897705078;-0.330566406;0.582763672;0; 
311;2169951989;0.3983573;-0.5168506;-0.41477165;-0.6341463;9.745850563;1.245294571;1.434646368;-0.735699177;0.05051465;1.615399361;-0.897705078;-0.328857422;0.582275391;0; 
312;2169968656;0.39851856;-0.51678836;-0.41460013;-0.6342078;9.767770767;1.166191578;1.375387907;0.387718618;0.246631056;1.704160094;-0.893798828;-0.328857422;0.583984375;0; 
313;2169985323;0.3987647;-0.51662874;-0.4145877;-0.6341914;9.725923538;1.173919797;1.384527683;2.108661413;0.225474983;1.4755795;-0.897705078;-0.329589844;0.580566406;0; 
314;2170001990;0.39905393;-0.51643413;-0.41466442;-0.6341177;9.701755524;1.201743722;1.40289104;2.971386909;0.058300916;1.411880851;-0.895996094;-0.329589844;0.579345703;0; 
315;2170018657;0.39927664;-0.5162448;-0.41471916;-0.63409597;9.724273682;1.214996457;1.454293966;2.82559967;0.125867218;1.121868372;-0.897216797;-0.330566406;0.580566406;0; 
316;2170035324;0.39939243;-0.5161494;-0.4146349;-0.63415575;9.737929344;1.203464031;1.427763224;1.643240333;0.111063063;1.233552217;-0.896484375;-0.329589844;0.579345703;0; 
317;2170051991;0.3995198;-0.51605433;-0.41459823;-0.63417685;9.732210159;1.172508359;1.382986188;1.160197735;-0.212214008;1.104630828;-0.895996094;-0.328857422;0.580566406;0; 
318;2170068658;0.3997004;-0.51593256;-0.4146514;-0.6341274;9.734721184;1.134233475;1.375103235;1.945675254;-0.447774023;1.124762535;-0.897705078;-0.328857422;0.579345703;0; 
319;2170085325;0.39996076;-0.5157272;-0.414802;-0.6340318;9.739554405;1.164464116;1.378370762;2.929433584;-0.295570582;1.000745893;-0.898193359;-0.328857422;0.580566406;0; 
320;2170101992;0.40021855;-0.5155209;-0.4149154;-0.6339625;9.720730782;1.209180355;1.382052302;2.500561237;-0.120200403;1.019148588;-0.896972656;-0.326660156;0.580078125;0; 
321;2170118659;0.40039963;-0.5153658;-0.4149304;-0.63396454;9.721654892;1.190756559;1.386927128;1.403326154;-0.044412427;0.976260185;-0.897705078;-0.328369141;0.578857422;0; 
322;2170135326;0.400488;-0.51528287;-0.41482878;-0.6340426;9.726860046;1.130359054;1.379074812;0.443592787;-0.002049016;1.02295208;-0.897705078;-0.326660156;0.578369141;0; 
323;2170151993;0.40066886;-0.51512057;-0.41486588;-0.634036;9.758542061;1.104497313;1.357320428;1.707758784;-0.085648857;0.921333611;-0.897705078;-0.325683594;0.577636719;0; 
324;2170168660;0.40087083;-0.5149734;-0.41491124;-0.6339983;9.788879395;1.138862729;1.371716738;1.706618905;-0.239235416;1.08680439;-0.899169922;-0.327880859;0.578857422;0; 
325;2170185327;0.40102765;-0.51485676;-0.41488674;-0.63400984;9.778614998;1.1616925;1.365968585;1.222423553;-0.112311669;1.115452051;-0.898193359;-0.328369141;0.579345703;0; 
326;2170201994;0.40117186;-0.5147508;-0.41489774;-0.63399744;9.759977341;1.146347642;1.331676364;1.210462689;-0.392028004;1.007136226;-0.898193359;-0.324462891;0.577636719;0; 
327;2170218661;0.40128183;-0.5146971;-0.41486496;-0.63399297;9.784093857;1.143385172;1.35667634;0.855585814;-0.552235425;1.1557796;-0.899414063;-0.327880859;0.580078125;0; 
328;2170235328;0.40134385;-0.51468956;-0.41475588;-0.6340312;9.775026321;1.138671279;1.340180397;0.558158398;-0.481301069;1.293780804;-0.897705078;-0.327880859;0.580566406;0; 
329;2170251995;0.40144128;-0.5146736;-0.41467717;-0.6340339;9.749345779;1.156211257;1.322458982;0.962134719;-0.548419178;1.414787889;-0.898193359;-0.327148438;0.578857422;0; 
330;2170268662;0.4016136;-0.5146152;-0.4147187;-0.633945;9.757435799;1.149499416;1.341029763;1.451081157;-0.873239458;1.350333691;-0.899169922;-0.322753906;0.575927734;0; 
331;2170285329;0.40175015;-0.5145812;-0.41467533;-0.63391435;9.762432098;1.155322194;1.362462163;1.167382002;-0.592011929;1.465949178;-0.896484375;-0.327392578;0.577636719;0; 
332;2170301996;0.4017999;-0.5146419;-0.4145305;-0.63392824;9.773181915;1.151474595;1.385568976;0.368585944;-0.778869331;1.640883923;-0.896972656;-0.326171875;0.577148438;0; 
333;2170318663;0.40191442;-0.5146643;-0.4144751;-0.6338737;9.781022072;1.147238255;1.370742798;0.586293817;-0.987625539;1.584330916;-0.898193359;-0.326171875;0.578369141;0; 
334;2170335330;0.4020882;-0.5146371;-0.41449583;-0.6337721;9.761181831;1.170106649;1.377495646;1.222551823;-0.996295691;1.536371469;-0.898681641;-0.324462891;0.575439453;0; 
335;2170351997;0.40218303;-0.5146622;-0.41447678;-0.633704;9.79189682;1.179585099;1.390582085;0.915967762;-1.178581119;1.443153858;-0.899169922;-0.324951172;0.576660156;0; 
336;2170368664;0.40227363;-0.51471424;-0.4143826;-0.63366574;9.772199631;1.15987885;1.416253567;0.245145544;-1.010741115;1.660720944;-0.900390625;-0.323242188;0.575927734;0; 
337;2170385331;0.40241536;-0.5147348;-0.41435364;-0.633578;9.739390373;1.172705889;1.387147903;0.938673437;-1.08302021;1.698499918;-0.899902344;-0.323242188;0.577636719;0; 
338;2170401998;0.40263164;-0.514685;-0.4144446;-0.6334216;9.783146858;1.168860912;1.408020258;2.012972593;-1.14806366;1.574086189;-0.899169922;-0.325683594;0.575439453;0; 
339;2170418665;0.40280008;-0.5146638;-0.41452363;-0.6332801;9.772974014;1.178164124;1.45201683;2.072957277;-1.283836484;1.505597591;-0.894775391;-0.325683594;0.577636719;0; 
340;2170435332;0.40293372;-0.51464385;-0.4145241;-0.6332109;9.756239891;1.204407096;1.462953925;1.382900119;-0.917280436;1.434074283;-0.900146484;-0.321777344;0.573730469;0; 
341;2170451999;0.4031255;-0.5146012;-0.4145386;-0.63311416;9.720157623;1.191731453;1.444756508;1.187167883;-0.850687504;1.563226342;-0.900878906;-0.324951172;0.575439453;0; 
342;2170468666;0.40332648;-0.514536;-0.41462252;-0.6329839;9.71277523;1.140429974;1.445388556;1.659056425;-1.039952397;1.384206414;-0.897949219;-0.323486328;0.574462891;0; 
343;2170485333;0.4036096;-0.5143643;-0.41487196;-0.63277954;9.734474182;1.159161925;1.48145175;3.381253958;-1.043717623;1.086112976;-0.901367188;-0.323242188;0.574462891;0; 
344;2170502000;0.40382886;-0.51417327;-0.41514108;-0.6326184;9.78723526;1.185714483;1.497227311;3.568303823;-1.005170584;0.621050358;-0.899658203;-0.321044922;0.575439453;0; 
345;2170518667;0.40397087;-0.514079;-0.4152101;-0.6325591;9.76862812;1.226686716;1.49247551;1.369338155;-0.782070875;0.914981663;-0.898681641;-0.321044922;0.577148438;0; 
346;2170535334;0.4040901;-0.51401174;-0.41526723;-0.63250005;9.748399734;1.154266119;1.466022968;1.23543489;-0.924746454;0.946126699;-0.897460938;-0.321777344;0.574951172;0; 
347;2170552001;0.40431133;-0.51385736;-0.4154401;-0.6323706;9.712971687;1.136876106;1.481341243;2.861483097;-0.795005441;0.973263562;-0.899169922;-0.323974609;0.577148438;0; 
348;2170568668;0.4045978;-0.51363575;-0.41564676;-0.63223165;9.727025032;1.164255738;1.488878131;3.411464214;-0.450168818;0.965848446;-0.899658203;-0.320556641;0.576660156;0; 
349;2170585335;0.40484473;-0.5134815;-0.41573077;-0.6321436;9.750818253;1.133119464;1.481600642;2.07380271;-0.368848532;1.229774594;-0.898193359;-0.322753906;0.574951172;0; 
350;2170602002;0.40512386;-0.5132732;-0.41586795;-0.6320437;9.734240532;1.104123354;1.47883594;3.170358896;-0.176753223;1.14158988;-0.899169922;-0.323974609;0.576660156;0; 
351;2170618669;0.4055281;-0.51296186;-0.41618085;-0.6318311;9.741978645;1.129177928;1.471718073;4.514066219;-0.307582974;1.015357971;-0.899658203;-0.321777344;0.575927734;0; 
352;2170635336;0.40587765;-0.5126724;-0.41641337;-0.63168836;9.777691841;1.183422565;1.472474813;3.811625004;-0.079156063;0.943309426;-0.901367188;-0.320068359;0.575927734;0; 
353;2170652003;0.40606964;-0.51248133;-0.41646674;-0.63168496;9.792185783;1.18890202;1.446552157;2.017134428;0.054804772;0.813440144;-0.901367188;-0.319335938;0.576660156;0; 
354;2170668670;0.40628752;-0.5122473;-0.41646838;-0.63173366;9.782221794;1.158857942;1.418115377;1.373782158;0.595053434;0.771909118;-0.899658203;-0.321044922;0.574462891;0; 
355;2170685337;0.40650806;-0.51195395;-0.41652364;-0.63179296;9.757229805;1.165212512;1.395593166;1.979215145;0.770718157;0.427008539;-0.900390625;-0.321533203;0.575927734;0; 
356;2170702004;0.4067506;-0.5115961;-0.4165787;-0.6318906;9.75968647;1.18824923;1.405686855;1.806585431;1.219222307;0.185365513;-0.900390625;-0.321777344;0.575439453;0; 
357;2170718671;0.40684885;-0.51134825;-0.41647446;-0.6320967;9.778831482;1.137511849;1.450813055;0.707941413;1.22890377;0.235156611;-0.900878906;-0.320068359;0.575927734;0; 
358;2170735338;0.40697047;-0.51109624;-0.41630262;-0.6323355;9.798517227;1.138554931;1.453552008;0.186915085;1.595383167;0.436434031;-0.900146484;-0.317138672;0.572753906;0; 
359;2170752005;0.40707266;-0.5108884;-0.41611788;-0.6325591;9.793475151;1.078915;1.420809507;0.177771345;1.351409316;0.59400332;-0.900146484;-0.320068359;0.574462891;0; 
360;2170768672;0.40731195;-0.51060385;-0.41609544;-0.6326494;9.762190819;1.099799991;1.461429715;2.219525814;1.182378173;0.810148895;-0.900146484;-0.321777344;0.572753906;0; 
361;2170785339;0.4076528;-0.5102642;-0.4161378;-0.63267606;9.744041443;1.13382709;1.433017612;3.12903285;1.300260663;1.033363581;-0.8984375;-0.322265625;0.5703125;0; 
362;2170802006;0.40786147;-0.5100684;-0.41602477;-0.6327738;9.741711617;1.161203027;1.416134119;1.786697268;1.025218725;1.276492238;-0.899169922;-0.320556641;0.573730469;0; 
363;2170818673;0.40815824;-0.5098279;-0.41598535;-0.6328022;9.737442017;1.125750899;1.41208303;1.941231132;0.941516519;1.348771214;-0.901855469;-0.324951172;0.571044922;0; 
364;2170835340;0.4085169;-0.5095464;-0.41603908;-0.6327622;9.740140915;1.143200397;1.412350178;2.537892103;0.762663066;1.315986991;-0.8984375;-0.317871094;0.568115234;0; 
365;2170852007;0.40882027;-0.5093351;-0.41603974;-0.6327357;9.735960007;1.152112365;1.388621092;1.855480075;0.496700644;1.4186939;-0.901855469;-0.317871094;0.568847656;0; 
366;2170868674;0.4091325;-0.50915086;-0.4160042;-0.63270557;9.741678238;1.119644046;1.376201749;1.687627316;0.497353852;1.67575562;-0.899658203;-0.318847656;0.572753906;0; 
367;2170885341;0.4095896;-0.5088735;-0.41609755;-0.63257164;9.756248474;1.12878108;1.390271664;2.915743113;0.554047525;1.818623424;-0.898925781;-0.318359375;0.568847656;0; 
368;2170902008;0.4099704;-0.50865096;-0.41619137;-0.63244224;9.727545738;1.157857895;1.388774633;3.021664381;0.169972271;1.710729718;-0.900634766;-0.319580078;0.568847656;0; 
369;2170918675;0.41028476;-0.5084707;-0.41623762;-0.6323529;9.751588821;1.201304913;1.391595125;2.488113642;0.086346813;1.617717266;-0.900634766;-0.318847656;0.569824219;0; 
370;2170935342;0.41046283;-0.50844646;-0.41608244;-0.63235897;9.7468853;1.153893232;1.380799532;0.323341072;-0.086737394;1.892208338;-0.900146484;-0.317871094;0.5703125;0; 
371;2170952009;0.41069588;-0.5084166;-0.41595614;-0.6323148;9.743104935;1.109508753;1.369646788;0.666564167;-0.172552764;2.135029793;-0.900146484;-0.316650391;0.567626953;0; 
372;2170968676;0.4110114;-0.5083153;-0.41604796;-0.6321308;9.725641251;1.09355104;1.362019062;2.675867558;-0.709587038;1.947275877;-0.900634766;-0.319580078;0.567138672;0; 
373;2170985343;0.4113037;-0.50823355;-0.4161676;-0.63192767;9.740129471;1.179175258;1.40834558;3.074708462;-0.967122793;1.913083076;-0.899658203;-0.315673828;0.568115234;0; 
374;2171002010;0.41148216;-0.5082571;-0.41617775;-0.63178587;9.74196434;1.181980371;1.381446481;1.367916465;-1.258992195;1.873780251;-0.900146484;-0.316162109;0.567138672;0; 
375;2171018677;0.41155916;-0.50838464;-0.41608748;-0.63169247;9.726094246;1.14954567;1.395427585;0.179000765;-1.542166352;1.951335549;-0.900634766;-0.316162109;0.568115234;0; 
376;2171035344;0.4117322;-0.5084489;-0.4161229;-0.6315046;9.745079994;1.095321536;1.384072185;1.511258245;-1.675967097;2.015187979;-0.8984375;-0.316162109;0.569335938;0; 
377;2171052011;0.4120371;-0.5084085;-0.41638085;-0.6311681;9.717185974;1.125071168;1.409198046;3.145604372;-2.04212594;1.853123665;-0.901855469;-0.315673828;0.568847656;0; 
378;2171068678;0.41219193;-0.5084472;-0.41656598;-0.6309137;9.722233772;1.181511402;1.436312795;2.322258711;-2.272768497;1.522527814;-0.90234375;-0.315673828;0.567138672;0; 
379;2171085345;0.41218525;-0.5085947;-0.4165824;-0.6307883;9.751560211;1.166295528;1.416260362;0.345201582;-2.275982857;1.358734488;-0.897949219;-0.314941406;0.5703125;0; 
380;2171102012;0.41213447;-0.50878024;-0.41657734;-0.63067526;9.754389763;1.115189314;1.41850698;0.558504164;-2.402215242;1.406707168;-0.898925781;-0.313964844;0.5703125;0; 
381;2171118679;0.41221383;-0.50886935;-0.41673303;-0.6304486;9.725527763;1.086076975;1.428352475;1.568668842;-2.536451101;1.343827844;-0.8984375;-0.313964844;0.569335938;0; 
382;2171135346;0.41232452;-0.5088915;-0.41692626;-0.6302305;9.705957413;1.145627022;1.457826495;2.190878153;-2.213142157;1.158801556;-0.899169922;-0.312744141;0.57421875;0; 
383;2171152013;0.4122873;-0.50901324;-0.41697592;-0.63012373;9.710360527;1.141036034;1.426786542;0.633600533;-2.252022028;1.016664028;-0.900634766;-0.312744141;0.571044922;0; 
384;2171168680;0.41223863;-0.50914955;-0.41702747;-0.6300113;9.76704216;1.081226945;1.45823133;0.276866883;-2.40370059;0.975299597;-0.898925781;-0.312255859;0.571044922;0; 
385;2171185347;0.41221273;-0.5092217;-0.41719416;-0.62985957;9.815595627;1.019788265;1.457360864;1.461223841;-2.492922544;0.643359005;-0.897949219;-0.314941406;0.573242188;0; 
386;2171202014;0.41228184;-0.5091948;-0.41751546;-0.62962306;9.846851349;1.062825918;1.466984034;2.99819088;-2.525566339;0.46852681;-0.900146484;-0.313232422;0.572021484;0; 
387;2171218681;0.41232702;-0.50922;-0.41778407;-0.6293948;9.841150284;1.115383863;1.474054575;2.080922842;-2.68386507;0.609844744;-0.900634766;-0.312744141;0.571533203;0; 
388;2171235348;0.4123116;-0.5093396;-0.41784814;-0.62926567;9.791768074;1.12706387;1.456299186;0.331716478;-2.349376202;1.039254546;-0.899169922;-0.310546875;0.572021484;0; 
389;2171252015;0.412286;-0.5094678;-0.41785347;-0.6291751;9.784203529;1.051288247;1.458332777;0.316502541;-2.073143244;1.175552487;-0.899658203;-0.312744141;0.573730469;0; 
390;2171268682;0.41241002;-0.5094665;-0.41799244;-0.6290026;9.792034149;1.03902936;1.44959712;2.060215235;-1.74636364;1.220157146;-0.899658203;-0.312744141;0.573242188;0; 
391;2171285349;0.41262442;-0.5093725;-0.4182146;-0.62879044;9.811322212;1.082800031;1.491265059;3.154402494;-1.455288172;1.16829133;-0.897460938;-0.313232422;0.573730469;0; 
392;2171302016;0.41281804;-0.5093216;-0.4183483;-0.6286157;9.801259041;1.110179543;1.493360758;1.889275789;-1.379026175;1.321685791;-0.896728516;-0.312744141;0.571044922;0; 
393;2171318683;0.412977;-0.5093005;-0.41840476;-0.6284906;9.780735016;1.100504875;1.489403963;1.244207501;-1.211275816;1.393042684;-0.900146484;-0.313232422;0.575439453;0; 
394;2171335350;0.41314623;-0.50926334;-0.41845727;-0.6283746;9.777064323;1.10536778;1.518559098;1.510604978;-1.048596859;1.410804987;-0.8984375;-0.310546875;0.573730469;0; 
395;2171352017;0.4133614;-0.50918245;-0.41852453;-0.6282539;9.805009842;1.088171601;1.495916367;1.834362149;-0.789562702;1.44027245;-0.899658203;-0.314453125;0.571533203;0; 
396;2171368684;0.4135302;-0.50912696;-0.41851458;-0.6281944;9.797265053;1.100554824;1.483178854;1.647043943;-0.545255959;1.489256978;-0.900878906;-0.311035156;0.57421875;0; 
397;2171385351;0.41372636;-0.50902534;-0.41852766;-0.6281389;9.760131836;1.119881749;1.470130444;1.741682887;-0.34082824;1.349565148;-0.897949219;-0.311523438;0.57421875;0; 
398;2171402018;0.41394576;-0.50887793;-0.41856605;-0.6280881;9.78823185;1.128037095;1.469563961;2.065299511;-0.132263988;1.2199651;-0.897460938;-0.312255859;0.574951172;0; 
399;2171418685;0.4142065;-0.508676;-0.41860408;-0.62805456;9.769013405;1.123003602;1.469946146;2.054721355;0.258861154;1.156624794;-0.897949219;-0.311767578;0.571044922;0; 
400;2171435352;0.4143593;-0.5085296;-0.4185474;-0.6281099;9.768578529;1.141738176;1.469298005;1.747445583;0.375975251;1.058143854;-0.897949219;-0.307861328;0.572021484;0; 
401;2171452019;0.41460606;-0.5083012;-0.41857028;-0.62811685;9.752514839;1.120054126;1.458691716;1.46575737;0.474712193;0.895272732;-0.8984375;-0.312744141;0.573242188;0; 
402;2171468686;0.41482267;-0.5080625;-0.41857025;-0.6281669;9.764149666;1.111714602;1.441461921;1.926299334;0.722374201;0.804219604;-0.8984375;-0.310058594;0.571044922;0; 
403;2171485353;0.4150867;-0.507768;-0.4186537;-0.628175;9.742777824;1.120126367;1.447303414;2.382550955;0.682072639;0.624815404;-0.897949219;-0.309326172;0.573242188;0; 
404;2171502020;0.41537035;-0.5074283;-0.41878814;-0.6281724;9.776335716;1.127759933;1.46759069;2.432892561;0.710208118;0.374912262;-0.899169922;-0.311523438;0.572021484;0; 
405;2171518687;0.41559434;-0.5071391;-0.41881827;-0.6282377;9.769820213;1.116173744;1.479689717;1.75237596;0.888331652;0.479284048;-0.897949219;-0.310058594;0.571044922;0; 
406;2171535354;0.41581115;-0.50685626;-0.41880694;-0.62833005;9.762101173;1.083340645;1.448729157;1.603502274;1.066749573;0.556403875;-0.900634766;-0.310058594;0.569335938;0; 
407;2171552021;0.4160668;-0.5065249;-0.4188791;-0.6283799;9.769366264;1.077744007;1.459837198;2.471875429;1.01380825;0.43169567;-0.900634766;-0.311767578;0.568115234;0; 
408;2171568688;0.41638926;-0.50614;-0.41902444;-0.6283795;9.770215034;1.100631952;1.493343234;3.064348221;1.029060483;0.415572464;-0.90234375;-0.311523438;0.5703125;0; 
409;2171585355;0.41660526;-0.50583434;-0.41905463;-0.6284623;9.763250351;1.075383425;1.50218606;2.008413553;1.026691556;0.388589472;-0.8984375;-0.310058594;0.569335938;0; 
410;2171602022;0.41681796;-0.5055488;-0.41902453;-0.62857133;9.77467823;1.069795489;1.470530152;1.405042052;1.175308824;0.535529435;-0.901123047;-0.311035156;0.567138672;0; 
411;2171618689;0.41702718;-0.50528276;-0.41899577;-0.6286654;9.742552757;1.039003372;1.472448111;2.125540257;1.099534035;0.726625919;-0.897949219;-0.311767578;0.56640625;0; 
412;2171635356;0.4173803;-0.5049097;-0.41918725;-0.6286033;9.714281082;1.069541216;1.454409361;3.859546185;0.755657971;0.649480581;-0.898925781;-0.311767578;0.568847656;0; 
413;2171652023;0.41769636;-0.5045546;-0.41935122;-0.6285691;9.718435287;1.084667206;1.480795741;3.462561846;0.74742347;0.553138316;-0.900146484;-0.307861328;0.567138672;0; 
414;2171668690;0.41794264;-0.50428337;-0.41939843;-0.6285914;9.720808983;1.071664453;1.502773643;1.940232396;0.677500725;0.677910566;-0.900634766;-0.310058594;0.567626953;0; 
415;2171685357;0.4182117;-0.5040031;-0.4195105;-0.62856245;9.733616829;1.030959368;1.444872499;2.490277767;0.419990629;0.67629689;-0.897705078;-0.308349609;0.565917969;0; 
416;2171702024;0.41854578;-0.503696;-0.41971102;-0.62845236;9.741596222;1.017656088;1.452295423;3.548645735;0.204651862;0.826233625;-0.898925781;-0.309570313;0.565429688;0; 
417;2171718691;0.41893354;-0.5033444;-0.42002758;-0.6282642;9.760313988;1.053084016;1.458008289;4.545902252;-0.056386366;0.743684053;-0.900146484;-0.311035156;0.567138672;0; 
418;2171735358;0.4192341;-0.50307435;-0.4203139;-0.62808853;9.763580322;1.061424136;1.488580108;4.41934967;-0.470774263;0.758052647;-0.898925781;-0.307861328;0.564697266;0; 
419;2171752025;0.41948286;-0.5028523;-0.4205173;-0.6279641;9.77482605;1.085133672;1.493343234;3.280711412;-0.440999508;0.76317513;-0.900146484;-0.308837891;0.56640625;0; 
420;2171768692;0.41969576;-0.50267583;-0.4206483;-0.6278755;9.772953987;1.040671229;1.420252681;2.507489443;-0.418178558;0.871260762;-0.901123047;-0.310058594;0.565429688;0; 
421;2171785359;0.41998884;-0.50244606;-0.4208705;-0.6277145;9.791178703;1.030207396;1.423066616;3.383239031;-0.483221948;0.930541337;-0.900146484;-0.309326172;0.567138672;0; 
422;2171802026;0.42040318;-0.5021283;-0.42125255;-0.627435;9.782305717;1.031484604;1.424100995;5.03697443;-0.627152562;0.980409443;-0.900634766;-0.306640625;0.565917969;0; 
423;2171818693;0.4208131;-0.5018292;-0.42158437;-0.62717646;9.750454903;1.109849453;1.470070362;4.482485294;-0.522127748;1.094257951;-0.899414063;-0.309570313;0.563720703;0; 
424;2171835360;0.42102206;-0.50170803;-0.4216871;-0.62706417;9.745509148;1.116110444;1.462395191;2.645452738;-0.622631967;1.230619907;-0.8984375;-0.307373047;0.564697266;0; 
425;2171852027;0.42113486;-0.50169927;-0.42159978;-0.62705415;9.715835571;1.050184011;1.426305413;0.513643444;-0.5179528;1.447354317;-0.8984375;-0.306640625;0.565429688;0; 
426;2171868694;0.421342;-0.5015893;-0.4217007;-0.6269351;9.764034271;1.001160383;1.421279788;2.287495613;-0.725370824;1.229025364;-0.900146484;-0.306640625;0.567138672;0; 
427;2171885361;0.42168003;-0.5013571;-0.4220286;-0.6266729;9.820126534;1.013452053;1.42387712;4.339656353;-0.983463824;1.047079325;-0.898193359;-0.308837891;0.5625;0; 
428;2171902028;0.4219903;-0.5011689;-0.4222944;-0.62643546;9.817883492;1.127956033;1.447053671;4.04608345;-0.958977997;1.236139417;-0.896728516;-0.305664063;0.563232422;0; 
429;2171918695;0.4221587;-0.501139;-0.42235893;-0.62630236;9.812994957;1.15903604;1.42511487;1.650066257;-1.135026813;1.43384397;-0.897705078;-0.305664063;0.565917969;0; 
430;2171935362;0.42225605;-0.50119483;-0.42225724;-0.6262608;9.76561451;1.127694011;1.444079161;0.046147671;-0.923478484;1.66407609;-0.900634766;-0.304931641;0.565429688;0; 
431;2171952029;0.4223844;-0.5012079;-0.4222018;-0.62620115;9.750386238;1.077871561;1.41940558;0.753672838;-0.822346866;1.601658106;-0.898925781;-0.307861328;0.567138672;0; 
432;2171968696;0.42252725;-0.50122076;-0.4221871;-0.62610435;9.74096489;1.062470913;1.406800151;0.964849591;-1.035495877;1.611403704;-0.896728516;-0.306152344;0.56640625;0; 
433;2171985363;0.42270213;-0.501172;-0.42223877;-0.62599045;9.769248009;1.121095538;1.447110891;1.616385579;-0.925771117;1.395488739;-0.899414063;-0.307128906;0.568603516;0; 
434;2172002030;0.422785;-0.5012079;-0.42223573;-0.6259078;9.739308357;1.123222709;1.435304761;0.856405318;-1.274577498;1.362217546;-0.900146484;-0.304931641;0.56640625;0; 
435;2172018697;0.422791;-0.5012727;-0.42221648;-0.6258648;9.755295753;1.132130742;1.473746657;0.752238572;-1.392959356;1.121842623;-0.899414063;-0.304931641;0.564208984;0; 
436;2172035364;0.42286327;-0.50128716;-0.42223772;-0.6257901;9.748763084;1.142820239;1.4606148;0.657484472;-1.285066009;1.10208261;-0.901123047;-0.305419922;0.567626953;0; 
437;2172052031;0.4228774;-0.5013496;-0.42219645;-0.6257584;9.761577606;1.136092305;1.459825873;0.29500708;-1.29153955;1.138791919;-0.899414063;-0.302734375;0.564697266;0; 
438;2172068698;0.42284524;-0.5014656;-0.42215598;-0.6257145;9.732536316;1.089017749;1.462819576;-0.11943201;-1.714283466;1.10749948;-0.899414063;-0.306152344;0.565429688;0; 
439;2172085365;0.42282742;-0.50152963;-0.4222057;-0.6256417;9.703027725;1.093574047;1.446581244;0.696774244;-1.795014739;0.812274754;-0.898925781;-0.304443359;0.568603516;0; 
440;2172102032;0.42282784;-0.5015691;-0.42227075;-0.6255658;9.734777451;1.097821474;1.458874941;0.611900151;-1.720116735;0.731626689;-0.898925781;-0.304443359;0.565429688;0; 
441;2172118699;0.42282575;-0.5015905;-0.42237777;-0.62547785;9.760822296;1.112812996;1.470443726;0.933634162;-1.80655992;0.568294585;-0.895019531;-0.303955078;0.565429688;0; 
442;2172135366;0.4228644;-0.5015868;-0.42249888;-0.62537295;9.769434929;1.098762512;1.468181252;1.18992126;-1.686391473;0.662056267;-0.897216797;-0.305664063;0.565429688;0; 
443;2172152033;0.4228542;-0.50165886;-0.4225459;-0.6252902;9.747758865;1.086096644;1.492647648;0.724935472;-1.829861045;0.908885896;-0.897216797;-0.304443359;0.567138672;0; 
444;2172168700;0.42287087;-0.5017135;-0.4225762;-0.62521464;9.757911682;1.085562348;1.48103559;0.588022649;-1.622589946;0.981933057;-0.8984375;-0.302246094;0.568115234;0; 
445;2172185367;0.42288712;-0.50175244;-0.42261916;-0.6251432;9.737469673;1.074185967;1.492127776;0.494818062;-1.597374201;0.851372421;-0.897216797;-0.306640625;0.567138672;0; 
446;2172202034;0.42282122;-0.5018324;-0.42263052;-0.62511593;9.749629021;1.066430807;1.487902761;-0.04283724;-1.75413692;0.61705476;-0.899414063;-0.303955078;0.565917969;0; 
447;2172218701;0.42273507;-0.5019008;-0.4226129;-0.62513113;9.747189522;1.016686916;1.48042047;0.124240808;-1.487342358;0.540037394;-0.896728516;-0.302734375;0.5703125;0; 
448;2172235368;0.42291695;-0.5018015;-0.42281026;-0.6249544;9.764436722;1.027680159;1.499449372;1.018572092;-1.477353334;0.720862925;-0.896728516;-0.304443359;0.567626953;0; 
449;2172252035;0.4230071;-0.5017733;-0.42287412;-0.62487286;9.780596733;1.026847482;1.512514591;1.279655218;-1.166645765;0.960559368;-0.8984375;-0.303222656;0.571533203;0; 
450;2172268702;0.42315957;-0.50170344;-0.42292306;-0.6247926;9.792238235;1.081161737;1.494313359;1.281576157;-0.786527574;1.113838673;-0.900634766;-0.305419922;0.567138672;0; 
451;2172285369;0.42328292;-0.5016681;-0.42285135;-0.62478584;9.78218174;1.055548668;1.526739955;0.084284998;-0.442472219;1.251545548;-0.8984375;-0.304931641;0.568115234;0; 
452;2172302036;0.423338;-0.50168824;-0.42263067;-0.62488174;9.792126656;1.02908051;1.521672249;-0.454715103;-0.010872591;1.453078747;-0.897216797;-0.305664063;0.567626953;0; 
453;2172318703;0.42344594;-0.50170714;-0.42235735;-0.6249781;9.789951324;0.992669523;1.525277376;-0.877708673;0.264316589;1.799195886;-0.897949219;-0.305664063;0.568603516;0; 
454;2172335370;0.4236636;-0.50164676;-0.42216003;-0.6250124;9.772619247;0.978375316;1.504951239;-0.025427006;0.460746795;1.916841388;-0.896728516;-0.304443359;0.569335938;0; 
455;2172352037;0.4238344;-0.50162876;-0.42189485;-0.6250901;9.775963783;1.018219352;1.530488372;-0.065850258;0.557210684;2.043349266;-0.896728516;-0.305664063;0.568603516;0; 
456;2172368704;0.42411178;-0.5015472;-0.4216371;-0.6251413;9.7742939;1.010862589;1.52847898;-0.595098197;0.905966043;2.189239264;-0.898925781;-0.302246094;0.565917969;0; 
457;2172385371;0.42438486;-0.5014654;-0.42140436;-0.62517864;9.726248741;1.011941195;1.520435095;-0.635950506;0.75755322;2.095778465;-0.897216797;-0.302246094;0.56640625;0; 
458;2172402038;0.42463595;-0.50140464;-0.4211743;-0.6252119;9.749266624;1.009608507;1.546101928;-0.157140329;0.64029187;2.154143333;-0.897705078;-0.302734375;0.565917969;0; 
459;2172418705;0.42479995;-0.5014129;-0.42088142;-0.62529105;9.749370575;1.024766326;1.562292814;-0.459901661;0.492167205;2.152420998;-0.896728516;-0.304931641;0.565917969;0; 
460;2172435372;0.4249524;-0.501443;-0.42057827;-0.6253673;9.766363144;1.012713552;1.507244349;-0.919995308;0.35163033;2.160514355;-0.900146484;-0.301025391;0.567626953;0; 
461;2172452039;0.42510337;-0.5014642;-0.4203679;-0.6253893;9.747733116;1.009966969;1.521589994;-0.044681355;-0.0411468;2.011397362;-0.898193359;-0.302246094;0.564208984;0; 
462;2172468706;0.42535582;-0.5013888;-0.42032593;-0.6253062;9.736044884;1.068158388;1.547637463;1.509452343;-0.197358653;1.879402161;-0.899902344;-0.300537109;0.563720703;0; 
463;2172485373;0.4255883;-0.5013227;-0.4202322;-0.625264;9.762541771;1.07634449;1.530406475;0.500849843;-0.058537818;1.791358471;-0.899902344;-0.300537109;0.563720703;0; 
464;2172502040;0.42574313;-0.50134724;-0.4200455;-0.62526435;9.777389526;1.03614676;1.509256124;-0.166303247;-0.216427296;1.975526571;-0.898193359;-0.300048828;0.5625;0; 
465;2172518707;0.42600942;-0.50127476;-0.41997048;-0.6251917;9.742235184;1.029095054;1.505182981;1.336566687;-0.040442452;2.025676489;-0.8984375;-0.302246094;0.565917969;0; 
466;2172535374;0.42646748;-0.50102675;-0.4201062;-0.62498677;9.737896919;1.091498256;1.513096094;2.631442547;0.081672497;1.824706197;-0.897705078;-0.300048828;0.564697266;0; 
467;2172552041;0.42674762;-0.5009028;-0.42007345;-0.62491703;9.745503426;1.088485956;1.550545931;1.272009969;0.065434046;1.71608305;-0.895996094;-0.300048828;0.565429688;0; 
468;2172568708;0.42690554;-0.50086397;-0.41989684;-0.62495893;9.778299332;1.043374777;1.529003143;0.214935377;0.206752121;1.692211986;-0.898193359;-0.300048828;0.560791016;0; 
469;2172585375;0.4272068;-0.50067806;-0.41995907;-0.6248602;9.795323372;0.972895265;1.52244246;1.835117936;-0.002484432;1.359656692;-0.898193359;-0.297119141;0.564208984;0; 
470;2172602042;0.42761207;-0.5003969;-0.42019472;-0.6246497;9.821599007;1.010250211;1.546171427;3.818489075;-0.158862785;1.303846598;-0.897216797;-0.300048828;0.565429688;0; 
471;2172618709;0.4279495;-0.50019336;-0.42036048;-0.62447023;9.778295517;1.082818389;1.585056663;3.035149574;-0.370141923;1.397524953;-0.899414063;-0.298339844;0.565917969;0; 
472;2172635376;0.4281944;-0.5000538;-0.42044702;-0.62435585;9.739638329;1.080336332;1.580175757;2.213494301;-0.43446821;1.299005628;-0.899414063;-0.298828125;0.565429688;0; 
473;2172652043;0.42836595;-0.4999677;-0.4204126;-0.62433034;9.731222153;1.031708002;1.567485094;1.489743352;-0.170913517;1.367263436;-0.897216797;-0.298339844;0.562011719;0; 
474;2172668710;0.4285501;-0.4998466;-0.42044628;-0.6242781;9.726845741;1.004790425;1.551419258;2.277154684;-0.250850797;1.207209826;-0.899902344;-0.297851563;0.560791016;0; 
475;2172685377;0.42882574;-0.49964166;-0.42061386;-0.62414;9.775438309;1.015835881;1.539116859;2.977892399;-0.381296247;1.043736696;-0.898193359;-0.296142578;0.564208984;0; 
476;2172702044;0.42906758;-0.49943358;-0.42074046;-0.624055;9.797028542;1.040646672;1.552958131;2.159631014;-0.19775565;0.813990831;-0.898925781;-0.295410156;0.563720703;0; 
477;2172718711;0.42921105;-0.49928668;-0.4207601;-0.6240607;9.777162552;1.0549891;1.55471766;1.550227761;-0.056719318;0.767234802;-0.896484375;-0.298828125;0.5625;0; 
478;2172735378;0.42925146;-0.4991942;-0.4207169;-0.624136;9.776150703;1.025950432;1.543296337;1.766776562;-0.050585072;0.682078898;-0.898193359;-0.298339844;0.563720703;0; 
479;2172752045;0.4294102;-0.49899793;-0.4207249;-0.6241783;9.792838097;1.040716887;1.541814089;2.120866299;0.409617513;0.705982149;-0.895507813;-0.298339844;0.561523438;0; 
480;2172768712;0.42961866;-0.49877384;-0.4207215;-0.62421626;9.768440247;1.05272305;1.523675799;1.116169333;0.575280488;0.700257599;-0.898925781;-0.297119141;0.562988281;0; 
481;2172785379;0.4297477;-0.49862736;-0.42062992;-0.6243062;9.741471291;1.005820513;1.50999558;0.438572645;0.486967832;0.787648082;-0.899414063;-0.297119141;0.560302734;0; 
482;2172802046;0.42991507;-0.4984199;-0.42065725;-0.6243382;9.728448868;0.981346309;1.541157842;1.658403039;0.332011014;0.575408518;-0.894775391;-0.297851563;0.561523438;0; 
483;2172818713;0.43009454;-0.4981734;-0.42075124;-0.62434804;9.748957634;0.991872787;1.549813032;2.030017614;0.249512494;0.329744279;-0.896972656;-0.295654297;0.559814453;0; 
484;2172835380;0.43025407;-0.49795657;-0.42080995;-0.6243716;9.763990402;0.992579877;1.525466442;1.372002006;0.186607748;0.3607997;-0.898193359;-0.297119141;0.559814453;0; 
485;2172852047;0.43040863;-0.4978045;-0.4208549;-0.6243559;9.771321297;0.965957165;1.498210669;1.107269049;-0.208909988;0.672723949;-0.897705078;-0.296142578;0.561523438;0; 
486;2172868714;0.43065912;-0.49757254;-0.4210511;-0.6242358;9.770159721;0.974667728;1.503788114;2.958836794;-0.359691948;0.696390033;-0.898193359;-0.296142578;0.560791016;0; 
487;2172885381;0.4309248;-0.49735862;-0.42126712;-0.6240772;9.789281845;1.00397706;1.517184019;3.301188946;-0.567372561;0.882876158;-0.897705078;-0.295654297;0.558105469;0; 
488;2172902048;0.43112886;-0.49722597;-0.42138904;-0.6239596;9.753251076;1.028476;1.484163761;1.476271152;-0.757124186;0.918592989;-0.899902344;-0.295654297;0.559814453;0; 
489;2172918715;0.43111727;-0.4972139;-0.42142212;-0.62395495;9.767933846;0.988651693;1.450763464;0.953836024;-1.124269366;0.515564322;-0.897705078;-0.295654297;0.561523438;0; 
490;2172935382;0.43120146;-0.49709228;-0.4216196;-0.6238603;9.76168251;0.952622235;1.475531578;2.834192276;-1.143081903;0.354153186;-0.898193359;-0.297363281;0.559082031;0; 
491;2172952049;0.4313543;-0.49693307;-0.42190218;-0.6236904;9.759678841;1.00849998;1.49354279;3.32096839;-1.334287286;0.401530325;-0.898193359;-0.297119141;0.560791016;0; 
492;2172968716;0.4314995;-0.49684826;-0.42212895;-0.62350404;9.748745918;1.0167557;1.515895486;2.170797825;-1.634948015;0.712129056;-0.899414063;-0.297119141;0.560791016;0; 
493;2172985383;0.4316201;-0.49680403;-0.42230636;-0.6233357;9.76296711;0.993788421;1.520787239;1.400854588;-1.699543357;0.791208327;-0.897705078;-0.295654297;0.559082031;0; 
494;2173002050;0.43168414;-0.49679258;-0.42248714;-0.62317777;9.758143425;0.98535502;1.516341209;1.669371843;-1.922693968;0.691350758;-0.895996094;-0.294921875;0.562011719;0; 
495;2173018717;0.4317747;-0.4967746;-0.42266604;-0.62300813;9.792134285;0.97622782;1.520100355;2.018338203;-1.829579115;0.86051625;-0.896484375;-0.295654297;0.5625;0; 
496;2173035384;0.43186957;-0.49676937;-0.4228185;-0.6228432;9.767150879;0.980162203;1.514774442;2.141113043;-1.74866879;1.033901453;-0.895996094;-0.296142578;0.560302734;0; 
497;2173052051;0.43201986;-0.496734;-0.42303273;-0.62262154;9.744904518;1.022613406;1.529586673;2.627279997;-1.857970715;1.106820703;-0.898681641;-0.296142578;0.562011719;0; 
498;2173068718;0.4321585;-0.49667534;-0.4232875;-0.6223989;9.75716114;1.055757165;1.525133371;2.706115961;-1.926267028;0.832892895;-0.898193359;-0.296142578;0.562988281;0; 
499;2173085385;0.43210998;-0.49678972;-0.42330632;-0.6223285;9.756975174;1.039067626;1.536503434;0.627632797;-1.938779116;0.971572876;-0.897216797;-0.293945313;0.564208984;0; 
500;2173102052;0.43207845;-0.49690968;-0.4233002;-0.62225884;9.763743401;0.991721034;1.536142826;0.01187789;-1.888718963;1.057964563;-0.896484375;-0.294433594;0.563720703;0; 
501;2173118719;0.43213812;-0.4969511;-0.42342797;-0.62209743;9.769160271;0.958872855;1.516874313;1.530313969;-1.986162305;1.056133151;-0.895507813;-0.294921875;0.5625;0; 
502;2173135386;0.43225375;-0.4969118;-0.42365962;-0.6218906;9.75959301;1.010007143;1.537809849;2.957914591;-1.899552941;0.903788865;-0.899414063;-0.293945313;0.5625;0; 
503;2173152053;0.43240568;-0.49684677;-0.42387164;-0.62169254;9.757728577;1.057206511;1.53755033;2.218975544;-1.677631855;0.89711684;-0.898681641;-0.294921875;0.562988281;0; 
504;2173168720;0.4325119;-0.49683687;-0.42398164;-0.6215515;9.77052021;1.037833333;1.519883156;1.014320612;-1.57498908;0.997454584;-0.896728516;-0.294921875;0.565917969;0; 
505;2173185387;0.4325507;-0.49685043;-0.42404762;-0.6214686;9.731428146;1.023072243;1.555676937;1.167907119;-1.461755157;0.881454587;-0.896484375;-0.294921875;0.563720703;0; 
506;2173202054;0.43261606;-0.496849;-0.4241216;-0.62137383;9.753932953;1.004018664;1.528705001;1.363722682;-1.386460423;0.958132863;-0.898681641;-0.293212891;0.5625;0; 
507;2173218721;0.43276352;-0.49679047;-0.42427367;-0.6212141;9.784815788;0.98034811;1.532881141;1.691603661;-1.41983366;0.96868521;-0.895019531;-0.294921875;0.565429688;0; 
508;2173235388;0.4328338;-0.4967716;-0.4243881;-0.6211021;9.737390518;0.986964405;1.536665678;2.014611959;-1.440778375;0.895605683;-0.895996094;-0.293945313;0.563720703;0; 
509;2173252055;0.4330277;-0.4966556;-0.4246129;-0.6209059;9.73955822;1.044685364;1.508899093;2.326254129;-1.390270233;0.841793358;-0.897216797;-0.294921875;0.565917969;0; 
510;2173268722;0.4330409;-0.49667135;-0.4246315;-0.6208714;9.73925972;1.050645351;1.514080644;1.016741157;-1.210840344;0.839181006;-0.896484375;-0.293212891;0.564697266;0; 
511;2173285389;0.4329895;-0.49673843;-0.42460755;-0.6208699;9.732161522;1.007441998;1.519503832;-0.118689239;-1.426614523;0.687451243;-0.897216797;-0.295654297;0.562988281;0; 
512;2173302056;0.4330598;-0.49667257;-0.42480636;-0.6207376;9.77746582;0.928161204;1.491296768;1.503766537;-1.663071036;0.367868811;-0.898925781;-0.296142578;0.56640625;0; 
513;2173318723;0.43316096;-0.49656126;-0.42510733;-0.62055004;9.816206932;0.969473898;1.524427056;2.97490859;-1.811086774;0.277123004;-0.897705078;-0.293212891;0.56640625;0; 
514;2173335390;0.4331758;-0.4965185;-0.42532834;-0.6204225;9.780025482;1.032645106;1.496337056;1.923110247;-1.914728522;0.196302116;-0.896728516;-0.295410156;0.56640625;0; 
515;2173352057;0.43302274;-0.49663025;-0.42535022;-0.6204249;9.770867348;1.008323193;1.460049987;0.331511497;-1.962201476;0.327643991;-0.895996094;-0.293212891;0.564697266;0; 
516;2173368724;0.4330152;-0.49663267;-0.4254256;-0.6203766;9.766646385;1.004065514;1.481412053;0.61905247;-1.491337776;0.457129031;-0.893798828;-0.293945313;0.567138672;0; 
517;2173385391;0.43304554;-0.49660158;-0.4255153;-0.6203188;9.769680023;0.989401281;1.471351981;0.950852215;-1.310665846;0.50256592;-0.896728516;-0.297119141;0.564697266;0; 
518;2173402058;0.4329929;-0.49664342;-0.42551154;-0.6203245;9.781242371;0.971610367;1.489010692;1.480919957;-1.209457397;0.736717224;-0.895996094;-0.294433594;0.567626953;0; 
519;2173418725;0.43309754;-0.49659023;-0.4256229;-0.62021756;9.783841133;0.950980961;1.505480289;1.382867932;-1.241940498;0.806915224;-0.900634766;-0.294433594;0.566894531;0; 
520;2173435392;0.433257;-0.49649093;-0.4257776;-0.62007946;9.772047997;0.958798289;1.506138921;1.132587314;-1.20530808;0.722015679;-0.893798828;-0.294921875;0.569335938;0; 
521;2173452059;0.4332518;-0.49650955;-0.42579004;-0.62005967;9.784508705;0.985583305;1.522213936;1.117821574;-1.178120255;0.776224911;-0.897216797;-0.295410156;0.56640625;0; 
522;2173468726;0.43327868;-0.49651936;-0.4257784;-0.620041;9.789093018;0.958312631;1.510423899;0.801671028;-1.006143689;0.914264381;-0.896728516;-0.292724609;0.569335938;0; 
523;2173485393;0.43334755;-0.49649513;-0.4257779;-0.6200126;9.751526833;0.969681144;1.524532676;0.850821853;-0.829915464;0.941862166;-0.89453125;-0.296630859;0.56640625;0; 
524;2173502060;0.4333517;-0.49651968;-0.42568937;-0.62005097;9.754216194;0.975507557;1.50578928;0.971047997;-0.633927166;1.069528818;-0.897216797;-0.291503906;0.564697266;0; 
525;2173518727;0.43340778;-0.49653986;-0.42554206;-0.62009674;9.753151894;0.968708992;1.507224798;-0.170196369;-0.366517723;1.29609859;-0.893798828;-0.291748047;0.567138672;0; 
526;2173535394;0.4336065;-0.49646825;-0.42551088;-0.62003654;9.782813072;0.913289666;1.52353847;0.611919403;-0.341827095;1.435854316;-0.895019531;-0.293945313;0.567626953;0; 
527;2173552061;0.4338621;-0.49632442;-0.42555445;-0.6199431;9.785526276;0.93948555;1.522809386;2.239785671;-0.125988856;1.43110311;-0.895019531;-0.292724609;0.564208984;0; 
528;2173568728;0.4340217;-0.49625078;-0.4254753;-0.61994445;9.784346581;1.011066675;1.531178713;0.962249875;-0.010462788;1.371848106;-0.895996094;-0.293212891;0.565917969;0; 
529;2173585395;0.43405557;-0.49629495;-0.4252476;-0.62004167;9.767668724;1.007387877;1.51160419;-0.747980416;-0.111901879;1.399183273;-0.893798828;-0.294433594;0.56640625;0; 
530;2173602062;0.4341193;-0.49632913;-0.42502657;-0.62012124;9.766935349;0.955577493;1.498588681;-0.652675629;-0.073405996;1.509298921;-0.895507813;-0.294921875;0.565917969;0; 
531;2173618729;0.43420082;-0.4963463;-0.42484325;-0.6201761;9.781079292;0.952062786;1.507072091;0.057148334;-0.110377923;1.536332965;-0.895996094;-0.293212891;0.563720703;0; 
532;2173635396;0.43432096;-0.49634588;-0.4247064;-0.6201861;9.782740593;0.949905276;1.499386311;0.341231614;-0.23562403;1.588403583;-0.896728516;-0.292724609;0.565917969;0; 
533;2173652063;0.43449017;-0.49626896;-0.424674;-0.6201512;9.771254539;0.973448157;1.498838305;0.942272127;-0.265949488;1.294357181;-0.898925781;-0.292724609;0.565429688;0; 
534;2173668730;0.43460637;-0.4962265;-0.42456508;-0.6201784;9.777191162;0.997859418;1.496881485;0.43353337;-0.098935463;1.287358284;-0.898193359;-0.291503906;0.565429688;0; 
535;2173685397;0.43470827;-0.49621317;-0.42441347;-0.6202214;9.771229744;0.997200906;1.462729216;-0.132808238;-0.103507303;1.378692985;-0.897705078;-0.293212891;0.565917969;0; 
536;2173702064;0.43487903;-0.49613124;-0.42437285;-0.6201949;9.779443741;0.995344758;1.492314816;1.199116111;-0.156519204;1.334799409;-0.895996094;-0.291015625;0.561523438;0; 
537;2173718731;0.4349978;-0.49610728;-0.42427412;-0.62019837;9.792645454;1.007705808;1.510183096;0.691510856;-0.260839731;1.418348074;-0.897216797;-0.290527344;0.564208984;0; 
538;2173735398;0.4350867;-0.49610522;-0.42414448;-0.62022644;9.783537865;1.000555277;1.51042366;-0.203320026;-0.315836608;1.306324482;-0.897705078;-0.292724609;0.565917969;0; 
539;2173752065;0.43517736;-0.49609846;-0.42407486;-0.6202159;9.76756382;0.971156836;1.470468283;-0.031516425;-0.622900844;1.178638816;-0.895019531;-0.290527344;0.564697266;0; 
540;2173768732;0.43523005;-0.49608198;-0.42402515;-0.62022597;9.77968502;1.001800537;1.492794394;0.855790675;-0.58664608;1.005292058;-0.898193359;-0.291503906;0.564208984;0; 
541;2173785399;0.435307;-0.49602222;-0.42403403;-0.6202136;9.771071434;1.016851902;1.504259825;1.181238651;-0.602282643;0.820240378;-0.897705078;-0.292236328;0.563720703;0; 
542;2173802066;0.43531397;-0.4960199;-0.42398936;-0.6202411;9.762509346;1.014384151;1.497466326;0.954476476;-0.703414381;0.833622932;-0.896484375;-0.290039063;0.561279297;0; 
543;2173818733;0.43540382;-0.49594128;-0.42403948;-0.62020665;9.776745796;1.004776597;1.521807194;1.012066603;-0.730051637;0.66720438;-0.895507813;-0.291748047;0.5625;0; 
544;2173835400;0.43544555;-0.49589315;-0.42402843;-0.6202233;9.790837288;0.994379103;1.53325808;0.379945189;-0.640035748;0.613135993;-0.894775391;-0.289306641;0.5625;0; 
545;2173852067;0.43556234;-0.49578863;-0.4240438;-0.62021446;9.782510757;1.014539838;1.50907445;0.556647182;-0.387801856;0.687246263;-0.897705078;-0.293945313;0.563720703;0; 
546;2173868734;0.43558997;-0.49573985;-0.42403954;-0.62023705;9.765968323;0.972273409;1.510709524;0.87191397;-0.627792895;0.592440963;-0.897216797;-0.293212891;0.5625;0; 
547;2173885401;0.43569148;-0.49561495;-0.4241779;-0.62017107;9.782221794;0.984807253;1.551253319;2.276232719;-0.810385883;0.473329067;-0.895019531;-0.291748047;0.564208984;0; 
548;2173902068;0.43582615;-0.4954543;-0.42436537;-0.62007636;9.788466454;1.02368784;1.576966405;1.921535015;-0.889465094;0.294975072;-0.897705078;-0.291015625;0.563720703;0; 
549;2173918735;0.43575978;-0.49546883;-0.4243436;-0.62012625;9.760420799;0.985270798;1.536461949;-0.043330282;-1.048436642;0.314690441;-0.898193359;-0.292236328;0.565429688;0; 
550;2173935402;0.4357597;-0.49541318;-0.42445943;-0.6200915;9.71625042;0.924975753;1.528793216;0.677199781;-1.310057521;0.092602722;-0.895996094;-0.292724609;0.562011719;0; 
551;2173952069;0.43576062;-0.49531493;-0.4246739;-0.62002265;9.77130127;0.950499892;1.541606188;2.357597828;-1.437903285;-0.103468895;-0.895996094;-0.292724609;0.563720703;0; 
552;2173968736;0.4357907;-0.49520773;-0.4248993;-0.6199328;9.770507813;0.965743244;1.545238018;1.931011915;-1.482847333;-0.080513522;-0.898193359;-0.291503906;0.563720703;0; 
553;2173985403;0.43572643;-0.4951698;-0.42498082;-0.6199522;9.775899887;1.000596046;1.526875973;1.461326122;-1.152878642;0.031510022;-0.897705078;-0.291015625;0.562988281;0; 
554;2174002070;0.4357101;-0.4951114;-0.42505598;-0.61995876;9.752831459;0.984032571;1.517814517;0.545031846;-1.062389135;0.061643366;-0.895996094;-0.292724609;0.564697266;0; 
555;2174018737;0.43568847;-0.49504736;-0.42507827;-0.62000984;9.772148132;0.972237587;1.532925725;0.760268152;-0.687636971;0.156397536;-0.895996094;-0.292236328;0.565429688;0; 
556;2174035404;0.4356358;-0.49497116;-0.42507547;-0.6201096;9.809380531;0.940048099;1.530301332;0.815860569;-0.448260665;-0.015662163;-0.898681641;-0.293212891;0.5625;0; 
557;2174052071;0.43572068;-0.49480218;-0.42520326;-0.6200972;9.833833694;0.949384987;1.569541454;1.299703598;-0.536547542;0.015905485;-0.896484375;-0.292724609;0.564697266;0; 
558;2174068738;0.4357058;-0.49471864;-0.42521515;-0.62016624;9.840459824;0.967142284;1.545885801;1.067953467;-0.460272998;0.158075169;-0.898681641;-0.294433594;0.563720703;0; 
559;2174085405;0.4357908;-0.4945885;-0.42524338;-0.62019074;9.795174599;0.985559821;1.52471602;0.031087413;-0.34072572;0.261191905;-0.898925781;-0.292236328;0.564697266;0; 
560;2174102072;0.43583143;-0.494483;-0.4252547;-0.6202387;9.765838623;0.980921447;1.524383426;0.608141482;-0.34870407;0.275342911;-0.898681641;-0.292724609;0.562011719;0; 
561;2174118739;0.43600866;-0.4942973;-0.4253748;-0.62017983;9.746855736;0.975352287;1.551856995;1.461787224;-0.359679163;0.476902068;-0.898193359;-0.293945313;0.562011719;0; 
562;2174135406;0.43600094;-0.4942238;-0.4253821;-0.6202389;9.751894951;0.991365492;1.589106679;1.439638734;-0.46480009;0.319275111;-0.896484375;-0.292236328;0.563720703;0; 
563;2174152073;0.4360505;-0.49411723;-0.42541188;-0.6202684;9.759208679;0.996581674;1.559240699;0.519848168;-0.462379634;0.262619823;-0.897705078;-0.294433594;0.564208984;0; 
564;2174168740;0.43593922;-0.49411997;-0.42531034;-0.6204141;9.787074089;0.978364468;1.538051605;0.56996578;-0.429345667;0.276661962;-0.900390625;-0.294921875;0.562011719;0; 
565;2174185407;0.43590534;-0.4940567;-0.4253358;-0.6204709;9.766007423;1.014672518;1.517312765;2.292035818;-0.557050645;0.319140643;-0.894287109;-0.294433594;0.562988281;0; 
566;2174202074;0.43595314;-0.49391168;-0.4254894;-0.62044734;9.768188477;1.055811048;1.552627206;2.945185184;-0.691248357;0.133474186;-0.898193359;-0.294921875;0.562988281;0; 
567;2174218741;0.43587378;-0.49388117;-0.42550543;-0.6205165;9.773425102;1.052652359;1.544282556;1.908011675;-0.764078021;0.208391309;-0.898681641;-0.294921875;0.5625;0; 
568;2174235408;0.4357763;-0.49387047;-0.425433;-0.620643;9.761266708;1.031844616;1.533251643;0.942387223;-0.469672829;0.271885216;-0.897705078;-0.293945313;0.561523438;0; 
569;2174252075;0.4358522;-0.4937462;-0.42555636;-0.6206041;9.709299088;1.000644326;1.48962152;1.517418146;-0.796311677;0.251561552;-0.898681641;-0.294921875;0.560791016;0; 
570;2174268742;0.43573484;-0.49372622;-0.42561743;-0.6206605;9.725178719;0.995959997;1.503855109;2.804558516;-1.012598038;0.090598509;-0.899414063;-0.294921875;0.561523438;0; 
571;2174285409;0.4358017;-0.49354303;-0.4258565;-0.6205952;9.743628502;1.031476021;1.492450476;3.398133039;-0.886814177;-0.093704067;-0.896484375;-0.295654297;0.562011719;0; 
572;2174302076;0.43549943;-0.49363998;-0.42580706;-0.62076443;9.749630928;1.061934114;1.515450358;2.420310497;-1.193430185;-0.1046599;-0.895507813;-0.294921875;0.562011719;0; 
573;2174318743;0.43542776;-0.4935791;-0.4259797;-0.6207445;9.73548317;1.030716777;1.509037733;2.214198828;-1.452995658;-0.22640349;-0.897216797;-0.294433594;0.564208984;0; 
574;2174335410;0.43551195;-0.49341065;-0.4263065;-0.620595;9.74571991;1.042234302;1.527070642;2.467719555;-1.603342056;-0.263465047;-0.898681641;-0.295410156;0.562011719;0; 
575;2174352077;0.43527192;-0.493472;-0.42638513;-0.6206607;9.745911598;1.027854204;1.495854497;1.950388074;-1.758042812;-0.321016788;-0.899902344;-0.296142578;0.562988281;0; 
576;2174368744;0.4350789;-0.4934879;-0.4265067;-0.62069976;9.752652168;1.01807785;1.495832324;2.023448229;-1.693140388;-0.394922227;-0.897705078;-0.293945313;0.563720703;0; 
577;2174385411;0.43503356;-0.49338573;-0.42677784;-0.6206264;9.756504059;1.006196618;1.489025831;3.030219555;-1.665990949;-0.408573776;-0.900390625;-0.293212891;0.562011719;0; 
578;2174402078;0.4351811;-0.493149;-0.42722043;-0.62040675;9.76212883;1.020254612;1.516895771;3.471788883;-1.719668746;-0.395799458;-0.898681641;-0.296142578;0.560791016;0; 
579;2174418745;0.43500495;-0.4931458;-0.42735502;-0.6204398;9.752633095;1.030910015;1.520686865;2.621901989;-1.57463038;-0.344016999;-0.898193359;-0.296630859;0.563720703;0; 
580;2174435412;0.43470976;-0.49326247;-0.42729816;-0.6205932;9.75215435;1.007656693;1.538342357;1.551597953;-1.364695787;-0.080859289;-0.899414063;-0.297851563;0.563720703;0; 
581;2174452079;0.4345999;-0.4932742;-0.42739382;-0.6205951;9.747285843;0.986481369;1.505153418;2.042452812;-1.502889395;0.102047406;-0.901123047;-0.296630859;0.562988281;0; 
582;2174468746;0.4346154;-0.49318287;-0.4276056;-0.62051076;9.743335724;0.980547488;1.517925143;2.549942493;-1.436910868;0.048568081;-0.900390625;-0.296630859;0.561523438;0; 
583;2174485413;0.43467018;-0.49307138;-0.42784485;-0.62039614;9.747613907;0.995478451;1.529716969;1.988102674;-1.520485163;0.007754245;-0.897216797;-0.296630859;0.5625;0; 
584;2174502080;0.4347144;-0.49300084;-0.42800093;-0.6203135;9.747711182;0.989919066;1.535342216;1.524896979;-1.353848934;0.291197181;-0.900390625;-0.297119141;0.5625;0; 
585;2174518747;0.43485263;-0.49287763;-0.42815793;-0.62020624;9.755635262;0.998759747;1.527776122;1.480746984;-1.002295375;0.516620934;-0.897705078;-0.297851563;0.562011719;0; 
586;2174535414;0.43484387;-0.49286672;-0.42818117;-0.62020487;9.745581627;1.01447928;1.507058859;1.773692369;-0.942015946;0.659655094;-0.897216797;-0.296142578;0.564208984;0; 
587;2174552081;0.4347368;-0.49293303;-0.42811158;-0.62027544;9.746211052;1.032096505;1.526486754;1.784187198;-0.912209153;0.743389487;-0.898193359;-0.295410156;0.5625;0; 
588;2174568748;0.4347173;-0.49296555;-0.42805144;-0.62030464;9.778185844;1.019964337;1.555165172;0.994778097;-0.822718441;0.905312955;-0.900390625;-0.294921875;0.565429688;0; 
589;2174585415;0.43476322;-0.4929877;-0.42797148;-0.62031007;9.7665205;0.978528261;1.524215817;0.463212132;-0.688789487;1.174450994;-0.897705078;-0.296630859;0.561523438;0; 
590;2174602082;0.43497387;-0.49288523;-0.4280584;-0.6201839;9.775500298;1.001896858;1.511211276;1.477308393;-0.725633383;1.185566902;-0.896484375;-0.293945313;0.564208984;0; 
591;2174618749;0.43520403;-0.49276683;-0.42818102;-0.6200316;9.766532898;1.044032693;1.514261961;2.664598227;-0.70554024;1.304999113;-0.899902344;-0.295410156;0.5625;0; 
592;2174635416;0.43534192;-0.4927318;-0.4282075;-0.6199446;9.780200958;1.079630733;1.532772541;2.051954985;-0.764846444;1.37054193;-0.894775391;-0.296142578;0.5625;0; 
593;2174652083;0.43544164;-0.4927397;-0.42815635;-0.61990345;9.769499779;1.062577128;1.545723319;0.682155907;-0.741763055;1.363274455;-0.897705078;-0.294921875;0.565429688;0; 
594;2174668750;0.4354785;-0.49280947;-0.42799604;-0.61993283;9.773212433;1.037700176;1.522430539;-0.191320464;-0.603070199;1.465609908;-0.898681641;-0.294921875;0.562988281;0; 
595;2174685417;0.43555152;-0.49282908;-0.42793432;-0.61990863;9.76246357;1.021719098;1.492790937;0.863538623;-0.738401413;1.329664111;-0.899902344;-0.296142578;0.562988281;0; 
596;2174702084;0.43567097;-0.49276173;-0.42802382;-0.6198163;9.731312752;1.06111908;1.526975632;3.259939194;-0.794557095;1.133650064;-0.900390625;-0.294921875;0.5625;0; 
597;2174718751;0.43577564;-0.49269652;-0.428064;-0.6197669;9.707277298;1.156068325;1.537081599;2.969581127;-0.543770432;1.130999088;-0.900390625;-0.293701172;0.562988281;0; 
598;2174735418;0.43578327;-0.4927439;-0.42788896;-0.6198446;9.729153633;1.155604005;1.525329947;-0.247623608;-0.365506023;1.207696319;-0.898681641;-0.294433594;0.562011719;0; 
599;2174752085;0.4357093;-0.49287114;-0.42758682;-0.62000406;9.740613937;1.023091316;1.528106213;-1.309590101;-0.263874829;1.318125486;-0.899414063;-0.294921875;0.5625;0; 
600;2174768752;0.43588138;-0.4927357;-0.42769003;-0.6199196;9.757989883;0.959635854;1.515400052;2.038982153;-0.537034273;0.842497826;-0.899169922;-0.294921875;0.559814453;0; 
601;2174785419;0.43624637;-0.49238738;-0.42810696;-0.6196519;9.765996933;1.046049595;1.578251839;4.216164112;-0.724877775;0.376116097;-0.897705078;-0.294433594;0.562011719;0; 
602;2174802086;0.43623823;-0.49233812;-0.4281664;-0.6196556;9.773099899;1.147484541;1.585171223;1.804677129;-0.891321957;0.374681801;-0.901123047;-0.295410156;0.563720703;0; 
603;2174818753;0.43607876;-0.49243063;-0.42799696;-0.6198114;9.734704018;1.092723608;1.573454499;-0.686714828;-0.753269434;0.447421819;-0.899414063;-0.293212891;0.562011719;0; 
604;2174835420;0.43606418;-0.49240777;-0.42796406;-0.61986256;9.712603569;1.041162729;1.564290285;0.01163457;-0.706808031;0.421885997;-0.900878906;-0.292236328;0.561279297;0; 
605;2174852087;0.43613935;-0.49230775;-0.42800713;-0.61985916;9.725839615;1.014661789;1.528536439;1.001341343;-0.529862761;0.478470862;-0.899902344;-0.293212891;0.562988281;0; 
606;2174868754;0.4362336;-0.49219075;-0.4280681;-0.61984366;9.738100052;1.024348974;1.566802263;1.321077466;-0.485879272;0.499703735;-0.899414063;-0.295410156;0.561523438;0; 
607;2174885421;0.43634987;-0.49203983;-0.42813486;-0.61983556;9.745499611;1.040531874;1.582337141;0.957223475;-0.327362299;0.370359659;-0.903808594;-0.292724609;0.562011719;0; 
608;2174902088;0.43646935;-0.4919043;-0.4281986;-0.61981493;9.734766006;1.014216661;1.580366373;0.711642444;-0.441895872;0.439405054;-0.899902344;-0.295410156;0.564208984;0; 
609;2174918755;0.4364787;-0.4918083;-0.4281344;-0.61992913;9.733148575;1.073717237;1.541124821;0.81008482;0.067380607;0.348326266;-0.900390625;-0.294433594;0.5625;0; 
610;2174935422;0.4364569;-0.49176458;-0.4279816;-0.6200846;9.750915527;1.047567725;1.528002501;-0.701166868;0.079489015;0.431548417;-0.899902344;-0.293212891;0.562988281;0; 
611;2174952089;0.4364858;-0.49167505;-0.42787123;-0.6202114;9.731578827;1.01479888;1.541738749;-0.489221752;0.161219135;0.39908424;-0.900390625;-0.294433594;0.559814453;0; 
612;2174968756;0.43650877;-0.49157372;-0.42776588;-0.6203483;9.717295647;0.988767684;1.558149934;-0.035153434;0.259821653;0.361119896;-0.899902344;-0.294921875;0.562988281;0; 
613;2174985423;0.43646786;-0.49155274;-0.42754298;-0.6205472;9.73384285;0.975971699;1.561336875;-0.540607214;0.359864861;0.632204592;-0.900878906;-0.295410156;0.559082031;0; 
614;2175002090;0.43649477;-0.49147564;-0.4273777;-0.62070316;9.744692802;0.971262157;1.560946584;0.121077634;0.46821928;0.673530698;-0.899902344;-0.295654297;0.559814453;0; 
615;2175018757;0.4364138;-0.49147454;-0.42714763;-0.6209192;9.750979424;1.002822161;1.552363634;-0.031452391;0.318961322;0.612124264;-0.897705078;-0.294921875;0.559082031;0; 
616;2175035424;0.4363974;-0.49147245;-0.4269119;-0.62109464;9.768259048;1.002396464;1.560110927;-0.795184612;0.279056758;0.859338045;-0.903808594;-0.295410156;0.559082031;0; 
617;2175052091;0.4365014;-0.4913871;-0.42679498;-0.62116945;9.781543732;0.952266991;1.545217395;-0.272583127;0.193241403;0.884489715;-0.901367188;-0.294433594;0.557373047;0; 
618;2175068758;0.43663043;-0.49131748;-0.42664936;-0.6212338;9.782186508;0.982926071;1.535646081;-0.037221652;0.280702382;1.209418893;-0.899169922;-0.293945313;0.557373047;0; 
619;2175085425;0.43675596;-0.4912534;-0.42645428;-0.6213302;9.766430855;0.985745609;1.54605794;-0.109353416;0.531636417;1.321583271;-0.903076172;-0.293701172;0.559814453;0; 
620;2175102092;0.43683916;-0.49124593;-0.4262034;-0.6214499;9.790950775;0.943665624;1.531389713;-0.465216249;0.440800935;1.465091228;-0.899902344;-0.295654297;0.556884766;0; 
621;2175118759;0.43704498;-0.49113932;-0.42606267;-0.62148565;9.772789955;0.953878582;1.565754056;0.498986632;0.560546756;1.506782293;-0.901367188;-0.296630859;0.557373047;0; 
622;2175135426;0.4370237;-0.4912137;-0.42571774;-0.6216783;9.775504112;0.970785558;1.572344899;0.332145482;0.524317682;1.670972586;-0.903076172;-0.294433594;0.556396484;0; 
623;2175152093;0.4371905;-0.49118513;-0.42546347;-0.62175757;9.774644852;0.979891479;1.571621656;-0.076710023;0.643666208;1.882808447;-0.902587891;-0.293212891;0.556396484;0; 
624;2175168760;0.43741724;-0.49113423;-0.42523918;-0.62179166;9.76098156;0.969170809;1.548204064;0.06154092;0.631551564;2.045090914;-0.901855469;-0.293945313;0.5546875;0; 
625;2175185427;0.43755877;-0.4911605;-0.42495674;-0.62186456;9.75295639;0.959636986;1.584126472;0.151902527;0.45917803;2.140037298;-0.900878906;-0.294921875;0.554199219;0; 
626;2175202094;0.43778992;-0.49113432;-0.4247634;-0.62185466;9.755868912;0.977767527;1.5958004;0.686183512;0.340604126;2.232460499;-0.902099609;-0.293212891;0.556884766;0; 
627;2175218761;0.43802136;-0.49109247;-0.42460594;-0.6218323;9.742907524;0.994336605;1.580100417;0.832252741;0.249973565;2.087172747;-0.900878906;-0.292724609;0.5546875;0; 
628;2175235428;0.43824148;-0.49107072;-0.4244632;-0.62179184;9.756988525;1.029511809;1.590456963;0.334085613;-0.027469618;2.0208354;-0.902587891;-0.293945313;0.5546875;0; 
629;2175252095;0.438344;-0.4911326;-0.424208;-0.62184495;9.763153076;1.052912354;1.564114571;-0.31785357;0.0036306;1.979983091;-0.902587891;-0.294433594;0.553466797;0; 
630;2175268762;0.43838266;-0.49125084;-0.42395967;-0.6218935;9.770020485;1.008147001;1.55912447;-0.128518119;-0.405506641;1.949100852;-0.901855469;-0.294433594;0.553466797;0; 
631;2175285429;0.4385628;-0.49123862;-0.42389265;-0.6218219;9.767150879;1.029243588;1.590786934;1.194525123;-0.455016047;1.815838099;-0.899169922;-0.291748047;0.551757813;0; 
632;2175302096;0.43867952;-0.49121854;-0.42386663;-0.62177324;9.763798714;1.058406234;1.596392393;1.690246224;-0.593644857;1.405394435;-0.903564453;-0.290039063;0.553466797;0; 
633;2175318763;0.43880904;-0.491226;-0.4238258;-0.62170357;9.765328407;1.084592223;1.599835873;0.431734115;-0.822974503;1.459571838;-0.901367188;-0.292236328;0.553466797;0; 
634;2175335430;0.43869826;-0.4913984;-0.4236263;-0.6217816;9.747243881;1.047218919;1.575024843;-0.329174429;-1.083430052;1.27003777;-0.903076172;-0.289306641;0.554199219;0; 
635;2175352097;0.43875608;-0.49141827;-0.42364702;-0.6217108;9.735744476;1.021109343;1.560184121;0.937732279;-1.221802473;1.068433642;-0.901855469;-0.290039063;0.553466797;0; 
636;2175368764;0.4388684;-0.49134144;-0.42381027;-0.621581;9.772410393;1.061176419;1.569011927;2.119815826;-1.285565257;0.705354512;-0.902587891;-0.291015625;0.555175781;0; 
637;2175385431;0.43893284;-0.49130043;-0.42395043;-0.6214724;9.759931564;1.079136014;1.592803121;2.12889576;-1.391704559;0.689833283;-0.900878906;-0.292236328;0.555175781;0; 
638;2175402098;0.4390956;-0.49116966;-0.42418072;-0.6213037;9.740188599;1.105990648;1.596158624;2.111248493;-1.315865159;0.540216625;-0.903564453;-0.291748047;0.552490234;0; 
639;2175418765;0.43894812;-0.4912534;-0.42414913;-0.62136334;9.723618507;1.09400773;1.582400203;1.137594461;-1.321961284;0.435025305;-0.902587891;-0.291503906;0.555664063;0; 
640;2175435432;0.438707;-0.49139336;-0.42402297;-0.62150896;9.723874092;1.0471977;1.599019766;0.12915203;-1.246832728;0.280177295;-0.900146484;-0.291748047;0.554199219;0; 
641;2175452099;0.43862832;-0.4913982;-0.424092;-0.62151355;9.750200272;1.021620393;1.587317109;1.188416481;-1.374486208;0.165253133;-0.901855469;-0.295166016;0.549560547;0; 
642;2175468766;0.4385115;-0.49136186;-0.42425925;-0.6215106;9.788741112;1.009882331;1.582892299;2.522863865;-1.542326331;-0.281541198;-0.904785156;-0.291503906;0.554199219;0; 
643;2175485433;0.4385;-0.4912248;-0.42459977;-0.6213946;9.78034687;1.066586614;1.631210923;3.009678125;-1.83293438;-0.568960547;-0.903564453;-0.292236328;0.555664063;0; 
644;2175502100;0.4381641;-0.4913474;-0.42460072;-0.6215338;9.776206017;1.085469842;1.615006208;0.74942106;-1.817540884;-0.534139931;-0.901855469;-0.292724609;0.554199219;0; 
645;2175518767;0.43785515;-0.49148798;-0.42452994;-0.6216887;9.736978531;1.019352913;1.613036275;-0.282386422;-1.620163202;-0.282578498;-0.902587891;-0.293212891;0.554199219;0; 
646;2175535434;0.437847;-0.49138257;-0.42473766;-0.62163603;9.724025726;0.977220535;1.586513519;1.480433226;-1.414999127;-0.313166469;-0.901367188;-0.294921875;0.555908203;0; 
647;2175552101;0.43772617;-0.4913222;-0.4249204;-0.6216437;9.743792534;0.989670753;1.592378259;2.884598255;-1.429841757;-0.413965225;-0.901367188;-0.292724609;0.553466797;0; 
648;2175568768;0.43766737;-0.49121317;-0.42516252;-0.6216058;9.732861519;1.02510941;1.626531005;2.964304686;-1.440125227;-0.45979917;-0.902587891;-0.294433594;0.555175781;0; 
649;2175585435;0.4373782;-0.49127796;-0.42518854;-0.62174046;9.756439209;1.008915544;1.626511574;1.501845479;-1.492234349;-0.526584327;-0.901855469;-0.293212891;0.555175781;0; 
650;2175602102;0.43729034;-0.4912302;-0.42534962;-0.62172973;9.743510246;0.977793157;1.616116047;1.019698977;-1.578933001;-0.407523602;-0.902099609;-0.292724609;0.556396484;0; 
651;2175618769;0.43719932;-0.4912224;-0.4254947;-0.6217007;9.756299973;0.906649828;1.58690083;2.050763845;-1.649688363;-0.012345321;-0.902587891;-0.293945313;0.555175781;0; 
652;2175635436;0.43710506;-0.4912262;-0.42570242;-0.6216219;9.74174118;0.906198919;1.62990284;4.286458015;-1.87014997;0.235502392;-0.901855469;-0.293212891;0.554199219;0; 
653;2175652103;0.43730593;-0.4910367;-0.42612904;-0.6213377;9.739484787;0.980949938;1.617300034;4.659545898;-1.818258524;0.381225854;-0.902587891;-0.293945313;0.5546875;0; 
654;2175668770;0.43732747;-0.49101543;-0.42635056;-0.6211875;9.724476814;1.022961736;1.602289796;2.491635323;-1.972165108;0.430594355;-0.902587891;-0.293212891;0.5546875;0; 
655;2175685437;0.43712676;-0.49114594;-0.42634526;-0.62122923;9.747143745;0.998647451;1.553017139;1.621828198;-1.745031714;0.403457642;-0.900390625;-0.292236328;0.556884766;0; 
656;2175702104;0.43711162;-0.49111742;-0.42649555;-0.6211592;9.725399971;0.962266266;1.532628894;1.423073649;-1.607222557;0.184251353;-0.901367188;-0.295410156;0.55859375;0; 
657;2175718771;0.4366847;-0.4913559;-0.42636776;-0.6213585;9.762961388;0.912022352;1.563094139;2.715439081;-1.633974791;0.180627152;-0.898681641;-0.296142578;0.557373047;0; 
658;2175735438;0.43630382;-0.49158108;-0.42620772;-0.62155765;9.793579102;0.938746691;1.555301547;2.838700056;-1.336611509;0.45692414;-0.901855469;-0.292724609;0.555664063;0; 
659;2175752105;0.4361659;-0.4916719;-0.42614642;-0.6216248;9.769655228;0.95606029;1.548139691;2.316969633;-1.061992168;0.76679939;-0.899902344;-0.291748047;0.55859375;0; 
660;2175768772;0.43617326;-0.4917058;-0.42614552;-0.62159353;9.738562584;0.977199733;1.534237981;2.168210983;-1.051093817;1.100827336;-0.902587891;-0.293945313;0.555664063;0; 
661;2175785439;0.43616033;-0.491746;-0.42612347;-0.6215859;9.745112419;0.980456948;1.532072544;2.152709007;-0.969805658;1.070303559;-0.901367188;-0.293212891;0.558105469;0; 
662;2175802106;0.43610927;-0.49184188;-0.42603302;-0.6216077;9.753578186;0.946931899;1.53486526;1.332744002;-1.029547215;1.189863443;-0.900878906;-0.292724609;0.55859375;0; 
663;2175818773;0.43610427;-0.491926;-0.42596346;-0.62159234;9.759128571;0.91558063;1.536130071;1.65661037;-1.039619446;1.381132841;-0.899169922;-0.293212891;0.557373047;0; 
664;2175835440;0.43609354;-0.4919975;-0.42595413;-0.6215497;9.737606049;0.921835363;1.544439793;3.34104228;-1.134553075;1.401008368;-0.900390625;-0.293457031;0.555175781;0; 
665;2175852107;0.4364171;-0.49182475;-0.4262471;-0.6212586;9.757991791;0.971005142;1.544281483;4.41794157;-1.155286551;1.406566381;-0.902099609;-0.290527344;0.559814453;0; 
666;2175868774;0.43646115;-0.49189904;-0.42623222;-0.62117875;9.753429413;1.038568735;1.552387238;2.575260639;-1.203118086;1.612620354;-0.902099609;-0.292236328;0.556884766;0; 
667;2175885441;0.43598467;-0.49239466;-0.42567214;-0.62150484;9.769393921;0.98518455;1.512852192;0.531124175;-1.047034383;1.939553857;-0.901367188;-0.288330078;0.557373047;0; 
668;2175902108;0.43607056;-0.4925086;-0.4255486;-0.6214389;9.770777702;0.932906032;1.506914139;1.16324544;-0.975830972;2.089938641;-0.899169922;-0.289306641;0.556396484;0; 
669;2175918775;0.43607578;-0.49264053;-0.42545334;-0.6213958;9.763018608;0.93392849;1.511171699;2.899018526;-1.086247563;1.940450311;-0.899169922;-0.288818359;0.554199219;0; 
670;2175935442;0.43620056;-0.4926758;-0.42548054;-0.62126184;9.760764122;0.978859067;1.526005983;3.924627542;-1.047252059;1.955241561;-0.899658203;-0.291015625;0.556396484;0; 
671;2175952109;0.4359231;-0.4929996;-0.42515323;-0.6214236;9.753268242;1.056892037;1.524955153;2.821718931;-1.027184486;1.93053782;-0.902099609;-0.288818359;0.557373047;0; 
672;2175968776;0.43591103;-0.4931749;-0.42497918;-0.6214121;9.776123047;1.01720798;1.553086042;0.146139666;-1.20204246;1.838601351;-0.901367188;-0.288330078;0.55859375;0; 
673;2175985443;0.43579832;-0.4934127;-0.424739;-0.62146646;9.78723526;0.921151876;1.552062511;1.712791562;-1.075951099;2.009245634;-0.899169922;-0.288330078;0.557373047;0; 
674;2176002110;0.4358253;-0.49355444;-0.4246354;-0.62140584;9.770240784;0.972405314;1.514501095;2.839231968;-1.115881324;2.120795965;-0.900878906;-0.290039063;0.556884766;0; 
675;2176018777;0.43580517;-0.49370962;-0.4245563;-0.6213506;9.787183762;1.025936007;1.534400702;2.408400536;-1.398382783;1.812380075;-0.900878906;-0.286621094;0.557373047;0; 
676;2176035444;0.43594223;-0.4937836;-0.42454487;-0.62120336;9.755275726;1.005821466;1.538380504;2.294244289;-1.256744742;2.070146322;-0.898193359;-0.288330078;0.556884766;0; 
677;2176052111;0.43577033;-0.49401775;-0.42433786;-0.6212794;9.75028801;1.011324525;1.528814673;2.365537882;-1.183684587;1.681627512;-0.902587891;-0.287109375;0.556396484;0; 
678;2176068778;0.4356513;-0.49421322;-0.42422962;-0.62128145;9.784584999;0.99384594;1.559940577;3.096325874;-1.433133125;1.649745941;-0.903564453;-0.284179688;0.55859375;0; 
679;2176085445;0.43593782;-0.494112;-0.42440814;-0.6210388;9.757383347;1.016693711;1.538566589;2.633209705;-1.147538543;1.56737566;-0.901855469;-0.285400391;0.556884766;0; 
680;2176102112;0.4359274;-0.49424243;-0.4243258;-0.6209988;9.726169586;0.999154091;1.552230716;1.966293216;-1.254087329;1.668494582;-0.899169922;-0.284912109;0.556884766;0; 
681;2176118779;0.43613613;-0.49420783;-0.42447165;-0.62078005;9.730065346;0.930999756;1.526016355;2.649358273;-1.410478354;1.573279262;-0.899658203;-0.285400391;0.556396484;0; 
682;2176135446;0.43623537;-0.49418598;-0.42459685;-0.62064195;9.747489929;1.01388514;1.547652602;3.924268484;-1.245443225;1.274942517;-0.901367188;-0.283203125;0.556396484;0; 
683;2176152113;0.4362324;-0.4942314;-0.4247535;-0.6205008;9.769310951;0.985753715;1.542732716;3.501403332;-1.935654044;0.932308674;-0.899658203;-0.282714844;0.556884766;0; 
684;2176168780;0.43631575;-0.49416852;-0.4250276;-0.62030447;9.805177689;0.948538661;1.580855489;4.053779602;-1.836289763;0.641450882;-0.900390625;-0.283691406;0.55859375;0; 
685;2176185447;0.4361429;-0.49429476;-0.42501193;-0.6203364;9.84787941;1.037384272;1.539284945;2.203364611;-1.595005274;0.624200642;-0.902099609;-0.284912109;0.559082031;0; 
686;2176202114;0.4362681;-0.49424937;-0.42511374;-0.6202146;9.763095856;0.982225418;1.58241868;1.498528719;-1.189466596;0.979192793;-0.897949219;-0.281005859;0.558105469;0; 
