"sep=,",,,,,,,,,,,,,,,
"DeviceTag:,Xsens_1,,,,,,,,,,,,,,,,,",,,,,,,,,,,,,,,
"FirmwareVersion:,2.2.1,,,,,,,,,,,,,,,,,",,,,,,,,,,,,,,,
"AppVersion:,2023.0.0,,,,,,,,,,,,,,,,,",,,,,,,,,,,,,,,
"StartTime:,2023-07-17 14:57:19.000 +0200,,,,,,,,,,,,,,,,,",,,,,,,,,,,,,,,
"© Movella Technologies B. V. 2005-2023,,,,,,,,,,,,,,,,,,,",,,,,,,,,,,,,,,
PacketCounter,SampleTimeFine,Quat_W,Quat_X,Quat_Y,Quat_Z,Acc_X,Acc_Y,Acc_Z,Gyr_X,Gyr_Y,Gyr_Z,Mag_X,Mag_Y,Mag_Z,Status
0,1113757131,4.03584796632196e-17,3.95100948075883e-16,-0.707106781186547,-0.707106781186547,0,0,0,0,0,0,1.02880859375,-0.00756835937499995,-0.322021484375,0
1,1113773798,0.00123188229576023,0.000490409311261629,0.707072575915681,0.707139741743229,-9.27329256502342,3.40519858643233,-0.803522257624006,1.54930579871659,0.603723463015087,-4.53378742237712,1.02648370125289,0.00141835531637487,-0.323193354236266,0
2,1113790465,0.00241057788033881,0.000762815442023021,0.706998020250434,0.707211005703991,-9.31891935648173,3.35239043935439,-0.831569265699608,2.32089444912249,0.50768521562789,-4.57689264047481,1.02772938172039,0.0106188673571473,-0.318867398913327,0
3,1113807132,0.00329357085146881,0.00109291584262868,0.706860291441917,0.70734467292025,-9.33256775833565,3.27353622365185,-0.817455987071878,3.49468058942885,0.428324103532647,-4.53641165055897,1.02696293157848,0.0198583301352062,-0.316942111126962,0
4,1113823799,0.00430376942118181,0.00162237627566404,0.706858890192877,0.707339631873744,-9.28713337131871,3.0390410906543,-0.816386207275989,2.3263896528735,-0.0179742172855843,-6.40322590291251,1.02801106290126,0.0242355283968858,-0.318922766608251,0
5,1113840466,0.00557287992077104,0.0025049700611257,0.706459549656838,0.707727046842948,-9.35884541642509,3.16660374767271,-0.899266002581458,4.35991769488404,0.201572020913335,-7.05723094073672,1.02826346568365,0.0271713791939312,-0.318949061372713,0
6,1113857133,0.00657369105246465,0.00349287098453405,0.705878181835415,0.708294133003345,-9.2352937030201,3.04831281769319,-0.896660759013963,5.86891752872772,0.517667771265607,-7.29033764594733,1.02581966113192,0.0284354375927711,-0.3223499257657,0
7,1113873800,0.00769274924992599,0.00463780879246546,0.705189198344555,0.70896227464989,-9.25521123885597,2.94562606738589,-0.86526140355489,5.29910412321991,0.500944393274989,-8.99805434218196,1.02660316865453,0.028976335915107,-0.322423487064816,0
8,1113890467,0.0089518924850411,0.00583818609605459,0.704526841895924,0.709596863192193,-9.28419163049172,3.01652519898202,-0.936615612853753,4.44244149706626,0.230509994347336,-9.74394918029089,1.02376476903001,0.0337872491280045,-0.32155164732952,0
9,1113907134,0.0102449018252146,0.00712460346020197,0.703897487135473,0.710191952655403,-9.31612686020613,2.98995849062619,-0.951054228594638,4.58032471106337,-0.147927831488952,-10.8897550788792,1.02658394782609,0.0382166818369411,-0.325746983128624,0
10,1113923801,0.0115894678846629,0.008439108416441,0.703256777340483,0.710791369396087,-9.37876755539519,2.93941324657428,-0.906095863818257,4.52861751345158,-0.554101539892364,-11.7188882699224,1.02390543719502,0.0409645124147395,-0.326341619942728,0
11,1113940468,0.0130355896408114,0.00978062269078891,0.702654320985792,0.711344725166703,-9.40533676098384,2.92604460477584,-0.883718152702348,4.31946690543402,-0.994445141571715,-12.5115841554074,1.02307099034352,0.0415744689338131,-0.32988481923193,0
12,1113957135,0.0145778214433349,0.0110635175769321,0.702058009983501,0.711884566709237,-9.42752280961818,2.93515509922546,-0.882556561793319,3.57215130557084,-1.496240679636,-12.964480218872,1.02038691574687,0.0462880825560018,-0.331098969338084,0
13,1113973802,0.0160588253351679,0.0123616434939829,0.701594843446307,0.712287848800283,-9.3874817035726,2.89768491195284,-0.894816607369699,3.04899517120111,-1.42539081181369,-12.9590806403722,1.01904619871741,0.0514601707626648,-0.33446187339373,0
14,1113990469,0.017472217745073,0.01366986134856,0.701201118366645,0.712618304633796,-9.28169552462438,2.84692521409895,-0.919486732976336,2.46203012461343,-1.20699494096772,-12.9547876169281,1.01811146667894,0.0562599952487444,-0.335383081550544,0
15,1114007136,0.0187669749680984,0.0150577389246572,0.700837310300626,0.712915233137578,-9.18287274154748,2.73909880380875,-0.932554522037322,2.28039690951942,-0.481897062118695,-13.0607977787267,1.01631386740369,0.058462383724272,-0.339854650763898,0
16,1114023803,0.0199631463567608,0.0164639569055915,0.700329912155838,0.71335014197121,-9.13857727869163,2.66588188427107,-0.974061429529106,2.22421314074831,0.394850677427226,-13.0103394696306,1.01426897967097,0.0645936949585087,-0.3392765307345,0
17,1114040470,0.0210387536449706,0.0180159909818673,0.69978269233807,0.713818589291487,-9.22233521651312,2.6259841215271,-1.03431210361627,3.06920171233193,1.3688713639945,-13.258753791639,1.01533937705186,0.0688204459755724,-0.338595159042071,0
18,1114057137,0.0220290611098385,0.0195188756531964,0.699198605461233,0.714321387108717,-9.43133133704485,2.5968200553512,-1.12420365358866,3.36113936116529,1.41778821650702,-12.7191861570831,1.01446371967243,0.0719064697999788,-0.339381027794144,0
19,1114073804,0.0229177571787797,0.0208470543554678,0.698695996602392,0.714747564572546,-9.61457308952808,2.58787952004665,-1.22403761747776,3.35928995788489,0.71235796261899,-11.3171539990511,1.01370436480721,0.0768967021603739,-0.336023585582076,0
20,1114090471,0.0235698355556189,0.0218338656697004,0.69817098890762,0.715209770213995,-9.70949287954859,2.60419229712704,-1.27560663194389,3.73381301399644,0.194259590558197,-8.51108620739906,1.01364926127656,0.0795151613207618,-0.333040074450184,0
21,1114107138,0.0239573922352388,0.0224486744371554,0.697651197966877,0.715684921141058,-9.73890042835837,2.52813722484914,-1.27660397245267,3.59876999507574,-0.236449851885808,-5.48059186128166,1.01276382298365,0.081938269737086,-0.334414974458083,0
22,1114123805,0.0241940572473916,0.0227560144902197,0.697118893494586,0.716185771801782,-9.78579497003965,2.65777999776252,-1.24176153718493,3.58213620516769,-0.846316558225997,-3.25136773896538,1.01421495915965,0.0839619904629892,-0.328745310369632,0
23,1114140472,0.0243106119835157,0.0227558658164194,0.69658387238288,0.716702220906287,-9.75433440810826,2.5879203117449,-1.19372907505862,4.12437366522282,-1.66806907114339,-1.23213667733653,1.01376848042439,0.0868808635296526,-0.32913613399788,0
24,1114157139,0.0244441337282096,0.0225654185499232,0.696051665535607,0.717220583305479,-9.67788767317723,2.67103252791805,-1.0879801822765,4.19180652652834,-2.48126553522325,-0.431333338943195,1.01467956207509,0.093837855545814,-0.326854135603327,0
25,1114173806,0.0245966545991487,0.0220410785199335,0.695468088951804,0.717797556898833,-9.60437645268468,2.66486502225126,-0.996708311596483,4.22712569390362,-3.68280849808927,0.927014026201738,1.01473910553937,0.0968850684600024,-0.322808289650122,0
26,1114190473,0.0246914285846537,0.0212689905314871,0.695153603157374,0.718122156331039,-9.52822900293402,2.66264301724654,-0.896956147062512,3.47423612520101,-4.8878540704532,2.44721092992988,1.01288701236324,0.10395129243798,-0.323194047937705,0
27,1114207140,0.0247895385004529,0.0202247972585295,0.694841806799217,0.718450624525294,-9.46480902148343,2.61843052114107,-0.891818476732476,2.46662650865996,-5.61383054879982,3.4794962900204,1.01380847922513,0.110256299974409,-0.325171477359842,0
28,1114223807,0.024809821864652,0.0191497052599467,0.694710056704336,0.718606776089232,-9.42529398801298,2.60765869209869,-0.951072176004231,1.55511548674488,-5.49908532652132,3.90018228032529,1.0110075810587,0.116222592764973,-0.32335479498024,0
29,1114240474,0.0247314454801066,0.0181341138572324,0.694670584609854,0.718673979212328,-9.46726895865341,2.50560248772283,-1.00562555653546,0.544820726035154,-4.69381976941239,3.85130030574871,1.00983956594819,0.129108880178217,-0.322466006984517,0
30,1114257141,0.0245163208034709,0.0173460390674631,0.694806650289738,0.718569261558053,-9.48323425150328,2.41224124512103,-1.05560076448508,-0.833543179489597,-3.21980503643883,3.26038688728864,1.00889346926521,0.14036048529876,-0.32001273663403,0
31,1114273808,0.0241975418143219,0.0168456346778504,0.69506008466876,0.71834683980839,-9.55610877803547,2.32814985094233,-1.0600586066972,-2.28343505419138,-1.48774091254164,2.25321201923215,1.01111211241489,0.152893921701559,-0.316572008832816,0
32,1114290475,0.0237494033423077,0.0166339189321734,0.695491418682586,0.717949138254742,-9.64251569249164,2.32553553933174,-1.00961898864353,-3.53177624950158,0.137703004364845,1.54691439693641,1.0093982994315,0.162793243010118,-0.31339714629228,0
33,1114307142,0.0231431961812731,0.0165596223245014,0.696051195783774,0.717427978424986,-9.67992008767015,2.30309965153798,-0.923593518165304,-4.90273530848934,1.35916009640905,1.70248516770519,1.00746816387518,0.171821869806154,-0.309155172497787,0
34,1114323809,0.0224068090116369,0.0165171769136557,0.696723969525762,0.716799015111617,-9.70903591378039,2.27155443259047,-0.888377942735562,-6.83890471368647,2.10529101865229,2.18119059237811,1.00879130219655,0.182885909758499,-0.304331875095535,0
35,1114340476,0.0215190519103016,0.016594753493973,0.697675971105284,0.715897886505928,-9.74494051273483,2.31156687154532,-0.864988198819521,-9.09593374651428,2.90245045142178,2.49587495557144,1.00812391158439,0.186381252195997,-0.299321389958887,0
36,1114357143,0.0206311262421386,0.0167617214070242,0.69875121998938,0.714870711309959,-9.71517340614041,2.32775584978458,-0.850213349741232,-11.2394888172854,3.39489872683239,2.05590555623591,1.00830045042452,0.193601209844841,-0.293852343044509,0
37,1114373810,0.019667631023843,0.0171468011730216,0.700227359524609,0.713442931475698,-9.74951345770135,2.37790705307091,-0.84701035362294,-13.2940030077415,3.95761246211429,1.65719370364369,1.01247728262636,0.196213599621497,-0.287868392170288,0
38,1114390477,0.0187310382891541,0.0176163310201846,0.701787244564256,0.711922380918669,-9.79046256118346,2.39949554773016,-0.850689459006812,-15.3185878690424,4.45917980463348,1.13504176996062,1.0111423388174,0.199469797919386,-0.2840201332342,0
39,1114407144,0.0178203993710808,0.0182011744377382,0.703501906594241,0.710236733796282,-9.80115844501512,2.43701715727346,-0.77849053676112,-17.3855030875273,4.92060466083304,0.563844066447593,1.01396067996683,0.20241642573606,-0.280155751204943,0
40,1114423811,0.0169453987019455,0.0189802318516011,0.705532379543072,0.708220774672689,-9.74433613668505,2.4413993229195,-0.747368112935714,-19.4561091162345,5.27738217863723,-0.269718456883391,1.01167311617758,0.207111303690437,-0.280910594469371,0
41,1114440478,0.0163039702754337,0.0200066222714123,0.707612226979899,0.70612948660079,-9.52143479137455,2.48082301190726,-0.712033012276672,-21.0660884320639,6.02034569192212,-2.43769954980022,1.01212331627442,0.208074613444758,-0.276833708685126,0
42,1114457145,0.0159162461392094,0.0213900693307969,0.709823118113382,0.703875187113919,-9.29257871685339,2.40647740850574,-0.611806508141161,-21.870513676331,6.92206954401087,-5.03506133423816,1.00757583284275,0.211321430788633,-0.276109494801911,0
43,1114473812,0.0158246186078766,0.0229394838457269,0.712047491910843,0.701578029010519,-9.14560751827802,2.34856147421305,-0.648539576897604,-23.4330193391378,7.30114010594592,-7.18892849007817,1.00861530086563,0.212645498784652,-0.274833846093126,0
44,1114490479,0.015811214576552,0.0247897747998378,0.714795921262993,0.698714722547605,-9.08301686639643,2.40126303595216,-0.828597821616112,-25.5371340056565,7.67017716918135,-8.45147636415278,1.00821985143871,0.210573834814196,-0.275042889004447,0
45,1114507146,0.015755115850184,0.0266616632598877,0.717407969643318,0.695964609106681,-9.42830551734004,2.38834260204054,-1.08876598872526,-25.5631990013331,8.6261437684025,-8.00335293901378,1.01320273971749,0.207156096459363,-0.27641037731859,0
46,1114523813,0.0154953951333093,0.0285154748908615,0.719789663769738,0.693433198189746,-9.76929238217568,2.36044539027234,-1.28694749055211,-24.5343289673251,9.89313616824404,-6.38749632143072,1.01053054863843,0.196019758043069,-0.279960588148335,0
47,1114540480,0.0149698629894564,0.0303595359429113,0.722051899267011,0.69101031580166,-10.136607346431,2.35195843281986,-1.2757560925285,-22.3105449936072,10.6563320747104,-4.32655053684598,1.01326373461107,0.18785059883494,-0.283623904475168,0
48,1114557147,0.0144188297861087,0.0318162542524899,0.723802802830892,0.689122141515628,-10.2171154391443,2.53100498286933,-1.02816806083286,-19.5410969261083,9.58451008958935,-2.39197092313797,1.01159621838701,0.176752026924853,-0.290433336647196,0
49,1114573814,0.0138340742629215,0.0329610718251648,0.725592284739015,0.687195767202215,-10.163242849592,2.67610062778359,-0.70334161623793,-16.4732795895417,6.92292422005255,-0.711078145841366,1.01072162603097,0.162779282182677,-0.301641927287499,0
50,1114590481,0.0133294420900634,0.0333859077713205,0.726819578698191,0.685887022152217,-10.0429245373521,2.80104538854032,-0.256257140269515,-12.5347941176453,3.23632143334198,1.50923105269731,1.00803352450561,0.147713103643106,-0.3104102943095,0
51,1114607148,0.012728428614942,0.0332602826511815,0.728120396581245,0.684523504918077,-9.78408640082789,2.98983685218153,0.086556200617799,-8.69985815748785,-1.18363813952521,4.08840536586786,1.00682931630367,0.131189048843209,-0.324599104646672,0
52,1114623815,0.012220442995745,0.032255748867114,0.72860374294928,0.684066380695842,-9.44200643185917,3.20167968882154,0.309242335254683,-4.68065559411597,-5.22096004165278,6.42388962577799,1.00489698090399,0.115505348911939,-0.338883041881884,0
53,1114640482,0.011891332198351,0.0309781198918568,0.729183283674571,0.683513490076153,-9.11196341890005,3.28377747359575,0.36408211206888,-3.61756898528026,-8.22354997445727,6.24269405002175,1.00132435283149,0.100828021351417,-0.35126174148951,0
54,1114657149,0.0117124727951,0.0294677523918737,0.729426206117147,0.683324139321553,-8.96747556847541,3.56448462548249,0.383216012758855,-0.332719305738947,-10.3558482173474,5.8600224122331,0.996799128452197,0.0836875320694563,-0.36779406940492,0
55,1114673816,0.0115828711620515,0.0277001798532226,0.729122783164013,0.683723997094519,-8.83175025109337,3.74718379560368,0.390244696647831,3.39713929318863,-11.8944859061162,5.99969215185809,0.994036352989274,0.066810423006235,-0.384984203262304,0
56,1114690483,0.0115232377072809,0.0259490118572933,0.72873799710996,0.684203767414749,-8.81322195874189,3.866850529139,0.440079112367886,4.64821746991586,-12.583534278079,5.24692807394444,0.990792837224524,0.0506648813978217,-0.394111178455567,0
57,1114707150,0.01146149187608,0.0241802346845672,0.728270058548499,0.684767604575699,-8.87978325411163,4.15129917805069,0.530298068497686,5.12240750532064,-12.9161011442594,5.11269660308566,0.985069355710856,0.0383242536714447,-0.407482751455184,0
58,1114723817,0.011359033473896,0.0224638883923428,0.727803787995388,0.685323275729345,-8.87629995794241,4.36847682368115,0.675873528683549,5.58924503653054,-13.0351123670101,4.96395750161959,0.979540292471823,0.0195435184116318,-0.414923502251186,0
59,1114740484,0.0111730954875401,0.0206677604508638,0.727186968352356,0.686037257496764,-8.77255372101197,4.60214173152092,0.87981249693233,6.15870067904634,-13.3434205953116,5.48469127017717,0.973296981088167,0.00631800107359466,-0.431687636047237,0
60,1114757151,0.0108871450625549,0.0187317976731258,0.726438372935075,0.686890005863939,-8.67138779353439,4.75297438977844,1.17074632814171,7.33912406995883,-14.478606821585,6.0899938157518,0.968782222426184,-0.0112147300946977,-0.445253434644812,0
61,1114773818,0.0105145426507065,0.016586573801589,0.725476449218374,0.687966751806998,-8.49642065198688,4.91463469756617,1.44505820377113,8.85151907639834,-16.1281526217546,6.67173491759013,0.965190212733601,-0.0328401150538378,-0.458101018461248,0
62,1114790485,0.0100544261672356,0.014210688606571,0.724261313668024,0.689305820639608,-8.29621615676154,5.01493826156481,1.64180592331658,10.8286377874587,-18.2495520476516,7.09761791537119,0.960299703734805,-0.0524816435389989,-0.466826831320228,0
63,1114807152,0.00964203710522081,0.0116738819827015,0.722842462588277,0.690846962705367,-8.07734868272246,5.10187219578849,1.81486701511808,12.1897887439706,-20.3895685126947,6.44071291620262,0.953095520382259,-0.072049272271657,-0.478526562843455,0
64,1114823819,0.00934873664146351,0.00906419395541741,0.721231945187523,0.692571240200002,-7.88351352871926,5.33753603299294,1.92842054116658,13.1255238003464,-22.0415832320948,5.11465533242038,0.942704692104003,-0.0917008534211466,-0.48800490705563,0
65,1114840486,0.00917694807172962,0.00648006487193541,0.719433547441609,0.694470419239672,-7.67557502910123,5.59672222248628,2.00272613110098,13.9994161732321,-23.0620984046058,3.48123592945417,0.934968156945032,-0.106457968096836,-0.503460481123956,0
66,1114857153,0.00902996526673721,0.00387848195654008,0.71747368708628,0.696516277946046,-7.52827761910335,5.79817924722515,2.05781604949987,14.6654630456858,-24.1095604513981,2.5793980642965,0.924723917929301,-0.125194935352548,-0.511932620678708,0
67,1114873820,0.00885983855310752,0.00131641779557205,0.715367953122801,0.698690533748593,-7.36944749324184,5.93506430623975,2.16528543025158,15.5306397142882,-24.8752744789735,1.76678947937001,0.914108133820933,-0.143898941357818,-0.527212118816873,0
68,1114890487,0.00866226647961986,-0.00115075388124992,0.713120613719587,0.700986898018173,-7.15124040257237,6.04908439966428,2.28958725468342,16.1687933849778,-25.0186691751659,0.99206928289653,0.906617692676488,-0.158747229748976,-0.541134893318973,0
69,1114907154,0.00850375970471952,-0.00353985303908123,0.710895266501274,0.703237566955456,-7.02775042597138,6.1798475363096,2.33827044468074,15.3578160750085,-24.9026267550004,0.204980511903651,0.896363329940067,-0.170193787135977,-0.54843110790795,0
70,1114923821,0.00832426448150149,-0.00589035859163726,0.708680162718079,0.705456190890959,-6.93138166872569,6.25875024280224,2.44239761369031,14.8132521788567,-24.9939443409994,-0.16170157996816,0.89191152125439,-0.18440151660412,-0.560108196356053,0
71,1114940488,0.00818296202117235,-0.00801940368923539,0.706510090826121,0.707610217462902,-6.77000470070072,6.34320376188672,2.58025248677258,14.2424757666944,-23.7898017203685,-1.11171849538461,0.883782924631348,-0.189014426754884,-0.568865185405911,0
72,1114957155,0.00808285486162482,-0.00986874278836617,0.704373636772952,0.709714770307276,-6.50004497910424,6.4676079064312,2.55184614246459,14.0186863752597,-22.2029059622616,-2.1312227396914,0.87901176782792,-0.197217421961527,-0.576651059785933,0
73,1114973822,0.00806609558106396,-0.0112976585683371,0.702315506588806,0.711730447724319,-6.21060125228986,6.54119422351831,2.56007725300435,13.6961598694556,-19.5441485346714,-3.46851870019557,0.874533437991901,-0.20189741141295,-0.582225040966621,0
74,1114990489,0.00802721848837684,-0.0123641448974989,0.700359905603416,0.713637649166205,-6.09629554561213,6.56959668188483,2.59324842799102,13.3666414186669,-17.0039963560382,-3.90312719475787,0.868501690021228,-0.208061261933303,-0.588744023347252,0
75,1115007156,0.00800137959172141,-0.0130330053275098,0.698452129021952,0.715493355777303,-6.06623930221344,6.66672104388257,2.81516500439799,13.6541485514578,-14.5740966123298,-4.77976171369771,0.868141217992463,-0.21049705776815,-0.593208398006228,0
76,1115023823,0.00811732437658355,-0.0133218545433225,0.696551187876445,0.717337493725516,-5.98601987225022,6.71697985769594,3.11282056229517,13.9271516014866,-12.3752805432742,-6.42699920839253,0.867302982846938,-0.212327147421001,-0.592224434508524,0
77,1115040490,0.0084159979089339,-0.0133318022595506,0.694540702022851,0.719280645687978,-5.90412204522747,6.76520142516132,3.46401796419928,14.8618964909133,-11.264900118496,-8.48011899457611,0.867047696381032,-0.210804203579686,-0.595876441361732,0
78,1115057157,0.00878545621407088,-0.0132925729226552,0.69231839285171,0.72141622256741,-6.0541277156637,6.71551896223507,3.74980863411762,16.3411275458948,-11.9525770339784,-9.81412454036765,0.867781428753312,-0.210284850644736,-0.59694585455601,0
79,1115073824,0.00926126042446469,-0.0133187442337927,0.68969698609608,0.723916367736888,-6.20744601089341,6.62368331022142,4.02820384623802,18.8123904379335,-14.0416093262312,-11.7813445809549,0.868847253369629,-0.213418673209115,-0.595498249537572,0
80,1115090491,0.00984612417010088,-0.0133635294422735,0.68654427807755,0.726898496461953,-6.1188748704365,6.52869026413154,4.2954007744834,22.470922221162,-16.4371370416107,-14.3017281403756,0.869688480473792,-0.212587802239943,-0.59695858710623,0
81,1115107158,0.0105257126657793,-0.013443810552596,0.682986668257289,0.730231253996644,-5.9742053651756,6.52069622883522,4.4317026040999,25.0174218228966,-18.2676423924889,-16.2522776415197,0.870832431202241,-0.207701774529234,-0.599683646531222,0
82,1115123825,0.011342457606036,-0.0135359878923241,0.679246881231078,0.733697349065055,-6.02690031516233,6.64099689701099,4.53061192069205,25.8251378264357,-18.9708219798904,-17.7894613037202,0.87125440624119,-0.207112697391872,-0.600644529650476,0
83,1115140492,0.0123062398936416,-0.0135647325621117,0.675400270284358,0.737223866535814,-5.84696140424089,6.77078250327238,4.54307605516877,26.310688778007,-18.8769720805644,-19.2021522250964,0.871350618647742,-0.207973552714232,-0.604241140086651,0
84,1115157159,0.013413216919279,-0.0136025621763037,0.671497636338564,0.740760406815752,-5.7796232463963,6.82971285481957,4.53706213325436,26.1582992195925,-18.9128468650409,-20.3287732665367,0.874519525120159,-0.201993229471765,-0.603529466341932,0
85,1115173826,0.0146298784020343,-0.0135948615583657,0.667636479756993,0.744219508810969,-5.62349567153399,6.72601099151056,4.63232849626891,25.5730338582173,-18.2468928769869,-20.9926006276383,0.875064102217556,-0.197242114823198,-0.605265453517762,0
86,1115190493,0.0158108393198544,-0.0135205094987835,0.663844433556857,0.747581287365107,-5.61338002628831,6.62924319705735,4.79211723571243,25.2193601424684,-17.4610457804207,-20.6686748929107,0.873324425368066,-0.194871701459535,-0.608984481695727,0
87,1115207160,0.0169185156043231,-0.0133559147315149,0.66011524617888,0.750855009395041,-5.62552359464742,6.5356265095052,4.97308870978208,25.0048277101077,-16.4903198367187,-20.0597640439183,0.874659923861653,-0.191093451973161,-0.608652520491824,0
88,1115223827,0.0179966670703864,-0.0132213873073193,0.656466859598464,0.754024255008391,-5.63054047306147,6.47001534475258,5.26499266936228,24.2352648675835,-16.215332600418,-19.6579532322051,0.876599254442965,-0.188845528694577,-0.613357493835234,0
89,1115240494,0.0191055499478541,-0.0132225779175851,0.652952670619822,0.757042238798369,-5.70005062143751,6.46025611034971,5.56895842657029,22.5583208678123,-16.2384865559567,-19.3721689470738,0.877831233466184,-0.186151668843111,-0.616983191755436,0
90,1115257161,0.0202982961655045,-0.0132912574608054,0.649611916647747,0.759878726769692,-5.69919048247644,6.38573394386689,5.86411518141929,20.7241720254379,-15.6328182049706,-19.3173299114936,0.874096278969732,-0.181033607086009,-0.622133124899837,0
91,1115273828,0.021568991686879,-0.0133907794725539,0.646569207288079,0.762432768058662,-5.64196444856029,6.39834156569644,6.08709925473523,18.2408015023115,-14.3276556484175,-18.8498499012691,0.874129466840617,-0.179680970606328,-0.624428230904321,0
92,1115290495,0.0228324412156259,-0.0135659338024911,0.643861815353345,0.764680722784417,-5.50783468401088,6.4990079736301,6.27653824139813,15.551705893955,-13.1491431216043,-17.6431103851838,0.88010903252565,-0.168597487055065,-0.626156260676479,0
93,1115307162,0.0239982246246964,-0.0137661748599252,0.64146084065256,0.766656746891267,-5.21902823712128,6.49634454037566,6.46668613746803,13.5146497311171,-11.9202533774466,-16.0002321158158,0.878262669961425,-0.165193315080832,-0.631174174593316,0
94,1115323829,0.0249833346658909,-0.0139980157784217,0.639332579644269,0.768396864353729,-4.96382762579327,6.44149321553373,6.5858847394218,11.9751669148711,-11.0341431230442,-13.998696759896,0.880672648881244,-0.160116571774533,-0.631181174581557,0
95,1115340496,0.025664837196575,-0.0143649236620963,0.637320643445654,0.770037247500322,-4.79488859998424,6.26883617320762,6.70687178201195,11.4729800870056,-11.4893625166727,-11.6975113987652,0.879208872806971,-0.156244337612464,-0.638076572004495,0
96,1115357163,0.0261081445615478,-0.0149360487264537,0.635564917277873,0.771461285588308,-4.83378468611037,6.13088877684164,6.83762606504193,9.67883181774989,-11.8664145860127,-9.38079816554741,0.878510156018149,-0.151601839428653,-0.6404945391582,0
97,1115373830,0.0264246353206599,-0.0156265668433985,0.634050138080296,0.772682322469731,-4.971579749056,6.09598326692935,6.97646428643515,7.9195991934788,-11.6006708121538,-7.75152382463068,0.878698299673952,-0.146543210441211,-0.64539624671145,0
98,1115390497,0.0266173211736172,-0.0163035016626965,0.632481672804548,0.773946152915974,-5.2318832136587,6.25322106084178,7.22932421404236,8.63069722442956,-11.68327993296,-7.20693326783872,0.879586054990198,-0.144176356805649,-0.651556624306419,0
99,1115407164,0.0268456226581888,-0.0169021298620477,0.630576541848901,0.775478468701808,-5.48175314662901,6.30876755268424,7.59059081060857,11.156552150981,-12.3703402565064,-8.80000883289461,0.876227472369905,-0.140694022877474,-0.65914004534568,0
100,1115423831,0.0273209549405817,-0.0175162708171055,0.628278173365299,0.777311573663071,-5.50456425866345,6.19967162347499,7.84295410818472,13.1988370348879,-13.5757684917106,-11.9525113046663,0.86922121932015,-0.133768836469763,-0.663006392374411,0
101,1115440498,0.0279947172391719,-0.0184725284148882,0.625755922018059,0.779297496184858,-5.48025073246748,6.01532848767559,7.90792303279932,13.0534488562827,-16.0971039499347,-14.1190105894446,0.87239962937231,-0.131919728857417,-0.669396864100998,0
102,1115457165,0.0289604920318758,-0.0198227780482127,0.623488115204901,0.781044760285838,-5.20666924556613,5.70920997917375,7.60172230930081,9.04416260000702,-16.7498311389102,-14.8858413014137,0.86868854630287,-0.128254063102569,-0.67658950869287,0
103,1115473832,0.0299748285329684,-0.0214900967639704,0.621294243190763,0.78270885313347,-4.62493648606859,5.79236695241567,7.42144651504525,7.26995813533256,-18.0627416021938,-14.9951951336043,0.867209379807115,-0.124381975156944,-0.678430825355062,0
104,1115490499,0.0306506244768151,-0.0235267913464193,0.618747993111763,0.784638738737955,-4.17013968443889,5.64311067556642,6.96609214854371,9.18975747596313,-21.8889342241446,-14.5013293728833,0.864733527967688,-0.114895482538292,-0.682055417614268,0
105,1115507166,0.0312251238457011,-0.0253619256589648,0.61583326933348,0.786848872878221,-3.89573076057824,5.37579086491376,6.59197242414384,12.5400785410042,-22.1153405236629,-15.5989198632048,0.865615705715416,-0.114857590162064,-0.68678467989324,0
106,1115523833,0.0317939085785384,-0.0270294986109528,0.612672672054287,0.789234281123165,-3.68021766644527,5.16855266631016,6.4161621826484,14.114953255555,-21.2391515017464,-16.0931479843167,0.864529962416728,-0.110074517364758,-0.689401210633529,0
107,1115540500,0.0324262893782396,-0.0285593293111089,0.609434620966879,0.791657971117208,-3.6324085447008,5.0849143049379,6.40775456360504,14.8244749530982,-20.4656375550524,-16.9068355007253,0.862637579462907,-0.107093350985606,-0.691390497246494,0
108,1115557167,0.0331984646656707,-0.0300690761172769,0.606350460328878,0.793935030001986,-3.7618704707819,5.06113530304621,6.43403061847039,13.3765868876553,-19.3520302140608,-17.1968796375033,0.857344721216074,-0.107501638703087,-0.697772358549754,0
109,1115573834,0.0340659853538735,-0.0316778421812786,0.603591301123613,0.795935653281414,-3.93185479205228,5.13419310855045,6.60225278132205,10.4976982548093,-18.3604287854032,-16.5121000410999,0.858999464844877,-0.105823755066855,-0.699696001737761,0
110,1115590501,0.0349457796024731,-0.0333957509122422,0.601225436801002,0.79761612975944,-4.11221692524968,5.21928429767732,6.78564629492605,7.3945988330851,-17.3069127759451,-15.0608215496139,0.857397922114026,-0.101461768156178,-0.701694356900745,0
111,1115607168,0.0357967478324458,-0.0351030877780321,0.59922405045138,0.799009952024197,-4.21410054902033,5.29681019404459,6.972330403674,5.06596530650248,-15.7374717385133,-13.4843397348661,0.856950417406162,-0.101159551706253,-0.702233649008661,0
112,1115623835,0.0366216958492291,-0.0367646832443931,0.597589339772956,0.800121359825363,-4.31097013434985,5.3467879032875,7.0824951259735,2.87725871057919,-13.9453247112714,-11.9067429197755,0.85689817903132,-0.0932423999341155,-0.706857385487782,0
113,1115640502,0.0373608713029038,-0.0383825149999077,0.596434446140904,0.800872586179826,-4.35812076738269,5.42533999714362,7.27470310813428,0.163902779448541,-11.8684193415178,-9.47317901402273,0.857557698015165,-0.0925414931104567,-0.710721964267504,0
114,1115657169,0.0378716547950372,-0.0399952019980635,0.595830435580366,0.80121920447299,-4.32460450709865,5.49768446717548,7.45300201853965,-2.70781009501514,-10.0832531331434,-5.87699284849848,0.858705142009097,-0.0906338203150143,-0.710397038151672,0
115,1115673836,0.0380564727096505,-0.0415480576834047,0.59572255657588,0.801211644557375,-4.19420106366225,5.48635357030294,7.51386154912355,-4.717052352361,-8.47045904678339,-1.92900409219723,0.859098773800343,-0.0891978549004613,-0.708182691848076,0
116,1115690503,0.0378577292823079,-0.0429605383332968,0.595988115059505,0.800949031579113,-3.97810769725757,5.45990507770807,7.52431439941186,-5.46463724686,-7.10887194411919,1.87413695249708,0.861823436381286,-0.0883261282817401,-0.706687176271917,0
117,1115707170,0.0372518764500572,-0.0441201276650819,0.596468460799511,0.800556735845267,-3.82100593445325,5.40333013393472,7.47151456001342,-4.68343029772707,-5.90790484525525,5.2168426826771,0.86128342755451,-0.0847913503654929,-0.708037814363279,0
118,1115723837,0.0363920135224244,-0.0448908817384584,0.597086008547872,0.800092949903259,-3.66271696507692,5.26335872583388,7.3716086544353,-3.24373048460018,-3.94283440696605,7.47145595511572,0.865408861069847,-0.0866981749709738,-0.704187250033589,0
119,1115740504,0.0354488861644787,-0.0453182413732712,0.597750880822298,0.799614605885047,-3.57743034345116,5.12243825462684,7.34998790084805,-1.85896018869403,-2.14581095710578,8.36862527959761,0.868209509152899,-0.0875689391765548,-0.701346713999625,0
120,1115757171,0.0345726468768429,-0.0454157536042467,0.598408194959022,0.799155662945819,-3.59975900288854,5.12743383370826,7.48925285725212,-0.545766361982917,-0.217407111197216,8.1881282896016,0.874866804240398,-0.0893274398193179,-0.699923043281766,0
121,1115773838,0.0336832713659066,-0.0454689244195698,0.598970829379126,0.798769027751515,-3.60878311775486,5.12473017138761,7.53070704158458,0.298352043766085,-0.385603789887923,7.86773508294707,0.872461247962976,-0.0931213604426012,-0.697914435023067,0
122,1115790505,0.0330170487167654,-0.0453941190776524,0.599582352652228,0.798342189061319,-3.65641264386788,5.07563450214283,7.4867374656003,0.021710194013052,1.14938259813979,6.92838794816258,0.875127244894848,-0.0931973007553009,-0.695830690763441,0
123,1115807172,0.0325148855944608,-0.0452518713275245,0.600137719780807,0.797953487148487,-3.65559765785734,5.02311729790223,7.52988816818922,0.283821707210204,1.77858987840311,5.80739628440662,0.880216562912109,-0.0967735051229928,-0.690893166018604,0
124,1115823839,0.0321151643251668,-0.0451272536365643,0.600519526799211,0.797689441532505,-3.77468820895421,5.07839678230532,7.58241762045174,1.06350215186739,1.32743732452231,4.42846473865151,0.881528467727286,-0.0970780404903553,-0.688590933742203,0
125,1115840506,0.0318092145541201,-0.0450523124454091,0.60080452885992,0.797491304726378,-3.82117743905358,5.17237979594867,7.62068322247292,1.25909712888767,0.989312376249081,3.42153659280768,0.884533091117006,-0.0987071224120596,-0.690707505063878,0
126,1115857173,0.0316708222737408,-0.0450057566971668,0.601044311129463,0.797318742373168,-3.83139733568158,5.1242785690748,7.57789718910005,1.03450394663961,1.17315506060881,2.25243630089995,0.883231359671893,-0.0995554136632955,-0.692567304750791,0
127,1115873840,0.0317409611148025,-0.0449968294981464,0.601286930779922,0.797133504248745,-3.81180562879827,5.13805576415926,7.58667245557456,0.369573884662489,1.61905793584972,1.06833250903203,0.886300136990193,-0.100364399528179,-0.687583791966325,0
128,1115890507,0.0319618081784749,-0.0449467274575253,0.601498439074276,0.796967917986684,-3.83299709590311,5.12592013764718,7.54491969270923,0.402602335702326,2.17690977104734,0.120589305211081,0.888351131791609,-0.0980603673966124,-0.685648441691092,0
129,1115907174,0.0322554898921673,-0.0447721238286355,0.601732821930402,0.796788962844846,-3.78128676350493,5.16250441643692,7.52423903265491,0.669769642091649,3.15530632061887,-0.0691601537384474,0.887072003277018,-0.0965600901930696,-0.685067084573091,0
130,1115923841,0.0326420590547636,-0.0444249934209943,0.601985615154327,0.796601679063933,-3.66683204704271,5.07562761636707,7.41760788322941,1.12389179645293,4.42921069422971,-0.341449029025243,0.886084170681272,-0.0974556891029592,-0.682579710702904,0
131,1115940508,0.0331272997269078,-0.0439066284159908,0.602150292150282,0.796485916797826,-3.70240143330222,5.04923636374085,7.33915993644267,2.20541989409689,5.29189034116879,-1.13845499063426,0.891467914176195,-0.0956015034021851,-0.678438211101687,0
132,1115957175,0.0336795841068231,-0.0432072774756332,0.602235878125803,0.796436289909983,-3.72894480174433,5.00754643255385,7.31532935122115,3.35304643914132,6.14034177271612,-1.69909616216139,0.892075849669368,-0.0955702654169265,-0.679188698354521,0
133,1115973842,0.03430402081006,-0.0423776461718551,0.602324118789531,0.796387484322557,-3.65111374082201,4.87737210456884,7.30748756411098,3.76339148843476,7.06868125538268,-1.95069057219234,0.895280845807909,-0.0937589764574741,-0.675522014758368,0
134,1115990509,0.0349455990687882,-0.0415215779875747,0.602376038057545,0.796365413890659,-3.74161055080647,4.88334144330887,7.35096473493183,4.09280119891214,7.1370615279335,-2.15986661550319,0.896864267074259,-0.0966769886600659,-0.672398863810918,0
135,1116007176,0.0355655510159882,-0.0407010621580372,0.602340116631068,0.796407495580628,-3.96647905874307,4.92231927382653,7.50371855265365,4.55980604292647,6.55728890474052,-2.44408222393856,0.898550731079138,-0.095520332278281,-0.66872406545959,0
136,1116023843,0.036233653716791,-0.0399733698481015,0.602368618299612,0.796392679354309,-4.05484072263238,5.02069074873866,7.64931351856457,3.68101797222167,6.49286780634187,-2.44500394000745,0.901672588605271,-0.0905329588353142,-0.664840104888591,0
137,1116040510,0.0369362807353506,-0.0394269253989764,0.602589522489886,0.796220507211686,-4.03233992849902,5.17296991534529,7.74706288834506,1.67556108489064,6.43249599016572,-1.85390566337079,0.903766380385978,-0.0909288133788714,-0.662371392632086,0
138,1116057177,0.0375800344370408,-0.0391389071881093,0.602906147052667,0.795964864049878,-3.99556071702487,5.41368444860884,7.79794440334546,0.140417553385893,5.29901215197004,-1.29390765000785,0.906707971110053,-0.088845759647213,-0.657276443516452,0
139,1116073844,0.038066815557249,-0.0390432978725228,0.603321714627461,0.795631476943659,-3.76205899885826,5.62144615438916,7.54243387823837,-0.890465117723313,4.20579781500494,-0.134030649248744,0.908169545609384,-0.0903208242779442,-0.652056751011455,0
140,1116090511,0.0383745658948334,-0.0388972323809967,0.603745982082717,0.795301947139864,-3.4752790812014,5.67569099672579,7.29419164312393,-0.267486230292443,3.95116536544588,0.94750294174422,0.91150818647842,-0.0910402063041277,-0.650280485599526,0
141,1116107178,0.0385001586662842,-0.0385570652279537,0.604080981237963,0.795058022165841,-3.31199934800292,5.67908139296819,7.03371137070558,1.58002138211025,4.04938728969413,1.71682505019081,0.913974454102348,-0.090380468424442,-0.652309643335125,0
142,1116123845,0.0385045559100651,-0.0379286243054671,0.604297386440633,0.794923573290843,-3.35257795528432,5.72138835787197,6.77370933197683,3.85733659748886,4.72262659722649,2.09323344687994,0.912539207529076,-0.091009800841005,-0.644224784721521,0
143,1116140512,0.0384811466984118,-0.0369436424928192,0.604349043466932,0.794931822415446,-3.40950654696128,5.85141530474484,6.72810928766687,6.46224167382669,5.87859550438052,1.78302908589435,0.915901873248882,-0.0953219752988083,-0.641875727142235,0
144,1116157179,0.0387530691791567,-0.0355048397299694,0.604500098809737,0.794869320406796,-3.68538970091861,5.92370024454756,6.71609202285037,7.04627984937532,9.61069674705421,0.9846916773418,0.918609314742099,-0.0940638202077205,-0.635396820655937,0
145,1116173846,0.0390776811135721,-0.0337831297887665,0.604366500131569,0.795030042513602,-3.82692449590302,6.14061669255581,7.04046284489627,9.82665523483386,10.1654270268912,-0.381685624706762,0.919762000593397,-0.0964300482881701,-0.632489170286538,0
146,1116190513,0.0394376479889832,-0.0320767301793473,0.603994007537023,0.79536594983785,-4.01333217599299,6.14157983276739,7.02670833016883,11.0775363989532,9.29829711345619,-1.71556302776223,0.920812608603771,-0.0943455465987247,-0.628311047612079,0
147,1116207180,0.0398696957179927,-0.0305416527306579,0.60372507807887,0.795608977394358,-4.1852097369151,6.10565337586972,7.04293004858425,9.45390525530428,9.06525099120652,-1.8320345339656,0.923181353282859,-0.0939916453881121,-0.623305590387786,0
148,1116223847,0.0401643601697743,-0.0295336925363136,0.603689086522295,0.795659520141122,-4.26015918655196,6.15212579054733,7.10941506770179,6.04461277518751,6.79630250969095,-0.517195133940766,0.925193899809057,-0.0960633325674458,-0.618694676598393,0
149,1116240514,0.0402225557520389,-0.0291579229226503,0.603846015672857,0.795551350256931,-4.20764958196023,6.099801909163,7.18938987210878,2.7054359393853,3.48701475697206,1.06932402565658,0.924908624516687,-0.0947529542406282,-0.618649579612353,0
150,1116257181,0.0400491566277819,-0.0293377716086025,0.60418671085492,0.795294774682167,-4.07031499464487,5.92552947337129,7.12846670588527,-0.249866492383555,0.548231253896011,2.64852406358322,0.929079357182622,-0.091864907309262,-0.619360767918048,0
151,1116273848,0.0397281142608769,-0.0298869045530473,0.604628912965662,0.794954292698312,-3.88983529765584,5.72719908274952,6.98910925721405,-2.11082866325723,-1.46636721539601,3.5420461323676,0.926408129306433,-0.0920925121830753,-0.613931003225705,0
152,1116290515,0.0392974984985394,-0.0305873281881832,0.605049045116834,0.794629331807777,-3.76140177173724,5.62717955720066,6.92913033286229,-2.37245166187638,-2.69042356302217,3.8682700228796,0.929705404744121,-0.0904241254673191,-0.611841305463686,0
153,1116307182,0.0387754136984716,-0.0312261581537312,0.605382742599462,0.794375937011075,-3.74252715312623,5.58933740743931,6.78429515631612,-1.36589769076745,-2.97981940851483,4.02266021984897,0.930617049840507,-0.0917017834041689,-0.609431279757695,0
154,1116323849,0.0382394961266653,-0.0316868051217533,0.605627849759878,0.794196823786384,-3.75858580596098,5.59035201374268,6.66214688782269,-0.0366405006495358,-2.42517554366016,3.86525691403153,0.931304584043026,-0.0931019355902127,-0.606253407642344,0
155,1116340516,0.0377162326899886,-0.0319979064934114,0.605796693828272,0.794080591324614,-3.82141477957099,5.63666658889199,6.70462913281766,1.02887091768221,-1.89004072011671,3.5920092545259,0.930384310940612,-0.0913982865833663,-0.608881276232539,0
156,1116357183,0.0371527355412427,-0.0323001905408039,0.605875113324634,0.794035086747866,-3.82954015335993,5.76994264264435,6.7700181982113,1.70769578576757,-2.31381566829029,3.39308341927738,0.932583775178226,-0.0935199569063032,-0.606078613915898,0
157,1116373850,0.0365071502893878,-0.0326802456970283,0.605876027008629,0.794048782767891,-3.90518969151747,5.86061504786556,6.83251477117278,2.02819439073623,-3.27516933146347,3.39099305331074,0.932785526084233,-0.095492357316009,-0.606649058864417,0
158,1116390517,0.0357910141362833,-0.0331780029218652,0.605823915881266,0.794100501432596,-3.88706431378651,5.90841264616499,6.85546072531449,1.99191698335268,-4.31422640627094,3.39032593892604,0.93379899975743,-0.0938967913368371,-0.605243787232969,0
159,1116407184,0.0350002214865456,-0.0338531587122947,0.605734095440677,0.794175770067154,-3.90066765770937,5.88421697151276,6.8736503363998,1.61184130439684,-5.61842665982469,3.41222028443405,0.934323537005602,-0.0932521509477151,-0.60302722239696,0
160,1116423851,0.0341965496642339,-0.0347187710098086,0.605571452960874,0.794297436914841,-3.90392666849682,5.87068445887177,6.92263386762543,1.25106670229168,-6.92862049810855,2.91294110539747,0.932521826692004,-0.0950948345847607,-0.605513106581185,0
161,1116440518,0.0334170319065327,-0.0358138029903679,0.605400113650227,0.794412598015802,-3.96582292464464,5.81328945792511,6.94890570948396,0.232391257227976,-8.07530318675876,2.45670106464376,0.929056629811919,-0.0934488218800476,-0.606043158307799,0
162,1116457185,0.0327634076918196,-0.036967905792545,0.605370958980117,0.794409173588288,-3.94827042413916,5.75587034587221,7.08196200456678,-1.23119978301821,-7.42911124616133,2.32048240040616,0.933478285594216,-0.0957789015452905,-0.604675482277619,0
163,1116473852,0.0321595083103908,-0.0381937345199537,0.6053972270205,0.794355841033817,-3.95879166826734,5.74290685522945,7.04339996358523,-2.0135839585409,-7.42214641942756,2.2107892835441,0.931872483182474,-0.091974763499501,-0.608032684545698,0
164,1116490519,0.031668826842783,-0.039297869007225,0.605509422548095,0.794236175267385,-3.99951593620746,5.73908918460996,7.01970644537941,-2.29778502263013,-6.08701216499161,2.11168634023318,0.929293341142503,-0.0933630406165333,-0.612165711587396,0
165,1116507186,0.0313536794871685,-0.0402111263795784,0.605666905506652,0.794082874561527,-4.03597818882571,5.66844856404505,6.98616051710108,-2.18659283790734,-4.35384456345497,1.55138283971342,0.930067232679141,-0.0911905689702475,-0.611679811554664,0
166,1116523853,0.0312277334727597,-0.0409078704308462,0.605817137041416,0.793937636887123,-4.04892632597115,5.58871164609798,6.99464073705244,-1.67420555844518,-2.64986200777816,0.695082609266776,0.927391159387853,-0.0912445251895444,-0.613907047101118,0
167,1116540520,0.031316441659301,-0.0414180471390232,0.605936300402278,0.793816745671058,-4.1091846580197,5.54213578750133,6.95761012109655,-1.21101095087172,-1.12022966206,-0.455876264874758,0.926102675424971,-0.0894631753890395,-0.616864680513741,0
168,1116557187,0.0315148384760042,-0.0418549051832379,0.605944587427285,0.793779653830653,-4.14934261233826,5.51555954996839,6.96698455537706,-0.478869322523218,-0.820088690306301,-1.50705770674494,0.92603181047282,-0.089143241722325,-0.615743472654863,0
169,1116573854,0.0317017238428844,-0.0423250802056924,0.60582291213835,0.793840152309758,-4.09431072778884,5.44216927503188,6.93135424563993,0.218181655795908,-1.53042058246094,-2.07238574909485,0.929156047980571,-0.0882357026431413,-0.616156202022868,0
170,1116590521,0.0317947658394773,-0.0428916269287516,0.605618861698257,0.793961709127036,-4.06762044456035,5.41734534612308,6.85607969811375,0.550189035799181,-2.645853766967,-2.02194867685487,0.930504495907911,-0.0863397168305199,-0.612429712254313,0
171,1116607188,0.0318283529458019,-0.0434938332230849,0.605362822950084,0.794122846296607,-4.0567426949613,5.46337186237015,6.81241671717197,0.865072678547512,-3.21682304199357,-1.96291099870284,0.929854810298756,-0.0856600639199083,-0.612064051783717,0
172,1116623855,0.0318993779335153,-0.0440166457397915,0.605059620752679,0.794322239346159,-4.01911197662502,5.44394581946177,6.79707609914272,1.3992359196639,-2.86216464152563,-2.30745275820815,0.928583591625603,-0.0869287217219433,-0.614475005494176,0
173,1116640522,0.0320625786646438,-0.0444275356305188,0.604756873805742,0.794523321691616,-4.06478000530239,5.51494265388712,6.82244915220979,1.63957441607427,-1.98391151744337,-2.70854143676142,0.926700991906053,-0.086205296106978,-0.613969912867929,0
174,1116657189,0.0322797496089953,-0.0447825238111063,0.604481031364474,0.794704489761339,-4.13267150586327,5.56884373013008,6.89127059607055,1.56623964617501,-1.4217921116894,-2.83437991807951,0.929020379400085,-0.0880444781151284,-0.615743871662016,0
175,1116673856,0.0325279875794352,-0.0450937488255316,0.604182104932826,0.794904062085377,-4.17468023448424,5.62357776565129,7.09184029091436,1.80990958780405,-1.18241174994953,-3.0729598111967,0.927544472997194,-0.0856168597738439,-0.616830593997511,0
176,1116690523,0.0327425524213139,-0.045439118298978,0.603922670108931,0.795072713855562,-4.17620552640397,5.52945962479504,7.17455896597642,1.48929432747536,-1.31296842951285,-2.74273846550278,0.926939387008491,-0.0866865127465187,-0.618087971244239,0
177,1116707190,0.0328296873475904,-0.0459614412828228,0.60366809186682,0.795232414081404,-4.45723416117439,5.66117449962269,7.30513492661059,1.00012637224845,-2.61851690385625,-2.20551433914176,0.926104783879407,-0.0866616409249433,-0.617571556635461,0
178,1116723857,0.0328798297922047,-0.0465406426514972,0.603502323872988,0.795322469476578,-4.3626448984268,5.66957509251705,7.39391331406858,0.277398610980682,-2.69798270800615,-1.65815632835835,0.925978754933749,-0.0864932403946325,-0.620631127665258,0
179,1116740524,0.0329345856729121,-0.0471763006031733,0.603483240940224,0.795297232254857,-4.20834326557329,5.59964338343936,7.37140420482006,-0.90490577977591,-2.41772683815745,-1.07972027999223,0.9247421543593,-0.0847493880713523,-0.621028477169773,0
180,1116757191,0.0329459284532721,-0.0478860385983054,0.60357466514403,0.795184957542574,-4.19858443697873,5.49021904349934,7.31748113033402,-1.822595069217,-2.51524957977633,-0.425408670749764,0.925984675596961,-0.08449444648969,-0.621435122407581,0
181,1116773858,0.0328897659264762,-0.0485984632856713,0.603633274719487,0.79509956754799,-4.11622010512889,5.32089482000965,7.22174855045871,-1.48198547256402,-2.86720965017204,-0.217115099181597,0.922536476087272,-0.0854616906854215,-0.620597231228337,0
182,1116790525,0.0327741800828417,-0.0492904219945225,0.60359344083784,0.795091985619926,-4.06973483121556,5.15791185456471,7.17778691405525,-0.650831157524226,-3.32674868875171,-0.332315817038641,0.923883313202243,-0.0862244270751346,-0.625298115982117,0
183,1116807192,0.0326906505499708,-0.0499335952136058,0.603403452118356,0.795199491578883,-4.0316032251025,4.98892524555807,7.15129916713659,0.413845153368117,-3.53647799485708,-1.15498464270879,0.92490915267101,-0.0858005542896385,-0.622449329177469,0
184,1116823859,0.0326664280856368,-0.050575783696745,0.603074585260222,0.795409353221847,-4.1498844959819,4.89950090959683,7.18461155764997,1.14428896216873,-3.85809478829363,-2.12707212573496,0.925645917562861,-0.0842102154691885,-0.621509359361283,0
185,1116840526,0.0327667889081929,-0.0511637436648308,0.602692338619176,0.795657309303819,-4.28515843595692,4.94032350780089,7.22630201654896,1.4394640350179,-3.36496363002221,-2.98428346486688,0.927056186589259,-0.0860729842420603,-0.619085461263939,0
186,1116857193,0.0330418707674407,-0.0517088775886154,0.602335171587229,0.795881126691478,-4.43598082656176,5.09133011858153,7.40338203340724,1.08508364918867,-2.46591884106737,-3.76359499304431,0.926975391413477,-0.085439076010179,-0.619478501525261,0
187,1116873860,0.0334048404625595,-0.0521828364667994,0.601981191345214,0.796102828457824,-4.60322993991111,5.33806334773888,7.49891110304572,1.19229100895881,-1.80959135047056,-4.12154816000999,0.923628198216359,-0.0868567178981337,-0.62102301559616,0
188,1116890527,0.0339462950725515,-0.0524303068373774,0.601986586673341,0.796059584102324,-4.74019041030796,5.44580230029313,7.30440261537065,-0.436278029213011,1.28997644056935,-3.14261045542967,0.922282833820164,-0.0852442837169488,-0.620526159963778,0
189,1116907194,0.0344898355657191,-0.0524097796653445,0.602109789873448,0.795944386987327,-4.55643865964788,5.54806071403132,7.3321527760284,0.0075853475968195,3.07905363110331,-2.2611567943467,0.925310343474921,-0.0866054562814016,-0.620797570418679,0
190,1116923861,0.0347757504031934,-0.0523538490973347,0.602245050623589,0.795833286981626,-4.53898595293749,5.50914546439775,7.10018277045835,0.672280443529318,2.42202846451624,-0.728752914458142,0.921616897071797,-0.0908358091770245,-0.621074774551297,0
191,1116940528,0.0348594339743279,-0.0521758690132256,0.602511248775232,0.795639801452275,-4.46994456291376,5.33088211656909,6.9879385515886,0.857030629885285,2.85389587827772,1.15161046157358,0.921287193470035,-0.0923897705645229,-0.621651342231539,0
192,1116957195,0.0347562717805306,-0.0519987758370811,0.602966736132523,0.795310784537124,-4.42828611925842,5.30450674883463,6.96134544483681,0.0996040338022939,2.94560594401584,3.06184166128435,0.92101753065006,-0.0929140728687367,-0.622097218789084,0
193,1116973862,0.0346428557842124,-0.0518388536509973,0.603671297421459,0.79479152641731,-4.39220303283343,5.20615147413479,6.97167896827385,-1.50586310627808,3.77928805334843,4.24143832294979,0.920642565598228,-0.0969342692332332,-0.6223722742224,0
194,1116990529,0.0345637609650382,-0.0517311141867044,0.604516711148546,0.794159168048256,-4.38805168493222,5.14358294109142,7.0027333581097,-2.69548542120332,4.16456282029071,4.64124888914076,0.923355658030004,-0.0972203536885499,-0.624691276251313,0
195,1117007196,0.0345901442810065,-0.0516530640703828,0.605399020138909,0.793490711543373,-4.48029175712549,5.179528725065,7.05969003453422,-3.29888018573587,4.49388490206607,4.20033075221129,0.923342925199933,-0.100585381540885,-0.620673242709341,0
196,1117023863,0.0347039472448472,-0.0516073532653962,0.606267473462646,0.792825370277583,-4.55259056266598,5.25730843158801,7.04242792010319,-3.55552458460632,4.55227055781463,3.62798803933421,0.921179869383821,-0.0993869412584487,-0.616936885370641,0
197,1117040530,0.0348917543554028,-0.0515600264565046,0.607065417048765,0.792209384300145,-4.63691756617691,5.40921458037936,7.05873103762199,-3.28066359707257,4.51596882530867,2.90886317249914,0.921741520470913,-0.100481095285083,-0.621885420901479,0
198,1117057197,0.0351074716978626,-0.0514883805622837,0.607879347315627,0.791580135681275,-4.62098058690504,5.48586850493969,7.038667186567,-3.34166374631676,4.77648354156181,2.86746147761112,0.920511768672348,-0.102651444083149,-0.618443997582701,0
199,1117073864,0.0352817886113412,-0.0513787522544125,0.60873044751017,0.79092519335474,-4.58525445881523,5.51526594724,7.05070170105021,-3.31773814738441,4.96633100533907,3.32712066258254,0.922987311566233,-0.105469344294123,-0.620004911799736,0
200,1117090531,0.0353782343649584,-0.0511918719227147,0.609505113594822,0.790336187507588,-4.53214895664218,5.54990168450449,7.03219474224093,-2.32645292437634,4.78997084429331,3.51781789282725,0.920966152060584,-0.107715823193403,-0.621703205051084,0
201,1117107198,0.0353813145570394,-0.0509317352680666,0.610201738920523,0.789815142132112,-4.48697137002317,5.53328637794757,7.04526598933955,-1.3067449141857,4.53281418775284,3.78401390154421,0.920888837374062,-0.108620920025033,-0.620289003610851,0
202,1117123865,0.0353447017153743,-0.0506101779062318,0.610861623989761,0.789327206099944,-4.42554640586998,5.44975146877138,6.99407381419438,-0.715855269014567,4.55110734821441,3.92549640582752,0.919923038538939,-0.109990954235926,-0.616555151091754,0
203,1117140532,0.0353499407374606,-0.0502759158906626,0.611453223368023,0.788890150530521,-4.46328865546077,5.36681218332006,6.94545354134848,-0.328556549143902,4.46118457807864,3.39835067885617,0.919970711397125,-0.110308936597467,-0.619322563355314,0
204,1117157199,0.0354442477557237,-0.0499318231747622,0.611975976682294,0.788502328658088,-4.50504386082323,5.33261597511922,6.94482958209812,-0.0481693405172994,4.49766186785612,2.59161759485657,0.921298621730037,-0.11406127538877,-0.6172860647643,0
205,1117173866,0.0356929418501281,-0.0496574749793043,0.612404115285352,0.788175963007201,-4.31580628102664,5.24740839991129,6.91219895186931,-0.136967547927525,4.2789850861643,1.24938864455767,0.921523607032515,-0.11193134593813,-0.615489076057053,0
206,1117190533,0.0359337564374088,-0.0496866833298685,0.612732549479144,0.787907876249985,-4.48020070267157,5.30342704817007,7.02338591746978,-0.879674750711523,2.31922742261379,0.487577763858123,0.920295169256497,-0.115360793733735,-0.613429686264951,0
207,1117207200,0.0361961217005222,-0.0498799672267235,0.613032821356056,0.787650042584609,-4.50338415587689,5.4075440363355,7.12557111969887,-1.49254580938189,1.43267838148907,0.0401754898866181,0.926170802084124,-0.112357483897264,-0.61163743369875,0
208,1117223867,0.0365042985776863,-0.0501264891565358,0.61320276352014,0.787487867894772,-4.53060696371973,5.46929094105725,7.05010483295358,-0.984181608882922,0.730446104721516,-0.931156215256982,0.924728810200895,-0.114125960183732,-0.609254809800108,0
209,1117240534,0.0368801815762694,-0.0502461401682266,0.61324482540284,0.787429972582792,-4.63946134335266,5.47196077181756,7.07229431832448,0.210809004852171,1.10068235849401,-1.68833216420588,0.924804901930549,-0.111232705013014,-0.610386700136448,0
210,1117257201,0.0373335706365087,-0.0503852031015852,0.613199378708261,0.787435113367282,-4.73129361889255,5.41932127294337,7.02562195411354,0.451585989048339,0.950623229253471,-2.45837209573309,0.925738671708289,-0.114866845565274,-0.607460754537037,0
211,1117273868,0.037833304529255,-0.050607203974862,0.613130170228928,0.787450916774683,-4.7887523303545,5.40697025593676,6.96669454753446,0.0879886546380022,0.607041508932898,-2.86317543409372,0.926832999273637,-0.111785200290076,-0.603084911788863,0
212,1117290535,0.0383363530536382,-0.0508392821222289,0.613001422130898,0.787511871588829,-4.77485800105412,5.48050702955119,7.00567509170971,0.501290323710336,0.16543465901111,-3.30478937297582,0.929609474357216,-0.110434946322293,-0.602884106605912,0
213,1117307202,0.0388039445447766,-0.0511290125977313,0.612781725720088,0.78764118390423,-4.69148681563393,5.50795329941237,7.00376145018546,0.832017152956222,-0.570903115320552,-3.4768713167414,0.926988027453119,-0.110626293976119,-0.604222725631961,0
214,1117323869,0.0392496266037571,-0.0514926584388276,0.612551093479146,0.787774797017441,-4.61422593351274,5.48090768931389,6.91898662728738,0.584186758365794,-1.04469616951469,-3.41949264389458,0.926874639743705,-0.107573375699812,-0.604514932159466,0
215,1117340536,0.0396309262913076,-0.0521301316663568,0.612414984898834,0.787819602018826,-4.58890480233089,5.49673713136933,6.74185476676281,-1.06709214114539,-2.31151907456145,-2.95764556628972,0.929414230086853,-0.108091807299865,-0.603879067419693,0
216,1117357203,0.0398140553551591,-0.0531876657507772,0.612252864712093,0.7878656883378,-4.64363372818528,5.48190207269581,6.76328663186091,-2.40940393697161,-5.09803003697406,-2.30712757950439,0.929966300946718,-0.106536461401963,-0.601524538375373,0
217,1117373870,0.0397721944065047,-0.0543727067285485,0.61218236390611,0.787841693893785,-4.65740991001167,5.53338209270264,6.91571827670063,-2.77873506264867,-6.48293032360967,-1.2639769197671,0.929776678622342,-0.105205185695612,-0.600976559583454,0
218,1117390537,0.0395751457723719,-0.0555302075065049,0.612075836029815,0.787853650648255,-4.72920803959583,5.54084316673722,7.01338433753895,-2.40689709821275,-6.61398309860983,-0.0911138685687343,0.930918361513504,-0.100186032785833,-0.599920768612321,0
219,1117407204,0.0391830051769842,-0.0566534497245481,0.612020258778336,0.787836456115422,-4.79301697787131,5.43423108483729,7.08961538759578,-2.027629321198,-7.09356242080438,0.955088332033309,0.930527409102574,-0.100812621382761,-0.60257240547352,0
220,1117423871,0.0386030419337144,-0.0578066665021865,0.611977924082836,0.787814200745728,-4.71623395516685,5.32160046696391,7.02064162236092,-1.91407041396973,-7.82115403297424,1.97485809400954,0.9290922888176,-0.0992009085090181,-0.600111223038748,0
221,1117440538,0.0379354684307894,-0.0589208593071243,0.611920990011361,0.78780831079455,-4.58627082103126,5.18869048947053,6.91869400302291,-1.45487147440277,-8.08082717790083,2.27937146148071,0.930333378830585,-0.0953067441435449,-0.601681237867527,0
222,1117457205,0.0372532444522341,-0.059897482298667,0.611798645692362,0.7878622370193,-4.54543846575968,5.03559452294635,6.77771802601706,-0.623579154302196,-7.4881851833888,2.51942755748075,0.9280090200617,-0.0932439461943795,-0.603451315146531,0
223,1117473872,0.0367516853909531,-0.0606787750644635,0.611747960969013,0.787865364213871,-4.55952789856499,5.01087716368256,6.84437398382337,-0.534602595413506,-5.71598552198958,1.99459687982305,0.92236779200448,-0.0925957317932691,-0.608651394522921,0
224,1117490539,0.0364967169492858,-0.0614001167959019,0.611860590877695,0.787733859015957,-4.5247214406308,4.99836132846574,6.9799885457709,-1.80738412344355,-3.96772687839621,1.43009728691351,0.921768071793316,-0.0888084012945486,-0.60914219314037,0
225,1117507206,0.036411996240485,-0.0621444149809657,0.612135627631108,0.787465689158027,-4.52135561114532,4.98287052954757,7.06371180197215,-3.32250590712104,-2.84107446634429,1.24729599897834,0.920962067548256,-0.0866972555161723,-0.613968542845604,0
226,1117523873,0.0362807109995398,-0.0628829456723628,0.61243843428905,0.787177622496036,-4.5368490281346,4.93771603062106,7.2048869394786,-3.40584567451108,-2.87850183835261,1.66865499249249,0.920561214620176,-0.0833723140909212,-0.61393901207396,0
227,1117540540,0.035997456324828,-0.0635885198703549,0.612674158379624,0.786950480610221,-4.54846720985048,4.87397473617434,7.25310638997812,-2.55447848385855,-3.52880874268898,2.25531679644862,0.922727326293277,-0.0813957815024311,-0.612822107811502,0
228,1117557207,0.0355459822665568,-0.0641857943223549,0.613012042340749,0.786659330903243,-4.52537432759291,4.87572895318103,7.2785899030769,-1.88519098283941,-3.84072338800391,2.99474004060191,0.920726000290487,-0.0800208046288685,-0.616466091566713,0
229,1117573874,0.0349920860430513,-0.0647958449893308,0.613177026369177,0.786505554156821,-4.54905080105076,4.8730278331671,7.3307786122183,-1.06401087983903,-4.46421605879953,3.42617446794702,0.921891129568809,-0.0780545779539168,-0.618092685997398,0
230,1117590541,0.034355682761284,-0.0654391257367407,0.613403123008257,0.786304022988903,-4.61196837949324,4.9039700962053,7.34508239217519,-1.32283328855768,-4.85495684815117,3.93188790285241,0.917957576119341,-0.0767313299374948,-0.616037239013516,0
231,1117607208,0.033576251065688,-0.0661879259237007,0.613651076713648,0.786081516049368,-4.59590957101703,4.96419617736843,7.39648076870386,-1.5915955023846,-5.91145947235061,4.5430108692171,0.924972827767932,-0.07449898034533,-0.616049174123033,0
232,1117623875,0.0327860867512901,-0.0670101769994209,0.614010773365302,0.785764264194667,-4.65588545537889,4.92001480808761,7.27551982705778,-2.48570565126448,-6.06759231179937,4.79890764746915,0.921678236744542,-0.0747872760737376,-0.618315742999674,0
233,1117640542,0.0322205672115646,-0.0677187092111789,0.614489010232233,0.7853529574498,-4.60950098278368,4.97428733048851,7.24184127118589,-3.41919168394278,-3.9780199538358,4.76901962642403,0.923798683127328,-0.0720941845086331,-0.612522937454537,0
234,1117657209,0.0316033012180857,-0.0685611326579684,0.61483453393554,0.785034456773104,-4.62686282827554,4.96619187723508,7.10106131265379,-3.10256122064354,-5.33276403655209,4.20729781154922,0.925914034070767,-0.0746071217538009,-0.613334078714937,0
235,1117673876,0.0310960503297,-0.0693246254218151,0.615185091662806,0.784712963420283,-4.70196296119945,4.93037249548994,6.95590493112092,-2.99677358791754,-4.57754133957337,3.70790559029737,0.928167939227655,-0.0705845268137147,-0.61038262284291,0
236,1117690543,0.0306133324389401,-0.0701176521959812,0.615654001363802,0.784293624436822,-4.72155897697557,5.06799053370362,6.9641712347079,-4.01351303432175,-4.17825105407283,4.15585215291958,0.931147388393024,-0.0699487237419203,-0.607461314101682,0
237,1117707210,0.030204667165223,-0.0708365770817459,0.616211931268208,0.783806553424686,-4.49406111037643,5.04458769946712,7.06926192099997,-4.43732011785937,-3.24078919219187,4.28987194014722,0.935947374357622,-0.0693839454437623,-0.603892592199897,0
238,1117723877,0.0301550598631595,-0.0712226001951944,0.616870331266073,0.78325539129314,-4.44493927103018,4.81836688987134,7.03696815059613,-4.28742715303812,0.0138276226150461,3.26110604093543,0.936111922814495,-0.0677018877835022,-0.599416679324939,0
239,1117740544,0.0304975467538553,-0.0711846255367266,0.617528693982403,0.7827266194768,-4.3645259060699,4.77241714745258,7.15486235954553,-3.26464537226943,3.61284240281356,1.95016508159747,0.937127957228478,-0.0647281698441202,-0.595728140185269,0
240,1117757211,0.0310735847200245,-0.0708239306789965,0.618192022996393,0.782212903166044,-4.34102899926272,4.82549351886891,7.29483523058996,-2.34247188971009,6.08291584182575,1.25521848445118,0.941613691142534,-0.0617158304805955,-0.590705785333693,0
241,1117773878,0.0316980796750932,-0.0703343981686719,0.618789447054458,0.78175950547032,-4.35290027610471,4.89733752116839,7.40276110447557,-1.43046436360352,6.62796538436533,0.854152783156684,0.942965468946099,-0.0618894176294914,-0.587780776003762,0
242,1117790545,0.0323405209548945,-0.0698086217748232,0.619333055189204,0.781349738452808,-4.43217139277857,4.86748487175316,7.45103705181635,-1.02572372451544,6.73294888467769,0.645336802196664,0.948280592102906,-0.0584696160137718,-0.584761587923763,0
243,1117807212,0.032975424391732,-0.0692845747666813,0.619885693744727,0.78093149237062,-4.46723019910342,4.87280107936979,7.53275466576165,-1.09752120021185,6.72841818397141,0.723642440309284,0.9484297764012,-0.0583213358754166,-0.583726709987468,0
244,1117823879,0.0334973099736648,-0.0687785157482621,0.62049082245322,0.780473308478465,-4.44790277688414,4.86866977840845,7.63704843050703,-1.29312371727282,6.38863669549367,1.51988868919056,0.951664901038572,-0.0541369824436736,-0.581836007494554,0
245,1117840546,0.0338303909246843,-0.0684087560671847,0.621026001299623,0.780065671884761,-4.48074467761297,4.87864266502403,7.59735427599742,-1.07082412444551,4.76457478719299,1.97289417718894,0.950524876997768,-0.0534120276217732,-0.579934139902426,0
246,1117857213,0.0340016168764011,-0.0681454760962522,0.621394494830139,0.779787769801631,-4.58859241147489,4.84792868829353,7.52056471716468,-0.132444588005953,3.05200152022653,1.87963749586881,0.954809433764078,-0.0496731569725419,-0.576500392768766,0
247,1117873880,0.0340116969601631,-0.0679801118292281,0.621655674068115,0.779593568319091,-4.71559045692489,4.82680075380361,7.38719188723189,0.4462614896714,1.6049318530291,2.10287281732218,0.954897716019678,-0.0475606613493161,-0.573775539481662,0
248,1117890547,0.0339247311834482,-0.0678886397841104,0.621923549842982,0.779391649527436,-4.71177548675444,4.8341400351629,7.29206316241448,0.291527608654129,0.867075223568412,2.48519855141586,0.953116496018566,-0.0501182994540043,-0.574463109609907,0
249,1117907214,0.0338035652368102,-0.0678893356235007,0.622087145251898,0.779266283627249,-4.68167499514216,4.88168356458384,7.12114385527402,0.625242625160636,-0.0885889888456493,2.02663622522439,0.955578783332276,-0.0504085692274192,-0.572136917950579,0
250,1117923881,0.0337664190968025,-0.0678368956942902,0.622175391558946,0.779202006325968,-4.6711672688782,4.85193588027322,7.00294419301896,1.16495635840092,0.21604032648721,1.31395150331736,0.958030037644713,-0.0507553885105708,-0.571655135829863,0
251,1117940548,0.03398914065909,-0.0676413065544021,0.622263080776247,0.779139300939006,-4.48884423853548,4.80317895389075,7.11916559280784,1.25377350463708,1.88615532575109,0.156918044637117,0.957419993389511,-0.0522792123709745,-0.569815892898915,0
252,1117957215,0.0346152309545597,-0.0672795478082842,0.622375164170818,0.779053530417534,-4.47136454489573,4.73079710944671,7.12204878856373,0.988724455637292,4.29855276728629,-1.63013509284384,0.958566652426375,-0.052191547857939,-0.569415717152075,0
253,1117973882,0.0355997347644607,-0.0667022080351369,0.622561862910003,0.778909623241339,-4.6350715621793,4.84041929909479,7.25217196500168,0.70325332986537,6.96731666241259,-2.86147777858347,0.960809104031563,-0.0545216713412471,-0.567204906606546,0
254,1117990549,0.0366331984139995,-0.0661790942408753,0.622767613490242,0.778741828751407,-4.7302023528276,4.89479329109877,7.309537110071,0.222863190373408,6.94543365215172,-3.14057917533363,0.962883022310878,-0.0547607846721748,-0.564535963487753,0
255,1118007216,0.0375724588223483,-0.0657919134864718,0.622964340953011,0.778572517084191,-4.82121142621113,4.90140213858257,7.35618239510456,-0.126746953721729,5.8802738261295,-2.91838081339804,0.962197080613623,-0.0533355597215499,-0.563459107680692,0
256,1118023883,0.038359520460386,-0.0655248187416873,0.623079991124128,0.778464109628488,-4.79173187846388,4.84750590265829,7.4615038138792,0.182602627905597,4.42681281830574,-2.6745122347996,0.964037866112596,-0.0550066751858861,-0.562004720221264,0
257,1118040550,0.03895074120679,-0.0653130319874199,0.623065764189254,0.77846393693434,-4.78256367443868,4.78123766520056,7.49558825830343,1.18545354841648,2.96611315698605,-2.30226462742969,0.962327622631746,-0.0520211921981859,-0.563915394589517,0
258,1118057217,0.0393491387390087,-0.0650550914563559,0.623003756429254,0.77851512498547,-4.7921962228791,4.78817281613738,7.47150812338109,2.09472406207971,2.31803714994702,-1.38929195405904,0.964474953767729,-0.0550109715761305,-0.564082943029917,0
259,1118073884,0.0395381114241505,-0.0648011770212215,0.622911008770269,0.778600937807348,-4.75696271257452,4.82027848280061,7.40978057472481,2.71537697544436,1.40918753971843,-0.411725880155897,0.961785523677763,-0.0525076691403289,-0.568207961999017,0
260,1118090551,0.0395865752831109,-0.0645523535696236,0.622789905183142,0.778716014159173,-4.6721219996672,4.73289663917074,7.31123536194246,3.17396660277436,0.756518713017841,0.196996573200058,0.963475416165764,-0.0561224135374018,-0.57151659370769,0
261,1118107218,0.0396222483967609,-0.0642180383896368,0.622638129818349,0.778863197406118,-4.63869952001283,4.68707693550434,7.35011042769233,3.79143879731286,1.0081013742561,0.247640297815224,0.961246192445968,-0.0546889746731654,-0.567933296077435,0
262,1118123885,0.0397009647084319,-0.0637464195583596,0.622468785910901,0.779033271408428,-4.65329197204001,4.66578940968935,7.3230370370461,4.42271503405264,1.78762583481299,0.176298910188267,0.958119156882638,-0.0554599803593401,-0.572525177112384,0
263,1118140552,0.0398207489899589,-0.0631498614325771,0.62228832744073,0.779219892252465,-4.59501621020364,4.68556071093759,7.33252413430255,4.95915513705149,2.51750026148678,0.135470229841959,0.958569474993634,-0.0527018244695268,-0.574662091482245,0
264,1118157219,0.0399854443912581,-0.0625429804394797,0.622145404693967,0.779374515398573,-4.65484993549054,4.7634443430314,7.32626817752555,4.67401675050865,2.85517226698197,0.0845089772711423,0.956071480575719,-0.0557507766548027,-0.574252442222821,0
265,1118173886,0.0401273797312034,-0.0620317595529022,0.622067893939479,0.779469941391187,-4.65375596491503,4.82704199958082,7.33493548945473,3.86851949893221,2.51384566908437,0.349862897055303,0.956673819755403,-0.0574471764979148,-0.575142310234985,0
266,1118190553,0.0402524491649946,-0.0616030550214006,0.622009876890326,0.77954378773686,-4.59367598342038,4.87549788733068,7.33320411586625,3.40807300157666,2.09565750800171,0.379895975059469,0.958089611833574,-0.0571735096279924,-0.57760276300961,0
267,1118207220,0.0404138644192149,-0.0612109379601731,0.621964169667657,0.779602791353625,-4.60915967413895,4.82676216022614,7.35847626295391,3.07685426552275,2.09595019188858,0.184316328451049,0.958316778388954,-0.0595322799864293,-0.580443427704691,0
268,1118223887,0.0405797683506603,-0.0608399506064795,0.621961816275043,0.779625090608722,-4.58781714888277,4.82841371501142,7.29587127217352,2.69328434731542,2.14946091090241,0.317394356813471,0.954578520607308,-0.0588308004396937,-0.578768896540717,0
269,1118240554,0.0407368044437361,-0.0604635365272222,0.621984298510825,0.77962824853922,-4.55844118948255,4.82709679696224,7.25971953313394,2.55922164264724,2.23609042787679,0.504112474452466,0.956925733870608,-0.0629589410697075,-0.581365022854315,0
270,1118257221,0.0409183892438847,-0.0600734257301224,0.622022993074351,0.779618025079948,-4.52935398637911,4.86920434365487,7.25544246949404,2.45372506479177,2.45303282931127,0.473603414240799,0.95505223971522,-0.0621959390984052,-0.578137559908718,0
271,1118273888,0.0411637639138177,-0.0596703706461649,0.622049012205446,0.779615301172075,-4.53672928695173,4.87741831636152,7.30212734092874,2.4643443967819,2.69123223271066,0.0650134597772625,0.956015754158986,-0.0627513649773426,-0.580654166043566,0
272,1118290555,0.0415067732815507,-0.0593195954943452,0.62207914605495,0.779599839280182,-4.5579683629923,4.86823672614068,7.33594053714071,1.98347935694939,2.82299577228912,-0.523673693930273,0.955388697207236,-0.0659293240610101,-0.582347928303313,0
273,1118307222,0.0418084428315886,-0.0590925292161776,0.622046013116254,0.779627401176361,-4.58673139662644,4.88086546078692,7.34189127462902,1.89786817539717,1.8379452833735,-0.805089207351732,0.952975068520801,-0.0659832810272109,-0.57643747885626,0
274,1118323889,0.0419917589645078,-0.0590544333487146,0.621935754993348,0.779708395967225,-4.62491223330382,4.82120381541387,7.28163572943846,1.80568087498006,0.147104210049155,-0.921311473868,0.953592200580618,-0.0625487500537999,-0.578405273887947,0
275,1118340556,0.0423136639467191,-0.0589238541237505,0.621972479128797,0.77967157730995,-4.63441838271385,4.8411829344865,7.23442458088618,0.967256580904183,1.67194819476918,-0.764491099373999,0.954706424871684,-0.0656839005161208,-0.580175700962495,0
276,1118357223,0.0425534754396962,-0.0589038629342789,0.621802691426069,0.77979545368944,-4.63909764410616,4.89891868672935,7.27333738450831,1.95484931893543,0.0599750153942314,-1.51152423592965,0.95871430238745,-0.0678677855610723,-0.582370876796546,0
277,1118373890,0.0427729131161983,-0.0589570963150848,0.621534312660199,0.779993356948418,-4.68625518905603,4.79738207104473,7.17964550813515,2.29246890858412,-0.745423887897098,-2.0122957015409,0.954948773136592,-0.0668017855538053,-0.581352201589033,0
278,1118390557,0.0430000273112802,-0.0590809086988703,0.621233094268498,0.78021143702469,-4.69949468351022,4.80178691111938,7.21444058991431,2.15854329924214,-1.1901897403188,-2.33337113265673,0.95789393712684,-0.0678828401835681,-0.579837561636291,0
279,1118407224,0.0431305505234207,-0.0592720183183785,0.620882632505008,0.780468666962143,-4.71860820644255,4.80061325400774,7.26965538976435,2.35598121426456,-2.06559759817798,-2.16106092916458,0.960245196636951,-0.067062034056282,-0.577362327655882,0
280,1118423891,0.0431955123978104,-0.0595071532918283,0.62057672238636,0.780690449568839,-4.75139555965949,4.77926040756404,7.26350319351553,2.02506052330114,-2.40433446046325,-1.71584205538325,0.95795706585137,-0.0654006144523735,-0.581025145883984,0
281,1118440558,0.0431391991012006,-0.0598541521657307,0.620220773971518,0.780949858507958,-4.74057432512343,4.83950130374053,7.29150991906445,2.06258467046596,-3.58332493967959,-1.47835337026646,0.957639334078495,-0.0646517471732555,-0.581940375873983,0
282,1118457225,0.0429643588357915,-0.0602895503265142,0.61983824232524,0.781229663634461,-4.67334031621185,4.86707390609636,7.29968606929295,2.08224074991977,-4.58663268813131,-1.15506747511272,0.957639827798715,-0.0634479163095252,-0.581702055897157,0
283,1118473892,0.0427109273678174,-0.0607278961458557,0.619445444861675,0.781521106658803,-4.61037269415014,4.81442268244961,7.33968141405016,2.29110738564633,-4.94271542049557,-0.791266946223544,0.959449702140411,-0.0633138021933707,-0.581593968054412,0
284,1118490559,0.0424451023456839,-0.0611018477348764,0.619039554489007,0.781827990972631,-4.51636599981288,4.80328831116095,7.32383640280958,2.70345279707543,-4.73974772500671,-0.691637160261206,0.957824030680006,-0.0631189783900103,-0.583929902932029,0
285,1118507226,0.0422176797698815,-0.0614072025835623,0.618686086523741,0.782096125375677,-4.45056379227239,4.82668926132314,7.33694599458664,2.58773398174805,-4.05634603180157,-0.502790242364556,0.954392747286238,-0.0613414969198212,-0.585537050341938,0
286,1118523893,0.0420093385933536,-0.0616340483500944,0.618378302024358,0.782332880007225,-4.4506035988566,4.82269044241329,7.34731449302405,2.6142068112051,-3.4431733054434,-0.258187321941813,0.956143614590286,-0.0620942215269222,-0.586141388797822,0
287,1118540560,0.0418480120083755,-0.0618258607316741,0.618099912136815,0.782546359937989,-4.45488743379313,4.83478311316857,7.34012300012621,2.47726739867204,-2.98499363731096,-0.30362136936158,0.954693961374346,-0.06071612648473,-0.586634235468131,0
288,1118557227,0.0417232917987151,-0.0620101738464698,0.617863787218626,0.782724885068098,-4.53335243146056,4.86170294234326,7.33358420325661,2.15799249665589,-2.65126009646044,-0.271278291466414,0.959603939568434,-0.0588790922494645,-0.586894702076563,0
289,1118573894,0.0416195016994323,-0.0622027732907415,0.61768799659351,0.782853863078881,-4.51520204483248,4.87042057850743,7.34938299168389,1.68373206873875,-2.39274166546961,-0.0920802975766903,0.957691386533185,-0.0610146318084315,-0.589908974633328,0
290,1118590561,0.0415567275709756,-0.0624271148146653,0.617575355873064,0.78292820459335,-4.4949661356183,4.89993566317262,7.38874518682444,1.04583407827438,-2.16728495294876,-0.0533859116294423,0.958794265428189,-0.0579145878308806,-0.587354108338151,0
291,1118607228,0.0415460307765172,-0.0626742340206039,0.617470580355217,0.782991666694122,-4.5019556365866,4.84504340842032,7.39558967714037,0.783299538546398,-2.06120615824553,-0.339392501131318,0.959367136929615,-0.0606745534520763,-0.588741019184696,0
292,1118623895,0.041526090493589,-0.0629710079609243,0.617266533181879,0.783129786803138,-4.54044143724111,4.82240708124553,7.40482161016579,1.20409521473327,-2.69305950575224,-0.84128275173583,0.960250977027828,-0.0622123534435872,-0.586976617259353,0
293,1118640562,0.0416038838081992,-0.0632242470271976,0.617104238490985,0.783233151926283,-4.58161588589692,4.77352651912192,7.41763664421035,0.919261638475108,-1.96331040457259,-1.08923543454462,0.959880377587763,-0.0609639680332898,-0.587749654927195,0
294,1118657229,0.0416589980411319,-0.0635696135054315,0.616922625489354,0.783345330157971,-4.57949572146183,4.82426097452962,7.37871199837158,0.676232419651257,-2.57455496504239,-1.20736549498691,0.960198524182577,-0.0636067573006074,-0.586924094763224,0
295,1118673896,0.0418335660610515,-0.0639086081866593,0.616810704463136,0.783396577353993,-4.54286163230239,4.84711621919827,7.43485267036218,-0.00457839260149517,-1.84848372797837,-1.49370381286621,0.958846335696543,-0.0593824640046983,-0.584429742517715,0
296,1118690563,0.0420087431984151,-0.0643521357746086,0.61668922319886,0.783446533023488,-4.52939068194516,4.89065409794548,7.43952806750017,-0.420063757914566,-2.39769882511267,-1.7126581096085,0.962680982527831,-0.0616175061256694,-0.584904857413971,0
297,1118707230,0.0422139875626858,-0.064825400484269,0.616562402269415,0.783496299170507,-4.53550968753499,4.87877122473436,7.399204722514,-0.586672626331103,-2.45489293136068,-1.95149590851335,0.962165291395277,-0.0591582590023491,-0.582457978182526,0
298,1118723897,0.0424259000118995,-0.0653262321846888,0.61639595337027,0.783574217968846,-4.51004121639203,4.87757235484621,7.38726710469407,-0.472616623656092,-2.71451426991321,-2.22499871521397,0.962662710870769,-0.0595160424645267,-0.585730060263496,0
299,1118740564,0.0426173522360674,-0.0657934734488431,0.616185695054386,0.783690097774794,-4.50244851630341,4.87056545967837,7.35661116391126,-0.00351764646218355,-2.782059431558,-2.26364236558369,0.963594148943475,-0.059974876360857,-0.585522922537384,0
300,1118757231,0.0427811098169142,-0.0662088731518943,0.61595283698858,0.783829231634359,-4.48881931867193,4.88938869232571,7.36129836367708,0.434431315045743,-2.71375357132938,-2.14136724304516,0.962941546191602,-0.0605008568312819,-0.58556767233005,0
301,1118773898,0.0428963165492551,-0.0666274634578028,0.61570816441077,0.783979683038793,-4.5342093824796,4.8969175744057,7.34819899447429,0.596015251905681,-2.95222082440917,-1.94362358459029,0.965329606498364,-0.0560937224221876,-0.582050447838412,0
302,1118790565,0.0429883064931476,-0.0670306082427046,0.615446245215413,0.78414591901872,-4.55054544941859,4.89385339457803,7.35182358580364,0.819785668463758,-3.02676475867329,-1.88268385562886,0.962059175932589,-0.0585598264559141,-0.583067544813106,0
303,1118807232,0.0430438376139284,-0.0674497684054053,0.615140728591869,0.784346633073023,-4.55181988095499,4.87323911526019,7.34241966728306,1.09525608846248,-3.39699588605142,-1.92705952565997,0.962241840657662,-0.0625094901298073,-0.582969000648092,0
304,1118823899,0.0431270645226127,-0.0678702893255309,0.614781460216484,0.784587430632571,-4.5426493826551,4.82629724047554,7.35556350960403,1.36123864030504,-3.49060784526031,-2.33984547465075,0.963426606718592,-0.0593489856936375,-0.582800470326984,0
305,1118840566,0.043313726527263,-0.0682676205663151,0.614433049854275,0.784815570897589,-4.53870581825539,4.78444939458961,7.36760606018188,1.16331014769565,-2.9438204099519,-2.80670662171914,0.964129474353747,-0.0574925452661321,-0.581509640441241,0
306,1118857233,0.0435686255292192,-0.0687027683162237,0.614043559444891,0.785068284673015,-4.5679295896332,4.74628274806815,7.40677662565748,1.10038677550251,-3.00819524597313,-3.43901988284089,0.966497285704436,-0.056467400331862,-0.582688132941938,0
307,1118873900,0.0438157849815388,-0.0691946228158476,0.613669140911768,0.78530405999997,-4.57323723219719,4.73958355941304,7.4179420780748,0.756430729246093,-3.25223157660423,-3.43302710596981,0.965866391323599,-0.0600251073567064,-0.58190328364075,0
308,1118890567,0.0440594159240311,-0.0697543777614544,0.613291636615354,0.785535780922299,-4.580419585895,4.71362382418674,7.40743865806122,0.46774763802508,-3.59735683978203,-3.55802197209939,0.968224213360501,-0.0579694992744485,-0.580704901840093,0
309,1118907234,0.0443292868552128,-0.0703849159009331,0.612906988773745,0.785764532829541,-4.55692655823138,4.70066182147925,7.40303392396305,0.128250804013932,-3.85775116420821,-3.86592619527718,0.969341076661909,-0.0571950543597257,-0.580061931504108,0
310,1118923901,0.0445954464036472,-0.0710623439252896,0.612515707516436,0.785993573435269,-4.53806610257101,4.68576406054443,7.40459183097517,-0.0429225558047683,-4.11475300833392,-3.96804907995359,0.970240211322038,-0.054630112304818,-0.57703877031313,0
311,1118940568,0.0448101517833655,-0.0717555031261269,0.612138788569938,0.786211995327212,-4.53941047775583,4.64913454962946,7.39292815560063,-0.107931068819743,-4.33277438579528,-3.65723427738096,0.968424123741114,-0.0544172103259684,-0.579018333751361,0
312,1118957235,0.0449923804547247,-0.0724127113904495,0.611758956669216,0.786436942078062,-4.584024443171,4.63227883271513,7.38864269228928,0.139872544063761,-4.29233678891541,-3.44422826221599,0.969339352817597,-0.0544582604557959,-0.579190202311344,0
313,1118973902,0.0451172754130513,-0.0729925107656447,0.61142483116686,0.78663600264926,-4.60215893930197,4.66043051464038,7.40499199748808,0.320481552589586,-3.98275952271449,-2.79452527243867,0.971554462067139,-0.0559767593623027,-0.57553996558741,0
314,1118990569,0.0452145137565216,-0.0735125750233205,0.611104612523139,0.786830796049662,-4.63327351279636,4.64055802542019,7.37996663093812,0.556073301248863,-3.75146474351895,-2.48283352263119,0.97070875286452,-0.0530680207527035,-0.576042209718971,0
315,1119007236,0.0452781634225123,-0.0740201630067985,0.6107747189165,0.787035670168768,-4.64558986380765,4.59454698411613,7.40082754252062,0.734659012003366,-3.85434495673086,-2.33759482696543,0.970351085001609,-0.0524460194037863,-0.574138723788709,0
316,1119023903,0.0453393032149357,-0.0745239634086908,0.610479196598077,0.787213869912624,-4.63784980435628,4.59238174138915,7.4593058226826,0.532695940685176,-3.72448743427912,-2.16515552878956,0.974364270399733,-0.0525937740189045,-0.571090114508382,0
317,1119040570,0.0453528166507853,-0.0750818136880492,0.610217697696121,0.787362816428105,-4.61900893554647,4.56667659064883,7.47439619448495,0.152325951953301,-4.0496469016915,-1.86486311898812,0.973389100500322,-0.054224305904886,-0.572269081172377,0
318,1119057237,0.0452833709320984,-0.075702152509448,0.610000582062129,0.787475644262301,-4.62192595809797,4.57814890203108,7.50229169519623,-0.259013568395564,-4.52442109935813,-1.3597959901915,0.976235187639853,-0.0510990218317503,-0.570010139946513,0
319,1119073904,0.0451154147346851,-0.07635182363176,0.609758931721512,0.787609702560387,-4.55732107474872,4.57101544300716,7.52174473651341,-0.0544493777040546,-5.15074991227084,-1.04470366339055,0.978010893487813,-0.0501960829099687,-0.571366482625411,0
320,1119090571,0.0448410275807064,-0.077073606752149,0.609496553521497,0.787758143488938,-4.59746464755545,4.53116812442496,7.43496276758357,-0.0619612592653816,-5.9940137620533,-0.75304214276531,0.9777445956938,-0.0519344822192232,-0.567345638560771,0
321,1119107238,0.0446126637888674,-0.0777094534772134,0.609440916461622,0.787751687026028,-4.60214262394948,4.54215171649189,7.49313893972303,-1.07184227045525,-4.68427139045738,0.160378204639883,0.977640225932851,-0.0492165644066338,-0.568859896650957,0
322,1119123905,0.0442723350503204,-0.0783671514080581,0.609397597734819,0.787739244804022,-4.61713283864343,4.55292905615221,7.42143941499527,-1.04233804273459,-5.2039059730821,0.7597701807899,0.97911701471748,-0.0484235502652545,-0.569983886231175,0
323,1119140572,0.0437761001779855,-0.0790035557317116,0.609373943118355,0.787721707637501,-4.56119507157158,4.50723043111645,7.44460715118819,-0.760134024312932,-5.67530111363472,1.72127478812407,0.979017373968407,-0.0494509694976732,-0.570509973413433,0
324,1119157239,0.0432079266471271,-0.07959633885326,0.60944540084598,0.787638115700158,-4.59216440691017,4.49377727559211,7.40741644147553,-1.00629605194051,-5.4267556744112,2.66246602889207,0.978075297830782,-0.0535991045885059,-0.574920048803787,0
325,1119173906,0.0426554810765413,-0.0800501734064371,0.609579150847446,0.787518722649712,-4.52613181094489,4.50990708405314,7.45586405877451,-0.779325614214275,-4.48219183758276,3.17236355353693,0.979093703765539,-0.0509116651827001,-0.573556610077181,0
326,1119190573,0.0421529274847921,-0.0804215778782413,0.609761996352303,0.7873663748983,-4.52658423792051,4.52376540044763,7.48290350927585,-0.802365745966172,-3.71360299307237,3.32004365424452,0.977330552490166,-0.0525199588671776,-0.577740989738386,0
327,1119207240,0.0416748740225351,-0.0807950335315746,0.610014189353663,0.787158215493576,-4.51913675573685,4.54177569293796,7.50622642416407,-1.29366455686634,-3.37951650991306,3.52656277789557,0.975715644258903,-0.0527048191924105,-0.575146193185383,0
328,1119223907,0.0412674572516124,-0.0811165892928032,0.61026912391999,0.786948976937779,-4.58193443934998,4.51845861898029,7.51002310585736,-1.20853215565639,-2.83489722229286,3.28033881580301,0.976330699517572,-0.0528489069678213,-0.575469328012692,0
329,1119240574,0.0408781356364788,-0.0814534804318932,0.61050628884049,0.786750519439695,-4.54724544374383,4.51496868130472,7.50997783879879,-1.19917179924494,-2.89115451383257,3.0878694978685,0.976990618772233,-0.0520541720137851,-0.576136554567465,0
330,1119257241,0.040524321054368,-0.0817457551246093,0.61068836128895,0.786597188088291,-4.55894730920296,4.56929584489743,7.51275556899903,-0.703093371965657,-2.72246806730571,2.73374604559583,0.977687064018542,-0.0524059246858879,-0.576202983611006,0
331,1119273908,0.0401835910474682,-0.0820555117507899,0.610787399286742,0.786505514840413,-4.53523219943506,4.61222524459735,7.57944211198945,-0.273418549642013,-3.04099844070066,2.24933228545907,0.975473347883554,-0.0506007236747471,-0.577483026591515,0
332,1119290575,0.0398125257950063,-0.0824154807778897,0.610829912339169,0.786453730050086,-4.49921153246972,4.6075170133095,7.550436944251,-0.0758465977612072,-3.59631783642448,2.05639170810227,0.974482229835538,-0.0547450138615663,-0.578436231351706,0
333,1119307242,0.0394288408860537,-0.0827999029829254,0.6107661686453,0.78648218658196,-4.50208794924296,4.60203071449029,7.55476657645726,0.516023655698809,-4.13334471923752,1.57586409639499,0.978034766336473,-0.0498591550468908,-0.576886078341344,0
334,1119323909,0.0390784556976709,-0.0831953043898053,0.610619704508446,0.786571670030005,-4.50999123537272,4.62493292880993,7.49507724001419,0.928324401409741,-4.3475727917119,0.983932099389563,0.977186055769859,-0.0487479670826418,-0.574559637292211,0
335,1119340576,0.0387500903720454,-0.0836178642134864,0.610446883155641,0.786677243935591,-4.48972640092007,4.65496311665938,7.48766614318417,0.928561274413667,-4.48158345075985,0.699863839050211,0.976362371489742,-0.0473022821637797,-0.576114096602841,0
336,1119357243,0.0385038761794768,-0.0840450342268081,0.610258420422777,0.786790025384198,-4.45159912044163,4.68914933286678,7.50515718370184,0.83704065967233,-4.23788568529184,0.185974532674729,0.977819698839765,-0.0477737556661909,-0.57614375773381,0
337,1119373910,0.0383208541798426,-0.0844362342681843,0.610003895816173,0.786954434237858,-4.45292313801218,4.700014522824,7.55182882885017,1.29228486361567,-4.04557966842751,-0.39529201276985,0.980412846942281,-0.0439288823701296,-0.578745551667558,0
338,1119390577,0.038146798082645,-0.0848275376896744,0.609690452775413,0.787163682114501,-4.44822375095453,4.74142841631403,7.58733256132986,1.65005305936656,-4.21329017973068,-0.722569170811189,0.981602300596797,-0.0492112987608923,-0.574280634262602,0
339,1119407244,0.0380289217787785,-0.0852048504505988,0.609451187351944,0.787313904871076,-4.49732691098917,4.70135089163846,7.52717816914802,1.12108177175091,-3.66676985047809,-0.642262363390993,0.979368903650457,-0.0461134371652012,-0.574693275297829,0
340,1119423911,0.0379001896114514,-0.0855796125338618,0.60926920810007,0.787420305559289,-4.51444712438121,4.70692543642435,7.47097630578209,0.788417499542903,-3.49558133275029,-0.306731021099115,0.980673511626968,-0.0431266724052367,-0.577717133001902,0
341,1119440578,0.0378256036765693,-0.0859398557832964,0.609101611646537,0.787514311986798,-4.50731031377338,4.68279141799208,7.44604119362763,0.646631897671987,-3.16606216179748,-0.499092558462521,0.980690413446837,-0.0447342243224529,-0.575777334580774,0
342,1119457245,0.0378162003855803,-0.0862785819946703,0.608950858277968,0.787594307673635,-4.54198340478616,4.66058755095558,7.44249568402315,0.497787065336807,-2.75051417301545,-0.726226054565358,0.980904696806548,-0.0444493688429261,-0.573040332622381,0
343,1119473912,0.0378645926127838,-0.0865840853277753,0.608801981847802,0.787673546396227,-4.54458121685531,4.65813165731263,7.47382315545262,0.514408160177701,-2.3611162592799,-0.962445929579657,0.985438069625393,-0.0442918143667621,-0.575838606569444,0
344,1119490579,0.0378951321056819,-0.0868712152969735,0.60863820703158,0.787767023844552,-4.54534963991959,4.66050893408729,7.48410101080008,0.731980567340108,-2.39404889013314,-0.902493785141683,0.981645012869903,-0.0458573614794477,-0.57415584624483,0
345,1119507246,0.0379217509476045,-0.0871458665305329,0.608477920567537,0.787859225327416,-4.56947439597357,4.67524115657165,7.42003780264866,0.773581083190929,-2.33758370934667,-0.84010994402656,0.983049239303608,-0.0439470810105576,-0.576643771646559,0
346,1119523913,0.0379279348364795,-0.087393128840458,0.6083031399767,0.787966498453457,-4.56741250586771,4.71535778421093,7.39167822349434,1.03318015463751,-2.33455274028237,-0.747321813519454,0.982066394754441,-0.0443227811436073,-0.576135985016325,0
347,1119540580,0.0379267022492416,-0.0876024602037769,0.608123017396911,0.788082337027559,-4.58748313648769,4.77527857937368,7.37180250986057,1.25250767576604,-2.19828608518441,-0.663370996796788,0.980959515362622,-0.0423458107837258,-0.574152721969611,0
348,1119557247,0.0379390085172634,-0.087825231903916,0.607973481076559,0.788172320359832,-4.58104878782553,4.82430557374656,7.35830244418663,0.963644204167275,-2.10936148791859,-0.612410360202019,0.982969793442308,-0.046421228258887,-0.572110220120595,0
349,1119573914,0.0379683999035018,-0.0880664326333357,0.607850489074784,0.788238851480662,-4.56858894095543,4.83414191033889,7.34505824706295,0.668290582010722,-2.04597959343499,-0.608388916560869,0.980406793541288,-0.0451644744089163,-0.573405232225794,0
350,1119590581,0.0380431840666131,-0.0883161993442174,0.607778900874316,0.788262502426365,-4.54710060275591,4.83026527664926,7.27701839462368,0.198186413900014,-1.74232690229008,-0.61848210973489,0.982492537124908,-0.0469694419057703,-0.575361910881979,0
351,1119607248,0.0382453050473601,-0.0885217141833353,0.607793731639081,0.788218232813806,-4.54314186238138,4.83215730811094,7.25439204882799,-0.43376171526089,-0.750478242715577,-0.821258764766017,0.980013315578172,-0.0454017802256211,-0.576961824167799,0
352,1119623915,0.0385518492813567,-0.088645743314982,0.607825271945892,0.78816503721811,-4.56269238445587,4.84565226007128,7.22020249821607,-0.400492255096312,0.0941153665098797,-1.17122116445809,0.985646966369879,-0.0459006107497502,-0.573962214079129,0
353,1119640582,0.0389244028898556,-0.0886617410333068,0.607806455857852,0.788159437394572,-4.59790115535311,4.80589710185901,7.25521314248197,0.26954601686145,0.69145832157654,-1.58716916566763,0.982994286274092,-0.0464699070238086,-0.569768912702708,0
354,1119657249,0.0393737640290842,-0.0885688184052614,0.607707196778481,0.788224101443313,-4.63930753633957,4.81367306529686,7.30026117092659,1.11278533428432,1.23117284847823,-2.19282436576928,0.987811132122175,-0.044229674722883,-0.570595099403704,0
355,1119673916,0.0398511859633859,-0.0883864733357365,0.607593722461024,0.788308050659473,-4.64942360956113,4.84594220848849,7.35886458843264,1.54553667479623,1.72434534244185,-2.2647320840102,0.987352872255285,-0.045093977318756,-0.568710992508541,0
356,1119690583,0.0402822304986006,-0.0881236884761862,0.607444271813851,0.788430728774539,-4.65484051098929,4.86716136587899,7.38165108257832,2.23946880621968,1.82779205939665,-2.04273333435852,0.98907246420868,-0.0458560604601207,-0.565096220543057,0
357,1119707250,0.0406120254414081,-0.0878375904364349,0.607248264578465,0.788596706981654,-4.66832272325788,4.89070763754593,7.37296347832902,2.86122189634548,1.40607940708484,-1.66979398695776,0.990828521907272,-0.0471008213253433,-0.564195486423936,0
358,1119723917,0.0408736586021285,-0.0875546204897387,0.6070544867644,0.788763831931071,-4.64570995165441,4.90269057656389,7.34067523669834,2.97299652088087,1.15076782868107,-1.29643602857726,0.990376769076148,-0.0468405699643249,-0.562128818806331,0
359,1119740584,0.0410907412571009,-0.0873284035318451,0.606928754177747,0.788874380539619,-4.63076679536515,4.92397707353235,7.32749086775548,2.367005460814,0.942904219252968,-0.843881310651277,0.988941272428038,-0.0470358953209661,-0.561177555894675,0
360,1119757251,0.0412424997294641,-0.08719718126136,0.606899518978379,0.788903467897024,-4.61669934253794,4.92978565115605,7.30574676402291,1.45096572933848,0.572906942192043,-0.208689387523814,0.990679978783765,-0.0465255490479564,-0.563252491015141,0
361,1119773918,0.0413322262046984,-0.0871613652798818,0.606945150819231,0.788867623480982,-4.59549548756892,4.8832369532586,7.26975896455603,0.668074731544245,0.138065527246434,0.312430397932817,0.99128414813773,-0.0519723493197719,-0.564118367240122,0
362,1119790585,0.041357564255495,-0.0871467011374862,0.60703391620275,0.788799612664243,-4.58573145095873,4.89891115004631,7.22662599123815,0.432713513179938,-0.0444453956568234,0.823189966660025,0.992778610771925,-0.0491580834515871,-0.56396617950813,0
363,1119807252,0.0413090411657915,-0.0871502264774381,0.60713817074675,0.788721524218266,-4.59900957032222,4.91981982178156,7.20628650349825,0.406520750109111,-0.344492641574237,1.26923380365513,0.991581621657708,-0.0483445236369492,-0.563184339163787,0
364,1119823919,0.0411581208469545,-0.08718339869972,0.607274097249741,0.788621097162018,-4.6489732846348,4.93598200153661,7.16990973093733,0.287667495672336,-0.747894711829398,1.92189049904603,0.989676058815404,-0.0478867971038836,-0.565673154236641,0
365,1119840586,0.0409208618476581,-0.08720236886959,0.607436280362508,0.788506433219499,-4.65817241423788,4.95598980713572,7.13043912474193,0.365710508364651,-0.889312074829587,2.53565156173579,0.990439278561061,-0.0530440633549842,-0.566213820917981,0
366,1119857253,0.0406431980041822,-0.0871509182995135,0.607636284996424,0.788372369538208,-4.65587871959475,4.98316391383236,7.14117765449219,0.520276114744121,-0.539476855396849,3.03867991886197,0.990381628802251,-0.0494106315764802,-0.563327858229195,0
367,1119873920,0.0403588687401642,-0.0870736211775655,0.607866649000903,0.788217916087583,-4.67910400924266,4.99274670935378,7.10395342089559,0.450095110248557,-0.325100819421752,3.24933807496279,0.993124495879655,-0.0488715256795747,-0.563592665126255,0
368,1119890587,0.0400522735053368,-0.0869585851108382,0.608095694610855,0.788069569301034,-4.68828146423551,4.97243336421782,7.09015682774084,0.66808444299538,-0.214126477909641,3.42637012037446,0.993272740495248,-0.050856109825256,-0.565406519555727,0
369,1119907254,0.039759157221746,-0.0867867675186456,0.60829990537519,0.787945741483014,-4.66207293667352,4.97744093892882,7.10915741178974,1.05054522814048,0.038664405141172,3.32526575224171,0.99437826466854,-0.0504568732259919,-0.563487238911017,0
370,1119923921,0.0394841660389556,-0.0866295255036547,0.608498867234858,0.787823238116974,-4.68521822518256,4.95544303730756,7.14875287943906,0.977552533768642,0.0185588695013135,3.17782732710034,0.993007841493027,-0.0515691711021892,-0.564140401179077,0
371,1119940588,0.0391960392092646,-0.086492020307081,0.608656967346015,0.787730599275322,-4.67699139266518,5.00798324113295,7.19330689299111,1.18123435331075,-0.26571996790268,3.03469880255428,0.992283871988552,-0.0514924778001105,-0.565228732639627,0
372,1119957255,0.0387826116113103,-0.0865073223598695,0.608698353452601,0.787717402828467,-4.66858298421567,5.06799528353681,7.23315138375695,1.53888651522784,-1.88904743526256,2.96922716147875,0.99207499839899,-0.053216830548075,-0.564824790512611,0
373,1119973922,0.0383863906456942,-0.0865063305509206,0.608962207375991,0.78753296424694,-4.66193155362383,5.07749495024757,7.15787248178995,0.119508232719207,-0.9442322676051,3.9023987088569,0.996589351355936,-0.0515300038412703,-0.563118593545609,0
374,1119990589,0.0379392754430898,-0.0865084784180672,0.609210855517107,0.787362069229118,-4.62733578728102,5.12318388643533,7.13307238949984,0.314571924179618,-1.17674967448832,4.11364474589399,0.992966347194885,-0.0558812441755289,-0.564867746716848,0
375,1120007256,0.0374472903570053,-0.0865298799522347,0.609318673584018,0.787299837636324,-4.59228482964183,5.05429087743958,7.12022825328151,1.24950131709694,-1.92217704857723,3.69924006723105,0.993425567417672,-0.0539870304232082,-0.566478294372306,0
376,1120023923,0.0369836999681047,-0.0865615742277536,0.609332930417068,0.787307233367781,-4.68630137156978,5.04821854438055,7.12301644087714,1.74751516249053,-2.19497759530882,3.11823074625178,0.992661043166091,-0.0578750109112395,-0.56607821385222,0
377,1120040590,0.0366785863872147,-0.0866320659474438,0.609370363992615,0.787284780710146,-4.64697234347967,5.09939203729842,7.16420055649666,1.07354629947789,-1.76208228087022,2.2923675795282,0.995274912135165,-0.0595998727540372,-0.563906921454829,0
378,1120057257,0.0365936024024101,-0.0867859041850444,0.609502555949661,0.787169454049653,-4.68760981147402,5.12213622350679,7.1473982287755,-0.399712860698678,-1.10008765291566,1.36991484729328,0.995979845465558,-0.0597752504057283,-0.563885704411964,0
379,1120073924,0.0366454078618094,-0.0870267459351441,0.6096844187785,0.786999599157017,-4.72726842265595,5.06850671897104,7.11924398309266,-1.40949226059887,-0.907489732874127,0.70477261429751,0.995973874592559,-0.0585414984705175,-0.562274627183572,0
380,1120090591,0.0368431771582556,-0.087275628175275,0.609898376578225,0.786796997497285,-4.7302930506688,5.04996198096688,7.09136138025785,-1.97774428788089,-0.344893100963357,0.0196267592656461,0.996906698483409,-0.0580064030837431,-0.56174765318281,0
381,1120107258,0.0371430810860063,-0.0875493994608543,0.610055524698866,0.786630631850726,-4.69023518192769,5.03658905760162,7.11212732160363,-1.93930183473355,-0.338392328901939,-0.839522286787981,0.997716475125214,-0.0562439469095754,-0.559090088887308,0
382,1120123925,0.0375172430905793,-0.0877533069616627,0.610109975136311,0.786547920871541,-4.69649578947982,4.97624411751193,7.07464924415864,-1.11838012194729,-0.104289690348355,-1.6142786464151,0.999259084749667,-0.0567318607035239,-0.560496271132501,0
383,1120140592,0.0379465396566618,-0.0878846701552685,0.610121218567977,0.786503937391868,-4.7155680655767,4.96553363426719,7.07358645844485,-0.634790964648128,0.293672618225937,-2.01388178821469,0.999101122101753,-0.0568393133684057,-0.557421247503683,0
384,1120157259,0.0382996175467294,-0.0880248045429847,0.610086449227673,0.786498123042715,-4.75863974641371,4.97748444764193,7.04460815815408,-0.201265085252851,-0.173402159804936,-1.79702182139853,0.999961972510178,-0.0563828750815839,-0.557012639371562,0
385,1120173926,0.0385699523770055,-0.0881643957855536,0.609972675557263,0.786557520568533,-4.76197301370896,5.00396552275549,6.98294884850011,0.506624975430966,-0.73297217284387,-1.67436069458765,1.00076908390061,-0.0567769142104086,-0.556782517279487,0
386,1120190593,0.0387908671496056,-0.0882987663894109,0.609835012543575,0.786638324743886,-4.77079093081313,5.05987126477103,6.97729044131672,0.7977135997967,-0.959713785406276,-1.49185851986484,1.00293652865106,-0.0557936165255539,-0.553464616958331,0
387,1120207260,0.0389969471895894,-0.0884167852507954,0.609664590258974,0.786746971764216,-4.78944524079193,5.0699344566603,6.99460278251223,1.11823024848925,-1.04407909549283,-1.52636163000408,1.0016040617652,-0.0583644815483622,-0.554536198615238,0
388,1120223927,0.0391900598100162,-0.0885536517940467,0.609470669172596,0.786872221764331,-4.79115427575915,5.08627563262149,7.00449329842149,1.21971248527706,-1.27209386006355,-1.57841410188669,1.00219792267488,-0.0590856318689387,-0.556072427839765,0
389,1120240594,0.039374809681427,-0.0887584639718432,0.609276928514543,0.786989951534195,-4.80240565972048,5.11450799496986,6.98903920993022,0.938902517156243,-1.65175234409568,-1.61874583222775,0.999955064335399,-0.055447824327025,-0.552771245949798,0
390,1120257261,0.0395172747448007,-0.0890667574796984,0.609111628735416,0.787075931183317,-4.81895782764876,5.11566873406076,6.99127730019352,0.38937081633059,-2.2232267154102,-1.39243367472739,1.00111890215877,-0.0560561340407077,-0.554458624064846,0
391,1120273928,0.0397008040900969,-0.089420266155242,0.609037299653036,0.787084131326927,-4.84649121283489,5.06093096617306,6.9678501187004,-0.496791313210381,-2.00027318645043,-1.29581331303512,1.00102857850071,-0.0573762242359467,-0.556435089489631,0
392,1120290595,0.0398409539261199,-0.0898544095876898,0.609003573919274,0.787053702374531,-4.77782384207122,5.08257935328024,6.94781073528824,-1.03102425503107,-2.40522673329488,-0.969583875255331,0.999563703981936,-0.0568206425069236,-0.553957111545615,0
393,1120307262,0.0400162419140183,-0.0902748639437719,0.609012570372315,0.786989732113144,-4.73968673464865,5.09802237031021,6.95053372426108,-1.32835447377851,-2.07178745324285,-0.968692288866442,1.00023997438298,-0.0561132463674212,-0.556407329180224,0
394,1120323929,0.0401762495423426,-0.0906869768822268,0.609051237714997,0.78690427056568,-4.71310184464689,5.08179547763896,7.03602483238265,-1.45255241878024,-1.9741737833561,-0.745515138235912,1.00039788234764,-0.0562538488598314,-0.55421240450389,0
395,1120340596,0.0403106988722278,-0.0910588135587878,0.609081286849548,0.786831192848502,-4.73551506822593,5.08962562055077,7.07453367868635,-1.16197739358344,-1.87904362813929,-0.585759431476173,1.00008607137282,-0.0541572185568169,-0.554722537835933,0
396,1120357263,0.040348931699603,-0.09146229895173,0.609055792163019,0.786802169299147,-4.74691331272416,5.11208544468801,7.0767140390155,-0.722588960118236,-2.55658540141196,-0.324606227853863,1.00114903889957,-0.0539007678272066,-0.556337764181155,0
397,1120373930,0.040308630375236,-0.0919432834854434,0.608975675643602,0.786810188936065,-4.7699473926376,5.10493131547401,7.0584599481866,-0.529268934269445,-3.41152123928715,-0.22062359951672,0.999522390881924,-0.0563183862645029,-0.556759029305068,0
398,1120390597,0.0401838646189713,-0.0924502634436328,0.608842938167738,0.786859887436615,-4.75653378008478,5.12686385697752,7.06762854123642,-0.108727145078764,-4.01706326515698,-0.0139863296340237,0.999609512390825,-0.0578229688223306,-0.558027045708314,0
399,1120407264,0.0400339721516912,-0.0929981733281346,0.60867736374992,0.786931056503577,-4.71996368363672,5.1003091542445,7.04721004924586,-0.0238773392392674,-4.42338314627481,-0.0631007834842794,0.995459125274795,-0.0572783000152971,-0.55834399326489,0
400,1120423931,0.0398726063109743,-0.0935538080570593,0.608482879639357,0.787023789633953,-4.72175532934006,5.09466488462466,7.06244190204536,0.146289776679099,-4.59883037502934,-0.128209257637526,0.998800831128248,-0.0572242582545269,-0.56253048332908,0
401,1120440598,0.0397141808816487,-0.094120502701896,0.608220312791241,0.78716717787022,-4.68401186468196,5.09491182637535,7.0434044902428,0.544613770231726,-4.90268941327371,-0.468189509658766,0.996667985363154,-0.056639656551239,-0.559396896417093,0
402,1120457265,0.0396011215263404,-0.0946528928023682,0.607914882518388,0.787344954051687,-4.68419767777528,5.06946801346918,7.01625658791172,0.867358517225249,-4.72415015136065,-0.85418312090294,0.998571863994769,-0.0578900359857604,-0.563099982178713,0
403,1120473932,0.0395675555997288,-0.0951250550701826,0.607626571658087,0.787512274099139,-4.67268459904368,5.07095011563586,7.0151160767564,0.846644686445774,-4.09575705678423,-1.15544502726447,0.995586402826022,-0.0559390525731303,-0.562027682065409,0
404,1120490599,0.0396307862999364,-0.0955060611547091,0.607354808497606,0.787672603087601,-4.67172597885374,5.06333584458007,7.00463527962692,0.919225033996013,-3.24438755978691,-1.50604571328991,0.994842226156652,-0.057266043012306,-0.562382455666112,0
405,1120507266,0.0397859824734252,-0.0957737390890717,0.607081671607873,0.787842820934045,-4.67901527892375,5.07616882066419,7.04267954136755,1.21967777609748,-2.35827427488617,-1.87436111605939,0.999276103879359,-0.0587525683614376,-0.562640143986491,0
406,1120523933,0.0400198194328917,-0.0959682491524491,0.606846234722326,0.787988677971015,-4.66212401347152,5.08559003787178,7.03972512770574,1.16081085938358,-1.63334496301472,-2.11824578656094,0.993880877589381,-0.0588589944457281,-0.563717150667673,0
407,1120540600,0.0403437758940511,-0.0961050049443064,0.606647890363035,0.788108206332953,-4.708261355794,5.1093348727348,7.05195226910611,0.947816954387657,-0.882484767129507,-2.35695360701869,0.994183327022975,-0.0610262200398602,-0.564293747037761,0
408,1120557267,0.0407254279501994,-0.0962330843296452,0.606515883276666,0.788174546868777,-4.72233993465105,5.10772505141143,7.07169196031321,0.400248118309607,-0.3842636841264,-2.3481573021581,0.994982207767801,-0.0586495568779511,-0.566327897247187,0
409,1120573934,0.0410849345595704,-0.0963649553220313,0.606407872996218,0.788222884155377,-4.74956239433556,5.10690816378529,7.0783839946387,0.262704854136343,-0.379196254715402,-2.10852329391763,0.992767535739344,-0.0558308693371059,-0.565049044388815,0
410,1120590601,0.0413670981388075,-0.0964940329143374,0.606325937526746,0.788255366163665,-4.74018320300057,5.10248932412308,7.04337084968324,0.350096611136249,-0.60573577838167,-1.66638828732907,0.99329415875674,-0.0610681920207258,-0.56670916516525,0
411,1120607268,0.0415711149598903,-0.0965888545010572,0.606298186304786,0.788254365589365,-4.73692705455279,5.10177931210229,7.01169426812377,0.549929121863698,-0.747760697413542,-1.29224441763201,0.992442322955176,-0.0581318420826704,-0.564130794781956,0
412,1120623935,0.0417598382616861,-0.0966600939987914,0.606213884735159,0.788300493524398,-4.72507039284617,5.10410432344633,6.97896181406599,0.849361736131301,-0.647002292942599,-1.10677065964046,0.992155930938879,-0.0572169429486816,-0.563844721141983,0
413,1120640602,0.0419652234797235,-0.0966531045621292,0.60608985908278,0.788385806641529,-4.765599874325,5.09116998351078,6.98911169777729,1.35882361280721,-0.268793015959246,-1.18529634405334,0.992732884785194,-0.0587985816809016,-0.563616147686501,0
414,1120657269,0.0421702714219773,-0.0966344208973376,0.605988376955279,0.788455162898399,-4.80267513366842,5.09574541395157,6.95842796352551,1.25328897764167,-0.118692841214776,-1.05727288809327,0.990886206835305,-0.058332354447005,-0.566484927012934,0
415,1120673936,0.0423678565315649,-0.0966152197456841,0.605851251838868,0.788552296738581,-4.83382625389855,5.1114726592372,6.95562986962017,1.30494599109138,-0.0458503325523667,-0.866759227586363,0.992801712757058,-0.0580875454885363,-0.565137510940473,0
416,1120690603,0.0425755915037695,-0.0965723828469586,0.605752777261029,0.788622004968106,-4.84508428516506,5.11860728795959,6.94826787279822,1.30270112407713,0.0555878001960516,-0.979892853597036,0.996479128935899,-0.0576808824823932,-0.565241366321358,0
417,1120707270,0.0427747071159093,-0.0965421349037655,0.605647397853436,0.788695866663908,-4.85649088274519,5.10320145829351,6.96503772525178,1.34698195005197,-0.105247494949225,-1.02890204772415,0.992456114994924,-0.0553430351755535,-0.561517114210581,0
418,1120723937,0.0429528238875375,-0.0965525443030764,0.605530585270022,0.788774601144859,-4.84171615149586,5.09891582706747,6.99138291523998,1.23679039495787,-0.366744223463954,-0.933663509175379,0.993656232202722,-0.0574270758177268,-0.560287271494412,0
419,1120740604,0.0430212436520556,-0.096594669069201,0.605480713631603,0.788803998419257,-4.84689066674211,5.09121616309975,7.01007901674849,1.22592117567878,-1.01452293629539,-0.558030462160168,0.992189823322558,-0.055982767533639,-0.558492940994191,0
420,1120757271,0.0429318526418903,-0.0968532190965441,0.605256570723655,0.788949170463606,-4.87948623447882,5.07191439371635,7.04400374414251,1.51512020182799,-3.01454642409537,-0.359809542893327,0.995430931642683,-0.0551262513114237,-0.559078134796902,0
421,1120773938,0.042986941858035,-0.0971129546696267,0.605181786152362,0.788971610753179,-4.922476670444,4.97875385807247,6.89315879511471,0.177103904819752,-1.96380431226587,-0.477594896139528,0.99386113804106,-0.0531286383906808,-0.561007932546053,0
422,1120790605,0.0430442781350004,-0.0973329637076666,0.605006427193088,0.78907585652507,-4.84553178863729,5.07495706685009,7.03354152230043,1.10713139732154,-2.22744097336094,-1.02030329544755,0.994950515363912,-0.0533405765600211,-0.560258957200035,0
423,1120807272,0.0430370966067466,-0.0975093655742557,0.604745152186986,0.789254732546664,-4.82988111694477,4.98985833458612,6.90761481108674,2.03662590794574,-2.5605317480118,-1.01804800779785,0.993333337763139,-0.0509199163105059,-0.55993048564941,0
424,1120823939,0.04305990571358,-0.0975387886881294,0.604445722199973,0.789479194238419,-4.87741062851352,4.9739780070783,6.92169942974023,2.68593741284422,-1.63934852422407,-0.87481228520328,0.994026987108055,-0.0492579508221581,-0.559804506937303,0
425,1120840606,0.0430468185743505,-0.097555208659819,0.60416441665286,0.789693174799223,-4.82286322972903,5.03090760150049,6.98173387004225,2.63270903695543,-1.55388158065028,-0.473101291290926,0.993800051318523,-0.0507363973913989,-0.559400295940407,0
426,1120857273,0.0430415270461055,-0.0975574028955955,0.60394690977553,0.789859550972446,-4.83961590725827,5.04154487747527,6.99256122481342,2.16668770658792,-1.12582383005621,-0.0872447315899966,0.993520589167242,-0.0508156474935114,-0.560269434800826,0
427,1120873940,0.0430327648829374,-0.0975428310764448,0.603864422422625,0.789924893002057,-4.86476633715161,5.06633410762271,6.9751772393003,1.65111279278541,-0.884946638087243,0.109896186530381,0.991172149838625,-0.0512501680245916,-0.560555080575029,0
428,1120890607,0.0430605660374451,-0.0975206471536322,0.60372450948926,0.790033054797851,-4.8916828366817,5.08238220174471,6.97359182059726,1.6609149782783,-0.581809738717577,0.138211683794439,0.993245683267078,-0.0483807951927333,-0.562525399989146,0
429,1120907274,0.0430614637211299,-0.097502752509917,0.603646255684411,0.790095007953711,-4.87483187428063,5.06421017969404,7.00285865569406,1.44743449864364,-0.640970571391436,0.324473839272008,0.992238209904414,-0.0467778804860644,-0.563433736071144,0
430,1120923941,0.0430919673731482,-0.0975632570683632,0.603447231975574,0.790237895471447,-4.85101670599137,5.05692893136615,6.98668249341492,1.21134005566831,-0.70337755064726,0.447142899769504,0.99231603204167,-0.0485185711724799,-0.56216119324181,0
431,1120940608,0.0430474473693565,-0.0975203258334419,0.603427622704312,0.790260594665926,-4.87675640040317,5.04245610397294,6.969986448726,1.45519588661667,-0.654014934894395,0.594838610585561,0.993022524158861,-0.0509419151218965,-0.564273858078775,0
432,1120957275,0.0430201987277126,-0.0974585833491867,0.603377548186092,0.790307928201368,-4.84374028893536,5.06244800134706,6.96149796557377,1.50973971594055,-0.40029605536708,0.672186633438223,0.992040213196456,-0.0482370852312152,-0.561060369180777,0
433,1120973942,0.0430061754916497,-0.0973609868116303,0.603344174982033,0.790346198593944,-4.80098610127386,5.06239409090596,6.97403110365891,1.63593509973287,-0.233582193259712,0.553369985305691,0.995599432727179,-0.0504772932124006,-0.559608392536381,0
434,1120990609,0.0429891190808801,-0.0972605111190475,0.603253054235983,0.790429048790889,-4.83748347334932,5.10512733230574,6.98381316324407,1.79559778435294,-0.170928721872923,0.675469537442744,0.992313415925965,-0.0498648361619082,-0.561699993765459,0
435,1121007276,0.0429626322048565,-0.09719011201801,0.603142803948386,0.790523277585951,-4.84440961262769,5.15221896657321,7.01472200417411,1.74046793490284,-0.351898827790367,0.708258008430431,0.990807437341661,-0.0532906922581094,-0.562886894995956,0
436,1121023943,0.0428605016190015,-0.0971081861566731,0.603178479206178,0.790511669619653,-4.86748467756028,5.18331047283376,7.02164089645143,1.54036917894269,-0.60885631372755,0.983290558269065,0.993793648593025,-0.0496302451621822,-0.561889919998551,0
437,1121040610,0.0427290021550424,-0.097131829519726,0.603152213312293,0.790535924323157,-4.83839800632412,5.15825379196543,6.98659999028854,1.26097588689474,-1.15576176109491,1.17043154796218,0.992421361620724,-0.0533090823355894,-0.558458475880419,0
438,1121057277,0.0425511280455616,-0.0971621093407094,0.603248389378061,0.790468409693448,-4.84798265513051,5.15555786999461,6.94730919337097,0.969236971535969,-1.38651796201499,1.30562357637519,0.990750541121991,-0.0502185002652347,-0.563319117547743,0
439,1121073944,0.0424983707866588,-0.0971916403460518,0.603287262476227,0.7904379497856,-4.83296943953543,5.11488116609115,6.95290424396461,0.458695226601459,-0.51297410717011,1.24538657520842,0.992377054821802,-0.053850829191607,-0.559689240483859,0
440,1121090611,0.0423771021808732,-0.0972423012368669,0.60337364533765,0.790372292133818,-4.81998891883908,5.12234172700672,6.90418919516038,0.462450881501698,-0.956862954220729,1.43477481909671,0.9911595470022,-0.0541057878760648,-0.561529113643021,0
441,1121107278,0.0422843965001649,-0.0972425032796212,0.603519534580453,0.790265839289744,-4.79630899413759,5.1319041491417,6.94649714758134,0.217786906381162,-0.38055127045906,1.60612768613048,0.992068809813885,-0.0537077188567676,-0.560184057341223,0
442,1121123945,0.0421842158698371,-0.0972732435573833,0.6037138684375,0.790118961344114,-4.77898841037577,5.17256043677766,6.96413069223525,-0.196878078382026,-0.414906285090851,1.78377631209424,0.991882405437903,-0.0511181562918366,-0.560930858949366,0
443,1121140612,0.0420731043426458,-0.0973639190256952,0.603769543029081,0.790071174055468,-4.80000927474883,5.17391415065733,6.97454602344356,0.0174745007982986,-0.751947130169976,1.84378841961361,0.993279483758999,-0.0517699098599347,-0.560718169650817,0
444,1121157279,0.0418875959786873,-0.0974071819198149,0.603840007961779,0.790021844633606,-4.77257783725282,5.14274221684584,6.96893509252235,0.707344035346944,-1.14429077013724,1.78406753890739,0.991506757704019,-0.0548764325124735,-0.562725149357227,0
445,1121173946,0.0417124855229069,-0.0974560890804568,0.603730372871523,0.790108863464431,-4.80940742302184,5.14316716530096,6.97729732180995,1.43674926202802,-1.33021129179102,1.53894854525933,0.992073711118588,-0.0513294933413346,-0.560014843652189,0
446,1121190613,0.0415222601154048,-0.0975077460356517,0.603553235791818,0.790247830078122,-4.7986325431706,5.15817750201826,6.98525020367814,1.78052711103744,-1.49639203828755,1.51138239276278,0.988930910645803,-0.0527708714645695,-0.560511506467661,0
447,1121207280,0.0412921726329401,-0.0975453970904892,0.603458224976729,0.790327794458506,-4.81823699923321,5.15142587565714,6.98265646014625,1.77974695930089,-1.68570650343527,1.53800949212091,0.989862131226566,-0.0522795160591579,-0.562736329967319,0
448,1121223947,0.0410750288665149,-0.0976274672742741,0.603326123071302,0.790429825384252,-4.81306874446464,5.15384645572057,6.99761773048826,1.66740893580947,-1.86094402757177,1.44330523861782,0.992374000768083,-0.0521193840111995,-0.562907931606227,0
449,1121240614,0.0408495297374239,-0.0976972364728785,0.603249043021209,0.790491719121579,-4.79394737798409,5.15253583971259,6.9934786353894,1.61761829876118,-1.88946215170138,1.39226458235831,0.990308798720932,-0.0537301064137719,-0.561342345937288,0
450,1121257281,0.040597378265116,-0.097788060954175,0.603224409548074,0.790512276778925,-4.81402153128592,5.16987895031355,6.99004825750036,1.46861954809141,-2.14737674780768,1.41174936756652,0.990459898615196,-0.0515918575508982,-0.564721514613397,0
451,1121273948,0.0403502464075355,-0.0979132843591466,0.603178889203506,0.790544163206636,-4.8404696308786,5.18903229164788,6.93585634737371,1.19057413601572,-2.10006006422043,1.625412646942,0.987510530846467,-0.0512208279786115,-0.564868220723394,0
452,1121290615,0.0400825692218408,-0.0980890039007517,0.603131587767775,0.790572085767679,-4.8022350438193,5.16882615856477,6.90977026592618,0.882654862479891,-2.27561741879974,1.88593738173461,0.986754961763932,-0.0503396036758179,-0.564446617805132,0
453,1121307282,0.039814440953901,-0.0982528753800799,0.603129708106704,0.790566719493173,-4.84178540266725,5.18297091959328,6.8839821463074,0.801469942604016,-2.23705610756246,1.85530238636217,0.989400656357941,-0.0534902088295527,-0.564282300480199,0
454,1121323949,0.0395749884325061,-0.098437783315351,0.603094300584192,0.79058275196806,-4.83896454854352,5.15595067268208,6.87374356582026,0.689232966942241,-2.17863359410127,1.78320593090596,0.988684691688757,-0.0506163850638282,-0.560438623671858,0
455,1121340616,0.0393572810031438,-0.098611696818599,0.60303806720981,0.790614841233362,-4.83616850680108,5.162999626411,6.88192077891017,0.68402997982091,-1.97036478025335,1.78866466979341,0.989512370420846,-0.0516891646803603,-0.564236940117057,0
456,1121357283,0.0391380664869631,-0.0987383810518087,0.60305255930284,0.790598858193726,-4.86574908377227,5.14172463133684,6.89408914931596,0.649436533714132,-1.72880786357058,1.82981319254711,0.990765590643927,-0.051619295310598,-0.562612889757099,0
457,1121373950,0.0389255184666158,-0.0988570564039446,0.603112390852221,0.790548879204677,-4.87444236834628,5.15128579235473,6.85629927196819,0.469999704011113,-1.61859271530469,1.84671941745157,0.988258682215588,-0.052302115931844,-0.561693201142408,0
458,1121390617,0.0386820006153033,-0.0989757769481633,0.603216830113093,0.790466289144716,-4.90069483783118,5.16112264371052,6.86703336911512,0.438310141421218,-1.77523805897112,1.93150349441349,0.991270991916615,-0.051696467028613,-0.560252469693692,0
459,1121407284,0.038477688214077,-0.0991701048778208,0.603220798894463,0.790448876012452,-4.86997022171301,5.17154855965773,6.86477094953485,0.275502419848273,-1.95098631373687,1.78439159250332,0.990655969191197,-0.0503104326555001,-0.561045851164187,0
460,1121423951,0.0382658746045412,-0.0993502261917104,0.603263259365036,0.790404134159659,-4.87058023132264,5.16534129833971,6.89733779525998,0.310523156662674,-1.99648086243748,1.70523501419855,0.993420685269152,-0.050955281133822,-0.559663981425262,0
461,1121440618,0.0380412377313629,-0.0995319217350471,0.603241133007484,0.790409005664436,-4.86003220215358,5.13983947911081,6.89855356191538,0.689466999126237,-2.19029122743945,1.60707652059556,0.990682984130901,-0.0515308133429816,-0.559170414102314,0
462,1121457285,0.0377890767544967,-0.0996813496554414,0.603206562505324,0.790428654060202,-4.90740591310228,5.15167497196986,6.94168587284985,1.0240782757851,-2.20109842576885,1.6820220959305,0.990068024281552,-0.0501849803435458,-0.561584250178169,0
463,1121473952,0.0375138397338626,-0.0998847708999167,0.603082295765135,0.790510903723249,-4.90680686024931,5.14271634491117,6.93692138906764,1.1902298228962,-2.59903623830653,1.72761783174576,0.99240501194298,-0.048519342599752,-0.558800774760862,0
464,1121490619,0.037194403059319,-0.100116059998682,0.602958138028418,0.790591446131758,-4.91680178881308,5.1561147940583,6.97119107475035,1.22552386248249,-2.94313571196283,1.86826910261726,0.993815915057025,-0.0484431772266078,-0.559310136822491,0
465,1121507286,0.0368024389454417,-0.100351673911026,0.602904638689483,0.790620717333935,-4.89886843036908,5.16724035232068,6.92733395585957,1.23348919179478,-3.30118792145883,2.10861980334265,0.989539722126441,-0.0486453033920952,-0.562441713555752,0
466,1121523953,0.0364206910470434,-0.100736747926453,0.602646552155724,0.790786174674088,-4.90009321391251,5.19912535256267,6.93219058673052,1.08886377811545,-3.85303047910105,2.21467059106451,0.995237974789935,-0.0472852100481352,-0.555680933710114,0
467,1121540620,0.035883984582389,-0.101231194413065,0.602269810355325,0.79103455073894,-4.86917940778474,5.1999658258084,6.9889584695336,1.85318701385144,-5.41782520520532,2.34194563562961,0.99114600946054,-0.0472591963131921,-0.559943729436605,0
468,1121557287,0.0353564877955779,-0.101651902765236,0.60209208916432,0.791139637232716,-4.91896257948823,5.12555032948754,6.89206831613916,1.42668908087392,-4.95749632153823,2.36472398555667,0.991166324934009,-0.0473300769872908,-0.560669012311651,0
469,1121573954,0.0347938051740211,-0.101997347659972,0.601890560419852,0.791273458084701,-4.8573610076779,5.18524027488295,7.04281373301385,2.06241820606711,-4.82309964313069,2.45643539603012,0.991590865961277,-0.0477419961303572,-0.55977884035492,0
470,1121590621,0.0340872912859804,-0.102329069091075,0.601680599269628,0.791421047644223,-4.85553945105942,5.16744859279225,6.89091345056751,2.64336194308193,-5.36089836047345,3.07136440610099,0.99259282884462,-0.0491028299156558,-0.563785650751485,0
471,1121607288,0.0334068882405522,-0.102551670383574,0.601453518515202,0.791593835110725,-4.87601254747547,5.14817171306067,6.89007356310727,2.95055486291451,-4.5178291250476,3.28903749035357,0.990422555155909,-0.0464511266768156,-0.563664633176029,0
472,1121623955,0.0327779827669472,-0.102714059324942,0.60131186074268,0.791706683054335,-4.76258393789376,5.20612849185303,6.92942011035256,2.61047399846728,-3.84167711953344,3.30023670126525,0.99422901335591,-0.0498514374963938,-0.56087275808543,0
473,1121640622,0.0322785857991815,-0.102780222143031,0.601224111515545,0.791785252809989,-4.71003597820907,5.20522856313435,6.93312478031364,2.46339658990667,-2.85111628646852,2.75793677102129,0.991884944286487,-0.0483624849680989,-0.562953580828569,0
