sep=,
DeviceTag:,Xsens_1,,,,,,,,,,,,,,,,,
FirmwareVersion:,2.2.1,,,,,,,,,,,,,,,,,
AppVersion:,2023.0.0,,,,,,,,,,,,,,,,,
StartTime:,2023-07-04 14:47:22.000 +0200,,,,,,,,,,,,,,,,,
© Movella Technologies B. V. 2005-2023,,,,,,,,,,,,,,,,,,,

PacketCounter,SampleTimeFine,Quat_W,Quat_X,Quat_Y,Quat_Z,Acc_X,Acc_Y,Acc_Z,Gyr_X,Gyr_Y,Gyr_Z,Mag_X,Mag_Y,Mag_Z,Status,
0, 1472826106, 0.7461084, -0.3272927, -0.44962582, -0.3661127, 0.0, 0.0, 0.0, 0.0, 0.0, 0.0, -1.015869140625, 0.447265625, 0.050537109375, 0, 
1, 1472842773, 0.74577796, -0.32768947, -0.44942945, -0.36667153, 9.061033248901367, -1.555946707725525, 3.7913572788238525, -2.8170511722564697, -0.2249051332473755, -0.234176903963089, -1.016357421875, 0.449951171875, 0.049560546875, 0, 
2, 1472859440, 0.7455828, -0.3278119, -0.44941795, -0.36697316, 9.058514595031738, -1.5693416595458984, 3.7906854152679443, -3.1473655700683594, 0.029371364042162895, -0.3755590319633484, -1.0146484375, 0.44921875, 0.0478515625, 0, 
3, 1472876107, 0.7454707, -0.3279279, -0.44939387, -0.36712658, 9.06222915649414, -1.6014080047607422, 3.7984817028045654, -3.274404525756836, 0.17020277678966522, -0.29491740465164185, -1.011962890625, 0.44970703125, 0.0498046875, 0, 
4, 1472892774, 0.74542785, -0.32811344, -0.44927675, -0.36719123, 9.039209365844727, -1.5941507816314697, 3.7995095252990723, -3.3227736949920654, 0.3251340091228485, -0.30931177735328674, -1.016845703125, 0.445068359375, 0.048828125, 0, 
5, 1472909441, 0.7452611, -0.32849875, -0.4489498, -0.36758497, 9.052619934082031, -1.6061002016067505, 3.805474281311035, -3.187551736831665, 0.5307143330574036, -0.2571258842945099, -1.012451171875, 0.447509765625, 0.047607421875, 0, 
6, 1472926108, 0.74525225, -0.32874063, -0.44870526, -0.3676851, 9.062997817993164, -1.610243558883667, 3.8000338077545166, -3.207247495651245, 0.6456897258758545, -0.07970670610666275, -1.016357421875, 0.44775390625, 0.050048828125, 0, 
7, 1472942775, 0.74517256, -0.3290834, -0.44840404, -0.36790738, 9.059596061706543, -1.6061931848526, 3.795682907104492, -3.1449451446533203, 0.6198209524154663, 0.04887543246150017, -1.0146484375, 0.44482421875, 0.052734375, 0, 
8, 1472959442, 0.7450235, -0.32952958, -0.4480282, -0.36826771, 9.071569442749023, -1.5764039754867554, 3.804500102996826, -3.2384183406829834, 0.7124491930007935, 0.23447786271572113, -1.01416015625, 0.445556640625, 0.051513671875, 0, 
9, 1472976109, 0.7449008, -0.32991514, -0.4477005, -0.36856902, 9.037742614746094, -1.5895018577575684, 3.775480270385742, -3.3081233501434326, 0.722822368144989, 0.2935279309749603, -1.016357421875, 0.447265625, 0.050048828125, 0, 
10, 1472992776, 0.7448039, -0.33025464, -0.4474202, -0.36880118, 9.031307220458984, -1.58197021484375, 3.768657922744751, -3.2589597702026367, 0.7203123569488525, 0.30254361033439636, -1.013671875, 0.445556640625, 0.048828125, 0, 
11, 1473009443, 0.7446919, -0.33060318, -0.4471603, -0.36903045, 9.03780746459961, -1.5574465990066528, 3.727142333984375, -3.3581581115722656, 0.6333188414573669, 0.32577434182167053, -1.01416015625, 0.44482421875, 0.052734375, 0, 
12, 1473026110, 0.7444759, -0.33104712, -0.44690368, -0.36937904, 9.03708267211914, -1.5790064334869385, 3.7687885761260986, -3.792498826980591, 0.39660629630088806, 0.1683715134859085, -1.015869140625, 0.446044921875, 0.051513671875, 0, 
13, 1473042777, 0.74427557, -0.3314394, -0.44666234, -0.36972275, 9.0438232421875, -1.5626106262207031, 3.783212423324585, -3.821837902069092, 0.5523186922073364, -0.0748659297823906, -1.017333984375, 0.444580078125, 0.05322265625, 0, 
14, 1473059444, 0.74401987, -0.3318429, -0.44640014, -0.37019178, 9.033286094665527, -1.5318701267242432, 3.7596800327301025, -3.838831901550293, 0.5959243774414062, -0.4343658685684204, -1.012939453125, 0.44384765625, 0.0546875, 0, 
15, 1473076111, 0.7437747, -0.3322508, -0.44602388, -0.37077126, 9.040382385253906, -1.548220157623291, 3.8931033611297607, -4.601795196533203, 1.481829047203064, -0.63050776720047, -1.015869140625, 0.44287109375, 0.05322265625, 0, 
16, 1473092778, 0.74362665, -0.33237568, -0.4457359, -0.3713024, 8.999980926513672, -1.5693118572235107, 3.7441184520721436, -2.678422212600708, 1.7170432806015015, -1.1864185333251953, -1.015625, 0.44384765625, 0.0537109375, 0, 
17, 1473109445, 0.74332976, -0.33279517, -0.44551036, -0.37179154, 8.989063262939453, -1.5318371057510376, 3.823568105697632, -4.87422513961792, 0.2662888467311859, -0.8864171504974365, -1.017333984375, 0.446044921875, 0.054931640625, 0, 
18, 1473126112, 0.7432424, -0.33297026, -0.44520223, -0.37217864, 9.044157028198242, -1.6098294258117676, 3.829399585723877, -4.23398494720459, 1.850575566291809, -0.8474987745285034, -1.0185546875, 0.445068359375, 0.052734375, 0, 
19, 1473142779, 0.7431186, -0.33326462, -0.44476813, -0.37268075, 8.978306770324707, -1.582918643951416, 3.798110008239746, -4.462602615356445, 2.1064844131469727, -0.47395020723342896, -1.01611328125, 0.44384765625, 0.055419921875, 0, 
20, 1473159446, 0.74291915, -0.3336075, -0.44451198, -0.37307706, 9.005435943603516, -1.5381828546524048, 3.7688252925872803, -4.043822288513184, 0.5756775140762329, -0.40368175506591797, -1.015869140625, 0.441650390625, 0.052734375, 0, 
21, 1473176113, 0.7427027, -0.33401898, -0.44429806, -0.37339437, 9.066466331481934, -1.5906230211257935, 3.8025403022766113, -3.7143537998199463, -0.08157645165920258, 0.2525348365306854, -1.017822265625, 0.441162109375, 0.055419921875, 0, 
22, 1473192780, 0.7425819, -0.33427337, -0.4441439, -0.3735902, 9.034252166748047, -1.6769936084747314, 3.833862543106079, -2.4392895698547363, 0.09660470485687256, 0.36119669675827026, -1.0146484375, 0.440185546875, 0.051513671875, 0, 
23, 1473209447, 0.7424708, -0.33451483, -0.44404757, -0.37370965, 9.040677070617676, -1.5895973443984985, 3.7798192501068115, -2.0023880004882812, -0.32093992829322815, 0.4765947163105011, -1.015625, 0.440673828125, 0.055908203125, 0, 
24, 1473226114, 0.7423409, -0.33478567, -0.44395867, -0.37383068, 9.038026809692383, -1.5302397012710571, 3.791364908218384, -1.9901965856552124, -0.4983079433441162, 0.5661751627922058, -1.016357421875, 0.4423828125, 0.0537109375, 0, 
25, 1473242781, 0.7422651, -0.33496776, -0.44387192, -0.37392107, 9.069339752197266, -1.5627472400665283, 3.774341106414795, -1.9547611474990845, -0.06369876861572266, 0.36283591389656067, -1.01953125, 0.44189453125, 0.054931640625, 0, 
26, 1473259448, 0.74219084, -0.33511811, -0.44375175, -0.3740764, 9.050739288330078, -1.566590666770935, 3.790243148803711, -1.7578125, 0.312814325094223, 0.15995772182941437, -1.01806640625, 0.439697265625, 0.0537109375, 0, 
27, 1473276115, 0.7420423, -0.33534265, -0.443576, -0.37437803, 9.035821914672852, -1.5366166830062866, 3.745296001434326, -1.6503287553787231, 0.2963581681251526, 0.105825275182724, -1.012939453125, 0.439453125, 0.0537109375, 0, 
28, 1473292782, 0.7419689, -0.33547473, -0.44345987, -0.3745428, 9.018876075744629, -1.5721855163574219, 3.7673628330230713, -1.6880050897598267, 0.39925718307495117, 0.07273367047309875, -1.0185546875, 0.43896484375, 0.055419921875, 0, 
29, 1473309449, 0.7418941, -0.3355782, -0.44334185, -0.37473783, 9.008410453796387, -1.5944069623947144, 3.749786138534546, -1.2051159143447876, 0.477375864982605, 0.007536537013947964, -1.015625, 0.441162109375, 0.055419921875, 0, 
30, 1473326116, 0.7418376, -0.3356516, -0.4432616, -0.37487897, 9.023355484008789, -1.6132237911224365, 3.787515640258789, -1.188570261001587, 0.38892245292663574, -0.05595094710588455, -1.017333984375, 0.439453125, 0.058837890625, 0, 
31, 1473342783, 0.74175614, -0.33576673, -0.44314107, -0.3750795, 9.049457550048828, -1.6252493858337402, 3.776022434234619, -1.0232658386230469, 0.4133697748184204, 0.07260560244321823, -1.01513671875, 0.440673828125, 0.055419921875, 0, 
32, 1473359450, 0.741753, -0.33582225, -0.44303906, -0.37515664, 9.033113479614258, -1.6281596422195435, 3.782430410385132, -0.7510155439376831, 0.5524338483810425, 0.38339006900787354, -1.015625, 0.440185546875, 0.055419921875, 0, 
33, 1473376117, 0.7417695, -0.33580962, -0.44304478, -0.3751286, 9.02183723449707, -1.6299601793289185, 3.7936763763427734, 0.26936233043670654, -0.007209974341094494, 0.5004785656929016, -1.0185546875, 0.440673828125, 0.055419921875, 0, 
34, 1473392784, 0.7418439, -0.3356924, -0.44309574, -0.37502593, 9.02135944366455, -1.6177833080291748, 3.8110289573669434, 1.4551151990890503, 6.083017215132713E-4, 0.6540651917457581, -1.01806640625, 0.4375, 0.056640625, 0, 
35, 1473409451, 0.74178195, -0.33582476, -0.4430645, -0.3750669, 9.06151008605957, -1.681393027305603, 3.822018623352051, 0.4739694595336914, -0.5466902852058411, 1.0325952768325806, -1.016357421875, 0.4375, 0.05419921875, 0, 
36, 1473426118, 0.7418855, -0.3356991, -0.44312993, -0.37489748, 9.033173561096191, -1.710366129875183, 3.7913575172424316, 1.618613600730896, -0.09784051030874252, 0.8783170580863953, -1.021240234375, 0.440185546875, 0.058349609375, 0, 
37, 1473442785, 0.7419833, -0.33556968, -0.44322824, -0.3747034, 9.064834594726562, -1.6042038202285767, 3.8433258533477783, 1.985643744468689, -0.3651859164237976, 0.9417598247528076, -1.016845703125, 0.439697265625, 0.0537109375, 0, 
38, 1473459452, 0.7421236, -0.33538684, -0.44335863, -0.37443483, 9.065905570983887, -1.5721304416656494, 3.801175832748413, 2.3329262733459473, -0.3840496242046356, 1.0536999702453613, -1.017333984375, 0.441650390625, 0.05322265625, 0, 
39, 1473476119, 0.7422712, -0.3352003, -0.4434687, -0.37417898, 9.062994956970215, -1.5696426630020142, 3.80242919921875, 2.2936365604400635, -0.22267679870128632, 1.0631639957427979, -1.016357421875, 0.44287109375, 0.054443359375, 0, 
40, 1473492786, 0.7424286, -0.3350279, -0.44352314, -0.37395668, 9.052563667297363, -1.5558980703353882, 3.7844150066375732, 2.00197172164917, 0.13358944654464722, 1.0999950170516968, -1.016357421875, 0.440185546875, 0.055908203125, 0, 
41, 1473509453, 0.74255705, -0.33492616, -0.44348767, -0.37383443, 9.052790641784668, -1.550127387046814, 3.7750091552734375, 1.7625443935394287, 0.4252925217151642, 1.2515711784362793, -1.01513671875, 0.4443359375, 0.05419921875, 0, 
42, 1473526120, 0.7427476, -0.33477464, -0.44347316, -0.3736088, 9.066269874572754, -1.5528429746627808, 3.7853455543518066, 1.6206245422363281, 0.5698505640029907, 1.3702988624572754, -1.0185546875, 0.439208984375, 0.05224609375, 0, 
43, 1473542787, 0.74287194, -0.33474055, -0.4433623, -0.37352362, 9.048577308654785, -1.5226714611053467, 3.7755770683288574, 1.3416508436203003, 0.6769373416900635, 1.5562342405319214, -1.01513671875, 0.442138671875, 0.05322265625, 0, 
44, 1473559454, 0.7430224, -0.33468437, -0.4432956, -0.37335414, 9.038055419921875, -1.498876929283142, 3.7675371170043945, 1.0660454034805298, 0.5486047863960266, 1.5573610067367554, -1.020263671875, 0.44140625, 0.054443359375, 0, 
45, 1473576121, 0.7431117, -0.3346946, -0.44319817, -0.37328258, 9.03777027130127, -1.5047156810760498, 3.7873687744140625, 0.8505401015281677, 0.4623796343803406, 1.463208556175232, -1.01416015625, 0.440673828125, 0.052490234375, 0, 
46, 1473592788, 0.7432137, -0.3347073, -0.4430988, -0.37318626, 9.058639526367188, -1.499292016029358, 3.7664690017700195, 0.5391281247138977, 0.521711528301239, 1.485286831855774, -1.01416015625, 0.44287109375, 0.052001953125, 0, 
47, 1473609455, 0.7433057, -0.33475634, -0.44300136, -0.37307474, 9.05473518371582, -1.4848989248275757, 3.776508092880249, 0.16735978424549103, 0.40097323060035706, 1.5714479684829712, -1.019775390625, 0.443359375, 0.049560546875, 0, 
48, 1473626122, 0.7433819, -0.33483723, -0.4429305, -0.3729343, 9.040040969848633, -1.4881104230880737, 3.7707371711730957, -0.3363715708255768, 0.15822884440422058, 1.538663625717163, -1.017578125, 0.44189453125, 0.050537109375, 0, 
49, 1473642789, 0.74339235, -0.33500597, -0.4428272, -0.3728848, 9.022858619689941, -1.506650686264038, 3.755631923675537, -0.5631847977638245, -0.023589296266436577, 1.5777486562728882, -1.020263671875, 0.44189453125, 0.054931640625, 0, 
50, 1473659456, 0.74331814, -0.33525825, -0.44270644, -0.37294933, 9.0470552444458, -1.5045658349990845, 3.768925189971924, -0.6595653891563416, -0.3081335723400116, 1.469240427017212, -1.017333984375, 0.44384765625, 0.052734375, 0, 
51, 1473676123, 0.7433102, -0.33541524, -0.44270107, -0.3728303, 9.03412914276123, -1.508833885192871, 3.763733386993408, -0.6242455244064331, -0.6002720594406128, 1.4191420078277588, -1.016845703125, 0.441650390625, 0.052734375, 0, 
52, 1473692790, 0.74321634, -0.33566394, -0.4426391, -0.3728673, 9.055136680603027, -1.5370997190475464, 3.759453058242798, -0.7495940327644348, -0.6600392460823059, 1.3107362985610962, -1.016845703125, 0.440673828125, 0.051025390625, 0, 
53, 1473709457, 0.743177, -0.3358575, -0.4426287, -0.37278378, 9.032407760620117, -1.5303887128829956, 3.769483804702759, -0.7279130220413208, -0.725274920463562, 1.4124573469161987, -1.017333984375, 0.444580078125, 0.051025390625, 0, 
54, 1473726124, 0.7431274, -0.33608395, -0.44260678, -0.37270436, 9.049860000610352, -1.5505435466766357, 3.7720980644226074, -0.7605689764022827, -0.8083623051643372, 1.5818593502044678, -1.02001953125, 0.445068359375, 0.053955078125, 0, 
55, 1473742791, 0.7430722, -0.33635193, -0.4425084, -0.3726893, 9.077313423156738, -1.5625262260437012, 3.7453761100769043, -0.7525522708892822, -0.507899820804596, 1.807712197303772, -1.015625, 0.445556640625, 0.05322265625, 0, 
56, 1473759458, 0.743087, -0.3365698, -0.4423944, -0.37259883, 9.07038688659668, -1.5743038654327393, 3.74039363861084, -0.9053193926811218, -0.11218363046646118, 1.9393489360809326, -1.01806640625, 0.4423828125, 0.05322265625, 0, 
57, 1473776125, 0.7431446, -0.3367734, -0.4422626, -0.37245652, 9.07945442199707, -1.5890856981277466, 3.731515884399414, -1.0678447484970093, 0.1165313795208931, 2.1238369941711426, -1.01416015625, 0.446044921875, 0.052001953125, 0, 
58, 1473792792, 0.7432091, -0.33698133, -0.4420974, -0.37233555, 9.037875175476074, -1.6193201541900635, 3.7024176120758057, -0.6947060823440552, 0.2546222507953644, 2.34523344039917, -1.015869140625, 0.441650390625, 0.05322265625, 0, 
59, 1473809459, 0.74326885, -0.337207, -0.44194496, -0.37219292, 9.033929824829102, -1.6032202243804932, 3.7104671001434326, -0.6131680011749268, 0.07193967700004578, 2.4980127811431885, -1.016357421875, 0.446533203125, 0.050537109375, 0, 
60, 1473826126, 0.74332494, -0.3374372, -0.44181618, -0.3720251, 9.044771194458008, -1.599791169166565, 3.721447706222534, -0.5331923961639404, -0.11784403026103973, 2.5629537105560303, -1.01611328125, 0.446044921875, 0.054443359375, 0, 
61, 1473842793, 0.743359, -0.33766627, -0.44168255, -0.37190768, 9.04968547821045, -1.57347571849823, 3.7126882076263428, -0.45722508430480957, -0.08881203830242157, 2.3774285316467285, -1.0146484375, 0.446533203125, 0.054443359375, 0, 
62, 1473859460, 0.74336886, -0.33788246, -0.4415826, -0.3718104, 9.070746421813965, -1.5728145837783813, 3.7489724159240723, -0.7070258259773254, -0.19361920654773712, 1.9804445505142212, -1.017578125, 0.446044921875, 0.050048828125, 0, 
63, 1473876127, 0.74341655, -0.338111, -0.44135287, -0.37178004, 9.100011825561523, -1.5985685586929321, 3.8267300128936768, -1.4134366512298584, 0.7467190027236938, 1.9986674785614014, -1.013916015625, 0.4482421875, 0.052734375, 0, 
64, 1473892794, 0.74347156, -0.3381558, -0.44126442, -0.3717345, 9.052467346191406, -1.5645796060562134, 3.6481807231903076, 0.14268192648887634, 0.43921300768852234, 1.2930763959884644, -1.012939453125, 0.447021484375, 0.051513671875, 0, 
65, 1473909461, 0.74333054, -0.33861896, -0.44106853, -0.37182748, 9.085514068603516, -1.5919872522354126, 3.786583185195923, -3.194531202316284, -0.3304935097694397, 1.5892233848571777, -1.015625, 0.446533203125, 0.052734375, 0, 
66, 1473926128, 0.743341, -0.33884546, -0.44072273, -0.3720101, 9.077055931091309, -1.6015803813934326, 3.737410545349121, -2.1998491287231445, 1.6893430948257446, 1.1929818391799927, -1.0166015625, 0.44873046875, 0.055419921875, 0, 
67, 1473942795, 0.7433235, -0.33911887, -0.44041085, -0.3721651, 8.990313529968262, -1.5657974481582642, 3.737367868423462, -2.369699478149414, 1.2568600177764893, 1.3143733739852905, -1.012939453125, 0.447509765625, 0.052734375, 0, 
68, 1473959462, 0.7431757, -0.33954823, -0.4402452, -0.37226486, 9.041872024536133, -1.5468562841415405, 3.7145464420318604, -3.050126552581787, -0.390350341796875, 1.3527411222457886, -1.01611328125, 0.447021484375, 0.054931640625, 0, 
69, 1473976129, 0.743037, -0.33994147, -0.44012016, -0.37233093, 9.050003051757812, -1.608034610748291, 3.7269415855407715, -2.525412082672119, -0.5746081471443176, 1.402186393737793, -1.013427734375, 0.446044921875, 0.052734375, 0, 
70, 1473992796, 0.7429069, -0.3402228, -0.44006938, -0.37239337, 9.030673027038574, -1.632246494293213, 3.710676670074463, -1.5187433958053589, -0.6882132291793823, 1.0251097679138184, -1.01171875, 0.44970703125, 0.0537109375, 0, 
71, 1474009463, 0.7427401, -0.3405263, -0.44007096, -0.37244695, 9.056648254394531, -1.5894951820373535, 3.7182798385620117, -1.8475978374481201, -1.0829561948776245, 0.7993532419204712, -1.013916015625, 0.44873046875, 0.055419921875, 0, 
72, 1474026130, 0.7425512, -0.34081307, -0.440042, -0.37259555, 9.064745903015137, -1.5961869955062866, 3.692911386489868, -1.7225948572158813, -0.8165968060493469, 0.4783875644207001, -1.01611328125, 0.44775390625, 0.056640625, 0, 
73, 1474042797, 0.7423914, -0.34103534, -0.43995073, -0.37281832, 9.097298622131348, -1.6384062767028809, 3.7072722911834717, -1.531741738319397, -0.10145190358161926, 0.2057660073041916, -1.014404296875, 0.4482421875, 0.055419921875, 0, 
74, 1474059464, 0.7422792, -0.34118265, -0.43989128, -0.37297714, 9.087912559509277, -1.647712230682373, 3.7219228744506836, -1.2894842624664307, 0.03296995162963867, 0.13384558260440826, -1.013427734375, 0.4482421875, 0.05712890625, 0, 
75, 1474076131, 0.7421851, -0.34130895, -0.43978858, -0.3731696, 9.071600914001465, -1.62337064743042, 3.7171313762664795, -1.1855350732803345, 0.410296231508255, 0.11732537299394608, -1.01220703125, 0.447509765625, 0.0546875, 0, 
76, 1474092798, 0.7421239, -0.34141484, -0.43969688, -0.37330264, 9.05111026763916, -1.6168068647384644, 3.6932008266448975, -1.0350732803344727, 0.4179672300815582, 0.32188117504119873, -1.01025390625, 0.44580078125, 0.05419921875, 0, 
77, 1474109465, 0.7420785, -0.34149534, -0.43962562, -0.37340298, 9.042421340942383, -1.6542853116989136, 3.709193468093872, -0.833834171295166, 0.3771533966064453, 0.35935255885124207, -1.013916015625, 0.447509765625, 0.055419921875, 0, 
78, 1474126132, 0.74203116, -0.34158567, -0.43953046, -0.3735266, 9.06635570526123, -1.6563771963119507, 3.7275567054748535, -0.7054634094238281, 0.4630199670791626, 0.4537225365638733, -1.01611328125, 0.4482421875, 0.052734375, 0, 
79, 1474142799, 0.742017, -0.34166235, -0.43943244, -0.3736001, 9.086114883422852, -1.6456046104431152, 3.733365058898926, -0.9684034585952759, 0.6057723760604858, 0.5293185114860535, -1.015625, 0.4482421875, 0.052734375, 0, 
80, 1474159466, 0.7419796, -0.3417654, -0.43934944, -0.3736775, 9.057918548583984, -1.641008973121643, 3.7079126834869385, -0.6254748702049255, 0.3030814528465271, 0.7069808840751648, -1.013427734375, 0.447021484375, 0.055419921875, 0, 
81, 1474176133, 0.7419562, -0.34182206, -0.43934843, -0.37367317, 9.084757804870605, -1.6490964889526367, 3.7757346630096436, -0.10685618966817856, -0.10202819108963013, 0.7431204915046692, -1.010009765625, 0.447998046875, 0.05517578125, 0, 
82, 1474192800, 0.7419715, -0.34181356, -0.439404, -0.37358528, 9.056726455688477, -1.6215704679489136, 3.7420852184295654, 0.41882529854774475, -0.2448062300682068, 0.8190365433692932, -1.012939453125, 0.447509765625, 0.0537109375, 0, 
83, 1474209467, 0.7419056, -0.34197623, -0.4394192, -0.37354946, 9.052424430847168, -1.664007306098938, 3.73160719871521, -0.6968574523925781, -0.6438648104667664, 1.0488463640213013, -1.013427734375, 0.447509765625, 0.055908203125, 0, 
84, 1474226134, 0.7418733, -0.34204882, -0.43943205, -0.373532, 9.019007682800293, -1.6976689100265503, 3.719233512878418, -0.10936622321605682, -0.2771422266960144, 0.8220971822738647, -1.013427734375, 0.447021484375, 0.056396484375, 0, 
85, 1474242801, 0.741808, -0.34214216, -0.43947825, -0.37352192, 9.072638511657715, -1.6790480613708496, 3.720978260040283, 0.17234143614768982, -0.6621778011322021, 0.8497204780578613, -1.014404296875, 0.447021484375, 0.05712890625, 0, 
86, 1474259468, 0.74171656, -0.34227306, -0.4395273, -0.3735259, 9.056906700134277, -1.6546496152877808, 3.7375547885894775, 0.12605930864810944, -0.8645823001861572, 0.9174660444259644, -1.01513671875, 0.450439453125, 0.05322265625, 0, 
87, 1474276135, 0.7417002, -0.34236825, -0.43961427, -0.37336865, 9.087613105773926, -1.6617566347122192, 3.7192554473876953, -0.19427229464054108, -0.8658371567726135, 1.2118711471557617, -1.01220703125, 0.446044921875, 0.055908203125, 0, 
88, 1474292802, 0.74165684, -0.34250957, -0.43961167, -0.37332833, 9.071552276611328, -1.6485062837600708, 3.7164485454559326, -0.35040736198425293, -0.4772157669067383, 1.200230360031128, -1.0107421875, 0.44580078125, 0.0537109375, 0, 
89, 1474309469, 0.7416458, -0.3426071, -0.43959302, -0.37328264, 9.080400466918945, -1.6554207801818848, 3.718899726867676, -0.4353006184101105, -0.12496435642242432, 1.0717058181762695, -1.0126953125, 0.44921875, 0.055419921875, 0, 
90, 1474326136, 0.7416722, -0.34266147, -0.43953112, -0.37325326, 9.10806655883789, -1.658858060836792, 3.735670566558838, -0.4546253979206085, 0.39390406012535095, 0.9896682500839233, -1.013916015625, 0.44873046875, 0.0576171875, 0, 
91, 1474342803, 0.74167645, -0.34271264, -0.4394069, -0.37334424, 9.081835746765137, -1.6413030624389648, 3.7239019870758057, -0.5053385496139526, 0.8352365493774414, 0.672621488571167, -1.012451171875, 0.44482421875, 0.0546875, 0, 
92, 1474359470, 0.74166924, -0.3427409, -0.4392791, -0.3734829, 9.051309585571289, -1.6499203443527222, 3.6999571323394775, -0.6324543952941895, 1.0025643110275269, 0.31784722208976746, -1.01513671875, 0.446533203125, 0.05712890625, 0, 
93, 1474376137, 0.7416428, -0.3427561, -0.4391147, -0.37371463, 9.06210708618164, -1.632844090461731, 3.697391986846924, -0.747096836566925, 1.33899986743927, -0.054401371628046036, -1.01513671875, 0.44775390625, 0.056640625, 0, 
94, 1474392804, 0.74160445, -0.3427479, -0.43893638, -0.37400758, 9.076550483703613, -1.6183809041976929, 3.6932380199432373, -0.9231072068214417, 1.5920405387878418, -0.44876009225845337, -1.013916015625, 0.446044921875, 0.056396484375, 0, 
95, 1474409471, 0.74157065, -0.34270173, -0.43875694, -0.37432748, 9.097184181213379, -1.613235354423523, 3.7090487480163574, -0.8606380224227905, 1.7877856492996216, -0.7041571140289307, -1.015625, 0.446533203125, 0.055419921875, 0, 
96, 1474426138, 0.7415423, -0.3426098, -0.43857723, -0.37467816, 9.117975234985352, -1.6295284032821655, 3.7116849422454834, -0.6129503846168518, 1.9804701805114746, -0.9344409704208374, -1.01220703125, 0.44873046875, 0.055419921875, 0, 
97, 1474442805, 0.74156475, -0.3424752, -0.43839613, -0.37496853, 9.114423751831055, -1.6320831775665283, 3.704516649246216, -0.6036016941070557, 2.2162222862243652, -0.8284940123558044, -1.015625, 0.44921875, 0.055419921875, 0, 
98, 1474459472, 0.7415848, -0.34231043, -0.4382551, -0.3752441, 9.093938827514648, -1.6364296674728394, 3.7172508239746094, -0.34645020961761475, 2.0602407455444336, -0.9541755318641663, -1.01513671875, 0.44482421875, 0.054931640625, 0, 
99, 1474476139, 0.74163866, -0.34207246, -0.43810487, -0.37552997, 9.097016334533691, -1.6185550689697266, 3.7035675048828125, 0.4277000427246094, 2.3496768474578857, -0.9566470980644226, -1.0146484375, 0.44384765625, 0.0537109375, 0, 
100, 1474492806, 0.741697, -0.34178057, -0.43798804, -0.37581664, 9.084967613220215, -1.6273199319839478, 3.6926238536834717, 1.107832431793213, 2.27860164642334, -1.05100417137146, -1.01513671875, 0.445556640625, 0.050048828125, 0, 
101, 1474509473, 0.74178076, -0.3414423, -0.4379289, -0.37602752, 9.081223487854004, -1.562730312347412, 3.7259204387664795, 1.4035311937332153, 2.086916446685791, -1.0285292863845825, -1.0146484375, 0.446044921875, 0.050537109375, 0, 
102, 1474526140, 0.74189216, -0.3410623, -0.43789735, -0.37618956, 9.084537506103516, -1.5609244108200073, 3.756243944168091, 1.5936286449432373, 2.086660385131836, -1.0177719593048096, -1.0146484375, 0.443359375, 0.051025390625, 0, 
103, 1474542807, 0.74200773, -0.34068334, -0.43783227, -0.37638062, 9.068872451782227, -1.5708181858062744, 3.749756336212158, 1.7725974321365356, 2.267742156982422, -0.9169474840164185, -1.016357421875, 0.445068359375, 0.050537109375, 0, 
104, 1474559474, 0.74217725, -0.34028587, -0.43772888, -0.3765265, 9.087959289550781, -1.5583593845367432, 3.7401418685913086, 1.8385629653930664, 2.6090312004089355, -0.5852373838424683, -1.013671875, 0.445556640625, 0.047607421875, 0, 
105, 1474576141, 0.742414, -0.33984518, -0.43758726, -0.37662226, 9.054770469665527, -1.548187255859375, 3.7542598247528076, 2.060253620147705, 3.048647880554199, -0.2772446572780609, -1.016357421875, 0.4423828125, 0.0478515625, 0, 
106, 1474592808, 0.7426617, -0.33940503, -0.43741918, -0.37672585, 9.02705192565918, -1.5122312307357788, 3.7154688835144043, 2.3590643405914307, 3.162944793701172, -0.059485506266355515, -1.018798828125, 0.443603515625, 0.04296875, 0, 
107, 1474609475, 0.7429312, -0.33895978, -0.43721926, -0.37682733, 9.006682395935059, -1.5128401517868042, 3.745837688446045, 2.3251144886016846, 3.4129114151000977, 0.06325696408748627, -1.0166015625, 0.4423828125, 0.046142578125, 0, 
108, 1474626142, 0.7432137, -0.33849254, -0.43701878, -0.37692282, 9.011402130126953, -1.5153647661209106, 3.79259991645813, 2.4684557914733887, 3.5034520626068115, 0.06657380610704422, -1.017822265625, 0.44287109375, 0.042236328125, 0, 
109, 1474642809, 0.7434817, -0.33803344, -0.43685114, -0.3770005, 9.043187141418457, -1.5206687450408936, 3.8020832538604736, 2.4288337230682373, 3.2526791095733643, 0.03202228248119354, -1.013916015625, 0.441162109375, 0.04150390625, 0, 
110, 1474659476, 0.74373007, -0.3376654, -0.43660626, -0.37712434, 9.070403099060059, -1.480495572090149, 3.919589042663574, 1.4110485315322876, 3.4943344593048096, 0.1356256604194641, -1.017333984375, 0.440673828125, 0.038330078125, 0, 
111, 1474676143, 0.7440205, -0.3372075, -0.4363388, -0.37727097, 9.066204071044922, -1.4993565082550049, 3.8543808460235596, 2.103705406188965, 3.966952085494995, 0.038976121693849564, -1.015625, 0.4423828125, 0.03564453125, 0, 
112, 1474692810, 0.74420244, -0.3368922, -0.43627056, -0.37727243, 8.975051879882812, -1.4316235780715942, 3.7584261894226074, 1.4738636016845703, 2.03352689743042, 0.2143334597349167, -1.016845703125, 0.439697265625, 0.037841796875, 0, 
113, 1474709477, 0.7443011, -0.33681804, -0.436033, -0.37741834, 9.031034469604492, -1.5597646236419678, 3.895204544067383, -0.1993180364370346, 2.2422573566436768, 0.6629015207290649, -1.016357421875, 0.44140625, 0.03466796875, 0, 
114, 1474726144, 0.7445225, -0.33667046, -0.43568537, -0.3775151, 8.944205284118652, -1.4916102886199951, 3.8231797218322754, -0.006044596899300814, 3.314225435256958, 1.1289373636245728, -1.01953125, 0.44091796875, 0.037353515625, 0, 
115, 1474742811, 0.7446007, -0.3367234, -0.4354969, -0.37753078, 8.944829940795898, -1.5027978420257568, 3.865434408187866, -0.289679616689682, 1.2817682027816772, 1.5971118211746216, -1.016845703125, 0.44189453125, 0.037841796875, 0, 
116, 1474759478, 0.7445693, -0.33695158, -0.43545157, -0.37744188, 8.996938705444336, -1.4637703895568848, 3.8054163455963135, -0.9324303269386292, -0.4435351490974426, 1.97402822971344, -1.016357421875, 0.4423828125, 0.03515625, 0, 
117, 1474776145, 0.7446012, -0.33703348, -0.43549266, -0.3772582, 9.02139949798584, -1.5839462280273438, 3.8268561363220215, 0.10750288516283035, -0.46188658475875854, 1.8354761600494385, -1.016845703125, 0.44189453125, 0.0361328125, 0, 
118, 1474792812, 0.7446228, -0.33708802, -0.43557987, -0.377066, 9.012060165405273, -1.5859366655349731, 3.829108476638794, 0.69124835729599, -0.7352509498596191, 1.8104976415634155, -1.017333984375, 0.444091796875, 0.03515625, 0, 
119, 1474809479, 0.7446365, -0.33720252, -0.43570846, -0.37678793, 9.028792381286621, -1.527413010597229, 3.796109676361084, 0.36120954155921936, -1.2501816749572754, 2.1536505222320557, -1.0166015625, 0.444091796875, 0.038330078125, 0, 
120, 1474826146, 0.74467057, -0.33732176, -0.4357841, -0.37652624, 9.057807922363281, -1.5470693111419678, 3.804386615753174, 0.45881304144859314, -0.9372966289520264, 2.383876323699951, -1.016357421875, 0.444091796875, 0.03515625, 0, 
121, 1474842813, 0.7447428, -0.33740398, -0.4357894, -0.37630352, 9.075105667114258, -1.5347105264663696, 3.809426784515381, 0.5516271591186523, -0.29236897826194763, 2.3901195526123047, -1.017333984375, 0.444580078125, 0.03857421875, 0, 
122, 1474859480, 0.7447997, -0.33750442, -0.43577248, -0.37612045, 9.04200553894043, -1.5081007480621338, 3.810155153274536, 0.2581440210342407, -0.17756006121635437, 2.269970417022705, -1.01904296875, 0.443603515625, 0.037353515625, 0, 
123, 1474876147, 0.7448365, -0.33764386, -0.4357008, -0.37600544, 9.016352653503418, -1.4581499099731445, 3.785485029220581, -0.3755718469619751, 0.11231809854507446, 2.1063437461853027, -1.0166015625, 0.44677734375, 0.037353515625, 0, 
124, 1474892814, 0.7448206, -0.33779296, -0.43566963, -0.37593922, 8.979429244995117, -1.485068678855896, 3.826958417892456, -0.6933485865592957, -0.13926903903484344, 1.62077796459198, -1.013427734375, 0.446533203125, 0.03662109375, 0, 
125, 1474909481, 0.74476933, -0.33795664, -0.435642, -0.3759258, 8.992704391479492, -1.4699554443359375, 3.8499419689178467, -1.1813088655471802, -0.1408698409795761, 1.2264704704284668, -1.0166015625, 0.445556640625, 0.037841796875, 0, 
126, 1474926148, 0.74463385, -0.3382001, -0.4355771, -0.37605035, 9.054765701293945, -1.4446046352386475, 3.8363070487976074, -2.1473302841186523, -0.1183178573846817, 0.7072626948356628, -1.017822265625, 0.443603515625, 0.036376953125, 0, 
127, 1474942815, 0.7444477, -0.33853096, -0.43538073, -0.37634847, 9.095734596252441, -1.4791741371154785, 3.8338568210601807, -3.262251138687134, 0.520289957523346, 0.4090540409088135, -1.016845703125, 0.4462890625, 0.036376953125, 0, 
128, 1474959482, 0.7442659, -0.3387919, -0.4352678, -0.37660375, 9.052506446838379, -1.502016305923462, 3.7917826175689697, -3.0644190311431885, 0.2927339971065521, 0.02303222194314003, -1.014404296875, 0.445068359375, 0.038330078125, 0, 
129, 1474976149, 0.74409103, -0.3390422, -0.43510723, -0.37690932, 9.043831825256348, -1.5157345533370972, 3.867241382598877, -3.1643853187561035, 0.6850053071975708, -0.07907921075820923, -1.018310546875, 0.443603515625, 0.0380859375, 0, 
130, 1474992816, 0.74380034, -0.33948842, -0.43490946, -0.3773095, 9.042152404785156, -1.505815029144287, 3.8524625301361084, -4.517850399017334, 0.1812034696340561, -0.04696089029312134, -1.01513671875, 0.444580078125, 0.0361328125, 0, 
131, 1475009483, 0.74354196, -0.33982036, -0.4347662, -0.37768483, 9.014871597290039, -1.5994746685028076, 3.8146347999572754, -3.9843251705169678, 0.30701306462287903, -0.4468136131763458, -1.018798828125, 0.445556640625, 0.041748046875, 0, 
132, 1475026150, 0.7432173, -0.340226, -0.43464094, -0.37810296, 9.013707160949707, -1.5676751136779785, 3.8288135528564453, -4.402234077453613, -0.1120939701795578, -0.5658614039421082, -1.017822265625, 0.44677734375, 0.03857421875, 0, 
133, 1475042817, 0.7429279, -0.34056216, -0.4345669, -0.37845373, 9.033031463623047, -1.5370515584945679, 3.7933151721954346, -3.8452351093292236, -0.20189215242862701, -0.5486882328987122, -1.017333984375, 0.44189453125, 0.0390625, 0, 
134, 1475059484, 0.74263936, -0.34091243, -0.43445995, -0.3788274, 9.033334732055664, -1.5322068929672241, 3.803483009338379, -3.895193338394165, -0.04726824536919594, -0.4552402198314667, -1.017822265625, 0.444091796875, 0.03857421875, 0, 
135, 1475076151, 0.7423926, -0.34124044, -0.43430963, -0.37918797, 9.055009841918945, -1.562814712524414, 3.7841193675994873, -3.8888022899627686, 0.35536983609199524, -0.2939954400062561, -1.014404296875, 0.443359375, 0.038818359375, 0, 
136, 1475092818, 0.74223685, -0.3415043, -0.4341379, -0.37945205, 9.059632301330566, -1.579538345336914, 3.7834980487823486, -3.7123939990997314, 0.7990842461585999, 0.04382973164319992, -1.0146484375, 0.440185546875, 0.038818359375, 0, 
137, 1475109485, 0.7420759, -0.3417851, -0.4339298, -0.3797516, 9.050642967224121, -1.5884501934051514, 3.8121116161346436, -3.085984230041504, 0.8295761346817017, 0.39281558990478516, -1.018310546875, 0.445068359375, 0.0380859375, 0, 
138, 1475126152, 0.74197674, -0.3419936, -0.4337731, -0.3799366, 9.018684387207031, -1.5618864297866821, 3.790642023086548, -2.538987159729004, 0.7618305683135986, 0.6143782734870911, -1.0166015625, 0.445068359375, 0.040771484375, 0, 
139, 1475142819, 0.74192375, -0.34212, -0.43366942, -0.38004458, 9.049552917480469, -1.5685886144638062, 3.7939438819885254, -1.9590771198272705, 0.7274775505065918, 0.6303926110267639, -1.0166015625, 0.444091796875, 0.0400390625, 0, 
140, 1475159486, 0.74188226, -0.34218115, -0.43361464, -0.38013312, 9.061342239379883, -1.5610336065292358, 3.805001735687256, -1.4106578826904297, 0.6392866373062134, 0.4588451087474823, -1.01611328125, 0.44287109375, 0.041259765625, 0, 
141, 1475176153, 0.7418547, -0.3421648, -0.43358755, -0.38023272, 9.059170722961426, -1.582051157951355, 3.802628755569458, -0.9303300380706787, 0.7671067118644714, 0.15767817199230194, -1.01611328125, 0.441162109375, 0.0400390625, 0, 
142, 1475192820, 0.74184304, -0.3420706, -0.43353423, -0.38040087, 9.091943740844727, -1.561936855316162, 3.790827512741089, -0.3833964765071869, 1.2402501106262207, -0.1473754644393921, -1.01708984375, 0.44287109375, 0.042236328125, 0, 
143, 1475209487, 0.7419284, -0.3418572, -0.43342683, -0.3805487, 9.126280784606934, -1.566035509109497, 3.769397258758545, 0.3046182096004486, 2.087928295135498, -0.03909778594970703, -1.0166015625, 0.443359375, 0.0400390625, 0, 
144, 1475226154, 0.74213845, -0.34149662, -0.43328482, -0.38062477, 9.10595989227295, -1.6079638004302979, 3.732992649078369, 1.1431139707565308, 2.924464702606201, 0.1577422171831131, -1.01953125, 0.4423828125, 0.040771484375, 0, 
145, 1475242821, 0.74241245, -0.3410509, -0.43313807, -0.38065675, 9.091730117797852, -1.726953387260437, 3.682343006134033, 2.2761435508728027, 3.1827433109283447, 0.5021947026252747, -1.017333984375, 0.444091796875, 0.037353515625, 0, 
146, 1475259488, 0.74282485, -0.34042096, -0.43304384, -0.3805236, 9.138717651367188, -1.8462859392166138, 3.6595513820648193, 3.5029022693634033, 3.5669467449188232, 0.73537278175354, -1.01904296875, 0.44189453125, 0.0380859375, 0, 
147, 1475276155, 0.74334043, -0.33957046, -0.4328907, -0.3804505, 9.129152297973633, -1.8309255838394165, 3.6220104694366455, 5.310275554656982, 4.758129119873047, 0.5055627822875977, -1.01904296875, 0.44140625, 0.03466796875, 0, 
148, 1475292822, 0.7439744, -0.33846876, -0.43277082, -0.38032955, 9.08797836303711, -1.8309112787246704, 3.593728542327881, 6.977893829345703, 5.529111385345459, 0.16901186108589172, -1.019287109375, 0.44140625, 0.031982421875, 0, 
149, 1475309489, 0.74472183, -0.33710465, -0.43269995, -0.380159, 9.081398963928223, -1.8558735847473145, 3.598548412322998, 8.816642761230469, 6.217312335968018, -0.20867951214313507, -1.01708984375, 0.439208984375, 0.03076171875, 0, 
150, 1475326156, 0.7455096, -0.3355635, -0.43274644, -0.3799251, 8.95671558380127, -1.8835418224334717, 3.656078577041626, 10.534379959106445, 6.031883239746094, -0.4940371811389923, -1.02099609375, 0.44091796875, 0.028076171875, 0, 
151, 1475342823, 0.74618936, -0.33405033, -0.43299344, -0.3796428, 8.735578536987305, -1.7263840436935425, 3.7187514305114746, 10.728280067443848, 4.531515598297119, -0.9655221700668335, -1.02001953125, 0.4404296875, 0.024169921875, 0, 
152, 1475359490, 0.7466737, -0.33258763, -0.43351254, -0.37938237, 8.735063552856445, -1.6125811338424683, 3.78348445892334, 10.580886840820312, 2.4961442947387695, -2.1132023334503174, -1.0205078125, 0.44091796875, 0.02197265625, 0, 
153, 1475376157, 0.74694693, -0.33126372, -0.43423203, -0.37917992, 8.794354438781738, -1.4702184200286865, 3.843179225921631, 9.6663818359375, 0.6265700459480286, -3.046541690826416, -1.016845703125, 0.439697265625, 0.017578125, 0, 
154, 1475392824, 0.7470561, -0.33010525, -0.43504137, -0.37904727, 8.835165977478027, -1.3766692876815796, 3.895042896270752, 8.065549850463867, -0.5202836990356445, -3.7247531414031982, -1.020751953125, 0.43994140625, 0.019775390625, 0, 
155, 1475409491, 0.7469454, -0.32922733, -0.43592465, -0.3790145, 8.8363618850708, -1.209312915802002, 3.988208770751953, 6.145325660705566, -2.087153911590576, -4.072137832641602, -1.01953125, 0.437255859375, 0.019287109375, 0, 
156, 1475426158, 0.74654764, -0.32879525, -0.43685257, -0.37910473, 8.882295608520508, -1.1042687892913818, 4.156264305114746, 3.119658946990967, -4.0974555015563965, -4.121723175048828, -1.021240234375, 0.437744140625, 0.018798828125, 0, 
157, 1475442825, 0.745939, -0.32879168, -0.43765247, -0.37938333, 8.921226501464844, -1.072762131690979, 4.293304443359375, -0.6379484534263611, -4.748889923095703, -4.117587566375732, -1.02294921875, 0.43408203125, 0.021484375, 0, 
158, 1475459492, 0.74510765, -0.32904556, -0.43853208, -0.3797806, 8.86917781829834, -1.020002007484436, 4.1758131980896, -2.446755886077881, -6.286471366882324, -4.60553503036499, -1.0234375, 0.435546875, 0.023681640625, 0, 
159, 1475476159, 0.7439987, -0.33002955, -0.4392098, -0.38031757, 8.958674430847168, -1.0711389780044556, 4.2837042808532715, -8.25537395477295, -7.6153764724731445, -3.580503225326538, -1.021728515625, 0.433349609375, 0.021484375, 0, 
160, 1475492826, 0.7429171, -0.33110273, -0.4396529, -0.38098627, 8.975635528564453, -1.119367241859436, 4.272966384887695, -9.73904037475586, -6.281068801879883, -3.3895347118377686, -1.0234375, 0.43017578125, 0.028076171875, 0, 
161, 1475509493, 0.7417124, -0.3325518, -0.43992758, -0.38175398, 9.009570121765137, -1.064310908317566, 4.318822860717773, -12.512710571289062, -6.607607364654541, -2.592160940170288, -1.026123046875, 0.431396484375, 0.02978515625, 0, 
162, 1475526160, 0.7404456, -0.33406162, -0.44021755, -0.38255987, 9.121866226196289, -1.1135940551757812, 4.253249168395996, -13.330741882324219, -6.925065040588379, -2.8994624614715576, -1.02587890625, 0.426513671875, 0.036376953125, 0, 
163, 1475542827, 0.7391948, -0.33557403, -0.44038692, -0.3834589, 9.120028495788574, -1.2043591737747192, 4.217459201812744, -13.234936714172363, -6.194538593292236, -2.7223501205444336, -1.02587890625, 0.428955078125, 0.040283203125, 0, 
164, 1475559494, 0.7381065, -0.33683035, -0.44061133, -0.3841953, 9.114253044128418, -1.2457293272018433, 4.1858439445495605, -11.607605934143066, -5.589962005615234, -2.648725986480713, -1.02685546875, 0.42578125, 0.040771484375, 0, 
165, 1475576161, 0.73709273, -0.33802396, -0.44079524, -0.3848817, 9.147132873535156, -1.204617977142334, 4.1003313064575195, -10.946066856384277, -5.152868747711182, -2.2208526134490967, -1.025146484375, 0.42529296875, 0.04296875, 0, 
166, 1475592828, 0.73624355, -0.33905306, -0.44092166, -0.3854564, 9.108894348144531, -1.1872076988220215, 4.01592493057251, -9.982183456420898, -4.130254745483398, -1.749886155128479, -1.025146484375, 0.423095703125, 0.044677734375, 0, 
167, 1475609495, 0.7355048, -0.3399764, -0.44095436, -0.38601574, 9.12051773071289, -1.225585699081421, 3.947549343109131, -9.271339416503906, -3.1111626625061035, -1.4087116718292236, -1.02880859375, 0.42578125, 0.05078125, 0, 
168, 1475626162, 0.73487645, -0.34077165, -0.4409014, -0.38657108, 9.096220016479492, -1.2490785121917725, 3.8758013248443604, -8.24679183959961, -2.0827226638793945, -1.127240777015686, -1.026611328125, 0.424072265625, 0.049072265625, 0, 
169, 1475642829, 0.73429054, -0.3415862, -0.44084188, -0.3870332, 9.026329040527344, -1.2333556413650513, 3.7610697746276855, -8.041980743408203, -2.1895153522491455, -0.48165982961654663, -1.0283203125, 0.423583984375, 0.05517578125, 0, 
170, 1475659496, 0.7336841, -0.34247598, -0.44081628, -0.3874258, 9.01287841796875, -1.2299925088882446, 3.7437610626220703, -8.007697105407715, -2.8162829875946045, 0.04876018315553665, -1.02880859375, 0.422119140625, 0.0556640625, 0, 
171, 1475676163, 0.7330612, -0.34336773, -0.4408927, -0.38772863, 9.000908851623535, -1.2649154663085938, 3.6942009925842285, -7.27577543258667, -3.6420626640319824, 0.3376074433326721, -1.025390625, 0.4208984375, 0.05712890625, 0, 
172, 1475692830, 0.73245984, -0.34423447, -0.44100866, -0.3879647, 9.092119216918945, -1.3259186744689941, 3.6823482513427734, -7.0587077140808105, -3.822260618209839, 0.4648001492023468, -1.026611328125, 0.423095703125, 0.056640625, 0, 
173, 1475709497, 0.73189545, -0.3451369, -0.44112116, -0.3881002, 9.12099552154541, -1.3142842054367065, 3.6625783443450928, -7.227316856384277, -3.964052677154541, 1.040355920791626, -1.027099609375, 0.42138671875, 0.058837890625, 0, 
174, 1475726164, 0.7313486, -0.3460098, -0.44126436, -0.38819104, 9.138324737548828, -1.3081318140029907, 3.5879392623901367, -6.6928300857543945, -4.109993934631348, 1.2144455909729004, -1.0263671875, 0.42138671875, 0.063720703125, 0, 
175, 1475742831, 0.7307856, -0.34691933, -0.4413849, -0.38830233, 9.19224739074707, -1.3005176782608032, 3.6420369148254395, -6.541804790496826, -4.177316665649414, 1.449057936668396, -1.02734375, 0.423095703125, 0.0654296875, 0, 
176, 1475759498, 0.7303092, -0.3477181, -0.441558, -0.38828763, 9.20369815826416, -1.3082417249679565, 3.5692195892333984, -5.7083539962768555, -4.101143836975098, 1.6821461915969849, -1.02685546875, 0.42138671875, 0.06494140625, 0, 
177, 1475776165, 0.72975904, -0.3487262, -0.44165713, -0.38830516, 9.202717781066895, -1.3866719007492065, 3.603959560394287, -6.952287197113037, -4.478996276855469, 2.2609424591064453, -1.025146484375, 0.42138671875, 0.068115234375, 0, 
178, 1475792832, 0.7292879, -0.34963992, -0.44172916, -0.3882867, 9.155316352844238, -1.4389142990112305, 3.5806918144226074, -6.158279895782471, -3.951848030090332, 2.4767675399780273, -1.026123046875, 0.42138671875, 0.068115234375, 0, 
179, 1475809499, 0.728865, -0.35050458, -0.4418217, -0.38819587, 9.171926498413086, -1.4594833850860596, 3.591939687728882, -5.843449115753174, -3.889507293701172, 2.6475789546966553, -1.025146484375, 0.419677734375, 0.0693359375, 0, 
180, 1475826166, 0.72845227, -0.35136542, -0.44184512, -0.38816616, 9.112645149230957, -1.4516968727111816, 3.5454232692718506, -5.467748641967773, -3.4804975986480713, 2.8063390254974365, -1.02490234375, 0.420654296875, 0.072021484375, 0, 
181, 1475842833, 0.7281169, -0.3521553, -0.4418017, -0.38812873, 9.160634994506836, -1.5103098154067993, 3.5682411193847656, -5.322665691375732, -2.692958116531372, 2.9055113792419434, -1.027099609375, 0.423583984375, 0.0732421875, 0, 
182, 1475859500, 0.7278637, -0.35283914, -0.4417305, -0.3880634, 9.16637897491455, -1.5241373777389526, 3.555896759033203, -4.879655361175537, -2.0341992378234863, 2.896073341369629, -1.023681640625, 0.423828125, 0.0751953125, 0, 
183, 1475876167, 0.7276842, -0.3534521, -0.44162312, -0.38796464, 9.169270515441895, -1.5015618801116943, 3.53265643119812, -4.654339790344238, -1.463112711906433, 3.0116631984710693, -1.022705078125, 0.42333984375, 0.076416015625, 0, 
184, 1475892834, 0.72755235, -0.3539786, -0.44146743, -0.38790873, 9.190974235534668, -1.5216777324676514, 3.528015375137329, -4.1113386154174805, -0.7844786643981934, 2.8830363750457764, -1.024658203125, 0.4267578125, 0.076416015625, 0, 
185, 1475909501, 0.72749174, -0.35438526, -0.44133314, -0.38780394, 9.16611099243164, -1.507638931274414, 3.53416109085083, -3.569027900695801, -0.3931293785572052, 2.735084295272827, -1.023681640625, 0.426025390625, 0.077392578125, 0, 
186, 1475926168, 0.7274212, -0.3547521, -0.4412055, -0.38774627, 9.174556732177734, -1.4688806533813477, 3.5458781719207764, -3.4236621856689453, -0.2487633377313614, 2.3774540424346924, -1.0224609375, 0.426513671875, 0.07958984375, 0, 
187, 1475942835, 0.72734654, -0.35505182, -0.44106343, -0.38777375, 9.171819686889648, -1.4775019884109497, 3.526906967163086, -3.2936267852783203, 0.1797819584608078, 1.8182393312454224, -1.0224609375, 0.427734375, 0.0791015625, 0, 
188, 1475959502, 0.72727287, -0.355296, -0.44091317, -0.38785893, 9.190711975097656, -1.4521633386611938, 3.534682273864746, -3.2978782653808594, 0.5295490026473999, 1.3578252792358398, -1.02294921875, 0.426025390625, 0.080322265625, 0, 
189, 1475976169, 0.72716796, -0.35553205, -0.44074303, -0.3880329, 9.184289932250977, -1.4502323865890503, 3.54483699798584, -3.176755905151367, 0.6873999834060669, 1.0460673570632935, -1.02294921875, 0.426025390625, 0.080810546875, 0, 
190, 1475992836, 0.7270833, -0.35570055, -0.4405762, -0.38822648, 9.16386890411377, -1.4550367593765259, 3.5531485080718994, -3.0064311027526855, 0.991768479347229, 0.7332211136817932, -1.019775390625, 0.42431640625, 0.07958984375, 0, 
191, 1476009503, 0.7270291, -0.35580492, -0.44037163, -0.3884642, 9.162110328674316, -1.4595106840133667, 3.496663808822632, -2.8250932693481445, 1.5475767850875854, 0.5067791938781738, -1.021484375, 0.426513671875, 0.077392578125, 0, 
192, 1476026170, 0.7270131, -0.3558285, -0.4401976, -0.3886699, 9.127574920654297, -1.4569659233093262, 3.54252290725708, -2.6704823970794678, 1.747829556465149, 0.2586306035518646, -1.02197265625, 0.425048828125, 0.077392578125, 0, 
193, 1476042837, 0.72698456, -0.35584193, -0.43999025, -0.38894573, 9.11627197265625, -1.4629771709442139, 3.5380282402038574, -2.354806423187256, 1.9627654552459717, 0.16220524907112122, -1.024169921875, 0.427734375, 0.079833984375, 0, 
194, 1476059504, 0.7270092, -0.35579947, -0.43979096, -0.38916376, 9.136981010437012, -1.4692785739898682, 3.576967716217041, -2.046877384185791, 2.147080659866333, 0.2975875437259674, -1.023681640625, 0.426025390625, 0.077392578125, 0, 
195, 1476076171, 0.7270741, -0.35571432, -0.43958, -0.38935876, 9.134743690490723, -1.46161687374115, 3.546298027038574, -1.7735130786895752, 2.399967670440674, 0.3934815227985382, -1.02197265625, 0.42333984375, 0.077880859375, 0, 
196, 1476092838, 0.7271344, -0.35565746, -0.4393322, -0.3895776, 9.148458480834961, -1.4582148790359497, 3.597086191177368, -1.7489761114120483, 2.488382577896118, 0.5755109786987305, -1.020263671875, 0.42431640625, 0.077392578125, 0, 
197, 1476109505, 0.72721666, -0.35560477, -0.43906784, -0.3897705, 9.145757675170898, -1.4507943391799927, 3.6022655963897705, -1.8940846920013428, 2.6005659103393555, 0.7436711192131042, -1.019775390625, 0.427001953125, 0.076171875, 0, 
198, 1476126172, 0.72737944, -0.35551602, -0.43878824, -0.3898621, 9.144302368164062, -1.45101797580719, 3.6313133239746094, -1.9252169132232666, 2.8937292098999023, 1.1457905769348145, -1.023193359375, 0.425537109375, 0.076904296875, 0, 
199, 1476142839, 0.7275354, -0.35547423, -0.43846488, -0.38997293, 9.122639656066895, -1.4900697469711304, 3.618394374847412, -1.7733465433120728, 2.9028091430664062, 1.5042787790298462, -1.0224609375, 0.426025390625, 0.078125, 0, 
200, 1476159506, 0.72769153, -0.35546333, -0.43816695, -0.3900267, 9.110111236572266, -1.4887818098068237, 3.6153690814971924, -1.6339749097824097, 2.5434370040893555, 1.8459646701812744, -1.021484375, 0.42431640625, 0.076171875, 0, 
201, 1476176173, 0.7278258, -0.35551295, -0.43786463, -0.39007023, 9.133082389831543, -1.4997315406799316, 3.647444486618042, -1.77744460105896, 2.274555206298828, 2.1089179515838623, -1.022216796875, 0.42333984375, 0.07080078125, 0, 
202, 1476192840, 0.727996, -0.3555144, -0.43755066, -0.39010367, 9.110304832458496, -1.51173734664917, 3.626985549926758, -1.5844014883041382, 2.568486213684082, 2.091141939163208, -1.021484375, 0.4287109375, 0.072509765625, 0, 
203, 1476209507, 0.72819996, -0.35546786, -0.4372679, -0.39008245, 9.11178970336914, -1.5036026239395142, 3.628833293914795, -1.4594371318817139, 2.5907821655273438, 2.072970151901245, -1.02197265625, 0.429443359375, 0.072021484375, 0, 
204, 1476226174, 0.7284228, -0.3554811, -0.43687394, -0.3900957, 9.138508796691895, -1.5346887111663818, 3.7267589569091797, -2.379535436630249, 3.179208755493164, 2.300283193588257, -1.02099609375, 0.429931640625, 0.072021484375, 0, 
205, 1476242841, 0.7286999, -0.3552567, -0.43666795, -0.39001322, 9.082256317138672, -1.5138800144195557, 3.5817532539367676, -0.1693255603313446, 2.7824676036834717, 1.7934460639953613, -1.022216796875, 0.42724609375, 0.072021484375, 0, 
206, 1476259508, 0.7287576, -0.35544518, -0.43638706, -0.39004815, 9.07542896270752, -1.4965482950210571, 3.6617207527160645, -3.0353617668151855, 1.6257855892181396, 2.145979642868042, -1.02001953125, 0.4287109375, 0.069580078125, 0, 
207, 1476276175, 0.72897047, -0.3553816, -0.43604153, -0.3900948, 9.108144760131836, -1.6019424200057983, 3.640456438064575, -2.0496816635131836, 3.20430850982666, 1.7378023862838745, -1.01953125, 0.42822265625, 0.068603515625, 0, 
208, 1476292842, 0.7291628, -0.35537165, -0.43564698, -0.39018527, 9.07453727722168, -1.515270471572876, 3.6265432834625244, -2.2107152938842773, 3.2706267833709717, 1.9075188636779785, -1.021728515625, 0.4287109375, 0.067626953125, 0, 
209, 1476309509, 0.7292413, -0.3554621, -0.4354109, -0.39021963, 9.087186813354492, -1.5158556699752808, 3.607105255126953, -2.615325450897217, 1.7714704275131226, 1.713918685913086, -1.023193359375, 0.429443359375, 0.071044921875, 0, 
210, 1476326176, 0.7292839, -0.35556328, -0.43523964, -0.39023885, 9.09001636505127, -1.5572952032089233, 3.6297695636749268, -2.340155601501465, 1.2375608682632446, 1.6438167095184326, -1.021728515625, 0.429931640625, 0.068603515625, 0, 
211, 1476342843, 0.7293342, -0.3555214, -0.43515658, -0.39027554, 9.059584617614746, -1.5770717859268188, 3.6828720569610596, -1.2179861068725586, 1.2060058116912842, 1.0201600790023804, -1.021484375, 0.429443359375, 0.0693359375, 0, 
212, 1476359510, 0.72932935, -0.35550937, -0.43513155, -0.39032343, 9.087693214416504, -1.5123450756072998, 3.680940628051758, -1.660368800163269, 0.7504841089248657, 0.6493523716926575, -1.023681640625, 0.427734375, 0.071044921875, 0, 
213, 1476376177, 0.7292782, -0.3555073, -0.43509176, -0.39046538, 9.123223304748535, -1.5187504291534424, 3.691425085067749, -1.6411207914352417, 0.7896330952644348, 0.3157597482204437, -1.023193359375, 0.43212890625, 0.072021484375, 0, 
214, 1476392844, 0.7292698, -0.35544807, -0.43500984, -0.39062628, 9.142624855041504, -1.5073442459106445, 3.675266981124878, -1.826147198677063, 1.4052214622497559, 0.12089835107326508, -1.022705078125, 0.42822265625, 0.0693359375, 0, 
215, 1476409511, 0.7293206, -0.3553098, -0.4348224, -0.39086586, 9.152650833129883, -1.5344830751419067, 3.679985284805298, -1.5717233419418335, 2.4712605476379395, -0.0014343110378831625, -1.021728515625, 0.427734375, 0.067626953125, 0, 
216, 1476426178, 0.7293726, -0.3551802, -0.4345803, -0.39115575, 9.0958890914917, -1.512756586074829, 3.660207509994507, -1.7732822895050049, 2.8212578296661377, -0.031401168555021286, -1.021484375, 0.430419921875, 0.06982421875, 0, 
217, 1476442845, 0.7294815, -0.35501954, -0.43434024, -0.3913648, 9.085016250610352, -1.5238862037658691, 3.676198959350586, -1.857163667678833, 2.9897124767303467, 0.18491727113723755, -1.021484375, 0.430419921875, 0.068603515625, 0, 
218, 1476459512, 0.7296091, -0.35482356, -0.43411353, -0.39155653, 9.079344749450684, -1.5610748529434204, 3.71016788482666, -1.417547583580017, 3.0051701068878174, 0.2394595444202423, -1.0234375, 0.427734375, 0.067626953125, 0, 
219, 1476476179, 0.72971886, -0.35464126, -0.43391064, -0.39174202, 9.083512306213379, -1.5649956464767456, 3.715070962905884, -1.1393424272537231, 2.719575881958008, 0.32098478078842163, -1.02001953125, 0.4287109375, 0.06640625, 0, 
220, 1476492846, 0.7298525, -0.35443085, -0.43372425, -0.39188996, 9.11255168914795, -1.5517815351486206, 3.7433369159698486, -1.055588960647583, 2.7432544231414795, 0.34760916233062744, -1.0224609375, 0.42724609375, 0.063232421875, 0, 
221, 1476509513, 0.7300355, -0.35413194, -0.4335498, -0.3920123, 9.082178115844727, -1.5762470960617065, 3.6932990550994873, -0.18847103416919708, 2.967186450958252, 0.3911891281604767, -1.0234375, 0.42822265625, 0.0654296875, 0, 
222, 1476526180, 0.73023045, -0.35377988, -0.43348235, -0.3920413, 9.068282127380371, -1.5757442712783813, 3.7435731887817383, 0.2613071799278259, 2.4620144367218018, 0.30173683166503906, -1.0234375, 0.4267578125, 0.06494140625, 0, 
223, 1476542847, 0.7304762, -0.3532946, -0.43348932, -0.39201343, 9.050339698791504, -1.5225962400436401, 3.7072553634643555, 1.8660835027694702, 2.373420000076294, 0.3204596936702728, -1.02392578125, 0.43115234375, 0.062744140625, 0, 
224, 1476559514, 0.73062176, -0.3530321, -0.4335289, -0.3919348, 9.04827880859375, -1.5521396398544312, 3.7448325157165527, 0.20539464056491852, 1.2918083667755127, 0.6851204633712769, -1.02197265625, 0.426025390625, 0.060302734375, 0, 
225, 1476576181, 0.7308141, -0.3526166, -0.43366733, -0.39179724, 9.017220497131348, -1.598859190940857, 3.7425596714019775, 1.6378105878829956, 1.1809567213058472, 0.44561612606048584, -1.02197265625, 0.4267578125, 0.06103515625, 0, 
226, 1476592848, 0.73092127, -0.3523045, -0.43386188, -0.39166263, 9.068123817443848, -1.5322858095169067, 3.7679195404052734, 1.502575397491455, 0.2852422297000885, 0.5547518134117126, -1.020263671875, 0.426025390625, 0.060791015625, 0, 
227, 1476609515, 0.73108184, -0.3519352, -0.4340858, -0.39144656, 9.030194282531738, -1.4975454807281494, 3.7205355167388916, 1.8201985359191895, 0.33426496386528015, 0.6929323673248291, -1.024169921875, 0.428955078125, 0.060546875, 0, 
228, 1476626182, 0.73121536, -0.35162058, -0.43428698, -0.39125696, 9.036288261413574, -1.5115083456039429, 3.7291343212127686, 1.3651378154754639, 0.27895432710647583, 0.7219899892807007, -1.024169921875, 0.42724609375, 0.058349609375, 0, 
229, 1476642849, 0.73135453, -0.35133263, -0.43447247, -0.39104956, 9.054381370544434, -1.512946367263794, 3.714869499206543, 1.056069254875183, 0.2972801923751831, 0.8597862720489502, -1.02294921875, 0.428955078125, 0.058837890625, 0, 
230, 1476659516, 0.7314537, -0.35111728, -0.43464395, -0.3908669, 9.051300048828125, -1.4898046255111694, 3.735808849334717, 0.6715585589408875, 0.07815074920654297, 0.9610844850540161, -1.0224609375, 0.42822265625, 0.062744140625, 0, 
231, 1476676183, 0.73149467, -0.3510143, -0.43480194, -0.39070714, 9.030614852905273, -1.4877220392227173, 3.752154588699341, 0.033366940915584564, -0.30909404158592224, 1.1234049797058105, -1.020751953125, 0.430419921875, 0.060302734375, 0, 
232, 1476692850, 0.7315402, -0.3509298, -0.43502432, -0.39045, 9.045209884643555, -1.482269048690796, 3.7737231254577637, -0.40688976645469666, -0.7483838200569153, 1.1992379426956177, -1.01806640625, 0.429931640625, 0.05810546875, 0, 
233, 1476709517, 0.7315304, -0.3509286, -0.43520355, -0.3902695, 9.062095642089844, -1.478431224822998, 3.7783620357513428, -0.8758776187896729, -0.8197985291481018, 1.1994876861572266, -1.0185546875, 0.42822265625, 0.06201171875, 0, 
234, 1476726184, 0.73147994, -0.35097712, -0.43535137, -0.3901557, 9.063115119934082, -1.5095338821411133, 3.7897891998291016, -1.169629454612732, -0.823089599609375, 1.1123403310775757, -1.0234375, 0.428955078125, 0.0615234375, 0, 
235, 1476742851, 0.7313901, -0.3510796, -0.43548182, -0.39008644, 9.075206756591797, -1.4689997434616089, 3.78521990776062, -1.761692762374878, -0.8866604566574097, 0.9664376378059387, -1.021240234375, 0.4287109375, 0.063720703125, 0, 
236, 1476759518, 0.7312724, -0.3512046, -0.4355888, -0.3900748, 9.08397388458252, -1.4653996229171753, 3.798722505569458, -2.19062876701355, -0.7730552554130554, 0.7229248285293579, -1.02392578125, 0.430419921875, 0.062744140625, 0, 
237, 1476776185, 0.73115396, -0.351316, -0.43569803, -0.3900746, 9.098895072937012, -1.4335254430770874, 3.779486894607544, -2.5087637901306152, -0.6586177349090576, 0.4782339036464691, -1.0224609375, 0.430419921875, 0.0615234375, 0, 
238, 1476792852, 0.731026, -0.3514552, -0.43575954, -0.3901204, 9.064865112304688, -1.484782099723816, 3.7694473266601562, -2.979999303817749, -0.40448862314224243, 0.41150006651878357, -1.024658203125, 0.4267578125, 0.059326171875, 0, 
239, 1476809519, 0.7308304, -0.35166344, -0.43579373, -0.39026114, 9.06983470916748, -1.5118417739868164, 3.7729380130767822, -3.2793986797332764, -0.5390704274177551, 0.2520609200000763, -1.020751953125, 0.42822265625, 0.06201171875, 0, 
240, 1476826186, 0.73066473, -0.35181177, -0.43583897, -0.3903871, 9.112035751342773, -1.5157519578933716, 3.7400736808776855, -3.3635618686676025, -0.2802669405937195, -0.01037314347922802, -1.02392578125, 0.428466796875, 0.063232421875, 0, 
241, 1476842853, 0.7304727, -0.3519641, -0.43584514, -0.39060214, 9.087778091430664, -1.5095120668411255, 3.742300271987915, -3.583997964859009, -0.005532343406230211, -0.3274455666542053, -1.02294921875, 0.42724609375, 0.063720703125, 0, 
242, 1476859520, 0.7302617, -0.35210267, -0.4358262, -0.39089274, 9.102422714233398, -1.533125400543213, 3.7087252140045166, -3.5428895950317383, 0.2215050309896469, -0.6129759550094604, -1.02392578125, 0.427734375, 0.066650390625, 0, 
243, 1476876187, 0.7300886, -0.35221362, -0.43581223, -0.3911317, 9.10558032989502, -1.5570905208587646, 3.6936542987823486, -3.5022802352905273, 0.3276824355125427, -0.4919174909591675, -1.021240234375, 0.427734375, 0.063232421875, 0, 
244, 1476892854, 0.7299505, -0.35228524, -0.43581957, -0.39131653, 9.071428298950195, -1.5773481130599976, 3.714270830154419, -3.3301119804382324, 0.3623364567756653, -0.42501717805862427, -1.0234375, 0.427734375, 0.066650390625, 0, 
245, 1476909521, 0.72983015, -0.35235712, -0.43583795, -0.39145595, 9.076715469360352, -1.594137191772461, 3.69008469581604, -2.9858901500701904, 0.22224780917167664, -0.12604010105133057, -1.021728515625, 0.42822265625, 0.063720703125, 0, 
246, 1476926188, 0.7297497, -0.35237208, -0.4358818, -0.39154378, 9.09070873260498, -1.5957943201065063, 3.66684627532959, -2.3819940090179443, 0.24196958541870117, 0.008663496002554893, -1.022705078125, 0.42822265625, 0.06591796875, 0, 
247, 1476942855, 0.7297082, -0.3523658, -0.43596303, -0.39153633, 9.087716102600098, -1.6392239332199097, 3.643233060836792, -2.0828888416290283, 0.05440777912735939, 0.3142998516559601, -1.021728515625, 0.426025390625, 0.0654296875, 0, 
248, 1476959522, 0.7296834, -0.3523557, -0.43602777, -0.3915196, 9.096083641052246, -1.629757285118103, 3.643223524093628, -1.6620721817016602, 0.10512092709541321, 0.5785588622093201, -1.022216796875, 0.425537109375, 0.06689453125, 0, 
249, 1476976189, 0.72970337, -0.35230458, -0.43610448, -0.39144287, 9.088979721069336, -1.6020394563674927, 3.616682767868042, -1.044140100479126, 0.12996524572372437, 0.8787908554077148, -1.0234375, 0.4267578125, 0.06494140625, 0, 
250, 1476992856, 0.7297436, -0.35233828, -0.4360773, -0.39136782, 9.084582328796387, -1.57345712184906, 3.7108724117279053, -1.6911299228668213, 0.4881972670555115, 1.4338182210922241, -1.0234375, 0.424072265625, 0.0654296875, 0, 
251, 1477009523, 0.729845, -0.3522651, -0.43606022, -0.39126384, 9.087899208068848, -1.6212018728256226, 3.685015916824341, -0.6749203205108643, 0.7962028384208679, 1.4792166948318481, -1.021240234375, 0.42724609375, 0.06591796875, 0, 
252, 1477026190, 0.7299283, -0.35216945, -0.43625426, -0.39097795, 9.049463272094727, -1.5560139417648315, 3.5742263793945312, -0.11573097854852676, -0.5782195329666138, 1.5139473676681519, -1.021728515625, 0.425537109375, 0.0654296875, 0, 
253, 1477042857, 0.7299395, -0.35228425, -0.43627974, -0.39082497, 9.11113452911377, -1.6771855354309082, 3.704878091812134, -1.7930809259414673, -0.2652834951877594, 1.8509849309921265, -1.0234375, 0.426025390625, 0.067138671875, 0, 
254, 1477059524, 0.7300997, -0.3522109, -0.43620342, -0.39067718, 9.082904815673828, -1.5864754915237427, 3.664243698120117, -0.7050408720970154, 1.1975408792495728, 1.9271957874298096, -1.0234375, 0.427734375, 0.063720703125, 0, 
255, 1477076191, 0.7302493, -0.35213003, -0.43628335, -0.39038098, 9.063566207885742, -1.5887902975082397, 3.640854597091675, -0.35380101203918457, 0.14429554343223572, 2.030747652053833, -1.02001953125, 0.42724609375, 0.06640625, 0, 
256, 1477092858, 0.7302827, -0.35224256, -0.43641233, -0.39007276, 9.07342529296875, -1.5800328254699707, 3.6532130241394043, -0.9202643632888794, -1.0949301719665527, 2.4470696449279785, -1.022216796875, 0.42822265625, 0.06494140625, 0, 
257, 1477109525, 0.73039657, -0.3521834, -0.4366668, -0.38962775, 9.053092002868652, -1.6131384372711182, 3.662114381790161, 0.5766122937202454, -1.2950165271759033, 2.4051029682159424, -1.02001953125, 0.4287109375, 0.063720703125, 0, 
258, 1477126192, 0.73048156, -0.35206676, -0.43701613, -0.38918194, 9.067092895507812, -1.5896211862564087, 3.6834447383880615, 0.9532087445259094, -1.6851236820220947, 1.8902621269226074, -1.02099609375, 0.4287109375, 0.067626953125, 0, 
259, 1477142859, 0.73049706, -0.35200024, -0.4373646, -0.3888214, 9.119367599487305, -1.495636224746704, 3.6523261070251465, 0.6561141014099121, -1.890716791152954, 1.5750466585159302, -1.022216796875, 0.42724609375, 0.06640625, 0, 
260, 1477159526, 0.73055047, -0.3518727, -0.43761766, -0.38855165, 9.13827133178711, -1.5232630968093872, 3.6578168869018555, 0.6410538554191589, -0.9346842765808105, 1.313528060913086, -1.0205078125, 0.431396484375, 0.068115234375, 0, 
261, 1477176193, 0.73066515, -0.35167637, -0.43786624, -0.3882338, 9.140881538391113, -1.5565929412841797, 3.6583144664764404, 0.38668137788772583, -0.49166139960289, 1.1749889850616455, -1.0234375, 0.428955078125, 0.067626953125, 0, 
262, 1477192860, 0.7307452, -0.35152233, -0.43802297, -0.38804564, 9.120769500732422, -1.489606261253357, 3.643857002258301, -0.02521570213139057, -0.03177255392074585, 0.9824326634407043, -1.01953125, 0.430908203125, 0.06591796875, 0, 
263, 1477209527, 0.73080987, -0.351385, -0.43809476, -0.3879672, 9.11259651184082, -1.5020779371261597, 3.6312928199768066, -0.553938627243042, 0.5429443717002869, 0.7171875238418579, -1.02001953125, 0.42822265625, 0.065185546875, 0, 
264, 1477226194, 0.7308528, -0.3512481, -0.43811086, -0.3879922, 9.1107759475708, -1.5588903427124023, 3.6153016090393066, -0.8547341227531433, 0.9658100008964539, 0.35700902342796326, -1.0205078125, 0.430908203125, 0.0654296875, 0, 
265, 1477242861, 0.7309195, -0.3510636, -0.43816382, -0.38797382, 9.101322174072266, -1.5582598447799683, 3.6623616218566895, -1.0908066034317017, 1.0210567712783813, 0.1023547574877739, -1.022216796875, 0.431640625, 0.067626953125, 0, 
266, 1477259528, 0.73093987, -0.35095733, -0.4381572, -0.38803908, 9.11860179901123, -1.5550332069396973, 3.6718544960021973, -1.5780366659164429, 1.0928233861923218, 0.10877072066068649, -1.022216796875, 0.429931640625, 0.06640625, 0, 
267, 1477276195, 0.73093975, -0.35089102, -0.4381294, -0.3881305, 9.110284805297852, -1.5611268281936646, 3.654822826385498, -1.998008370399475, 1.0998669862747192, 0.07520529627799988, -1.01953125, 0.430419921875, 0.06689453125, 0, 
268, 1477292862, 0.7309164, -0.35085934, -0.43816665, -0.38816118, 9.12420654296875, -1.5228111743927002, 3.6904287338256836, -2.061361312866211, 0.500798761844635, 0.1914101094007492, -1.023193359375, 0.428955078125, 0.068115234375, 0, 
269, 1477309529, 0.73094887, -0.3507283, -0.43820915, -0.38817054, 9.097514152526855, -1.5502583980560303, 3.6927378177642822, -1.3018038272857666, 0.8469928503036499, 0.14718979597091675, -1.02392578125, 0.430419921875, 0.0654296875, 0, 
270, 1477326196, 0.7308611, -0.35081142, -0.43821412, -0.38825476, 9.12250804901123, -1.545162320137024, 3.6651289463043213, -2.8153865337371826, 0.24745070934295654, 0.2621139883995056, -1.02392578125, 0.431640625, 0.067138671875, 0, 
271, 1477342863, 0.73084533, -0.35071838, -0.4382793, -0.3882951, 9.10170841217041, -1.5736804008483887, 3.6174933910369873, -1.5009552240371704, 0.5336213111877441, -0.015726197510957718, -1.01953125, 0.42822265625, 0.068603515625, 0, 
272, 1477359530, 0.73077065, -0.3507471, -0.4383375, -0.38834408, 9.108891487121582, -1.5684889554977417, 3.671009063720703, -2.424037218093872, 0.1119915321469307, 0.11140244454145432, -1.02099609375, 0.429443359375, 0.06689453125, 0, 
273, 1477376197, 0.7307064, -0.3507285, -0.43843248, -0.3883745, 9.086735725402832, -1.5099917650222778, 3.6611576080322266, -1.7529842853546143, -0.007017879281193018, 0.1043909564614296, -1.01953125, 0.42822265625, 0.06640625, 0, 
274, 1477392864, 0.73059887, -0.35077313, -0.43853652, -0.38841912, 9.10728645324707, -1.544104814529419, 3.672346353530884, -2.1511852741241455, -0.32665157318115234, 0.1041988655924797, -1.018310546875, 0.4287109375, 0.065185546875, 0, 
275, 1477409531, 0.73053896, -0.3507673, -0.43866366, -0.38839358, 9.130875587463379, -1.5695949792861938, 3.646371603012085, -2.1914865970611572, -0.20590050518512726, 0.10354574024677277, -1.0234375, 0.430908203125, 0.06591796875, 0, 
276, 1477426198, 0.7304928, -0.35076848, -0.43876147, -0.38836887, 9.121405601501465, -1.5601935386657715, 3.6433749198913574, -2.2340805530548096, -0.041620638221502304, 0.24181590974330902, -1.022216796875, 0.42822265625, 0.06640625, 0, 
277, 1477442865, 0.7304273, -0.35082555, -0.4388289, -0.38836393, 9.132314682006836, -1.5378345251083374, 3.6501827239990234, -2.459677219390869, -0.09151417762041092, 0.4244600832462311, -1.022216796875, 0.430419921875, 0.068115234375, 0, 
278, 1477459532, 0.73039854, -0.3508522, -0.43887922, -0.38833728, 9.127110481262207, -1.559568166732788, 3.630270004272461, -2.3562533855438232, 0.1625574231147766, 0.5213785767555237, -1.02099609375, 0.42822265625, 0.068115234375, 0, 
279, 1477476199, 0.73033375, -0.35088915, -0.4389761, -0.3883163, 9.133495330810547, -1.5497524738311768, 3.6511783599853516, -2.2311222553253174, -0.22199809551239014, 0.3738109767436981, -1.02392578125, 0.42333984375, 0.068115234375, 0, 
280, 1477492866, 0.7302467, -0.35094032, -0.43906894, -0.38832885, 9.100377082824707, -1.5267759561538696, 3.6225123405456543, -1.6706523895263672, -0.3747778534889221, 0.5102242827415466, -1.02099609375, 0.427734375, 0.068115234375, 0, 
281, 1477509533, 0.73019207, -0.35095742, -0.43920892, -0.3882578, 9.113520622253418, -1.5266468524932861, 3.624877452850342, -1.392767310142517, -0.5584337115287781, 0.6670891046524048, -1.022216796875, 0.42724609375, 0.068603515625, 0, 
282, 1477526200, 0.73016936, -0.35096982, -0.43930125, -0.38818488, 9.111530303955078, -1.4921011924743652, 3.6232919692993164, -1.4604873657226562, -0.20470952987670898, 0.8416525721549988, -1.022216796875, 0.4267578125, 0.068603515625, 0, 
283, 1477542867, 0.73009944, -0.35102126, -0.4394615, -0.38808843, 9.116362571716309, -1.5059006214141846, 3.6467440128326416, -1.6007168292999268, -0.8321822285652161, 0.7547613978385925, -1.022216796875, 0.4287109375, 0.07080078125, 0, 
284, 1477559534, 0.72996265, -0.3511411, -0.43972623, -0.38793737, 9.134523391723633, -1.4814687967300415, 3.672483205795288, -1.9280601739883423, -1.8233424425125122, 0.7016279101371765, -1.022216796875, 0.42724609375, 0.0693359375, 0, 
285, 1477576201, 0.7297919, -0.35130584, -0.4399445, -0.3878621, 9.112055778503418, -1.4917048215866089, 3.6707851886749268, -2.144679307937622, -1.713348627090454, 0.6569465398788452, -1.018798828125, 0.4287109375, 0.0703125, 0, 
286, 1477592868, 0.72965413, -0.35142845, -0.44016016, -0.3877656, 9.129334449768066, -1.504516363143921, 3.6226747035980225, -2.2142179012298584, -1.4634199142456055, 0.5716434121131897, -1.019775390625, 0.427001953125, 0.07470703125, 0, 
287, 1477609535, 0.729512, -0.35152498, -0.44038627, -0.38768882, 9.142904281616211, -1.5158504247665405, 3.6319713592529297, -1.9079668521881104, -1.4531620740890503, 0.43565279245376587, -1.02197265625, 0.427734375, 0.072509765625, 0, 
288, 1477626202, 0.72937924, -0.35161301, -0.4405778, -0.38764104, 9.152566909790039, -1.4774224758148193, 3.616281270980835, -1.9917718172073364, -1.164161205291748, 0.3881668746471405, -1.023681640625, 0.42724609375, 0.072509765625, 0, 
289, 1477642869, 0.7292496, -0.35170272, -0.44074225, -0.38761678, 9.155224800109863, -1.4926412105560303, 3.642592191696167, -2.232940912246704, -0.9479900598526001, 0.3116873502731323, -1.023681640625, 0.42724609375, 0.07421875, 0, 
290, 1477659536, 0.7291252, -0.35180932, -0.4408717, -0.3876068, 9.132917404174805, -1.505723476409912, 3.6262621879577637, -2.3692898750305176, -0.7827240824699402, 0.4203236401081085, -1.021484375, 0.426025390625, 0.072998046875, 0, 
291, 1477676203, 0.7289828, -0.35195923, -0.44097918, -0.38761607, 9.135957717895508, -1.4794254302978516, 3.611351251602173, -2.6981828212738037, -0.8049559593200684, 0.48000115156173706, -1.021484375, 0.42431640625, 0.07421875, 0, 
292, 1477692870, 0.72876126, -0.3522091, -0.44108692, -0.38768315, 9.11991024017334, -1.4837110042572021, 3.6347756385803223, -3.335413932800293, -1.2155147790908813, 0.37148022651672363, -1.023681640625, 0.425537109375, 0.076416015625, 0, 
293, 1477709537, 0.7285485, -0.35244617, -0.44119465, -0.38774493, 9.135390281677246, -1.5104320049285889, 3.5832107067108154, -3.3053314685821533, -1.1551839113235474, 0.35597169399261475, -1.020263671875, 0.427001953125, 0.078369140625, 0, 
294, 1477726204, 0.72836345, -0.3526496, -0.4413401, -0.3877422, 9.113900184631348, -1.537292718887329, 3.610428810119629, -3.1798038482666016, -1.2521920204162598, 0.4033679664134979, -1.024169921875, 0.4287109375, 0.07470703125, 0, 
295, 1477742871, 0.7281902, -0.35285932, -0.4414653, -0.3877344, 9.16046142578125, -1.5291712284088135, 3.605498790740967, -3.3053956031799316, -1.128495454788208, 0.5008371472358704, -1.021728515625, 0.427734375, 0.080810546875, 0, 
296, 1477759538, 0.7281001, -0.35292912, -0.4415738, -0.38771632, 9.15654468536377, -1.5772688388824463, 3.588010311126709, -2.424370288848877, -0.44388091564178467, 0.3809441328048706, -1.02294921875, 0.42822265625, 0.07958984375, 0, 
297, 1477776205, 0.72804785, -0.3528096, -0.4418871, -0.38756642, 9.107601165771484, -1.5339871644973755, 3.4065117835998535, -0.3758791983127594, -1.1812705993652344, 0.09496548771858215, -1.019775390625, 0.426025390625, 0.078369140625, 0, 
298, 1477792872, 0.7278285, -0.35306495, -0.4420799, -0.38752592, 9.150492668151855, -1.578887701034546, 3.5915818214416504, -3.1788690090179443, -1.8384026288986206, 0.5839887857437134, -1.020751953125, 0.425537109375, 0.077392578125, 0, 
299, 1477809539, 0.72786397, -0.35295388, -0.44214028, -0.38749146, 9.084637641906738, -1.4885042905807495, 3.510744333267212, -0.9390128254890442, 0.5589139461517334, 0.5017336010932922, -1.021240234375, 0.426513671875, 0.080078125, 0, 
300, 1477826206, 0.7277847, -0.35310915, -0.44221306, -0.387416, 9.048288345336914, -1.53428316116333, 3.5987937450408936, -2.700385570526123, -0.6014118194580078, 1.0590275526046753, -1.0224609375, 0.42724609375, 0.076416015625, 0, 
301, 1477842873, 0.7276133, -0.3533462, -0.44250822, -0.3871846, 9.10430908203125, -1.495732069015503, 3.542273759841919, -2.4913086891174316, -2.552125930786133, 1.2214504480361938, -1.01904296875, 0.4248046875, 0.0810546875, 0, 
302, 1477859540, 0.7274566, -0.35352823, -0.44283456, -0.38693997, 9.127705574035645, -1.57736337184906, 3.536381483078003, -1.486881136894226, -2.6540517807006836, 1.3009395599365234, -1.021728515625, 0.426513671875, 0.081298828125, 0, 
303, 1477876207, 0.727305, -0.35361296, -0.44324985, -0.38667184, 9.133618354797363, -1.5608943700790405, 3.5397090911865234, -0.8922184705734253, -2.8421390056610107, 0.8362995982170105, -1.021728515625, 0.423828125, 0.08447265625, 0, 
304, 1477892874, 0.72712666, -0.3537617, -0.4435898, -0.3864812, 9.168259620666504, -1.4922878742218018, 3.581986427307129, -1.2721061706542969, -2.6097424030303955, 0.9178632497787476, -1.0224609375, 0.425537109375, 0.082275390625, 0, 
305, 1477909541, 0.7269781, -0.35387516, -0.44390425, -0.38629574, 9.174161911010742, -1.487286925315857, 3.593278169631958, -1.3674876689910889, -2.2384986877441406, 0.8325728178024292, -1.0224609375, 0.423828125, 0.081298828125, 0, 
306, 1477926208, 0.7268385, -0.35396922, -0.44416037, -0.3861775, 9.195788383483887, -1.501103401184082, 3.573967218399048, -1.4445308446884155, -1.7371686697006226, 0.6660262942314148, -1.021728515625, 0.427001953125, 0.08349609375, 0, 
307, 1477942875, 0.726732, -0.3540028, -0.44439387, -0.38607877, 9.16861343383789, -1.4905445575714111, 3.535858154296875, -1.754085898399353, -1.2102642059326172, 0.3151194453239441, -1.02001953125, 0.427001953125, 0.082763671875, 0, 
308, 1477959542, 0.72662944, -0.35400972, -0.44463682, -0.3859859, 9.16524600982666, -1.5088207721710205, 3.540762186050415, -1.8085256814956665, -1.1228864192962646, 0.1154172345995903, -1.021240234375, 0.425537109375, 0.08447265625, 0, 
309, 1477976209, 0.726499, -0.354034, -0.44485274, -0.3859603, 9.142399787902832, -1.5333107709884644, 3.533599376678467, -1.850786566734314, -1.0288493633270264, -0.029493024572730064, -1.02001953125, 0.426513671875, 0.086669921875, 0, 
310, 1477992876, 0.72634745, -0.35407498, -0.44505906, -0.38596985, 9.108120918273926, -1.5452789068222046, 3.5355465412139893, -1.8789604902267456, -1.0509531497955322, -0.09197521209716797, -1.021728515625, 0.42431640625, 0.08837890625, 0, 
311, 1478009543, 0.72619635, -0.35413963, -0.44523355, -0.38599384, 9.16191577911377, -1.5028047561645508, 3.5072951316833496, -2.1212055683135986, -0.9187788367271423, -0.020669449120759964, -1.021728515625, 0.426513671875, 0.083984375, 0, 
312, 1478026210, 0.72610253, -0.3541848, -0.4453482, -0.38599637, 9.166757583618164, -1.5488839149475098, 3.5180652141571045, -2.440326690673828, -0.36181777715682983, 0.15985527634620667, -1.022216796875, 0.42431640625, 0.087890625, 0, 
313, 1478042877, 0.72599703, -0.35421267, -0.44552487, -0.38596544, 9.133233070373535, -1.542413353919983, 3.467194080352783, -1.7672505378723145, -0.8064925670623779, 0.21644650399684906, -1.02099609375, 0.42529296875, 0.0888671875, 0, 
314, 1478059544, 0.72597396, -0.3542174, -0.44554418, -0.3859822, 9.137663841247559, -1.557066559791565, 3.5475780963897705, -1.9183272123336792, 0.3908945918083191, 0.5470551252365112, -1.021728515625, 0.421630859375, 0.086669921875, 0, 
315, 1478076211, 0.7258882, -0.3543572, -0.4456165, -0.38593182, 9.123289108276367, -1.5664156675338745, 3.5721628665924072, -2.2469382286071777, -0.6168434619903564, 1.0500503778457642, -1.0205078125, 0.422607421875, 0.0888671875, 0, 
316, 1478092878, 0.7258368, -0.3544154, -0.44574168, -0.38583037, 9.11247730255127, -1.619868278503418, 3.487508773803711, -1.5607353448867798, -0.6674028635025024, 0.9781681299209595, -1.021728515625, 0.4248046875, 0.08740234375, 0, 
317, 1478109545, 0.7257715, -0.35454926, -0.44585466, -0.38569987, 9.10822868347168, -1.6005041599273682, 3.512153148651123, -2.1490721702575684, -0.8783746361732483, 1.2620337009429932, -1.021728515625, 0.425537109375, 0.085693359375, 0, 
318, 1478126212, 0.7257717, -0.3545873, -0.44598567, -0.38551286, 9.124566078186035, -1.5557154417037964, 3.5102908611297607, -1.4446202516555786, -0.6243094205856323, 1.322940707206726, -1.02099609375, 0.42529296875, 0.08837890625, 0, 
319, 1478142879, 0.7257824, -0.35465124, -0.4460494, -0.38536006, 9.112927436828613, -1.5743999481201172, 3.473050832748413, -1.5706093311309814, -0.2909218668937683, 1.5182377099990845, -1.021484375, 0.426025390625, 0.090087890625, 0, 
320, 1478159546, 0.7258183, -0.35470504, -0.44606066, -0.38522986, 9.09273910522461, -1.5826364755630493, 3.504767894744873, -1.7082774639129639, 0.137661874294281, 1.5486655235290527, -1.01953125, 0.42529296875, 0.0888671875, 0, 
321, 1478176213, 0.72589976, -0.35469797, -0.44609064, -0.38504812, 9.10661792755127, -1.5688663721084595, 3.4955556392669678, -1.4057531356811523, 0.2781347632408142, 1.5717170238494873, -1.02001953125, 0.426025390625, 0.0888671875, 0, 
322, 1478192880, 0.7259905, -0.35468948, -0.44610503, -0.3848683, 9.10137939453125, -1.6010187864303589, 3.5140457153320312, -1.3331027030944824, 0.3738621771335602, 1.6546636819839478, -1.017822265625, 0.423583984375, 0.08935546875, 0, 
323, 1478209547, 0.7260602, -0.35468197, -0.44612575, -0.3847195, 9.087884902954102, -1.6152291297912598, 3.503797769546509, -1.0018662214279175, 0.2651618421077728, 1.5997241735458374, -1.019287109375, 0.427490234375, 0.091064453125, 0, 
324, 1478226214, 0.7261357, -0.35463277, -0.4462137, -0.38452035, 9.106234550476074, -1.606299877166748, 3.487419605255127, -0.8824599385261536, 0.01370919682085514, 1.410920262336731, -1.02001953125, 0.42578125, 0.090576171875, 0, 
325, 1478242881, 0.72619146, -0.3545705, -0.44630277, -0.38436913, 9.134698867797852, -1.5811543464660645, 3.482520341873169, -0.6754196882247925, 0.03637643903493881, 1.1973233222961426, -1.02099609375, 0.426513671875, 0.090576171875, 0, 
326, 1478259548, 0.7262428, -0.35450032, -0.4464014, -0.38422233, 9.118131637573242, -1.610206127166748, 3.482065200805664, -0.6649441123008728, 0.010943025350570679, 1.1034270524978638, -1.021484375, 0.4248046875, 0.090576171875, 0, 
327, 1478276215, 0.7262492, -0.35447165, -0.4465285, -0.3840889, 9.111245155334473, -1.5779411792755127, 3.511540412902832, -0.7766153812408447, -0.3762505352497101, 1.030904769897461, -1.01708984375, 0.427001953125, 0.092529296875, 0, 
328, 1478292882, 0.72626317, -0.354429, -0.44671607, -0.3838838, 9.136432647705078, -1.5750579833984375, 3.5199553966522217, -0.7918677926063538, -0.7055786848068237, 1.0427762269973755, -1.02099609375, 0.42822265625, 0.08837890625, 0, 
329, 1478309549, 0.72628975, -0.35433373, -0.44691762, -0.3836867, 9.161378860473633, -1.5936108827590942, 3.5346906185150146, -0.6207494735717773, -0.5552064776420593, 0.7932061553001404, -1.017333984375, 0.42626953125, 0.087646484375, 0, 
330, 1478326216, 0.7263027, -0.3542293, -0.44710252, -0.38354325, 9.147215843200684, -1.6081184148788452, 3.5391571521759033, -0.4849892258644104, -0.4222893714904785, 0.6260319948196411, -1.0205078125, 0.426513671875, 0.08935546875, 0, 
331, 1478342883, 0.7263156, -0.35413608, -0.44723982, -0.38344488, 9.157855987548828, -1.6156201362609863, 3.532203197479248, -0.636040210723877, -0.13724566996097565, 0.605311393737793, -1.018798828125, 0.427978515625, 0.087646484375, 0, 
332, 1478359550, 0.7263815, -0.35395867, -0.44739679, -0.38330072, 9.1516752243042, -1.5920705795288086, 3.555025577545166, -0.5518320202827454, 0.15660883486270905, 0.4260160028934479, -1.01953125, 0.42529296875, 0.0888671875, 0, 
333, 1478376217, 0.7264361, -0.3537911, -0.44752312, -0.38320443, 9.134588241577148, -1.5686782598495483, 3.498535633087158, -0.2992459535598755, 0.26153767108917236, 0.4611758291721344, -1.02001953125, 0.4248046875, 0.090087890625, 0, 
334, 1478392884, 0.7264421, -0.35366875, -0.447645, -0.3831636, 9.13585090637207, -1.5702840089797974, 3.517611026763916, -0.5520432591438293, 0.0981798768043518, 0.3049127757549286, -1.01904296875, 0.42529296875, 0.087158203125, 0, 
335, 1478409551, 0.7264796, -0.35348278, -0.44778195, -0.38310403, 9.16125202178955, -1.5756518840789795, 3.4794065952301025, -0.2842497229576111, 0.2827577590942383, 0.16934475302696228, -1.02099609375, 0.426513671875, 0.090576171875, 0, 
336, 1478426218, 0.72651327, -0.3532833, -0.4479433, -0.38303566, 9.147090911865234, -1.5741788148880005, 3.513504981994629, -0.2330627292394638, 0.18023015558719635, 0.059184543788433075, -1.021728515625, 0.426513671875, 0.0888671875, 0, 
337, 1478442885, 0.726539, -0.35312045, -0.44804263, -0.38302088, 9.144143104553223, -1.5632890462875366, 3.539752721786499, -0.6935918927192688, 0.4841632544994354, 0.06241174787282944, -1.02099609375, 0.426513671875, 0.090576171875, 0, 
338, 1478459552, 0.726627, -0.35285065, -0.44810286, -0.3830322, 9.178725242614746, -1.5881835222244263, 3.577784538269043, -0.17663799226284027, 1.2120121717453003, -0.13761703670024872, -1.02099609375, 0.4248046875, 0.0888671875, 0, 
339, 1478476219, 0.72662234, -0.3525277, -0.44847405, -0.38290384, 9.103065490722656, -1.5268255472183228, 3.4178338050842285, 1.1283226013183594, -0.8316059112548828, -0.5991579294204712, -1.0205078125, 0.4248046875, 0.090576171875, 0, 
340, 1478492886, 0.72656053, -0.35244262, -0.44862807, -0.38291898, 9.183035850524902, -1.6043846607208252, 3.558772325515747, -1.1876481771469116, -0.20444056391716003, -0.19824227690696716, -1.021484375, 0.4248046875, 0.091796875, 0, 
341, 1478509553, 0.7266731, -0.35214296, -0.4486363, -0.38297147, 9.143230438232422, -1.5735419988632202, 3.4847946166992188, -0.16395969688892365, 1.7100765705108643, -0.22874701023101807, -1.018798828125, 0.423583984375, 0.091552734375, 0, 
342, 1478526220, 0.72667456, -0.35202232, -0.4486522, -0.38306093, 9.106781959533691, -1.5585572719573975, 3.509546995162964, -1.2217897176742554, 0.9097310304641724, -0.1001584529876709, -1.02099609375, 0.4248046875, 0.0888671875, 0, 
343, 1478542887, 0.7266232, -0.35193577, -0.4488842, -0.38296622, 9.171682357788086, -1.5294280052185059, 3.5198073387145996, -0.7381579875946045, -0.8051095604896545, 0.13278262317180634, -1.019287109375, 0.42578125, 0.091064453125, 0, 
344, 1478559554, 0.7266051, -0.35181165, -0.44914258, -0.3828116, 9.126869201660156, -1.5649018287658691, 3.488985538482666, -0.1913524568080902, -0.887057363986969, 0.35293659567832947, -1.0205078125, 0.422119140625, 0.091552734375, 0, 
345, 1478576221, 0.7265878, -0.35162118, -0.44942728, -0.38268542, 9.116772651672363, -1.562367558479309, 3.498171806335449, 0.4650817811489105, -0.8330529928207397, 0.056674495339393616, -1.021728515625, 0.42333984375, 0.090087890625, 0, 
346, 1478592888, 0.7265972, -0.35141432, -0.44968745, -0.38255176, 9.158702850341797, -1.535298466682434, 3.50693941116333, 0.49004143476486206, -0.590603232383728, 0.148060604929924, -1.0205078125, 0.42431640625, 0.08935546875, 0, 
347, 1478609555, 0.72663707, -0.35118392, -0.44994462, -0.38238516, 9.180052757263184, -1.5409305095672607, 3.4994404315948486, 0.5032318830490112, -0.4522434175014496, 0.228317990899086, -1.022705078125, 0.425537109375, 0.090576171875, 0, 
348, 1478626222, 0.726695, -0.35094845, -0.45017022, -0.3822257, 9.180678367614746, -1.5520131587982178, 3.509779214859009, 0.5198033452033997, -0.21678587794303894, 0.3174757957458496, -1.0205078125, 0.4248046875, 0.08935546875, 0, 
349, 1478642889, 0.7268095, -0.3506562, -0.45036766, -0.38204363, 9.180346488952637, -1.537609577178955, 3.496781587600708, 0.7531606554985046, 0.22349002957344055, 0.40471264719963074, -1.020263671875, 0.426513671875, 0.095458984375, 0, 
350, 1478659556, 0.7269513, -0.3503737, -0.45050773, -0.38186786, 9.165729522705078, -1.5293980836868286, 3.4685800075531006, 0.6530661582946777, 0.5747809410095215, 0.6260576248168945, -1.02099609375, 0.42529296875, 0.0888671875, 0, 
351, 1478676223, 0.72708714, -0.35010755, -0.45063445, -0.3817036, 9.11573600769043, -1.5552188158035278, 3.4855620861053467, 0.5629222393035889, 0.5936830639839172, 0.6697912216186523, -1.0205078125, 0.42529296875, 0.090576171875, 0, 
352, 1478692890, 0.72720975, -0.34985614, -0.45078832, -0.38151887, 9.133296966552734, -1.535286784172058, 3.5037243366241455, 0.44310611486434937, 0.3554082214832306, 0.6556915640830994, -1.0205078125, 0.426025390625, 0.090576171875, 0, 
353, 1478709557, 0.7273343, -0.34960696, -0.45090365, -0.38137347, 9.171257972717285, -1.5137336254119873, 3.525773286819458, 0.35576680302619934, 0.6154667735099792, 0.6178231239318848, -1.018798828125, 0.422119140625, 0.08935546875, 0, 
354, 1478726224, 0.7274522, -0.34939164, -0.4509466, -0.38129514, 9.198460578918457, -1.5213332176208496, 3.5297107696533203, -0.08489328622817993, 1.0045748949050903, 0.5877922177314758, -1.022705078125, 0.42431640625, 0.087890625, 0, 
355, 1478742891, 0.72758687, -0.34912473, -0.45103762, -0.38117495, 9.18740177154541, -1.5030025243759155, 3.509321689605713, 0.407107412815094, 0.8595685362815857, 0.544135332107544, -1.021240234375, 0.4248046875, 0.086181640625, 0, 
356, 1478759558, 0.7278075, -0.34874964, -0.45107347, -0.38105458, 9.176594734191895, -1.51821768283844, 3.557769536972046, 0.9952134490013123, 1.6878063678741455, 0.5673021078109741, -1.022216796875, 0.4228515625, 0.085693359375, 0, 
357, 1478776225, 0.7279486, -0.3485093, -0.45110193, -0.38097143, 9.17071533203125, -1.5017765760421753, 3.5278470516204834, 0.07382220774888992, 1.198770523071289, 0.6282475590705872, -1.02099609375, 0.42529296875, 0.08935546875, 0, 
358, 1478792892, 0.72808206, -0.34825465, -0.4511614, -0.38087884, 9.12153434753418, -1.5355688333511353, 3.5285139083862305, 0.29138925671577454, 1.0237971544265747, 0.556506335735321, -1.021240234375, 0.423828125, 0.086181640625, 0, 
359, 1478809559, 0.7281841, -0.34804198, -0.4512356, -0.38079038, 9.17188835144043, -1.5110597610473633, 3.5417912006378174, 0.11478970944881439, 0.7367557287216187, 0.5795577168464661, -1.022216796875, 0.426025390625, 0.086669921875, 0, 
360, 1478826226, 0.72831374, -0.34779072, -0.45132273, -0.38066858, 9.154142379760742, -1.5047756433486938, 3.5122673511505127, 0.1491747498512268, 0.8411658406257629, 0.5331859588623047, -1.02294921875, 0.42431640625, 0.086181640625, 0, 
361, 1478842893, 0.7284229, -0.34758574, -0.45138544, -0.38057268, 9.167871475219727, -1.5216386318206787, 3.5058939456939697, -0.06618321686983109, 0.8032719492912292, 0.6261345744132996, -1.021240234375, 0.423828125, 0.087158203125, 0, 
362, 1478859560, 0.7285646, -0.34737337, -0.45140296, -0.38047472, 9.18657112121582, -1.5208237171173096, 3.4796154499053955, -0.05779505521059036, 1.1444331407546997, 0.8018119931221008, -1.02099609375, 0.42529296875, 0.08837890625, 0, 
363, 1478876227, 0.7287092, -0.34717172, -0.45143598, -0.38034257, 9.170567512512207, -1.517063021659851, 3.502655029296875, -0.12511804699897766, 0.9965710639953613, 0.9146487712860107, -1.01904296875, 0.4248046875, 0.086181640625, 0, 
364, 1478892894, 0.7288335, -0.34699553, -0.45149538, -0.38019443, 9.165102005004883, -1.5100139379501343, 3.508357286453247, -0.029736345633864403, 0.6688180565834045, 1.0193278789520264, -1.01904296875, 0.42529296875, 0.083984375, 0, 
365, 1478909561, 0.72897273, -0.34680438, -0.45159906, -0.37997878, 9.160130500793457, -1.5028635263442993, 3.5001628398895264, 0.09259631484746933, 0.4246906042098999, 1.1279001235961914, -1.0234375, 0.42431640625, 0.086181640625, 0, 
366, 1478926228, 0.7290708, -0.34666196, -0.45170954, -0.37978935, 9.145735740661621, -1.4868066310882568, 3.5026190280914307, 0.12243511527776718, 0.12513725459575653, 1.175872564315796, -1.02294921875, 0.42431640625, 0.085205078125, 0, 
367, 1478942895, 0.7291474, -0.34651855, -0.45183533, -0.3796236, 9.139985084533691, -1.4851760864257812, 3.4896790981292725, 0.04983590915799141, 0.03915541246533394, 0.9651568531990051, -1.02001953125, 0.4248046875, 0.08447265625, 0, 
368, 1478959562, 0.7292203, -0.34638226, -0.45197707, -0.37943885, 9.152670860290527, -1.4653942584991455, 3.5087850093841553, -0.06076613441109657, -0.08899132907390594, 0.9730584025382996, -1.02001953125, 0.426513671875, 0.087158203125, 0, 
369, 1478976229, 0.7292911, -0.3462767, -0.45208806, -0.37926716, 9.16215705871582, -1.4727169275283813, 3.506255626678467, -0.323449969291687, 0.007773454766720533, 1.078794002532959, -1.020751953125, 0.4248046875, 0.085693359375, 0, 
370, 1478992896, 0.72935325, -0.34617728, -0.45219553, -0.3791101, 9.170702934265137, -1.4922661781311035, 3.5186760425567627, -0.32266879081726074, -6.275111227296293E-4, 1.0477451086044312, -1.01953125, 0.42431640625, 0.087158203125, 0, 
371, 1479009563, 0.72941273, -0.3460853, -0.4522956, -0.3789601, 9.174338340759277, -1.4687743186950684, 3.543858289718628, -0.4130944013595581, 0.026566771790385246, 1.0376536846160889, -1.020751953125, 0.42333984375, 0.0849609375, 0, 
372, 1479026230, 0.7294832, -0.3459961, -0.45234108, -0.37885177, 9.154938697814941, -1.4967025518417358, 3.532745361328125, -0.5582800507545471, 0.40555787086486816, 1.040061354637146, -1.02001953125, 0.423828125, 0.086669921875, 0, 
373, 1479042897, 0.72955585, -0.34591103, -0.4523703, -0.37875468, 9.164608001708984, -1.494112253189087, 3.5217247009277344, -0.6285868883132935, 0.5058316588401794, 1.0461955070495605, -1.021240234375, 0.426513671875, 0.085205078125, 0, 
374, 1479059564, 0.72963756, -0.34583458, -0.45238593, -0.37864837, 9.164907455444336, -1.4881353378295898, 3.5209898948669434, -0.7922905087471008, 0.5791351199150085, 1.1319212913513184, -1.02001953125, 0.42333984375, 0.0849609375, 0, 
375, 1479076231, 0.7297185, -0.34578845, -0.4523756, -0.37854677, 9.155831336975098, -1.4765340089797974, 3.504706382751465, -0.9522929191589355, 0.6261600852012634, 1.2823446989059448, -1.02001953125, 0.427001953125, 0.087158203125, 0, 
376, 1479092898, 0.7297877, -0.34576964, -0.45239332, -0.3784094, 9.139923095703125, -1.4817250967025757, 3.523627519607544, -1.2202529907226562, 0.3424738049507141, 1.3457359075546265, -1.01953125, 0.427001953125, 0.082275390625, 0, 
377, 1479109565, 0.72985893, -0.34575152, -0.45240417, -0.37827566, 9.159307479858398, -1.515377402305603, 3.516420841217041, -1.16704261302948, 0.3736572563648224, 1.3911857604980469, -1.017822265625, 0.42431640625, 0.0849609375, 0, 
378, 1479126232, 0.72989947, -0.34577832, -0.45242098, -0.3781529, 9.158025741577148, -1.4944639205932617, 3.5242743492126465, -1.3169794082641602, 0.13011890649795532, 1.431986689567566, -1.0224609375, 0.425537109375, 0.083984375, 0, 
379, 1479142899, 0.72996914, -0.34587002, -0.45228326, -0.3780991, 9.178558349609375, -1.5074117183685303, 3.601175546646118, -2.1427457332611084, 0.9836878180503845, 1.744986891746521, -1.020751953125, 0.427001953125, 0.08349609375, 0, 
380, 1479159566, 0.73008764, -0.3457603, -0.452339, -0.37790424, 9.140674591064453, -1.5270235538482666, 3.4803967475891113, -0.2838655710220337, 0.38614344596862793, 1.4208197593688965, -1.0205078125, 0.426513671875, 0.086181640625, 0, 
381, 1479176233, 0.73002416, -0.34601516, -0.4523513, -0.37777847, 9.136043548583984, -1.5157140493392944, 3.5482537746429443, -2.7119877338409424, -0.7707757353782654, 1.890761375427246, -1.02001953125, 0.42822265625, 0.085693359375, 0, 
382, 1479192900, 0.7301484, -0.34597912, -0.45227662, -0.37766078, 9.162485122680664, -1.5841652154922485, 3.5316600799560547, -1.1748673915863037, 1.042097568511963, 1.6007746458053589, -1.01953125, 0.427001953125, 0.085693359375, 0, 
383, 1479209567, 0.73030216, -0.34608164, -0.45199716, -0.37760398, 9.120606422424316, -1.539316177368164, 3.50384521484375, -2.412421941757202, 1.9290398359298706, 2.3242437839508057, -1.01953125, 0.427001953125, 0.08349609375, 0, 
384, 1479226234, 0.7303503, -0.3463019, -0.45185015, -0.37748516, 9.122247695922852, -1.5548954010009766, 3.528974771499634, -2.7108099460601807, 0.48093608021736145, 2.4139652252197266, -1.0185546875, 0.426513671875, 0.082763671875, 0, 
385, 1479242901, 0.7303604, -0.34658328, -0.45177385, -0.37729874, 9.16723346710205, -1.6067264080047607, 3.4964346885681152, -2.6184120178222656, -0.33104413747787476, 2.71113657951355, -1.018798828125, 0.4306640625, 0.0849609375, 0, 
386, 1479259568, 0.7304199, -0.34668657, -0.4518239, -0.37702847, 9.108418464660645, -1.6603655815124512, 3.497391700744629, -1.3260207176208496, -0.495349645614624, 2.292381525039673, -1.017822265625, 0.428466796875, 0.08544921875, 0, 
387, 1479276235, 0.73048896, -0.34674963, -0.45187676, -0.37677324, 9.161785125732422, -1.5710694789886475, 3.509859085083008, -0.938769519329071, -0.3741375207901001, 2.177265167236328, -1.02001953125, 0.42822265625, 0.085693359375, 0, 
388, 1479292902, 0.73056936, -0.34680462, -0.45186734, -0.37657806, 9.178654670715332, -1.5753496885299683, 3.496830940246582, -1.0487631559371948, 0.11042275279760361, 2.0847649574279785, -1.017822265625, 0.431396484375, 0.082763671875, 0, 
389, 1479309569, 0.7306903, -0.3467836, -0.4518412, -0.376394, 9.1980619430542, -1.5853772163391113, 3.5211269855499268, -1.0292398929595947, 0.6075844764709473, 1.8067840337753296, -1.018798828125, 0.431396484375, 0.085693359375, 0, 
390, 1479326236, 0.7308492, -0.34667188, -0.45180708, -0.37622947, 9.196005821228027, -1.5703989267349243, 3.5088210105895996, -0.49390244483947754, 1.0362001657485962, 1.5629253387451172, -1.01953125, 0.4296875, 0.086181640625, 0, 
391, 1479342903, 0.7310072, -0.34655595, -0.45174578, -0.37610266, 9.145261764526367, -1.5690983533859253, 3.490112781524658, -0.42842358350753784, 1.2319515943527222, 1.502997875213623, -1.0205078125, 0.42822265625, 0.08447265625, 0, 
392, 1479359570, 0.7311473, -0.34643787, -0.45169652, -0.37599853, 9.122989654541016, -1.5642714500427246, 3.5001676082611084, -0.27118727564811707, 1.1368517875671387, 1.3875104188919067, -1.02001953125, 0.42919921875, 0.08447265625, 0, 
393, 1479376237, 0.7312667, -0.34628078, -0.45171142, -0.37589318, 9.112053871154785, -1.5580859184265137, 3.499335527420044, -0.012242871336638927, 0.8569561243057251, 1.0438008308410645, -1.0205078125, 0.431884765625, 0.085693359375, 0, 
394, 1479392904, 0.731382, -0.34608972, -0.45174965, -0.37579858, 9.135843276977539, -1.5527260303497314, 3.510249137878418, 0.05914612486958504, 0.8600935935974121, 0.7814242243766785, -1.017822265625, 0.4306640625, 0.0849609375, 0, 
395, 1479409571, 0.7314885, -0.3459138, -0.45175177, -0.37575075, 9.165221214294434, -1.5562419891357422, 3.557410717010498, -0.331184983253479, 1.0965501070022583, 0.6327680945396423, -1.01904296875, 0.431396484375, 0.083984375, 0, 
396, 1479426238, 0.7316123, -0.34567937, -0.45177686, -0.37569535, 9.183984756469727, -1.5720932483673096, 3.4762182235717773, 0.07493635267019272, 1.1688802242279053, 0.4741743206977844, -1.02001953125, 0.4296875, 0.085205078125, 0, 
397, 1479442905, 0.73175424, -0.34540802, -0.45178914, -0.37565365, 9.166129112243652, -1.5424754619598389, 3.5459113121032715, 0.4803597927093506, 1.3750498294830322, 0.4560149312019348, -1.0205078125, 0.43359375, 0.084716796875, 0, 
398, 1479459572, 0.7319309, -0.3450835, -0.45183688, -0.3755504, 9.174985885620117, -1.5333821773529053, 3.5132334232330322, 0.8137218356132507, 1.3459793329238892, 0.5012341141700745, -1.017333984375, 0.432861328125, 0.0810546875, 0, 
399, 1479476239, 0.7320757, -0.34482396, -0.4518611, -0.37547746, 9.140020370483398, -1.5900030136108398, 3.5384278297424316, 0.11047396808862686, 1.2944594621658325, 0.47338035702705383, -1.017822265625, 0.431884765625, 0.081787109375, 0, 
400, 1479492906, 0.7322048, -0.3445963, -0.45187312, -0.37542012, 9.127528190612793, -1.592902421951294, 3.5274627208709717, -0.14427633583545685, 1.2580382823944092, 0.4845731258392334, -1.017333984375, 0.43017578125, 0.083251953125, 0, 
401, 1479509573, 0.73234504, -0.34433123, -0.45189774, -0.3753603, 9.136473655700684, -1.5586909055709839, 3.555072069168091, 0.3111751079559326, 1.287851333618164, 0.4469352066516876, -1.021240234375, 0.4296875, 0.080810546875, 0, 
402, 1479526240, 0.7324698, -0.34407824, -0.45191106, -0.37533295, 9.11800765991211, -1.566044569015503, 3.55444598197937, 0.20707227289676666, 1.3193548917770386, 0.35292378067970276, -1.017333984375, 0.427978515625, 0.083251953125, 0, 
403, 1479542907, 0.73258823, -0.34385347, -0.45189422, -0.37532791, 9.144730567932129, -1.5816066265106201, 3.531721830368042, 0.08880563080310822, 1.3999837636947632, 0.44848474860191345, -1.0205078125, 0.431396484375, 0.08349609375, 0, 
404, 1479559574, 0.7327321, -0.34361604, -0.45185557, -0.37531108, 9.160027503967285, -1.5752477645874023, 3.5515499114990234, -0.031106622889637947, 1.632815957069397, 0.5023482441902161, -1.01953125, 0.431884765625, 0.080810546875, 0, 
405, 1479576241, 0.7328923, -0.3433749, -0.45180938, -0.3752746, 9.15324878692627, -1.5783143043518066, 3.5683372020721436, -0.007209974341094494, 1.6957207918167114, 0.6243031024932861, -1.01806640625, 0.4296875, 0.07958984375, 0, 
406, 1479592908, 0.7330699, -0.34310856, -0.45176896, -0.37521976, 9.138426780700684, -1.5743253231048584, 3.5715205669403076, 0.23986293375492096, 1.742034912109375, 0.6684530377388, -1.017333984375, 0.431396484375, 0.078369140625, 0, 
407, 1479609575, 0.7332495, -0.34283122, -0.4517578, -0.37513587, 9.127934455871582, -1.556058406829834, 3.579118013381958, 0.39558178186416626, 1.570923089981079, 0.693111777305603, -1.01806640625, 0.43017578125, 0.076171875, 0, 
408, 1479626242, 0.7334176, -0.34255946, -0.4517709, -0.37503988, 9.139619827270508, -1.5479313135147095, 3.5752689838409424, 0.4974050521850586, 1.3600536584854126, 0.703433632850647, -1.020751953125, 0.42919921875, 0.077392578125, 0, 
409, 1479642909, 0.73357075, -0.3423004, -0.451793, -0.37495023, 9.131816864013672, -1.527510404586792, 3.5434229373931885, 0.5779185891151428, 1.221706509590149, 0.7109253406524658, -1.020263671875, 0.430908203125, 0.07861328125, 0, 
410, 1479659576, 0.733723, -0.34203446, -0.45182148, -0.37486082, 9.132979393005371, -1.5309199094772339, 3.5893301963806152, 0.6099728345870972, 1.2066845893859863, 0.6673708558082581, -1.01953125, 0.431884765625, 0.077880859375, 0, 
411, 1479676243, 0.7339168, -0.34172124, -0.45185614, -0.37472495, 9.124600410461426, -1.542492389678955, 3.5804600715637207, 0.7992507815361023, 1.3695175647735596, 0.729942798614502, -1.020751953125, 0.430908203125, 0.07568359375, 0, 
412, 1479692910, 0.7341019, -0.34142056, -0.45187482, -0.37461388, 9.135613441467285, -1.5468741655349731, 3.5760021209716797, 0.7649937868118286, 1.4216521978378296, 0.7204020619392395, -1.01806640625, 0.431396484375, 0.076171875, 0, 
413, 1479709577, 0.7343072, -0.34109372, -0.4518916, -0.37448883, 9.122663497924805, -1.5270694494247437, 3.605907678604126, 0.9364451169967651, 1.5349626541137695, 0.7502022981643677, -1.020263671875, 0.430908203125, 0.0751953125, 0, 
414, 1479726244, 0.73451525, -0.34077418, -0.45189723, -0.3743652, 9.099543571472168, -1.5386730432510376, 3.6219065189361572, 0.9564613103866577, 1.5703591108322144, 0.8264127969741821, -1.01904296875, 0.432373046875, 0.0751953125, 0, 
415, 1479742911, 0.7347491, -0.34043232, -0.45191306, -0.3741983, 9.096996307373047, -1.5293214321136475, 3.5941126346588135, 1.228711724281311, 1.5630855560302734, 0.9971984624862671, -1.019287109375, 0.42822265625, 0.073974609375, 0, 
416, 1479759578, 0.7349723, -0.34011233, -0.45192632, -0.37403494, 9.098176002502441, -1.5479421615600586, 3.606179714202881, 1.3683520555496216, 1.4475209712982178, 1.1300259828567505, -1.02197265625, 0.4326171875, 0.075439453125, 0, 
417, 1479776245, 0.73518634, -0.33981866, -0.45198208, -0.37381354, 9.069271087646484, -1.5405439138412476, 3.5815589427948, 1.3284730911254883, 1.0292527675628662, 1.3155258893966675, -1.01708984375, 0.4287109375, 0.07568359375, 0, 
418, 1479792912, 0.7353706, -0.3395914, -0.45204604, -0.37358034, 9.093725204467773, -1.5599061250686646, 3.597522735595703, 1.2396354675292969, 0.6543340086936951, 1.5818723440170288, -1.0185546875, 0.432373046875, 0.073974609375, 0, 
419, 1479809579, 0.73557496, -0.33933342, -0.45217848, -0.37325218, 9.085762023925781, -1.5490930080413818, 3.614419460296631, 1.4573050737380981, 0.30367058515548706, 1.6856679916381836, -1.019287109375, 0.430908203125, 0.072998046875, 0, 
420, 1479826246, 0.73575026, -0.33912596, -0.45229203, -0.3729573, 9.116610527038574, -1.5350886583328247, 3.6487889289855957, 1.297020673751831, 0.20339685678482056, 1.7622627019882202, -1.019287109375, 0.4296875, 0.073974609375, 0, 
421, 1479842913, 0.73594975, -0.33895087, -0.45229563, -0.3727184, 9.135254859924316, -1.5596107244491577, 3.7077231407165527, 0.8721188902854919, 0.8599912524223328, 1.9468406438827515, -1.019287109375, 0.43408203125, 0.072021484375, 0, 
422, 1479859580, 0.73616195, -0.33858186, -0.45255712, -0.37231708, 9.093680381774902, -1.5164650678634644, 3.5397040843963623, 2.7570858001708984, -0.24361521005630493, 1.489845871925354, -1.019775390625, 0.43310546875, 0.0703125, 0, 
423, 1479876247, 0.736211, -0.33860832, -0.45269373, -0.3720298, 9.134748458862305, -1.5442906618118286, 3.6634979248046875, -0.31279510259628296, -0.8606764078140259, 2.0087850093841553, -1.02099609375, 0.431396484375, 0.07080078125, 0, 
424, 1479892914, 0.73641455, -0.33836693, -0.45274383, -0.3717856, 9.113584518432617, -1.577311396598816, 3.616659164428711, 1.2503416538238525, 0.8099440932273865, 1.6270661354064941, -1.019775390625, 0.4345703125, 0.072509765625, 0, 
425, 1479909581, 0.73658335, -0.3382889, -0.4527154, -0.37155685, 9.08254623413086, -1.5008362531661987, 3.6054863929748535, -0.04224814847111702, 0.7389327883720398, 2.1006064414978027, -1.020263671875, 0.4326171875, 0.0712890625, 0, 
426, 1479926248, 0.736626, -0.3383295, -0.4528144, -0.37131473, 9.091435432434082, -1.4783785343170166, 3.5969066619873047, -0.3612927496433258, -0.6663401126861572, 1.9939935207366943, -1.0185546875, 0.43408203125, 0.073486328125, 0, 
427, 1479942915, 0.7366221, -0.33840775, -0.4529943, -0.3710314, 9.107983589172363, -1.5600025653839111, 3.578629970550537, -0.3882372975349426, -1.4038833379745483, 1.9925593137741089, -1.017578125, 0.4345703125, 0.073974609375, 0, 
428, 1479959582, 0.7366428, -0.33832133, -0.45327863, -0.37072173, 9.083629608154297, -1.590421199798584, 3.6183409690856934, 0.7489345669746399, -1.4803884029388428, 1.391301155090332, -1.021484375, 0.43408203125, 0.071044921875, 0, 
429, 1479976249, 0.7366401, -0.3382464, -0.45355, -0.3704634, 9.14249038696289, -1.5160892009735107, 3.6074674129486084, 0.5324943661689758, -1.4116181135177612, 1.1689826250076294, -1.016357421875, 0.4345703125, 0.073486328125, 0, 
430, 1479992916, 0.7366437, -0.33815268, -0.45378911, -0.37024915, 9.137419700622559, -1.516690969467163, 3.5754013061523438, 0.25398194789886475, -1.0500439405441284, 0.9143158197402954, -1.01708984375, 0.43505859375, 0.07080078125, 0, 
431, 1480009583, 0.7366467, -0.33806354, -0.45400342, -0.37006187, 9.159369468688965, -1.5245410203933716, 3.590944766998291, 0.016577819362282753, -0.8635834455490112, 0.8239542245864868, -1.017578125, 0.4345703125, 0.072509765625, 0, 
432, 1480026250, 0.7366669, -0.33793887, -0.45415863, -0.369945, 9.143056869506836, -1.5155787467956543, 3.5870468616485596, 0.013075283728539944, -0.28258490562438965, 0.5918454527854919, -1.016357421875, 0.435546875, 0.072265625, 0, 
433, 1480042917, 0.7366879, -0.33782133, -0.45428032, -0.36986104, 9.119357109069824, -1.5058014392852783, 3.578892946243286, -0.3170852065086365, -0.03391121327877045, 0.4893369972705841, -1.017578125, 0.43505859375, 0.073486328125, 0, 
434, 1480059584, 0.7366865, -0.33774316, -0.45438966, -0.3698009, 9.117965698242188, -1.5274195671081543, 3.5580437183380127, -0.56190425157547, -0.10409000515937805, 0.5022457838058472, -1.01806640625, 0.4345703125, 0.073974609375, 0, 
435, 1480076251, 0.7366781, -0.3376476, -0.4545119, -0.36975482, 9.112762451171875, -1.5414454936981201, 3.578692674636841, -0.4641917645931244, -0.11982902884483337, 0.3419359624385834, -1.01806640625, 0.43505859375, 0.072998046875, 0, 
436, 1480092918, 0.7366671, -0.33757973, -0.45459372, -0.369738, 9.128767967224121, -1.549975037574768, 3.570289134979248, -0.8601256012916565, 0.08159565180540085, 0.346123605966568, -1.01708984375, 0.43408203125, 0.0712890625, 0, 
437, 1480109585, 0.7366621, -0.33754915, -0.45460087, -0.3697672, 9.152084350585938, -1.5460283756256104, 3.5991945266723633, -1.3695495128631592, 0.49125799536705017, 0.42045170068740845, -1.0185546875, 0.435791015625, 0.072021484375, 0, 
438, 1480126252, 0.736675, -0.3374733, -0.45465615, -0.36974257, 9.160426139831543, -1.51728093624115, 3.5556187629699707, -0.8797705769538879, 0.305412232875824, 0.4540298879146576, -1.020263671875, 0.435791015625, 0.072998046875, 0, 
439, 1480142919, 0.7367491, -0.33734882, -0.45465085, -0.36971518, 9.153322219848633, -1.5241180658340454, 3.623408317565918, -0.5610333681106567, 0.9086296558380127, 0.6411818265914917, -1.0185546875, 0.43798828125, 0.07421875, 0, 
440, 1480159586, 0.73678875, -0.33732334, -0.4546617, -0.3696459, 9.135664939880371, -1.5222585201263428, 3.598325252532959, -1.1055721044540405, 0.3919191360473633, 0.9864538311958313, -1.019775390625, 0.4345703125, 0.07373046875, 0, 
441, 1480176253, 0.73681116, -0.3373311, -0.45465523, -0.3696021, 9.115246772766113, -1.5959962606430054, 3.5569510459899902, -1.1705132722854614, 0.35616379976272583, 1.0585793256759644, -1.016357421875, 0.435546875, 0.072265625, 0, 
442, 1480192920, 0.7368234, -0.33738607, -0.45463502, -0.36955246, 9.114295959472656, -1.5665463209152222, 3.6095123291015625, -1.6451548337936401, 0.293220579624176, 1.1659092903137207, -1.016845703125, 0.4345703125, 0.07470703125, 0, 
443, 1480209587, 0.7368793, -0.33736455, -0.45461813, -0.36948144, 9.145720481872559, -1.527657389640808, 3.5945866107940674, -0.978584349155426, 0.5420991778373718, 1.171684980392456, -1.015380859375, 0.43505859375, 0.072998046875, 0, 
444, 1480226254, 0.7369418, -0.33736378, -0.45456076, -0.3694279, 9.124890327453613, -1.5160101652145386, 3.5856356620788574, -1.279930591583252, 0.7622019052505493, 1.241172194480896, -1.019775390625, 0.431884765625, 0.072021484375, 0, 
445, 1480242921, 0.7369998, -0.3373999, -0.45443565, -0.36943308, 9.13949203491211, -1.5264469385147095, 3.5861656665802, -1.586309790611267, 1.0941169261932373, 1.2936400175094604, -1.0185546875, 0.4345703125, 0.073486328125, 0, 
446, 1480259588, 0.73707664, -0.33742005, -0.45427904, -0.36945418, 9.136483192443848, -1.5367330312728882, 3.583050489425659, -1.6181975603103638, 1.3945156335830688, 1.2776318788528442, -1.01904296875, 0.435302734375, 0.073486328125, 0, 
447, 1480276255, 0.73717064, -0.33744386, -0.45409116, -0.36947596, 9.129359245300293, -1.5589983463287354, 3.578014612197876, -1.6993643045425415, 1.601427674293518, 1.3912116289138794, -1.01904296875, 0.436279296875, 0.073486328125, 0, 
448, 1480292922, 0.73728645, -0.33743253, -0.4539255, -0.3694586, 9.12463092803955, -1.5648654699325562, 3.601991653442383, -1.4577785730361938, 1.585157036781311, 1.4189563989639282, -1.01416015625, 0.437255859375, 0.07275390625, 0, 
449, 1480309589, 0.73739344, -0.33741742, -0.45379183, -0.36942306, 9.112833023071289, -1.5565861463546753, 3.5966508388519287, -1.3920694589614868, 1.3724693059921265, 1.3779760599136353, -1.02099609375, 0.43408203125, 0.07080078125, 0, 
450, 1480326256, 0.73747575, -0.33742064, -0.45365918, -0.36941892, 9.112388610839844, -1.575463056564331, 3.5966975688934326, -1.3550654649734497, 1.2722150087356567, 1.3139762878417969, -1.01806640625, 0.436279296875, 0.0712890625, 0, 
451, 1480342923, 0.7375635, -0.33741042, -0.4535399, -0.36939937, 9.117669105529785, -1.5502063035964966, 3.598848581314087, -1.3565510511398315, 1.243451714515686, 1.2722532749176025, -1.017578125, 0.435791015625, 0.07080078125, 0, 
452, 1480359590, 0.73764914, -0.3374115, -0.45342022, -0.36937428, 9.11872386932373, -1.5315337181091309, 3.604250907897949, -1.3956488370895386, 1.1977075338363647, 1.3314698934555054, -1.01904296875, 0.43798828125, 0.072509765625, 0, 
453, 1480376257, 0.73773307, -0.337398, -0.45329475, -0.36937305, 9.124431610107422, -1.5230562686920166, 3.6074647903442383, -1.451228380203247, 1.3197904825210571, 1.1583408117294312, -1.016845703125, 0.436279296875, 0.072509765625, 0, 
454, 1480392924, 0.73780197, -0.33740458, -0.4531379, -0.36942196, 9.122505187988281, -1.5250853300094604, 3.6174302101135254, -1.7549245357513428, 1.4860998392105103, 1.0292845964431763, -1.0185546875, 0.43798828125, 0.0703125, 0, 
455, 1480409591, 0.7378859, -0.3373791, -0.45295918, -0.36949682, 9.12691879272461, -1.545753002166748, 3.5989840030670166, -1.7686467170715332, 1.7971856594085693, 0.8593893647193909, -1.01708984375, 0.439453125, 0.068603515625, 0, 
456, 1480426258, 0.7379781, -0.33732823, -0.45276275, -0.36959976, 9.130393981933594, -1.5426229238510132, 3.6139729022979736, -1.8978497982025146, 2.0649023056030273, 0.6456385254859924, -1.016845703125, 0.437744140625, 0.072509765625, 0, 
457, 1480442925, 0.7380639, -0.3372826, -0.45253515, -0.36974898, 9.109917640686035, -1.5452135801315308, 3.6387977600097656, -1.9862265586853027, 2.2716095447540283, 0.5470552444458008, -1.016845703125, 0.437255859375, 0.07177734375, 0, 
458, 1480459592, 0.738143, -0.33722505, -0.45231512, -0.36991248, 9.108488082885742, -1.539660930633545, 3.6286933422088623, -2.0127744674682617, 2.282533645629883, 0.3829419016838074, -1.020263671875, 0.43798828125, 0.0693359375, 0, 
459, 1480476259, 0.7382069, -0.3371738, -0.45210236, -0.37009192, 9.093058586120605, -1.543874740600586, 3.630293607711792, -2.0540428161621094, 2.207763671875, 0.2907169759273529, -1.0166015625, 0.4345703125, 0.068603515625, 0, 
460, 1480492926, 0.7382537, -0.33714694, -0.45189586, -0.37027535, 9.099950790405273, -1.5480984449386597, 3.632960557937622, -2.1691396236419678, 2.0652737617492676, 0.30285096168518066, -1.019775390625, 0.436279296875, 0.068603515625, 0, 
461, 1480509593, 0.73831075, -0.3370919, -0.45169038, -0.3704624, 9.123414039611816, -1.554979681968689, 3.6539523601531982, -1.9898890256881714, 2.1671864986419678, 0.22948336601257324, -1.019287109375, 0.436279296875, 0.067626953125, 0, 
462, 1480526260, 0.7383779, -0.33702907, -0.45150214, -0.37061498, 9.108963966369629, -1.56572425365448, 3.640047073364258, -1.8190397024154663, 2.057218551635742, 0.34800615906715393, -1.020263671875, 0.4375, 0.06982421875, 0, 
463, 1480542927, 0.73848426, -0.3370056, -0.45118946, -0.37080526, 9.114814758300781, -1.5800251960754395, 3.7223379611968994, -2.4225645065307617, 2.8101422786712646, 0.6427443027496338, -1.02001953125, 0.436767578125, 0.06591796875, 0, 
464, 1480559594, 0.7386468, -0.33675796, -0.45105752, -0.370867, 9.097030639648438, -1.5835689306259155, 3.606154203414917, -0.2717123329639435, 2.3323371410369873, 0.33417531847953796, -1.0166015625, 0.435791015625, 0.068603515625, 0, 
465, 1480576261, 0.73866785, -0.33677492, -0.45093566, -0.37095764, 9.081491470336914, -1.5248361825942993, 3.658597946166992, -2.0194973945617676, 1.23818838596344, 0.6161326766014099, -1.01611328125, 0.436767578125, 0.065673828125, 0, 
466, 1480592928, 0.738811, -0.3366563, -0.450702, -0.37106407, 9.08570384979248, -1.612879753112793, 3.6793508529663086, -1.5078580379486084, 2.5882978439331055, 0.6377242207527161, -1.017578125, 0.436279296875, 0.068603515625, 0, 
467, 1480609595, 0.7389906, -0.33658665, -0.45035338, -0.3711929, 9.070411682128906, -1.5409371852874756, 3.639301061630249, -1.7635366916656494, 3.16585111618042, 1.1388493776321411, -1.017822265625, 0.432373046875, 0.06640625, 0, 
468, 1480626262, 0.73907936, -0.33657464, -0.4501772, -0.37124088, 9.077343940734863, -1.5422189235687256, 3.6589009761810303, -1.4330625534057617, 1.6518014669418335, 1.1540699005126953, -1.02001953125, 0.434814453125, 0.06640625, 0, 
469, 1480642929, 0.7391214, -0.3366349, -0.45010012, -0.37119603, 9.096065521240234, -1.5593558549880981, 3.6176443099975586, -1.3212056159973145, 0.5948869585990906, 1.520209789276123, -1.018310546875, 0.4375, 0.063720703125, 0, 
470, 1480659596, 0.739248, -0.33649132, -0.45012328, -0.37104616, 9.08224868774414, -1.6423059701919556, 3.6738932132720947, 0.11259983479976654, 0.6879763603210449, 1.2564245462417603, -1.018798828125, 0.436279296875, 0.06591796875, 0, 
471, 1480676263, 0.73936194, -0.33631128, -0.4501799, -0.37091362, 9.105140686035156, -1.575546145439148, 3.6643643379211426, 0.5547390580177307, 0.5708494186401367, 1.0433269739151, -1.019287109375, 0.43408203125, 0.06640625, 0, 
472, 1480692930, 0.73948574, -0.3361092, -0.45021608, -0.37080583, 9.116379737854004, -1.541883945465088, 3.6699166297912598, 0.6694455146789551, 0.8012356758117676, 0.9642860889434814, -1.018310546875, 0.43798828125, 0.06201171875, 0, 
473, 1480709597, 0.73965, -0.3358777, -0.45023087, -0.3706703, 9.103113174438477, -1.5561364889144897, 3.6558382511138916, 0.5779825448989868, 1.1065901517868042, 1.02471923828125, -1.018310546875, 0.436279296875, 0.063720703125, 0, 
474, 1480726264, 0.73985404, -0.33558363, -0.45022038, -0.37054217, 9.104045867919922, -1.5434868335723877, 3.700063705444336, 1.0183417797088623, 1.5166493654251099, 0.9969295263290405, -1.018310546875, 0.4375, 0.06103515625, 0, 
475, 1480742931, 0.7400759, -0.33526993, -0.45018023, -0.37043163, 9.07449722290039, -1.5250102281570435, 3.666358470916748, 0.9179015755653381, 1.8300467729568481, 0.9153019189834595, -1.018310546875, 0.4375, 0.063232421875, 0, 
476, 1480759598, 0.7402891, -0.33497134, -0.4501251, -0.37034273, 9.05001163482666, -1.5221741199493408, 3.6573169231414795, 0.8122491836547852, 1.876021385192871, 0.9045061469078064, -1.0166015625, 0.436767578125, 0.0625, 0, 
477, 1480776265, 0.7404802, -0.3346702, -0.45010498, -0.3702574, 9.055688858032227, -1.5506985187530518, 3.6821091175079346, 0.950295090675354, 1.627302885055542, 0.7800347208976746, -1.018310546875, 0.4384765625, 0.06201171875, 0, 
478, 1480792932, 0.74065024, -0.33438128, -0.45010385, -0.37017947, 9.079252243041992, -1.5571562051773071, 3.706242322921753, 0.73415607213974, 1.4737868309020996, 0.6318333148956299, -1.017333984375, 0.43798828125, 0.059814453125, 0, 
479, 1480809599, 0.74080503, -0.33413613, -0.45005083, -0.3701555, 9.113000869750977, -1.5456641912460327, 3.722797393798828, 0.12831322848796844, 1.712061882019043, 0.5490787029266357, -1.021240234375, 0.43798828125, 0.06005859375, 0, 
480, 1480826266, 0.74095434, -0.3338653, -0.45002848, -0.37012854, 9.108479499816895, -1.5403213500976562, 3.684781551361084, 0.48042383790016174, 1.571640133857727, 0.461470365524292, -1.016845703125, 0.436279296875, 0.059326171875, 0, 
481, 1480842933, 0.7411395, -0.33354327, -0.44999397, -0.37009016, 9.078695297241211, -1.5379787683486938, 3.748136281967163, 0.7280858159065247, 1.8677611351013184, 0.4394562840461731, -1.01904296875, 0.43798828125, 0.0576171875, 0, 
482, 1480859600, 0.741302, -0.333286, -0.4499557, -0.37004277, 9.087687492370605, -1.51089608669281, 3.7253363132476807, 0.3418335020542145, 1.6342886686325073, 0.6281065940856934, -1.017333984375, 0.436279296875, 0.05712890625, 0, 
483, 1480876267, 0.7414422, -0.33305243, -0.44990686, -0.3700318, 9.032574653625488, -1.5713260173797607, 3.7434728145599365, 0.09493987262248993, 1.6306772232055664, 0.5068560838699341, -1.017822265625, 0.436279296875, 0.059326171875, 0, 
484, 1480892934, 0.7415347, -0.33290935, -0.44983783, -0.37005898, 9.048938751220703, -1.5824776887893677, 3.749803066253662, -0.5810177326202393, 1.4334659576416016, 0.5441673398017883, -1.0185546875, 0.43798828125, 0.056640625, 0, 
485, 1480909601, 0.7416695, -0.33267438, -0.44978797, -0.37006077, 9.100375175476074, -1.526864767074585, 3.7295684814453125, 0.043407123535871506, 1.6504631042480469, 0.4242936074733734, -1.0185546875, 0.43896484375, 0.054443359375, 0, 
486, 1480926268, 0.7418171, -0.33247736, -0.44969562, -0.3700542, 9.068233489990234, -1.536024570465088, 3.727785587310791, -0.37080782651901245, 1.8193275928497314, 0.6432052850723267, -1.020751953125, 0.4375, 0.05712890625, 0, 
487, 1480942935, 0.7419446, -0.33233148, -0.44955128, -0.37010494, 9.066027641296387, -1.549973726272583, 3.745680093765259, -0.7348027229309082, 1.9843759536743164, 0.6801132559776306, -1.016357421875, 0.439453125, 0.056396484375, 0, 
488, 1480959602, 0.74208724, -0.33216983, -0.44940904, -0.3701369, 9.054308891296387, -1.5372827053070068, 3.742307662963867, -0.6911458969116211, 2.0369715690612793, 0.7077493667602539, -1.020751953125, 0.435791015625, 0.053466796875, 0, 
489, 1480976269, 0.74221355, -0.33201906, -0.4492917, -0.37016165, 9.069512367248535, -1.542803168296814, 3.761322498321533, -0.6033711433410645, 1.8001630306243896, 0.7152089476585388, -1.01904296875, 0.4384765625, 0.054931640625, 0, 
490, 1480992936, 0.74233675, -0.33183718, -0.44921792, -0.37016693, 9.062043190002441, -1.5389431715011597, 3.754884958267212, -0.3815652132034302, 1.6199649572372437, 0.5700491070747375, -1.01806640625, 0.435302734375, 0.0576171875, 0, 
491, 1481009603, 0.7424378, -0.33167508, -0.44916576, -0.37017292, 9.038853645324707, -1.5325324535369873, 3.774322032928467, -0.2046198695898056, 1.3487329483032227, 0.6353678703308105, -1.020751953125, 0.4365234375, 0.053466796875, 0, 
492, 1481026270, 0.7425289, -0.33148807, -0.44918486, -0.37013444, 9.039432525634766, -1.5304259061813354, 3.760157585144043, 0.12644347548484802, 0.9298369884490967, 0.5582351684570312, -1.019775390625, 0.435791015625, 0.05322265625, 0, 
493, 1481042937, 0.7426142, -0.33130044, -0.44923806, -0.3700667, 9.043947219848633, -1.5228207111358643, 3.7551636695861816, 0.30572596192359924, 0.6711935997009277, 0.6189180016517639, -1.019287109375, 0.434326171875, 0.05322265625, 0, 
494, 1481059604, 0.74269515, -0.33112514, -0.44927862, -0.37001193, 9.057791709899902, -1.5228062868118286, 3.7580502033233643, 0.31527310609817505, 0.6943154335021973, 0.6729416251182556, -1.0185546875, 0.43798828125, 0.05224609375, 0, 
495, 1481076271, 0.74279493, -0.3309272, -0.44932866, -0.36992818, 9.05663013458252, -1.5048521757125854, 3.783649206161499, 0.2859721779823303, 0.7443114519119263, 0.6524387001991272, -1.019287109375, 0.4375, 0.051025390625, 0, 
496, 1481092938, 0.7428816, -0.33074492, -0.44939467, -0.3698368, 9.070653915405273, -1.4916900396347046, 3.7667031288146973, 0.2644319236278534, 0.560322642326355, 0.6787557601928711, -1.019287109375, 0.4375, 0.05224609375, 0, 
497, 1481109605, 0.7429555, -0.33057866, -0.44945458, -0.36976424, 9.064306259155273, -1.4985435009002686, 3.773815870285034, 0.11860600858926773, 0.54892498254776, 0.6287469267845154, -1.01806640625, 0.43701171875, 0.051025390625, 0, 
498, 1481126272, 0.7430321, -0.33040005, -0.44952878, -0.3696796, 9.049417495727539, -1.5235644578933716, 3.764219284057617, 0.20009921491146088, 0.49788525700569153, 0.6028076410293579, -1.024169921875, 0.438232421875, 0.053955078125, 0, 
499, 1481142939, 0.7431073, -0.330239, -0.44956273, -0.3696312, 9.073278427124023, -1.4929901361465454, 3.7833549976348877, 0.018223434686660767, 0.7181800603866577, 0.6103890538215637, -1.021484375, 0.43701171875, 0.050048828125, 0, 
500, 1481159606, 0.74318343, -0.33009565, -0.44957286, -0.36959377, 9.054651260375977, -1.5086681842803955, 3.7788703441619873, -0.20107890665531158, 0.8261632323265076, 0.6530469655990601, -1.019775390625, 0.43798828125, 0.05224609375, 0, 
501, 1481176273, 0.74326205, -0.32995865, -0.44957757, -0.36955237, 9.059884071350098, -1.5219383239746094, 3.778451442718506, -0.32216936349868774, 0.8526468276977539, 0.6701563000679016, -1.019775390625, 0.4365234375, 0.050048828125, 0, 
502, 1481192940, 0.7433279, -0.3298471, -0.44958502, -0.36951047, 9.05081844329834, -1.5121140480041504, 3.7567760944366455, -0.4293072521686554, 0.7267027497291565, 0.7302628755569458, -1.018798828125, 0.43359375, 0.050537109375, 0, 
503, 1481209607, 0.74334675, -0.32980263, -0.44960386, -0.36948916, 9.058798789978027, -1.51576566696167, 3.7424867153167725, -0.6994956135749817, 0.36493614315986633, 0.7765193581581116, -1.02001953125, 0.43310546875, 0.048828125, 0, 
504, 1481226274, 0.7433765, -0.32974726, -0.44963777, -0.36943766, 9.047396659851074, -1.5354084968566895, 3.759225606918335, -0.5698697566986084, 0.2946292757987976, 0.8565334677696228, -1.018798828125, 0.4365234375, 0.048828125, 0, 
505, 1481242941, 0.7434071, -0.32968596, -0.449699, -0.369356, 9.0477933883667, -1.5279747247695923, 3.7798526287078857, -0.5423488020896912, 0.12914563715457916, 0.8601062893867493, -1.019287109375, 0.435302734375, 0.05224609375, 0, 
