sep=,
DeviceTag:,Xsens_5,,,,,,,,,,,,,,,,,
FirmwareVersion:,2.2.1,,,,,,,,,,,,,,,,,
AppVersion:,2023.0.0,,,,,,,,,,,,,,,,,
SyncStatus:,Un-synced,,,,,,,,,,,,,,,,,
OutputRate:,60Hz,,,,,,,,,,,,,,,,,
FilterProfile:,General,,,,,,,,,,,,,,,,,
Measurement Mode:,Sensor fusion Mode - Extended (Quaternion),,,,,,,,,,,,,,,,,
StartTime:,2023-07-07 11:12:00.243 +0200,,,,,,,,,,,,,,,,,
© Movella Technologies B. V. 2005-2023,,,,,,,,,,,,,,,,,,,

PacketCounter,SampleTimeFine,Quat_W,Quat_X,Quat_Y,Quat_Z,FreeAcc_X,FreeAcc_Y,FreeAcc_Z,Status
1, 400745989, 0.3214412, -0.62969214, -0.30179718, -0.63959515, -0.0013909211, -0.008526796, 0.0934639, 0
2, 400762656, 0.32137132, -0.62983847, -0.3017381, -0.639514, -0.0074855606, 0.0067581376, 0.082429886, 0
3, 400779323, 0.3210704, -0.6301373, -0.30134547, -0.6395558, 0.006378166, 0.01684617, 0.083366394, 0
4, 400795990, 0.3211567, -0.6302065, -0.3012857, -0.63947254, 0.004617219, 0.013036394, 0.10621643, 0
5, 400812657, 0.321371, -0.6301914, -0.30134213, -0.6393533, 0.007305074, -0.0041414713, 0.078559875, 0
6, 400829324, 0.32137653, -0.6302789, -0.30129433, -0.6392867, 0.015418594, 0.0030478227, 0.083823204, 0
7, 400845991, 0.32129836, -0.6303943, -0.3011662, -0.6392726, 0.015418482, -0.008591838, 0.081668854, 0
8, 400862658, 0.3212398, -0.63048583, -0.30109313, -0.6392461, 0.028814172, 0.013490572, 0.08755684, 0
9, 400879325, 0.32113847, -0.63060075, -0.3009647, -0.63924426, 0.004964446, -0.009392238, 0.085876465, 0
10, 400895992, 0.32117915, -0.63064945, -0.3009734, -0.63917154, 0.009082113, 0.004208302, 0.09223461, 0
11, 400912659, 0.32117197, -0.6307331, -0.30094117, -0.6391079, 0.015022529, -0.0010319593, 0.09990692, 0
12, 400929326, 0.32124382, -0.63077956, -0.30096912, -0.6390128, 0.021837886, -0.00796019, 0.10082531, 0
13, 400945993, 0.32121885, -0.6308744, -0.30092415, -0.63895285, 0.03428644, 0.017126232, 0.0929203, 0
14, 400962660, 0.32107866, -0.63102055, -0.3007711, -0.6389509, 0.013912229, 0.009499747, 0.093242645, 0
15, 400979327, 0.32110432, -0.63108736, -0.30076587, -0.63887465, 0.049602106, 0.029718952, 0.09197521, 0
16, 400995994, 0.32112384, -0.63115495, -0.3007678, -0.63879716, 0.059079837, 0.024548652, 0.069768906, 0
17, 401012661, 0.32114097, -0.6312106, -0.3007472, -0.63874316, 0.025493776, -0.0020259214, 0.092905045, 0
18, 401029328, 0.32113987, -0.63127595, -0.30070886, -0.6386972, 0.041491605, -0.0081175435, 0.08276653, 0
19, 401045995, 0.32117012, -0.63133943, -0.30071345, -0.6386172, 0.025427056, -0.0018649921, 0.08659363, 0
20, 401062662, 0.32118437, -0.63140166, -0.30070034, -0.6385545, 0.0332575, 0.013957937, 0.095555305, 0
21, 401079329, 0.32121497, -0.6314605, -0.30070895, -0.63847697, 0.036069293, -0.0032360207, 0.0930872, 0
22, 401095996, 0.32114974, -0.63156664, -0.3006214, -0.63844603, 0.049018066, 0.022512225, 0.09171867, 0
23, 401112663, 0.3211395, -0.6316432, -0.30057245, -0.6383985, 0.053131152, 0.04162057, 0.10018158, 0
24, 401129330, 0.32113758, -0.6317281, -0.3005303, -0.63833535, 0.030578583, 0.0062337765, 0.08762932, 0
25, 401145997, 0.3210769, -0.6318293, -0.30043304, -0.6383113, 0.040567156, 0.003440535, 0.09295273, 0
26, 401162664, 0.32105672, -0.63191414, -0.30037484, -0.6382649, 0.07333862, 0.022443159, 0.08301163, 0
27, 401179331, 0.32107434, -0.63198936, -0.30037475, -0.63818157, 0.047482423, 9.702697E-4, 0.08765888, 0
28, 401195998, 0.3211005, -0.63204795, -0.3003548, -0.63811976, 0.039642148, 0.0044188513, 0.088793755, 0
29, 401212665, 0.32113522, -0.6321122, -0.3003534, -0.63803935, 0.056072026, 0.035042807, 0.09509182, 0
30, 401229332, 0.3211744, -0.6321809, -0.3003626, -0.6379473, 0.04377188, -0.0023524738, 0.09504604, 0
32, 401262666, 0.32120916, -0.63231987, -0.3003204, -0.63781184, 0.08206155, 0.026678283, 0.075834274, 0
34, 401296000, 0.32128552, -0.63243157, -0.30033422, -0.63765615, 0.06313582, 7.887772E-4, 0.08084011, 0
37, 401346001, 0.32136935, -0.63263434, -0.30031976, -0.6374197, 0.071737714, 0.015463074, 0.09660053, 0
39, 401379335, 0.3214631, -0.63273245, -0.30034906, -0.63726115, 0.08449338, 0.0131356325, 0.073124886, 0
41, 401412669, 0.32138085, -0.6329174, -0.30021954, -0.63717985, 0.094577275, 0.015060079, 0.095677376, 0
43, 401446003, 0.32143798, -0.63305557, -0.3002269, -0.6370104, 0.078615315, 0.027324906, 0.0810318, 0
45, 401479337, 0.32155275, -0.63315344, -0.30024874, -0.6368449, 0.10920228, 0.045793783, 0.08243656, 0
46, 401496004, 0.321473, -0.6332707, -0.30015045, -0.63681495, 0.06931505, 0.020172268, 0.07354641, 0
48, 401529338, 0.32151717, -0.63340336, -0.30011973, -0.63667506, 0.093487196, 0.020978032, 0.090177536, 0
50, 401562672, 0.32157663, -0.63353574, -0.30008566, -0.6365293, 0.10657902, 0.021590905, 0.10858917, 0
52, 401596006, 0.32153672, -0.63370115, -0.29998666, -0.6364315, 0.115529485, 0.035134897, 0.093670845, 0
54, 401629340, 0.32151392, -0.6338668, -0.29988614, -0.6363254, 0.0931498, 0.018891092, 0.08846855, 0
57, 401679341, 0.321505, -0.63407457, -0.29977956, -0.6361732, 0.10071382, 0.005873697, 0.08344269, 0
59, 401712675, 0.3215193, -0.63421, -0.29972774, -0.6360553, 0.122423634, 0.027498798, 0.103260994, 0
61, 401746009, 0.32156098, -0.63434285, -0.29969892, -0.6359154, 0.12300253, 0.033097353, 0.115226746, 0
63, 401779343, 0.32160124, -0.6344594, -0.2996729, -0.63579094, 0.13030347, 0.0127894115, 0.08779907, 0
64, 401796010, 0.3216159, -0.63452476, -0.29965582, -0.63572633, 0.1285661, 0.008497069, 0.07913399, 0
66, 401829344, 0.32159385, -0.63467604, -0.29954875, -0.635637, 0.12930247, 0.039428804, 0.097242355, 0
68, 401862678, 0.3216347, -0.6347944, -0.29953104, -0.6355065, 0.14541407, 0.06695264, 0.107219696, 0
70, 401896012, 0.3216896, -0.63491434, -0.29951823, -0.63536483, 0.13629954, 0.044117883, 0.08658981, 0
72, 401929346, 0.32170945, -0.6350368, -0.29946628, -0.63525695, 0.14043352, 0.03679135, 0.08893013, 0
73, 401946013, 0.32167765, -0.63511354, -0.2993968, -0.635229, 0.14532074, 0.043630175, 0.09017372, 0
77, 402012681, 0.3217708, -0.6353331, -0.29937297, -0.6349735, 0.14766909, 0.041676003, 0.092894554, 0
79, 402046015, 0.3217851, -0.6354601, -0.29934558, -0.6348522, 0.13036571, 0.024405826, 0.098900795, 0
81, 402079349, 0.3218297, -0.6355554, -0.29932657, -0.63474303, 0.16231254, 0.033144288, 0.082505226, 0
82, 402096016, 0.3218297, -0.63561344, -0.29931292, -0.63469124, 0.1528034, 0.020076158, 0.08780098, 0
84, 402129350, 0.32184035, -0.6357456, -0.2992772, -0.6345704, 0.16363148, 0.033677593, 0.09376812, 0
86, 402162684, 0.32186732, -0.6358424, -0.29925507, -0.6344702, 0.16625956, 0.04320371, 0.09560013, 0
88, 402196018, 0.32187286, -0.63595456, -0.29920694, -0.6343777, 0.16511717, 0.0381521, 0.0738554, 0
90, 402229352, 0.32188457, -0.6360569, -0.29915184, -0.63429505, 0.16092631, 0.03257187, 0.09331703, 0
91, 402246019, 0.3218998, -0.6361118, -0.29914346, -0.6342362, 0.18058684, 0.052770067, 0.08736038, 0
93, 402279353, 0.32194585, -0.6361863, -0.2991188, -0.6341497, 0.18269792, 0.049952462, 0.08787346, 0
95, 402312687, 0.321957, -0.63629615, -0.29908377, -0.6340503, 0.18286121, 0.046814788, 0.08232689, 0
97, 402346021, 0.32197103, -0.6364003, -0.2990509, -0.6339543, 0.18598635, 0.054346953, 0.094037056, 0
99, 402379355, 0.32201934, -0.63648534, -0.29902437, -0.63385695, 0.18606627, 0.050165918, 0.087228775, 0
100, 402396022, 0.3220282, -0.63652605, -0.29902467, -0.63381135, 0.18016876, 0.03032512, 0.091962814, 0
102, 402429356, 0.32204136, -0.6366125, -0.29899403, -0.63373226, 0.18412147, 0.035031408, 0.09108639, 0
104, 402462690, 0.3220804, -0.6366809, -0.29898512, -0.63364786, 0.19868492, 0.04106112, 0.08795166, 0
106, 402496024, 0.3220918, -0.6367506, -0.2989581, -0.63358474, 0.1938168, 0.041226294, 0.078559875, 0
108, 402529358, 0.3220597, -0.63684374, -0.2989012, -0.6335344, 0.19131391, 0.045427892, 0.09631348, 0
109, 402546025, 0.32206383, -0.6368818, -0.29888138, -0.6335033, 0.18059434, 0.04759753, 0.09458923, 0
113, 402612693, 0.32208014, -0.6370259, -0.29881006, -0.63338375, 0.19153664, 0.045383412, 0.09489632, 0
115, 402646027, 0.32206196, -0.6371089, -0.29876947, -0.6333287, 0.18989426, 0.046952024, 0.0771265, 0
117, 402679361, 0.3220712, -0.6371721, -0.29874724, -0.633271, 0.20663638, 0.051490903, 0.09810734, 0
120, 402729362, 0.31563643, -0.6322748, -0.2957242, -0.6427671, 0.015403284, 0.008471364, 0.09031868, 0
122, 402762696, 0.31571436, -0.6322328, -0.29579622, -0.642737, 0.008938003, 0.008622459, 0.08579922, 0
124, 402796030, 0.3157977, -0.63218933, -0.29588565, -0.64269763, 0.0037455743, 0.008248969, 0.08495331, 0
126, 402829364, 0.3158877, -0.6321256, -0.29595727, -0.64268297, 0.017798616, 0.011991917, 0.09207916, 0
127, 402846031, 0.31592393, -0.6321216, -0.29600456, -0.6426474, 0.01934907, 0.0028464375, 0.093813896, 0
129, 402879365, 0.3160024, -0.63208205, -0.29608268, -0.64261174, 0.004941648, 0.014062318, 0.08330631, 0
131, 402912699, 0.31605923, -0.6320509, -0.29616013, -0.6425788, 0.0069168317, 0.006933819, 0.09955025, 0
135, 402979367, 0.3162037, -0.63197696, -0.2963135, -0.6425097, 0.0030368706, 0.009761482, 0.10682392, 0
136, 402996034, 0.31623048, -0.6319652, -0.2963458, -0.6424932, 5.913035E-4, 0.0026705328, 0.08512211, 0
138, 403029368, 0.31630957, -0.631941, -0.296408, -0.6424494, -0.0048448667, -0.026084632, 0.09470749, 0
140, 403062702, 0.31636488, -0.6319043, -0.29645386, -0.6424371, 0.014610819, 0.004835703, 0.09394455, 0
142, 403096036, 0.3164303, -0.6318791, -0.29651016, -0.64240366, 0.01182797, 0.013408766, 0.08893299, 0
144, 403129370, 0.31649056, -0.6318534, -0.29657045, -0.6423714, 0.008303395, 0.005742495, 0.0777359, 0
145, 403146037, 0.31652257, -0.6318405, -0.2965988, -0.64235526, 0.007783559, -0.0064530424, 0.0854826, 0
147, 403179371, 0.3165811, -0.63181674, -0.29666966, -0.64231694, 0.026423981, 0.029470406, 0.09392738, 0
149, 403212705, 0.31663266, -0.63178784, -0.29673287, -0.64229083, -0.010466553, -0.003099454, 0.0916605, 0
151, 403246039, 0.31670463, -0.631748, -0.29679322, -0.64226663, 0.009755894, 0.010970463, 0.08920574, 0
154, 403296040, 0.31679955, -0.6316955, -0.29686856, -0.6422366, 0.0034039347, 9.767516E-4, 0.11082268, 0
156, 403329374, 0.3168728, -0.63162535, -0.296901, -0.6422545, 0.0059177848, -3.7818393E-4, 0.14007282, 0
158, 403362708, 0.31693864, -0.6315522, -0.2969086, -0.64229053, -0.004132028, -0.0047100885, 0.066420555, 0
160, 403396042, 0.3170163, -0.63148105, -0.29693568, -0.64230967, 0.03159272, 0.049126584, 0.026205063, 0
162, 403429376, 0.31705287, -0.63148206, -0.29698116, -0.6422694, 0.0064481255, -0.024862465, 0.12759304, 0
163, 403446043, 0.3170669, -0.63148123, -0.2970086, -0.6422507, -0.014091989, -0.03463713, 0.09027004, 0
165, 403479377, 0.3171206, -0.6314485, -0.297044, -0.64224, 0.023160078, 0.041689415, 0.12267399, 0
167, 403512711, 0.31717816, -0.6313961, -0.297083, -0.6422452, -0.004843861, 0.004935166, 0.06620407, 0
169, 403546045, 0.3172048, -0.6314133, -0.29714578, -0.64218587, -0.019948978, -0.034964133, 0.08827686, 0
171, 403579379, 0.3172437, -0.63138413, -0.29716274, -0.64218754, -0.0017479272, 0.002414834, 0.10560608, 0
174, 403629380, 0.3172781, -0.63136965, -0.29719794, -0.6421686, 0.017578512, 0.024905602, 0.089549065, 0
176, 403662714, 0.31732747, -0.6313469, -0.29721367, -0.64215934, 0.0052342825, 0.007014507, 0.10739708, 0
178, 403696048, 0.31735617, -0.6313353, -0.29723245, -0.6421477, 0.018794367, 0.0069130324, 0.08636379, 0
180, 403729382, 0.3174146, -0.6313124, -0.29728478, -0.6421172, 0.008854577, 7.020542E-4, 0.10200405, 0
183, 403779383, 0.31746465, -0.6312838, -0.29731777, -0.64210516, 0.007432085, 0.008779142, 0.09454346, 0
185, 403812717, 0.31749156, -0.63127065, -0.29735017, -0.6420899, 0.011033214, -0.012931789, 0.09596062, 0
187, 403846051, 0.31752166, -0.63124806, -0.29738232, -0.64208245, 0.011528575, 0.012706488, 0.09144211, 0
189, 403879385, 0.31758237, -0.6312334, -0.29742727, -0.64204586, -0.0043085474, -0.0035820187, 0.08081436, 0
190, 403896052, 0.31759617, -0.63122046, -0.29742107, -0.6420546, -0.012306064, 0.0013006219, 0.09463215, 0
192, 403929386, 0.31761995, -0.6312244, -0.2974468, -0.64202696, 0.00891297, -0.028653914, 0.0943594, 0
194, 403962720, 0.31766465, -0.63119215, -0.2974725, -0.6420246, 0.012171789, 0.007185271, 0.080412865, 0
196, 403996054, 0.31768358, -0.63118505, -0.29748085, -0.6420185, 0.0031049303, -0.0033853273, 0.08843708, 0
198, 404029388, 0.31771544, -0.63116413, -0.29750183, -0.6420137, 0.02099161, 0.014950782, 0.09447098, 0
199, 404046055, 0.3177201, -0.6311675, -0.29751503, -0.64200187, -2.714006E-4, -0.013925527, 0.09561348, 0
201, 404079389, 0.31777036, -0.63113505, -0.29754815, -0.6419936, 0.006067818, -4.99775E-4, 0.09215164, 0
203, 404112723, 0.31778708, -0.6311277, -0.297558, -0.641988, -0.011545115, 0.03944378, 0.06796169, 0
205, 404146057, 0.31784555, -0.63110954, -0.29760557, -0.6419547, 0.021765636, -0.054622095, 0.112547874, 0
207, 404179391, 0.3178816, -0.6310663, -0.29761684, -0.64197415, -0.0021287373, 0.06771102, 0.05461216, 0
208, 404196058, 0.31785354, -0.6311332, -0.29766473, -0.6419001, -0.032077685, 0.027087089, 0.138731, 0
212, 404262726, 0.3179303, -0.6310751, -0.2977127, -0.6418969, -0.04391024, -0.02365527, 0.11720562, 0
214, 404296060, 0.31800675, -0.6309937, -0.29771498, -0.6419381, 0.03473436, 0.043229192, 0.08573437, 0
216, 404329394, 0.31799465, -0.63104546, -0.29775488, -0.6418747, -0.028382681, -0.03234836, 0.093195915, 0
217, 404346061, 0.31801006, -0.6310264, -0.29775342, -0.64188653, -0.007704324, -0.05159171, 0.101332664, 0
219, 404379395, 0.31804165, -0.6309725, -0.29775292, -0.641924, 0.038282406, 0.07544367, 0.051804543, 0
221, 404412729, 0.31802517, -0.63103056, -0.29780415, -0.6418514, -0.046029363, -0.0941488, 0.13980007, 0
223, 404446063, 0.318075, -0.63095725, -0.29777956, -0.6419102, 0.053083323, 0.07956413, 0.06070137, 0
225, 404479397, 0.3180696, -0.6310229, -0.29784253, -0.64181906, -0.053367294, -0.09204621, 0.12146664, 0
226, 404496064, 0.3181027, -0.6309399, -0.29780957, -0.64189947, 0.027110444, 0.037170652, 0.08623886, 0
228, 404529398, 0.31809804, -0.6310299, -0.29789734, -0.6417727, -0.019909808, -0.030430842, 0.09631443, 0
232, 404596066, 0.31813154, -0.6309706, -0.29789972, -0.64181334, -0.02295221, -0.045116983, 0.12099743, 0
234, 404629400, 0.31816316, -0.6309475, -0.2979155, -0.6418129, -0.013056509, -0.0080925105, 0.0641613, 0
235, 404646067, 0.3181871, -0.63091046, -0.29791752, -0.6418367, 0.025726564, 0.03314518, 0.11398792, 0
237, 404679401, 0.31820104, -0.63094634, -0.29795456, -0.64177716, -0.030981243, -0.061809603, 0.084197044, 0
239, 404712735, 0.31822127, -0.6309131, -0.29797387, -0.6417909, 0.016021073, 0.026759194, 0.09553528, 0
241, 404746069, 0.31824395, -0.6308968, -0.2980006, -0.6417831, 0.0064264443, 0.010751421, 0.116913795, 0
243, 404779403, 0.31825423, -0.63089204, -0.29798612, -0.6417895, 0.022113254, 0.003683717, 0.055602074, 0
244, 404796070, 0.3182496, -0.63091624, -0.29801425, -0.6417549, 0.015669152, 0.013583106, 0.099796295, 0
246, 404829404, 0.3182972, -0.6308548, -0.2980203, -0.64178896, 0.004958411, 0.0282878, 0.07481384, 0
248, 404862738, 0.318303, -0.63088316, -0.298088, -0.6417268, -0.022101184, -0.025872072, 0.106461525, 0
252, 404929406, 0.3183543, -0.6308217, -0.2981201, -0.6417467, 0.018346725, 0.02307436, 0.07088852, 0
253, 404946073, 0.31833276, -0.6309135, -0.29817265, -0.64164287, 0.0096076485, -0.09139981, 0.14572906, 0
255, 404979407, 0.31843433, -0.6307323, -0.2981012, -0.6418038, 0.029308248, 0.12903492, 0.025474548, 0
257, 405012741, 0.3183186, -0.6310133, -0.29824227, -0.6415196, -0.076373816, -0.074770674, 0.18392658, 0
259, 405046075, 0.31853175, -0.63058096, -0.29806662, -0.6419202, 0.16517283, 0.15177849, 0.011795044, 0
261, 405079409, 0.3183357, -0.63103735, -0.29830927, -0.64145625, -0.1839957, -0.20770523, 0.14495659, 0
262, 405096076, 0.31850675, -0.63069844, -0.2981669, -0.6417708, -0.03941366, -0.09454911, 0.09866047, 0
264, 405129410, 0.31838584, -0.630933, -0.29827976, -0.6415476, 0.023442263, 0.026663084, 0.07632065, 0
266, 405162744, 0.31848767, -0.63074636, -0.2982304, -0.64170337, 0.073524475, 0.0376968, 0.13605595, 0
268, 405196078, 0.3185044, -0.63073593, -0.29825193, -0.6416954, 0.012695089, 0.08284575, 0.05113983, 0
271, 405246079, 0.31856963, -0.6306299, -0.2982286, -0.64177805, 0.070860535, 0.048423856, 0.07104397, 0
273, 405279413, 0.31842273, -0.630987, -0.29844862, -0.64139766, -0.08880136, -0.1163861, 0.12562656, 0
275, 405312747, 0.31862384, -0.6305904, -0.2982833, -0.64176464, 0.13488671, 0.18626083, 0.052710533, 0
277, 405346081, 0.318506, -0.6308675, -0.29843947, -0.6414781, -0.14749481, -0.17728868, 0.12944984, 0
279, 405379415, 0.31856176, -0.6307595, -0.29841542, -0.6415678, 0.03782923, 0.055425625, 0.059645653, 0
280, 405396082, 0.31856602, -0.6307546, -0.29842606, -0.6415655, -0.030126305, -0.019670034, 0.07621384, 0
282, 405429416, 0.31855297, -0.6308347, -0.29847074, -0.6414724, -0.04048032, -0.06973269, 0.102300644, 0
284, 405462750, 0.3186165, -0.63072217, -0.2984305, -0.6415702, 0.064585075, 0.1197683, 0.07249832, 0
286, 405496084, 0.318616, -0.6307512, -0.2984574, -0.6415293, -0.015243025, -0.0330113, 0.12422943, 0
288, 405529418, 0.31861395, -0.63075703, -0.29846603, -0.6415207, -0.021619514, -0.012359149, 0.07577801, 0
289, 405546085, 0.31864423, -0.63072157, -0.29847652, -0.6415356, 0.032567177, 0.076070845, 0.08157539, 0
291, 405579419, 0.318632, -0.63075024, -0.29850253, -0.6415014, -0.018407298, -0.04625824, 0.09209633, 0
293, 405612753, 0.3186285, -0.6307812, -0.29852268, -0.6414634, -0.018856782, 0.0010377706, 0.09366989, 0
295, 405646087, 0.31866354, -0.6307394, -0.29853052, -0.6414835, 0.029514998, 0.027234606, 0.09274578, 0
297, 405679421, 0.318668, -0.6307253, -0.29852214, -0.64149886, -0.0075251223, 0.0062892074, 0.082715034, 0
298, 405696088, 0.31865516, -0.6307624, -0.29853946, -0.6414608, 0.016736316, 0.02041232, 0.08421612, 0
300, 405729422, 0.31867063, -0.6307396, -0.29854062, -0.64147484, 0.008985332, -0.0036765647, 0.098706245, 0
302, 405762756, 0.31867617, -0.6307168, -0.29854828, -0.64149106, 4.91952E-4, 0.02122859, 0.08600712, 0
304, 405796090, 0.31870592, -0.63071007, -0.29855874, -0.641478, -0.0017233966, -0.029441126, 0.10242844, 0
309, 405879425, 0.31874704, -0.6306754, -0.29860443, -0.64147043, -0.0031368367, -0.036181606, 0.09024906, 0
311, 405912759, 0.3187643, -0.63068813, -0.29861724, -0.6414434, 0.0040855934, 0.012986327, 0.08887482, 0
313, 405946093, 0.31881624, -0.6306424, -0.29861054, -0.64146554, 0.019050792, 0.018832754, 0.09325123, 0
315, 405979427, 0.31882295, -0.6306334, -0.29861218, -0.64147025, 0.014269626, -0.0031405806, 0.08913326, 0
316, 405996094, 0.3188232, -0.6306621, -0.2986293, -0.64143413, -3.3515767E-4, 0.0022411644, 0.08481407, 0
318, 406029428, 0.31884384, -0.63062423, -0.29861423, -0.64146805, 0.017407523, 0.03863019, 0.08286476, 0
320, 406062762, 0.3188414, -0.6306382, -0.29863405, -0.6414463, -0.007403699, -0.038426124, 0.09872913, 0
322, 406096096, 0.31885317, -0.6306454, -0.29866943, -0.641417, -0.008288195, -0.017418811, 0.078850746, 0
324, 406129430, 0.31885466, -0.63065094, -0.29868647, -0.64140284, -0.0015926416, -0.0016260567, 0.09972572, 0
325, 406146097, 0.31888053, -0.63063335, -0.2986847, -0.641408, -0.031227889, -0.02377932, 0.09133148, 0
329, 406212765, 0.31892288, -0.63059664, -0.29870045, -0.6414157, 0.01713182, 0.015252301, 0.092383385, 0
331, 406246099, 0.31893846, -0.63058156, -0.29870775, -0.64141953, -0.0011715431, -0.013850204, 0.087846756, 0
333, 406279433, 0.31894132, -0.6305797, -0.29872462, -0.641412, -0.012247057, -0.009691745, 0.10232353, 0
334, 406296100, 0.3189503, -0.63057256, -0.2987314, -0.6414114, -0.0062230476, 0.0023864477, 0.08846092, 0
338, 406362768, 0.318961, -0.6305558, -0.29876614, -0.64140636, -0.03566395, -0.038205963, 0.09744167, 0
340, 406396102, 0.3189824, -0.6305631, -0.29876405, -0.6413895, 0.005509706, 0.01910924, 0.07726097, 0
342, 406429436, 0.31899545, -0.63054913, -0.29877293, -0.6413926, 0.009650507, 0.005967349, 0.110803604, 0
343, 406446103, 0.31900075, -0.63054585, -0.29877836, -0.6413907, -0.028746448, -0.017290963, 0.07738209, 0
345, 406479437, 0.31899884, -0.63055503, -0.298795, -0.6413748, -0.004536419, 0.011936933, 0.10231304, 0
347, 406512771, 0.31901506, -0.6305161, -0.298791, -0.64140683, 0.01843736, 0.0056991335, 0.0725317, 0
351, 406579439, 0.3190326, -0.63052726, -0.29883254, -0.64136785, -0.006993329, -0.037955854, 0.07656288, 0
352, 406596106, 0.31904584, -0.630509, -0.29883716, -0.6413771, 0.0059111356, -0.0043737013, 0.09221363, 0
354, 406629440, 0.3190584, -0.6305176, -0.298857, -0.64135313, -0.0046735443, -0.0044427672, 0.08129501, 0
356, 406662774, 0.31906885, -0.6305049, -0.29885694, -0.6413605, 0.0070300414, 0.021290503, 0.08376026, 0
358, 406696108, 0.31908748, -0.6304892, -0.29886627, -0.6413623, 0.027314177, 0.014235987, 0.101579666, 0
360, 406729442, 0.31909952, -0.63047403, -0.29887673, -0.6413662, -0.002345545, -0.016172057, 0.08157444, 0
361, 406746109, 0.3190852, -0.6304931, -0.29888496, -0.64135087, 0.019740216, 0.03694021, 0.08429146, 0
363, 406779443, 0.31911698, -0.6304493, -0.2988899, -0.6413759, 0.022064976, 0.010656204, 0.09070015, 0
365, 406812777, 0.31910223, -0.63048923, -0.29889932, -0.64133954, -0.028318867, -0.057915784, 0.08957386, 0
367, 406846111, 0.31910798, -0.6305132, -0.29889998, -0.6413127, 0.0019821129, -0.006071506, 0.077178, 0
370, 406896112, 0.31911308, -0.6305119, -0.2989073, -0.641308, -0.039802294, -0.03906068, 0.08588314, 0
372, 406929446, 0.3191223, -0.6304875, -0.29891697, -0.64132303, 0.010886534, 0.009524334, 0.08831215, 0
374, 406962780, 0.31915244, -0.63046163, -0.29890868, -0.6413372, 0.008105585, 0.020669136, 0.09014511, 0
376, 406996114, 0.31916985, -0.63046, -0.29889724, -0.6413355, 0.008356479, -0.016982961, 0.091688156, 0
378, 407029448, 0.31913683, -0.63051224, -0.29892278, -0.64128876, -0.020122424, -0.048331324, 0.10792732, 0
379, 407046115, 0.31915304, -0.6304789, -0.29891178, -0.6413185, 3.9505915E-4, -0.012901167, 0.09431267, 0
381, 407079449, 0.31915578, -0.6304828, -0.29892594, -0.64130676, -6.7791477E-4, 0.0014222129, 0.09834957, 0
383, 407112783, 0.31915724, -0.63048726, -0.29892856, -0.6413005, -0.004524908, -0.031795166, 0.10010624, 0
385, 407146117, 0.3191645, -0.63047576, -0.2989297, -0.64130753, 0.007719467, 0.02915302, 0.08598709, 0
388, 407196118, 0.31918633, -0.63047886, -0.29893535, -0.64129114, 9.129387E-4, 0.0045697223, 0.09667206, 0
390, 407229452, 0.3191929, -0.63046724, -0.29894722, -0.6412936, 0.0044549485, 0.016992126, 0.08448696, 0
392, 407262786, 0.31918514, -0.6304793, -0.29893377, -0.641292, 0.0024089108, 0.017975582, 0.07736397, 0
394, 407296120, 0.31918845, -0.63048625, -0.29894817, -0.64127666, 0.003921535, -0.016217653, 0.0961895, 0
396, 407329454, 0.3191995, -0.63048375, -0.29895112, -0.64127237, 0.0021818217, -0.0055386513, 0.09133053, 0
397, 407346121, 0.31921583, -0.6304754, -0.2989556, -0.6412704, -0.009145144, -0.006309994, 0.09558964, 0
399, 407379455, 0.31922635, -0.6304819, -0.29897213, -0.64125097, 0.0068634124, -0.005041335, 0.0950222, 0
401, 407412789, 0.31924272, -0.6305, -0.29896948, -0.64122623, -0.010048137, -0.017314877, 0.09041691, 0
403, 407446123, 0.31925932, -0.630483, -0.2989669, -0.64123595, 0.026186442, 0.022412091, 0.110440254, 0
405, 407479457, 0.31925574, -0.6304897, -0.29895973, -0.64123434, 0.0032749118, 0.0130855655, 0.10060787, 0
408, 407529458, 0.31926838, -0.6304811, -0.29897535, -0.64122933, 0.024618834, 0.014581091, 0.08973789, 0
410, 407562792, 0.31927797, -0.6304718, -0.29899937, -0.64122254, -0.003551174, -0.0146405455, 0.100429535, 0
412, 407596126, 0.31928337, -0.6304814, -0.2989993, -0.64121056, 0.001496531, -0.005967349, 0.107940674, 0
414, 407629460, 0.31928626, -0.630472, -0.2990196, -0.6412088, 1.0113961E-4, -0.0016859582, 0.09199715, 0
415, 407646127, 0.31930467, -0.6304586, -0.29902062, -0.64121234, -0.0053438595, -0.0149556985, 0.0847702, 0
417, 407679461, 0.31930882, -0.63045394, -0.29901665, -0.64121664, 2.4362913E-4, -0.023948295, 0.08124256, 0
419, 407712795, 0.3193169, -0.63045096, -0.2990075, -0.64121985, -0.008826974, -0.014381941, 0.11332035, 0
421, 407746129, 0.31933922, -0.6304296, -0.29902285, -0.6412225, 0.010080881, -0.005198017, 0.08240318, 0
423, 407779463, 0.3193422, -0.6304493, -0.29904172, -0.6411929, 0.012506444, -0.0018334768, 0.09651089, 0
424, 407796130, 0.3193629, -0.63044804, -0.2990354, -0.64118683, 0.008564122, -0.0055518383, 0.1003809, 0
428, 407862798, 0.31939673, -0.6304199, -0.2990446, -0.6411933, 0.014210059, -0.0028328032, 0.10077858, 0
430, 407896132, 0.31942177, -0.63040084, -0.29904175, -0.6412009, 0.004132084, 0.0046128603, 0.08867741, 0
432, 407929466, 0.31941053, -0.63041365, -0.29906934, -0.64118093, -0.010161234, -0.015801026, 0.09371281, 0
433, 407946133, 0.31941608, -0.6304009, -0.29906374, -0.64119333, 0.0023000601, 0.0069235372, 0.08813572, 0
435, 407979467, 0.31941524, -0.63041294, -0.29907343, -0.6411776, -0.014880487, -0.024440024, 0.09361839, 0
437, 408012801, 0.31942603, -0.630413, -0.29906204, -0.64117724, 0.025112798, -0.011767063, 0.08024597, 0
439, 408046135, 0.31942943, -0.63039756, -0.29906717, -0.64118844, 0.020590348, 0.012289637, 0.09448528, 0
441, 408079469, 0.3194268, -0.6303988, -0.29907575, -0.64118457, -0.004418516, -0.019518046, 0.10340309, 0
442, 408096136, 0.3194354, -0.63038284, -0.29907385, -0.6411969, 0.009416936, 0.012411227, 0.086854935, 0
444, 408129470, 0.31943622, -0.6303821, -0.2990842, -0.6411922, 0.0021101858, -0.012063664, 0.10673714, 0
448, 408196138, 0.31945607, -0.6303838, -0.29910153, -0.6411727, 0.0021810394, -0.019795202, 0.084365845, 0
450, 408229472, 0.319457, -0.63038486, -0.2991066, -0.64116895, 7.911241E-4, -0.0038638685, 0.09438801, 0
451, 408246139, 0.3194547, -0.630384, -0.29911017, -0.6411691, 0.0024779765, -0.02216265, 0.08746147, 0
453, 408279473, 0.31947166, -0.6303784, -0.29910743, -0.64116746, 0.0020315093, -0.0038415173, 0.11453247, 0
455, 408312807, 0.3194822, -0.6303571, -0.2991148, -0.6411798, 0.0071537555, 0.0032141162, 0.09206295, 0
457, 408346141, 0.3195018, -0.63035744, -0.29911706, -0.64116853, -0.0040758704, -0.017481172, 0.09083557, 0
459, 408379475, 0.31951073, -0.6303563, -0.29912958, -0.64115936, 0.0031534326, -0.002752562, 0.097177505, 0
460, 408396142, 0.31951165, -0.63035494, -0.29913658, -0.6411571, -0.001854487, -0.027236618, 0.08825588, 0
462, 408429476, 0.319527, -0.63034207, -0.29914373, -0.6411587, 1.276259E-4, 0.022293853, 0.084807396, 0
464, 408462810, 0.31952825, -0.6303472, -0.29916045, -0.6411453, -0.024785127, -0.013094953, 0.09517574, 0
468, 408529478, 0.3195269, -0.6303508, -0.2991775, -0.6411344, -0.0039100237, -0.023303684, 0.09180927, 0
471, 408579479, 0.31954876, -0.6303327, -0.2991925, -0.6411343, -0.028664308, -0.021283127, 0.08820915, 0
473, 408612813, 0.31954142, -0.6303282, -0.29919618, -0.64114064, -0.0012286507, -0.013445422, 0.082429886, 0
475, 408646147, 0.31954297, -0.63031316, -0.29920793, -0.64114916, 0.009676435, 0.016199771, 0.084015846, 0
477, 408679481, 0.31956083, -0.63029677, -0.29919112, -0.6411643, 0.015521633, 0.0152643705, 0.100800514, 0
478, 408696148, 0.31954798, -0.6303158, -0.29921204, -0.64114213, 8.3984993E-4, -0.0019776425, 0.08732319, 0
480, 408729482, 0.31955698, -0.6303026, -0.29920492, -0.64115393, 0.013864285, 0.023213608, 0.09574509, 0
482, 408762816, 0.31955513, -0.6303058, -0.29920894, -0.6411499, 0.006932366, 4.4635538E-4, 0.09215069, 0
484, 408796150, 0.31956318, -0.6303111, -0.2992201, -0.6411354, -0.017076278, -0.011918829, 0.07950592, 0
486, 408829484, 0.3195688, -0.63031626, -0.2992346, -0.6411209, -0.0024898227, -0.0033379425, 0.09766388, 0
487, 408846151, 0.31957337, -0.6303051, -0.2992321, -0.64113075, -0.017591475, -0.02580837, 0.05873394, 0
489, 408879485, 0.31957433, -0.6303266, -0.29924414, -0.6411034, 0.010452583, -0.02659916, 0.09447098, 0
491, 408912819, 0.31960323, -0.6302746, -0.29924583, -0.6411392, 0.031335846, 0.010201131, 0.09826279, 0
493, 408946153, 0.319598, -0.63027775, -0.29925597, -0.64113414, -0.018549899, -0.02125407, 0.08713055, 0
495, 408979487, 0.31960404, -0.6302858, -0.29927054, -0.6411165, -0.013379262, -0.022813072, 0.09575176, 0
496, 408996154, 0.31962225, -0.6302603, -0.29926065, -0.641137, -0.0016717651, -0.032870263, 0.08052158, 0
498, 409029488, 0.31960973, -0.63027644, -0.29926836, -0.64112383, -0.015370316, -0.026701529, 0.07595444, 0
500, 409062822, 0.3196235, -0.6302622, -0.29926854, -0.6411308, -0.015863273, -0.012430003, 0.100922585, 0
502, 409096156, 0.31963438, -0.6302508, -0.29926157, -0.64113986, 0.012594955, 0.019187246, 0.08196163, 0
505, 409146157, 0.31963366, -0.630263, -0.29928166, -0.64111894, 0.010314564, 0.0050978833, 0.08126831, 0
507, 409179491, 0.31964007, -0.630252, -0.299278, -0.6411282, 0.016063988, 0.014524543, 0.106604576, 0
509, 409212825, 0.31964582, -0.6302418, -0.29926342, -0.6411421, 0.0068017226, -0.0017910093, 0.09748459, 0
511, 409246159, 0.3196389, -0.6302666, -0.29928532, -0.641111, -0.018141318, -0.030178497, 0.10582256, 0
513, 409279493, 0.31962723, -0.6302673, -0.2992832, -0.6411171, -0.012535165, -0.008943871, 0.08386612, 0
514, 409296160, 0.31962952, -0.6302574, -0.2992841, -0.6411253, 0.011884184, 0.0035721841, 0.09810257, 0
516, 409329494, 0.3196346, -0.63024974, -0.299283, -0.64113086, -0.005209193, -0.019653717, 0.09403896, 0
518, 409362828, 0.31962702, -0.6302572, -0.29929358, -0.6411223, -0.019735634, -0.004231324, 0.09681511, 0
520, 409396162, 0.31963497, -0.63024116, -0.29928336, -0.641139, 0.009059204, -0.011009801, 0.108366966, 0
522, 409429496, 0.31963772, -0.6302346, -0.29928067, -0.64114535, 0.00939235, 0.011024106, 0.10247803, 0
525, 409479497, 0.3196645, -0.6302345, -0.29928103, -0.64113176, 0.020247592, 0.015481625, 0.086800575, 0
527, 409512831, 0.31966755, -0.63023627, -0.29929152, -0.6411236, 0.011763152, -0.0048674415, 0.09562969, 0
529, 409546165, 0.3196698, -0.6302286, -0.2993066, -0.6411231, -0.007899507, -0.012445648, 0.09882355, 0
531, 409579499, 0.31967646, -0.63022894, -0.29931414, -0.64111584, 0.012622894, -0.010767513, 0.09558773, 0
532, 409596166, 0.3196803, -0.63020337, -0.2993094, -0.6411413, -0.01073041, -0.015478943, 0.098552704, 0
534, 409629500, 0.3196701, -0.63022083, -0.2993127, -0.6411277, -0.0031671785, -0.005033288, 0.08124828, 0
536, 409662834, 0.31966066, -0.63022065, -0.29930973, -0.641134, -7.032835E-4, -0.006721258, 0.111953735, 0
538, 409696168, 0.31968316, -0.63019776, -0.29933238, -0.64113456, 7.6910807E-4, 0.0022764795, 0.09027195, 0
540, 409729502, 0.31967926, -0.6301948, -0.29933706, -0.6411373, 0.0050226715, 0.0022921253, 0.098664284, 0
541, 409746169, 0.31967968, -0.6301967, -0.29934287, -0.6411325, 0.009891901, -2.7894418E-4, 0.08264351, 0
545, 409812837, 0.31969887, -0.63019174, -0.29933366, -0.64113224, 0.0059070005, -0.0043388335, 0.09921169, 0
547, 409846171, 0.3197017, -0.6301873, -0.29934442, -0.6411301, 6.7903235E-4, -0.012237335, 0.08937645, 0
549, 409879505, 0.31969965, -0.6301865, -0.29934534, -0.64113146, 0.0059680194, -0.00450848, 0.09641266, 0
550, 409896172, 0.3197064, -0.6301907, -0.29935053, -0.64112157, -0.011195764, -0.035648976, 0.091882706, 0
552, 409929506, 0.31970227, -0.63019824, -0.29932895, -0.6411263, -0.008067588, -0.0038712444, 0.0848341, 0
554, 409962840, 0.31970558, -0.63018274, -0.2993572, -0.6411265, -0.0058721323, 0.004087605, 0.083366394, 0
556, 409996174, 0.31969526, -0.63018805, -0.29936594, -0.6411224, -0.010925649, -0.013881942, 0.07951832, 0
558, 410029508, 0.31967634, -0.6301988, -0.29936787, -0.6411205, -0.009684928, -0.019213397, 0.10308266, 0
559, 410046175, 0.31969115, -0.63018954, -0.29938063, -0.64111614, 0.005964108, 0.021725906, 0.09363365, 0
561, 410079509, 0.3197007, -0.6301946, -0.2993917, -0.6411014, -0.013087689, -0.021537932, 0.08904457, 0
565, 410146177, 0.31970224, -0.6301998, -0.29939982, -0.64109164, -0.002167405, -0.005012278, 0.09996414, 0
567, 410179511, 0.3197147, -0.6301883, -0.2994013, -0.6410961, 0.0077490825, 0.009196664, 0.10824776, 0
568, 410196178, 0.3197143, -0.63021326, -0.29942018, -0.6410628, -0.02165483, -0.0076508485, 0.09762859, 0
570, 410229512, 0.31973, -0.6301823, -0.29942748, -0.641082, 0.017908528, 0.0057272958, 0.09095669, 0
572, 410262846, 0.31972787, -0.6301832, -0.29943657, -0.64107794, 0.012355237, -0.01968948, 0.095666885, 0
574, 410296180, 0.31972417, -0.63021106, -0.29946184, -0.64104074, -0.021062631, -0.026705775, 0.08695698, 0
576, 410329514, 0.31974667, -0.63019663, -0.2994429, -0.6410525, 0.0075323866, -0.009841052, 0.089746475, 0
577, 410346181, 0.3197567, -0.63018656, -0.29944703, -0.6410555, 0.013486884, -0.005592294, 0.09145069, 0
579, 410379515, 0.31975162, -0.6302042, -0.2994677, -0.6410309, 0.008214325, -0.0026573455, 0.08973217, 0
581, 410412849, 0.31977376, -0.630188, -0.29945466, -0.64104193, -5.970031E-4, -0.011407207, 0.09354973, 0
583, 410446183, 0.3197734, -0.6301872, -0.29945832, -0.6410411, -0.0073606167, -0.020110354, 0.0860033, 0
585, 410479517, 0.3197707, -0.63019073, -0.29946136, -0.64103764, -0.021702996, -0.009404084, 0.08135319, 0
586, 410496184, 0.31976563, -0.6301994, -0.29946533, -0.64102983, 0.0147076, 2.4541724E-4, 0.08969116, 0
588, 410529518, 0.31977865, -0.6301867, -0.2994612, -0.64103776, -0.0023824247, -0.015127804, 0.09317684, 0
590, 410562852, 0.31977928, -0.6301985, -0.29946372, -0.64102465, -0.006510262, -0.010098092, 0.09376526, 0
592, 410596186, 0.3197804, -0.63019705, -0.29946646, -0.6410243, 0.020058164, 0.0023421922, 0.08644009, 0
594, 410629520, 0.31978974, -0.6301886, -0.29948017, -0.6410216, -0.00445249, -0.0022290947, 0.09077072, 0
595, 410646187, 0.31979257, -0.6301869, -0.29948863, -0.64101774, 0.00499775, 0.0024546194, 0.09194946, 0
597, 410679521, 0.31979042, -0.6301899, -0.29949883, -0.64101124, -0.018807162, -0.010319593, 0.099559784, 0
601, 410746189, 0.3197901, -0.630189, -0.29947448, -0.64102346, 0.017651265, 0.004708077, 0.09293556, 0
603, 410779523, 0.31978387, -0.63019633, -0.29946858, -0.6410222, 0.017094607, 0.011522763, 0.09445, 0
604, 410796190, 0.31978804, -0.63020134, -0.29947156, -0.6410138, -0.0042061787, 0.0076535307, 0.0966568, 0
606, 410829524, 0.3197997, -0.6302043, -0.29946455, -0.6410084, 3.0576572E-4, -0.0039474624, 0.08504009, 0
608, 410862858, 0.31978533, -0.6302052, -0.29945973, -0.64101684, -0.0014807733, -0.012416145, 0.08128643, 0
610, 410896192, 0.3197867, -0.63021076, -0.2994584, -0.64101136, -0.009412242, 0.0011944532, 0.09608364, 0
612, 410929526, 0.31977338, -0.63021225, -0.2994643, -0.6410138, -0.011894577, -0.0116186505, 0.10135746, 0
613, 410946193, 0.31977364, -0.63021755, -0.29946533, -0.641008, 0.0026504167, -0.00270853, 0.10733986, 0
615, 410979527, 0.3197635, -0.63022256, -0.29946166, -0.6410098, 0.002503792, -0.0018158193, 0.07818699, 0
617, 411012861, 0.31977183, -0.6302172, -0.29944983, -0.6410164, 0.009095189, -0.010437831, 0.0877285, 0
621, 411079529, 0.31979972, -0.6302157, -0.29944748, -0.64100516, -0.013710955, -0.015613274, 0.094376564, 0
622, 411096196, 0.31979868, -0.6302188, -0.29944718, -0.6410028, -0.007923981, 0.0023008424, 0.0861578, 0
624, 411129530, 0.3198029, -0.63022214, -0.2994552, -0.64099354, -0.0013465538, -0.012809974, 0.09971237, 0
626, 411162864, 0.31980583, -0.6302211, -0.29944053, -0.641, 0.0019290285, -3.9718254E-4, 0.081762314, 0
628, 411196198, 0.31981534, -0.63022196, -0.29944175, -0.64099383, 0.005142698, -0.004380407, 0.10725784, 0
630, 411229532, 0.31981578, -0.63023204, -0.29944542, -0.640982, -0.0097035915, -0.0216555, 0.07896042, 0
631, 411246199, 0.31981984, -0.630233, -0.29944798, -0.6409779, -0.0056169922, -0.016197536, 0.07985592, 0
633, 411279533, 0.31981602, -0.6302286, -0.29944572, -0.64098513, -0.0024338325, -0.005754788, 0.09653664, 0
635, 411312867, 0.31981748, -0.6302337, -0.2994437, -0.64098036, -0.008518972, -0.0014908314, 0.08065224, 0
637, 411346201, 0.31982785, -0.6302176, -0.29945222, -0.640987, 2.6799203E-4, -0.017810183, 0.08796406, 0
640, 411396202, 0.31983534, -0.63021123, -0.29945955, -0.6409861, -0.00428899, -0.016564768, 0.09379196, 0
642, 411429536, 0.31984463, -0.63019687, -0.29945445, -0.64099795, -0.021275416, -0.009897824, 0.08997059, 0
644, 411462870, 0.31982902, -0.63021296, -0.29946837, -0.64098346, 0.005191088, 0.0027588203, 0.08555889, 0
646, 411496204, 0.31984043, -0.6302023, -0.29946288, -0.64099085, -0.005049493, -2.5726343E-4, 0.0728569, 0
648, 411529538, 0.31983817, -0.6302198, -0.29947722, -0.6409681, -0.008197114, -0.020672042, 0.08735275, 0
649, 411546205, 0.31985012, -0.630207, -0.2994838, -0.64097154, -0.005016972, 0.004920861, 0.10386467, 0
651, 411579539, 0.3198445, -0.6302029, -0.29946977, -0.64098495, 0.011226608, -0.013697991, 0.09366989, 0
653, 411612873, 0.31986052, -0.6302023, -0.29946694, -0.6409788, 0.0075830123, 0.0012798352, 0.09195709, 0
655, 411646207, 0.31986123, -0.6302067, -0.29946297, -0.6409761, -0.0017863156, 0.0021989204, 0.09711361, 0
657, 411679541, 0.31986147, -0.6301992, -0.29946613, -0.64098185, 0.0019156177, 2.0272625E-4, 0.088186264, 0
660, 411729542, 0.3198666, -0.6301839, -0.29947647, -0.6409894, 0.023550332, 0.020361137, 0.085523605, 0
662, 411762876, 0.3198727, -0.6301817, -0.29946965, -0.6409916, -0.010943529, -0.019596498, 0.09385586, 0
664, 411796210, 0.31987882, -0.6301794, -0.2994789, -0.6409867, -0.0053054155, -0.018952781, 0.09127426, 0
666, 411829544, 0.31987903, -0.6301818, -0.29947478, -0.64098614, -0.0059124767, -0.0071631433, 0.08738327, 0
667, 411846211, 0.319877, -0.6301863, -0.2994777, -0.6409813, -0.021364374, -0.0060006524, 0.09319782, 0
669, 411879545, 0.31987897, -0.63019484, -0.2994835, -0.6409693, -0.0024484727, -0.026812391, 0.09319019, 0
671, 411912879, 0.31987822, -0.6301864, -0.29949528, -0.6409725, 0.002491834, -0.004092299, 0.088469505, 0
673, 411946213, 0.31987175, -0.6301938, -0.29950315, -0.64096475, 0.006714329, 3.0777734E-4, 0.08581638, 0
675, 411979547, 0.31987265, -0.6302002, -0.2995156, -0.6409521, -0.00161354, -0.0014742914, 0.08883476, 0
676, 411996214, 0.31987575, -0.6301933, -0.29951644, -0.640957, -0.0067715487, -0.0065511647, 0.10266495, 0
678, 412029548, 0.31987968, -0.63018197, -0.29951754, -0.64096564, 0.0011063891, -0.025733717, 0.08588982, 0
680, 412062882, 0.31987202, -0.63020104, -0.299521, -0.640949, -0.0014906079, -7.639673E-4, 0.094433784, 0
682, 412096216, 0.3198631, -0.63019013, -0.29951784, -0.6409658, 0.012674637, 0.008287413, 0.072283745, 0
684, 412129550, 0.31988043, -0.63019586, -0.29951313, -0.6409537, 0.015153619, -0.003224398, 0.09925556, 0
685, 412146217, 0.31987408, -0.63019866, -0.29951242, -0.64095443, -8.1258133E-4, -0.020475129, 0.08988762, 0
687, 412179551, 0.31988272, -0.6301968, -0.2995038, -0.64095587, 0.019417241, 0.0023314636, 0.07462788, 0
689, 412212885, 0.31988865, -0.6301964, -0.29948992, -0.64096, -0.0073855384, -0.010147264, 0.088747025, 0
691, 412246219, 0.319891, -0.6301935, -0.2995028, -0.6409556, -0.0042030495, -0.018367624, 0.09223366, 0
693, 412279553, 0.3198951, -0.63019466, -0.2995055, -0.64095104, 0.0040036757, -0.008635423, 0.105745316, 0
696, 412329554, 0.31990632, -0.6301928, -0.29951134, -0.6409446, -0.0030553103, -0.013291421, 0.091591835, 0
698, 412362888, 0.31992942, -0.63018554, -0.29949695, -0.640947, 7.808425E-4, -0.0041837157, 0.077682495, 0
700, 412396222, 0.31993842, -0.63019234, -0.29950896, -0.6409301, 0.020401256, -0.0070735146, 0.07755089, 0
702, 412429556, 0.31992, -0.6302057, -0.2995097, -0.64092577, -0.004311565, -0.010850883, 0.10098362, 0
703, 412446223, 0.31991836, -0.6302038, -0.29950303, -0.6409316, -0.0033971735, -0.010054506, 0.08393383, 0
705, 412479557, 0.31992608, -0.63020456, -0.29950246, -0.64092726, -0.014193408, -0.027083065, 0.09690952, 0
707, 412512891, 0.31992584, -0.630214, -0.29952428, -0.640908, 0.0077978084, -0.020207135, 0.10326767, 0
709, 412546225, 0.31993055, -0.6302193, -0.29952648, -0.6408995, 0.013397814, 0.0023958355, 0.1024847, 0
711, 412579559, 0.31993917, -0.6302202, -0.29950464, -0.6409045, -0.00580519, 0.00844052, 0.09274864, 0
712, 412596226, 0.3199325, -0.6302246, -0.29951522, -0.6408985, -8.392912E-5, -0.023814412, 0.079732895, 0
716, 412662894, 0.31994802, -0.63022256, -0.2995111, -0.6408946, 0.0040686065, -0.009282046, 0.08981991, 0
718, 412696228, 0.3199454, -0.63023245, -0.2995197, -0.6408822, 0.0058396114, -0.0140236495, 0.09207916, 0
720, 412729562, 0.3199317, -0.63009465, -0.29959792, -0.64098793, -0.003944333, -0.0012197102, 0.095602036, 0
721, 412746229, 0.31993762, -0.6300907, -0.29958853, -0.64099324, -0.016312758, -0.007778921, 0.06955719, 0
723, 412779563, 0.3199318, -0.6300998, -0.29960272, -0.6409807, 0.0047437274, 0.00573266, 0.10190582, 0
725, 412812897, 0.3199387, -0.63010335, -0.2996028, -0.6409737, 0.01341413, 0.0061229137, 0.10357666, 0
727, 412846231, 0.31994927, -0.6300992, -0.29960752, -0.6409703, -0.0011352223, -0.015415465, 0.08896923, 0
729, 412879565, 0.31994513, -0.63010913, -0.29959586, -0.64096797, -0.014654851, -0.004174328, 0.09628391, 0
730, 412896232, 0.3199478, -0.6300996, -0.29959252, -0.64097756, -0.009014948, -0.019978706, 0.09467125, 0
732, 412929566, 0.31994, -0.63008815, -0.2996014, -0.6409885, 0.0142187765, 0.019888854, 0.07990074, 0
736, 412996234, 0.31994954, -0.6301037, -0.29960865, -0.64096516, 0.005074526, -0.010629382, 0.07360172, 0
738, 413029568, 0.31995198, -0.63011336, -0.29960003, -0.6409585, 0.0019717196, -0.014473805, 0.10836029, 0
739, 413046235, 0.3199587, -0.6301018, -0.2995916, -0.64097047, -0.0030952075, -0.023926616, 0.0808382, 0
741, 413079569, 0.31996512, -0.6301146, -0.2996193, -0.64094174, -0.005355929, -0.002663604, 0.08889389, 0
743, 413112903, 0.3199724, -0.6301118, -0.2996106, -0.6409448, 0.0076568834, -0.005474726, 0.09100437, 0
745, 413146237, 0.3199691, -0.6301209, -0.29960507, -0.6409402, 0.0025765456, -0.0064282324, 0.093011856, 0
747, 413179571, 0.3199652, -0.6301169, -0.29959518, -0.6409506, 0.0033136914, -0.011630497, 0.08045769, 0
748, 413196238, 0.31995523, -0.63012034, -0.29960313, -0.64094853, 0.006255904, 0.019206915, 0.10054207, 0
750, 413229572, 0.31994492, -0.6301218, -0.29959816, -0.64095455, -7.1680604E-4, 9.6848165E-4, 0.100310326, 0
752, 413262906, 0.3199409, -0.630121, -0.2996069, -0.64095324, 0.006117438, -0.007961531, 0.08348656, 0
756, 413329574, 0.31994933, -0.63012415, -0.2996019, -0.6409483, 0.024233833, 0.004260157, 0.09627533, 0
757, 413346241, 0.31994042, -0.63014, -0.29961184, -0.64093256, -0.0015907417, -0.011225714, 0.098314285, 0
759, 413379575, 0.3199421, -0.6301361, -0.29959357, -0.6409441, -0.0033901327, -0.010081552, 0.10517788, 0
761, 413412909, 0.3199575, -0.630139, -0.29958102, -0.6409395, 0.009756452, -9.222145E-4, 0.0914793, 0
763, 413446243, 0.3199694, -0.63013333, -0.29959872, -0.6409308, 0.0014960839, -0.018246256, 0.09177971, 0
764, 413462910, 0.31996986, -0.6301268, -0.2996041, -0.64093447, 0.00926707, 0.005396944, 0.09534454, 0
766, 413496244, 0.31996235, -0.6301263, -0.29960558, -0.6409379, -0.018081527, -0.011341271, 0.09409714, 0
768, 413529578, 0.3199609, -0.63012135, -0.2996026, -0.6409449, 0.008973934, -0.015324496, 0.09839916, 0
770, 413562912, 0.31995782, -0.6301212, -0.29961532, -0.64094085, 8.7471795E-4, 0.0028039701, 0.08633137, 0
772, 413596246, 0.31996307, -0.63012, -0.29961544, -0.64093924, -0.012851548, -0.015127357, 0.100655556, 0
773, 413612913, 0.31996313, -0.63011026, -0.29962218, -0.6409457, -0.0012744708, -0.014429103, 0.086868286, 0
775, 413646247, 0.31995875, -0.63011515, -0.29962116, -0.6409434, 0.0040089283, -0.01006747, 0.10472965, 0
777, 413679581, 0.31996852, -0.63009566, -0.29960546, -0.64096516, 0.011666035, 0.005316926, 0.09081364, 0
779, 413712915, 0.3199651, -0.6301071, -0.2996216, -0.6409479, -0.0047068475, -0.014390212, 0.08293247, 0
781, 413746249, 0.31995907, -0.63010436, -0.29963982, -0.64094514, 0.0033851038, -5.621351E-4, 0.10118866, 0
782, 413762916, 0.31996495, -0.6300938, -0.299642, -0.6409515, -3.0956545E-4, -0.01125276, 0.07946873, 0
784, 413796250, 0.3199599, -0.6301026, -0.29965582, -0.64093894, -0.010915143, -0.012728616, 0.09989929, 0
786, 413829584, 0.3199518, -0.63010097, -0.29967576, -0.6409355, 0.0058602863, -8.982986E-4, 0.094833374, 0
788, 413862918, 0.3199607, -0.63009816, -0.29967317, -0.6409349, 0.009095636, 0.0017679875, 0.085455894, 0
792, 413929586, 0.3199841, -0.6300838, -0.29966694, -0.6409402, 0.0029310372, -0.007018754, 0.08095074, 0
793, 413946253, 0.31999043, -0.63007, -0.29966968, -0.6409493, 0.0075411038, 0.0043075415, 0.09884167, 0
795, 413979587, 0.3199959, -0.6300637, -0.29967177, -0.6409519, -0.011985659, -0.010923972, 0.0887537, 0
797, 414012921, 0.31999686, -0.630088, -0.2996678, -0.64092946, -0.015584217, -0.026818203, 0.0859642, 0
799, 414046255, 0.3200036, -0.63007176, -0.2996537, -0.6409484, 0.015918704, 0.016379476, 0.09814072, 0
801, 414079589, 0.32001334, -0.63007224, -0.2996524, -0.6409439, 0.016459495, 0.0068030637, 0.09106159, 0
802, 414096256, 0.31999806, -0.63008726, -0.29965585, -0.64093494, 0.002094875, -0.00999997, 0.076462746, 0
804, 414129590, 0.3200202, -0.63006705, -0.2996455, -0.6409488, 0.0062432755, 0.0123853, 0.10582733, 0
806, 414162924, 0.32001266, -0.6300824, -0.2996558, -0.64093256, -0.013050474, -4.778707E-4, 0.09040737, 0
808, 414196258, 0.3200145, -0.63009316, -0.29967436, -0.6409124, -0.0111301625, 0.014590702, 0.08154011, 0
811, 414246259, 0.3199933, -0.6301112, -0.2996911, -0.6408974, 0.009763717, -0.037186075, 0.096069336, 0
813, 414279593, 0.32001725, -0.6300619, -0.2996674, -0.640945, 2.4385263E-4, 0.01995032, 0.09192085, 0
815, 414312927, 0.31998402, -0.63011634, -0.2996833, -0.64090073, -0.021198975, -0.034311473, 0.10296345, 0
817, 414346261, 0.3199867, -0.63010675, -0.29967308, -0.6409135, -6.9780747E-4, -0.009242708, 0.08026695, 0
819, 414379595, 0.3199754, -0.6301037, -0.2996654, -0.6409257, -6.4852287E-4, 0.017457033, 0.0984478, 0
820, 414396262, 0.31996647, -0.63011163, -0.2996698, -0.64092034, -0.018495474, -0.042174213, 0.076556206, 0
822, 414429596, 0.31994617, -0.63012826, -0.2996883, -0.6409055, 0.010184815, -0.014420162, 0.10649681, 0
824, 414462930, 0.31997868, -0.63006496, -0.2996657, -0.640962, 0.028427048, 0.034446698, 0.057273865, 0
826, 414496264, 0.31996006, -0.63010496, -0.29967117, -0.6409294, -0.022104649, -0.038635556, 0.10534382, 0
828, 414529598, 0.31995258, -0.63011384, -0.29968804, -0.6409165, -0.017824264, -0.038368233, 0.099048615, 0
831, 414579599, 0.3199699, -0.6301098, -0.29968277, -0.64091444, -0.027264446, -0.027615696, 0.11208916, 0
833, 414612933, 0.31995556, -0.6301477, -0.29968902, -0.6408814, -0.016406298, -0.016942505, 0.0787735, 0
835, 414646267, 0.31996915, -0.6301296, -0.2996708, -0.64090097, 0.03527314, 0.0368736, 0.11042118, 0
837, 414679601, 0.31997904, -0.6301084, -0.29965428, -0.64092445, 0.022342691, 0.010335686, 0.092396736, 0
838, 414696268, 0.31996092, -0.6301416, -0.29967305, -0.64089215, 0.023095146, 0.011188164, 0.08215332, 0
840, 414729602, 0.31998166, -0.6300338, -0.29968888, -0.64098036, 0.025054013, 0.0268296, 0.09026337, 0
842, 414762936, 0.31996414, -0.6300459, -0.29970726, -0.64096856, -0.003238032, -0.005642808, 0.098918915, 0
844, 414796270, 0.31996238, -0.63005567, -0.29970586, -0.64096045, -0.0111398855, -0.036300737, 0.08767319, 0
846, 414829604, 0.31996426, -0.6300562, -0.29972148, -0.6409517, -0.0021539943, -0.007104359, 0.09195042, 0
847, 414846271, 0.31997105, -0.6300417, -0.2997231, -0.6409619, -0.007291216, -0.006896492, 0.09906006, 0
851, 414912939, 0.31997725, -0.63004124, -0.29972962, -0.6409561, 0.006778589, 0.019866278, 0.09982681, 0
853, 414946273, 0.31997463, -0.6300364, -0.29972154, -0.640966, 4.3182704E-4, -3.5851478E-4, 0.09941578, 0
855, 414979607, 0.3199759, -0.63003826, -0.29973587, -0.6409569, -0.008789312, -0.0073960437, 0.09666252, 0
856, 414996274, 0.31997222, -0.6300441, -0.2997429, -0.6409497, 0.0020261449, 0.0044461195, 0.08509731, 0
858, 415029608, 0.31998655, -0.6300376, -0.29973358, -0.6409532, 0.009571607, 1.6517607E-4, 0.10337639, 0
860, 415062942, 0.31998634, -0.6300488, -0.29973343, -0.6409423, -0.003798379, 3.2319973E-4, 0.09121895, 0
862, 415096276, 0.31998459, -0.6300426, -0.29974556, -0.6409437, -0.008352456, -0.009885754, 0.08501148, 0
864, 415129610, 0.31999442, -0.63005245, -0.2997487, -0.6409276, 0.0062651797, 0.006402082, 0.09094334, 0
865, 415146277, 0.3200093, -0.6300436, -0.29973868, -0.6409336, 0.00501496, -0.0048008347, 0.091386795, 0
867, 415179611, 0.31999573, -0.6300473, -0.29974708, -0.64093274, -0.002282179, -0.0057474123, 0.1062994, 0
869, 415212945, 0.3199944, -0.6300379, -0.29973897, -0.64094645, 0.01393905, 0.0032125518, 0.09695625, 0
871, 415246279, 0.320004, -0.6300419, -0.29973933, -0.6409376, -0.0031218054, 0.012407204, 0.09312916, 0
873, 415279613, 0.32001358, -0.63003874, -0.29974324, -0.6409341, -0.0028779528, 0.006215225, 0.09606743, 0
874, 415296280, 0.32001156, -0.63004035, -0.29974812, -0.6409312, -0.002519885, 1.9445627E-4, 0.09928608, 0
876, 415329614, 0.3200118, -0.6300434, -0.29974246, -0.64093083, -0.010604684, -0.015343494, 0.08903885, 0
878, 415362948, 0.32001093, -0.630041, -0.29972786, -0.6409405, 0.005876379, -5.590059E-4, 0.08616161, 0
880, 415396282, 0.32000795, -0.6300529, -0.29973778, -0.64092547, 0.016287388, -0.014269067, 0.06659222, 0
882, 415429616, 0.32001802, -0.63005066, -0.2997376, -0.6409228, -0.0050142896, -0.016919484, 0.094721794, 0
883, 415446283, 0.32002473, -0.6300539, -0.29973435, -0.64091784, -0.009213874, 3.3750455E-4, 0.10116005, 0
887, 415512951, 0.32002398, -0.6300568, -0.29974115, -0.6409122, -0.0047152294, 0.009206499, 0.09465408, 0
889, 415546285, 0.32003382, -0.6300445, -0.29974633, -0.64091694, 0.00784564, -0.0103714485, 0.10497093, 0
891, 415579619, 0.3200452, -0.6300467, -0.29974583, -0.64090925, -0.009740359, -0.008709853, 0.08404255, 0
892, 415596286, 0.32004672, -0.6300457, -0.2997433, -0.6409107, 0.0018791852, -0.017343711, 0.10268974, 0
894, 415629620, 0.32004517, -0.63005984, -0.2997468, -0.64089596, -0.002324423, -0.003847999, 0.10427761, 0
896, 415662954, 0.3200355, -0.63005364, -0.29976097, -0.6409003, 0.0020222336, -0.0038108958, 0.10329151, 0
898, 415696288, 0.32004085, -0.6300479, -0.2997702, -0.6408988, -0.011401173, -0.011587806, 0.07931614, 0
900, 415729622, 0.3200451, -0.6300405, -0.2997794, -0.6408997, -0.009406095, -0.012430003, 0.09566784, 0
901, 415746289, 0.32002723, -0.63005334, -0.29978928, -0.64089143, 0.004084476, -0.013144126, 0.09804249, 0
903, 415779623, 0.3200247, -0.6300562, -0.2997851, -0.6408919, -0.006654763, 0.0119756, 0.0936842, 0
907, 415846291, 0.3200066, -0.6300491, -0.29981256, -0.640895, -0.01371319, -0.017749164, 0.10031319, 0
909, 415879625, 0.32000437, -0.6300514, -0.29981726, -0.6408916, 6.3086534E-4, 0.009785397, 0.085801125, 0
910, 415896292, 0.3200043, -0.6300543, -0.29981694, -0.640889, 0.0023746016, -0.001554309, 0.089185715, 0
912, 415929626, 0.31999952, -0.6300498, -0.29982412, -0.6408924, -0.01170068, -0.0067760185, 0.10173988, 0
914, 415962960, 0.31999314, -0.6300557, -0.29983765, -0.64088356, 0.0050432347, -0.005501101, 0.09351349, 0
916, 415996294, 0.32000244, -0.6300441, -0.29983783, -0.64089, 2.3401807E-4, -7.7894266E-4, 0.090084076, 0
918, 416029628, 0.3200007, -0.6300414, -0.2998311, -0.6408968, 0.008504445, -0.020971773, 0.10049915, 0
919, 416046295, 0.3199928, -0.6300473, -0.29982272, -0.6408989, -0.0043169293, -0.010358708, 0.096004486, 0
921, 416079629, 0.3199897, -0.6300485, -0.29981875, -0.6409011, 0.0035814599, 0.0066884016, 0.07374668, 0
923, 416112963, 0.31997114, -0.6300588, -0.29981056, -0.64090407, 0.0063314517, 0.014097633, 0.095911026, 0
927, 416179631, 0.3199706, -0.63005334, -0.29981968, -0.64090544, 0.0031936648, -0.012647481, 0.096221924, 0
928, 416196298, 0.3199623, -0.6300654, -0.2998194, -0.6408979, -0.002980657, -4.3093297E-4, 0.09516907, 0
930, 416229632, 0.3199649, -0.630069, -0.2998128, -0.6408962, 0.0064786347, 0.0019110357, 0.10482216, 0
932, 416262966, 0.31995514, -0.6300721, -0.29982308, -0.6408931, -0.021214174, -0.0044943984, 0.10328102, 0
934, 416296300, 0.3199491, -0.6300728, -0.29982677, -0.6408939, 0.0041767866, 0.01809382, 0.112397194, 0
936, 416329634, 0.3199417, -0.63007003, -0.29983616, -0.6408957, 0.004351909, 0.009184818, 0.08290672, 0
937, 416346301, 0.31993473, -0.6300737, -0.2998436, -0.640892, 0.0114291115, 0.019876337, 0.07955456, 0
939, 416379635, 0.31993952, -0.63007456, -0.2998412, -0.64089006, -0.010592279, -0.005581342, 0.0825634, 0
941, 416412969, 0.31995305, -0.6300624, -0.29983887, -0.6408963, 0.001133993, -0.0075858063, 0.08965683, 0
943, 416446303, 0.3199567, -0.63005656, -0.29984775, -0.640896, -0.02762542, -0.018240891, 0.098257065, 0
946, 416496304, 0.3199445, -0.6300647, -0.29984337, -0.6408963, -0.017280458, -0.027540596, 0.09035301, 0
948, 416529638, 0.31994745, -0.63006383, -0.2998448, -0.64089495, 0.009782603, 8.135872E-5, 0.09516144, 0
950, 416562972, 0.31994247, -0.6300602, -0.29985598, -0.64089584, 0.011982194, -0.004477635, 0.091073036, 0
952, 416596306, 0.31994724, -0.63004535, -0.29985663, -0.64090765, 0.009726836, 0.0011191294, 0.07810116, 0
954, 416629640, 0.31993032, -0.63005567, -0.29987988, -0.6408952, -0.021504406, 0.006764843, 0.09923363, 0
955, 416646307, 0.31992355, -0.6300584, -0.2998769, -0.6408973, -0.0023454332, 0.0089300135, 0.0998373, 0
957, 416679641, 0.31993496, -0.6300339, -0.29988688, -0.64091086, 0.0115519315, 0.008209631, 0.08169365, 0
959, 416712975, 0.32003537, -0.630006, -0.29979503, -0.6409312, 0.0025490534, -0.013562989, 0.096318245, 0
961, 416746309, 0.3200306, -0.63001627, -0.29978955, -0.64092594, 8.8712294E-4, -0.0042246184, 0.09503937, 0
963, 416779643, 0.32004014, -0.63000745, -0.2997952, -0.6409274, 0.0072388025, 0.005867215, 0.09963226, 0
964, 416796310, 0.32003662, -0.63000107, -0.29979518, -0.6409355, -0.0037134443, -0.008836362, 0.0950861, 0
966, 416829644, 0.32004264, -0.6300094, -0.29980528, -0.6409194, -0.009473038, -0.016236875, 0.09016514, 0
968, 416862978, 0.32004115, -0.63001215, -0.2997959, -0.64092183, -0.004641917, 0.0048795114, 0.08740425, 0
970, 416896312, 0.32004416, -0.6300008, -0.29980356, -0.6409279, 0.0025363134, -0.00294523, 0.09796524, 0
972, 416929646, 0.3200298, -0.62999076, -0.29979727, -0.6409478, 0.020151593, 0.004059666, 0.09142494, 0
973, 416946313, 0.32003093, -0.6299908, -0.29979464, -0.6409484, -0.017774085, -0.006227071, 0.107310295, 0
975, 416979647, 0.32002738, -0.6299769, -0.29979053, -0.6409659, 0.0063603963, -0.0015938709, 0.09543419, 0
977, 417012981, 0.32003355, -0.6299708, -0.2998014, -0.64096373, 0.0065774275, -0.006836144, 0.08865738, 0
979, 417046315, 0.32003522, -0.6299689, -0.2998055, -0.64096284, -0.01148689, -0.011268852, 0.09155655, 0
982, 417096316, 0.32004294, -0.6299693, -0.29980445, -0.6409592, 0.01781823, 0.004225289, 0.10395908, 0
984, 417129650, 0.320042, -0.62998176, -0.29980376, -0.6409475, -0.0150137, -0.017043756, 0.101778984, 0
986, 417162984, 0.3200384, -0.62997615, -0.29979464, -0.64095914, -0.007020877, 0.006708294, 0.08075237, 0
988, 417196318, 0.3200399, -0.6299723, -0.29979438, -0.6409624, 0.010933919, -0.0065104854, 0.08732033, 0
990, 417229652, 0.32004312, -0.6299814, -0.29979116, -0.6409533, -0.0124181565, -0.033151887, 0.08427715, 0
991, 417246319, 0.32004535, -0.62998056, -0.2997915, -0.64095294, -0.002361191, -0.008641011, 0.09349346, 0
993, 417279653, 0.32004273, -0.6299866, -0.299788, -0.6409499, -0.00996566, 0.0025545296, 0.09492493, 0
995, 417312987, 0.32005298, -0.62998265, -0.29978028, -0.64095235, -3.1191233E-4, -0.01331869, 0.10293484, 0
997, 417346321, 0.32005134, -0.62997365, -0.299772, -0.6409659, 6.42488E-4, -0.024090897, 0.09383869, 0
999, 417379655, 0.3200581, -0.62996036, -0.2997713, -0.6409757, 0.01251192, -0.004445002, 0.095770836, 0
1002, 417429656, 0.32006025, -0.6299511, -0.29979417, -0.6409731, 0.009946662, -0.005834135, 0.08592415, 0
1004, 417462990, 0.32005113, -0.6299534, -0.29979163, -0.64097655, 0.010944088, 0.002276256, 0.090865135, 0
1006, 417496324, 0.32005352, -0.62995976, -0.29979387, -0.6409682, -0.007439517, -0.0025004395, 0.08922672, 0
1008, 417529658, 0.3200482, -0.6299615, -0.29980806, -0.64096236, 0.010789529, 0.0049590818, 0.09349537, 0
1009, 417546325, 0.32003826, -0.62995386, -0.29981127, -0.6409734, 0.0028001703, 0.019314649, 0.07764721, 0
1011, 417579659, 0.32004088, -0.62995595, -0.29981148, -0.6409699, 0.015199104, 0.013877473, 0.087841034, 0
1013, 417612993, 0.32003957, -0.62995106, -0.2998063, -0.6409778, -0.006784177, -0.0061870622, 0.11244774, 0
1015, 417646327, 0.32005286, -0.6299386, -0.29980856, -0.64098233, 0.010263603, -6.3432974E-4, 0.08405399, 0
1017, 417679661, 0.32004702, -0.6299478, -0.29982695, -0.6409677, 0.009569707, 0.01199974, 0.08848953, 0
1018, 417696328, 0.320046, -0.629947, -0.299824, -0.64097047, -0.013948997, 3.7527826E-4, 0.1041193, 0
1022, 417762996, 0.32003382, -0.62994915, -0.2998395, -0.640967, -0.022539493, -0.019649694, 0.087329865, 0
1024, 417796330, 0.320036, -0.62995315, -0.2998464, -0.6409588, -0.0024547311, -0.014297677, 0.09622097, 0
1026, 417829664, 0.32002974, -0.62994593, -0.29986322, -0.64096105, -0.008154758, -0.011009354, 0.093351364, 0
1027, 417846331, 0.32002795, -0.629948, -0.29986787, -0.64095783, -0.0052302033, -0.009149056, 0.08767319, 0
1029, 417879665, 0.32003698, -0.6299411, -0.29987198, -0.64095825, -0.0034172896, -0.0019713843, 0.08788204, 0
1031, 417912999, 0.32004046, -0.6299397, -0.29987007, -0.6409588, -0.0032711122, 0.010805063, 0.103289604, 0
1033, 417946333, 0.32005215, -0.6299467, -0.29986125, -0.64095026, 1.001338E-4, -0.013824277, 0.09128475, 0
1035, 417979667, 0.32003823, -0.6299515, -0.29986808, -0.6409492, 0.003494178, -0.02091679, 0.09036064, 0
1036, 417996334, 0.32003573, -0.6299541, -0.29987037, -0.6409468, -0.0042367997, -0.014505767, 0.08583832, 0
1038, 418029668, 0.32004285, -0.62996393, -0.29985428, -0.6409411, 3.3582823E-4, -0.013226602, 0.08387184, 0
1042, 418096336, 0.32002926, -0.62996596, -0.29986948, -0.64093876, 0.0102235945, -0.0017127797, 0.08901596, 0
1044, 418129670, 0.32002935, -0.6299791, -0.29987592, -0.6409227, 0.0014340591, -0.0029280197, 0.07355976, 0
1045, 418146337, 0.3200315, -0.62996995, -0.2998731, -0.640932, 0.0068588303, -0.0036054875, 0.098739624, 0
1047, 418179671, 0.3200238, -0.6299717, -0.29987037, -0.64093554, -0.0067402567, -0.013614621, 0.099095345, 0
1049, 418213005, 0.32002535, -0.62998366, -0.29987594, -0.6409203, -0.009453368, -0.017795654, 0.09745693, 0
1051, 418246339, 0.32003728, -0.6299701, -0.2998743, -0.6409286, 0.009452474, 3.710315E-5, 0.08527279, 0
1053, 418279673, 0.3200467, -0.6299706, -0.29987386, -0.64092344, -0.004793347, -0.004642364, 0.095526695, 0
1054, 418296340, 0.3200485, -0.62997407, -0.2998818, -0.6409154, -0.0026514225, -0.025232155, 0.10017586, 0
1056, 418329674, 0.32005545, -0.6299604, -0.2998965, -0.64091843, -0.002247758, 0.0012708947, 0.10480785, 0
1058, 418363008, 0.32005596, -0.62995696, -0.2998917, -0.6409238, 0.0044352794, -0.0044642244, 0.09608269, 0
1060, 418396342, 0.32006478, -0.62995523, -0.2998996, -0.64091754, -0.015117411, -0.020028772, 0.109111786, 0
1061, 418413009, 0.3200708, -0.6299488, -0.2999012, -0.64092, 0.015668035, 0.008406322, 0.08301258, 0
1063, 418446343, 0.32007238, -0.6299525, -0.29990506, -0.6409139, -0.017822811, -0.013327183, 0.08751106, 0
1065, 418479677, 0.32006758, -0.6299541, -0.29990953, -0.64091253, -0.0030658154, 4.038879E-4, 0.08644104, 0
1067, 418513011, 0.3200613, -0.62996525, -0.29991865, -0.6409005, -0.0035091534, -0.011885972, 0.099983215, 0
1069, 418546345, 0.32005578, -0.6299658, -0.2999312, -0.6408968, -0.00465421, 0.011383068, 0.09756279, 0
1070, 418563012, 0.32004794, -0.6299749, -0.29992816, -0.6408932, -0.0147290565, -0.003691093, 0.07285118, 0
1074, 418629680, 0.32005563, -0.6299865, -0.29994705, -0.6408692, -0.0027602732, -0.004744286, 0.09452915, 0
1076, 418663014, 0.32006302, -0.6299905, -0.29993558, -0.6408668, -0.0075700483, -0.012907873, 0.086774826, 0
1079, 418713015, 0.32010004, -0.62997866, -0.29991663, -0.64086884, 0.0076301736, -0.006921302, 0.09629059, 0
1081, 418746349, 0.32010671, -0.62998426, -0.29991466, -0.64086103, 0.014901162, -0.008449684, 0.09695625, 0
1083, 418779683, 0.3201221, -0.62997556, -0.2999234, -0.64085776, -0.017815882, 0.011827188, 0.09634018, 0
1085, 418813017, 0.32011214, -0.6299785, -0.29993525, -0.64085424, -0.0053808508, -0.0049488004, 0.09150696, 0
1087, 418846351, 0.32011506, -0.6299755, -0.2999279, -0.64085925, -0.018846948, -0.006092069, 0.09332371, 0
1088, 418863018, 0.3201222, -0.62997264, -0.29992637, -0.64085925, -0.0069510294, -0.013023206, 0.09355259, 0
1090, 418896352, 0.32013112, -0.6299899, -0.29993063, -0.6408357, -0.011665365, -0.0054539395, 0.0896225, 0
1092, 418929686, 0.32013604, -0.63000685, -0.2999294, -0.6408171, 0.002052296, -0.0108817285, 0.09188557, 0
1094, 418963020, 0.32012475, -0.63002294, -0.29992834, -0.64080757, 0.00816951, 0.0036834935, 0.09650326, 0
1096, 418996354, 0.32012895, -0.63002217, -0.2999212, -0.64080954, 0.013783486, 0.009173195, 0.09851265, 0
1099, 419046355, 0.32014367, -0.63002527, -0.2999102, -0.64080435, 0.0016187925, 8.712535E-4, 0.08837128, 0
1101, 419079689, 0.32015145, -0.6300249, -0.29989874, -0.6408061, 0.007411354, 0.0039997646, 0.084409714, 0
1103, 419113023, 0.3201333, -0.6300614, -0.29988754, -0.6407846, -0.018285036, -0.019250501, 0.103432655, 0
1105, 419146357, 0.32013628, -0.63006836, -0.29988325, -0.64077824, -0.01714959, -0.025606986, 0.09648323, 0
1106, 419163024, 0.32014018, -0.6300608, -0.29988077, -0.64078486, -0.008103462, -0.0017342371, 0.09473133, 0
1108, 419196358, 0.32014057, -0.6300546, -0.2998833, -0.6407897, -0.0013759458, -0.022856211, 0.09597111, 0
1110, 419229692, 0.32015398, -0.6300668, -0.29988322, -0.6407709, 0.0013394014, -0.0061023505, 0.09054375, 0
1112, 419263026, 0.32015917, -0.63006556, -0.29988363, -0.6407693, 0.023312625, 0.015310191, 0.0974493, 0
1114, 419296360, 0.3201753, -0.63005763, -0.299871, -0.640775, -0.0056815874, -6.2807143E-4, 0.06773853, 0
1115, 419313027, 0.32016817, -0.6300599, -0.2998786, -0.6407729, 0.021469872, 0.017466197, 0.07909489, 0
1119, 419379695, 0.32016066, -0.6300777, -0.2998791, -0.6407587, 0.0067413743, 0.008590274, 0.0738554, 0
1121, 419413029, 0.32016215, -0.63008475, -0.29988605, -0.64074785, 0.0013750517, -0.0129284365, 0.094023705, 0
1123, 419446363, 0.32016316, -0.6300834, -0.29988796, -0.6407478, -0.005139569, 0.0014043319, 0.07850742, 0
1125, 419479697, 0.3201671, -0.63008887, -0.2998824, -0.64074314, -0.0060928515, -0.024497466, 0.08816528, 0
1128, 419529698, 0.32016373, -0.6300861, -0.2998968, -0.64074075, 0.0037770336, -0.0028589542, 0.088994026, 0
1130, 419563032, 0.32015923, -0.63008714, -0.29990387, -0.64073867, -0.010077976, 0.0027366925, 0.07910538, 0
1132, 419596366, 0.32017204, -0.6300849, -0.29990983, -0.6407317, 0.024867604, 0.0074002906, 0.1065321, 0
1134, 419629700, 0.32017013, -0.6300846, -0.29990298, -0.64073616, -0.0023219644, 0.012942742, 0.08586502, 0
1135, 419646367, 0.32016066, -0.63009197, -0.29991364, -0.6407286, 0.0040303855, 0.016645681, 0.091371536, 0
1137, 419679701, 0.32017928, -0.6300722, -0.2999261, -0.64073294, 0.01330975, -0.0011023659, 0.10389423, 0
1141, 419746369, 0.32017186, -0.63006985, -0.29993132, -0.64073646, -0.007558873, -0.005119788, 0.09170723, 0
1143, 419779703, 0.32017, -0.6300709, -0.29993218, -0.6407359, -0.0063067535, -0.01646687, 0.085801125, 0
1144, 419796370, 0.3201729, -0.6300658, -0.29993537, -0.64073807, 0.0023212938, 0.0029519356, 0.096191406, 0
1146, 419829704, 0.3201698, -0.63007414, -0.29993233, -0.64073277, 0.0083729075, 1.6852877E-4, 0.10639, 0
1148, 419863038, 0.32017067, -0.63006985, -0.29992017, -0.64074224, 0.009761929, -0.0076086046, 0.09074116, 0
1150, 419896372, 0.32017696, -0.6300634, -0.29991612, -0.64074737, 0.013679664, 0.014792758, 0.07431507, 0
1152, 419929706, 0.3201685, -0.630075, -0.29991615, -0.64074016, 0.008443872, -0.004994844, 0.11326599, 0
1153, 419946373, 0.32016265, -0.63008094, -0.29990882, -0.64074063, 0.00853853, -0.00412292, 0.08823395, 0
1155, 419979707, 0.32016143, -0.63006794, -0.29990125, -0.64075756, 0.012886751, 0.0035375396, 0.085422516, 0
1157, 420013041, 0.32016173, -0.63006747, -0.29991278, -0.6407525, -0.0059052124, -0.015760122, 0.09588337, 0
1159, 420046375, 0.3201385, -0.63007975, -0.2999177, -0.64074975, -0.011788855, 0.004618448, 0.08690262, 0
1161, 420079709, 0.3201366, -0.6300904, -0.29993203, -0.6407336, -0.012873229, -0.013173854, 0.0805769, 0
1162, 420096376, 0.32013932, -0.63007903, -0.2999358, -0.6407417, 3.2956986E-4, -9.123799E-4, 0.089447975, 0
1164, 420129710, 0.32014084, -0.63008785, -0.29995307, -0.64072406, -0.00811095, -0.025116375, 0.091293335, 0
1166, 420163044, 0.32014245, -0.6300762, -0.29994994, -0.64073616, 0.0055664782, -0.0037134443, 0.08618832, 0
1168, 420196378, 0.32014254, -0.63007474, -0.29994497, -0.6407399, -0.0055326163, -0.0018687919, 0.07779217, 0
1170, 420229712, 0.32013732, -0.6300754, -0.29994556, -0.6407416, 0.0061822566, -0.020226358, 0.09549618, 0
1171, 420246379, 0.32013595, -0.6300827, -0.29994953, -0.64073324, 0.021457467, 0.011029694, 0.09344387, 0
1173, 420279713, 0.32013798, -0.6300755, -0.2999502, -0.64073884, 0.020114265, 0.021828499, 0.09028244, 0
1177, 420346381, 0.3201277, -0.6300888, -0.29995757, -0.6407276, 0.019602086, -0.0076792347, 0.08778, 0
1179, 420379715, 0.32012925, -0.6300924, -0.2999689, -0.6407179, -0.016271297, 4.141695E-4, 0.089933395, 0
1180, 420396382, 0.32012564, -0.63009, -0.29997194, -0.6407206, 0.0028339208, 0.006001323, 0.091879845, 0
1182, 420429716, 0.32011512, -0.630085, -0.29997134, -0.6407313, 0.0029074566, -0.0077684163, 0.08910656, 0
1184, 420463050, 0.32010913, -0.63008624, -0.29998112, -0.6407284, 0.016987208, 0.001249661, 0.09546471, 0
1186, 420496384, 0.32011485, -0.6300685, -0.2999828, -0.6407423, 0.022921924, 0.0153088495, 0.09077358, 0
1188, 420529718, 0.3201051, -0.6300745, -0.2999855, -0.6407399, 0.0058835316, -0.01107775, 0.089053154, 0
1189, 420546385, 0.32009855, -0.6300726, -0.29998526, -0.64074516, 0.004770437, -0.0036276153, 0.08613777, 0
1191, 420579719, 0.3200911, -0.63007426, -0.2999785, -0.64075035, 0.0050986656, 0.0065650227, 0.09620285, 0
1193, 420613053, 0.3200997, -0.6300704, -0.2999705, -0.6407537, -0.0026907607, 0.0066383346, 0.09804249, 0
1197, 420679721, 0.32009408, -0.63006955, -0.2999936, -0.6407465, 0.013800472, 0.0020755413, 0.08564758, 0
1198, 420696388, 0.32009956, -0.6300596, -0.29998243, -0.64075875, -0.009469015, -0.012136307, 0.08904266, 0
1200, 420729722, 0.320136, -0.62999856, -0.2999963, -0.64079404, -0.013707826, -0.0018421938, 0.09595394, 0
1202, 420763056, 0.32012737, -0.6300023, -0.29999292, -0.64079624, 0.0077455062, 0.023753839, 0.095965385, 0
1204, 420796390, 0.32012352, -0.6300006, -0.29999328, -0.6407998, 6.5645756E-4, 0.005663818, 0.09583664, 0
1206, 420829724, 0.3201201, -0.6300085, -0.29998925, -0.64079547, 0.0076600127, 0.0021942267, 0.09426212, 0
1207, 420846391, 0.32011044, -0.63001645, -0.29999804, -0.6407885, 0.002813134, -0.0056930985, 0.08611393, 0
1209, 420879725, 0.32010025, -0.6300189, -0.30000636, -0.64078724, 0.009951468, 0.0018696858, 0.07866287, 0
1211, 420913059, 0.32008958, -0.6300294, -0.30000255, -0.6407841, -0.003489149, -0.013740906, 0.07172489, 0
1213, 420946393, 0.32010776, -0.6300267, -0.29999432, -0.64078146, 0.008620336, 0.017867625, 0.08904266, 0
1216, 420996394, 0.32004863, -0.6300966, -0.30002266, -0.640729, -0.032195922, 0.10372968, -0.0851717, 0
1218, 421029728, 0.32025787, -0.6296139, -0.29979813, -0.641204, 0.085426874, 0.14826865, 0.09592438, 0
1222, 421096396, 0.3204749, -0.629166, -0.2996157, -0.6416202, 0.49756497, 0.80919445, -0.014860153, 0
1224, 421129730, 0.3197858, -0.63059384, -0.30026114, -0.64025927, -0.46901092, -0.7312795, 0.101288795, 0
1225, 421146397, 0.3204101, -0.62933385, -0.29970908, -0.6414442, 0.10731281, 0.07831849, 0.12908173, 0
1227, 421179731, 0.319806, -0.6305601, -0.3002528, -0.6402862, -0.07944712, -0.11779311, 0.12221336, 0
1229, 421213065, 0.32033855, -0.62946403, -0.299738, -0.6413389, 0.21106318, 0.30330965, 0.0074014664, 0
1231, 421246399, 0.31981683, -0.6305564, -0.30024084, -0.6402901, -0.28295434, -0.38877532, 0.20168781, 0
1233, 421279733, 0.32034114, -0.6294382, -0.2997469, -0.64135885, 0.27641734, 0.3827058, 0.052256584, 0
1234, 421296400, 0.32001358, -0.63013124, -0.30005673, -0.6406966, 0.15579446, 0.29167357, 0.11267471, 0
1238, 421363068, 0.31988034, -0.630414, -0.3001756, -0.6404292, -0.13761608, -0.17318007, 0.062211037, 0
1240, 421396402, 0.32015887, -0.6298238, -0.29993245, -0.6409842, 0.22757888, 0.27267587, 0.09165096, 0
1242, 421429736, 0.3200788, -0.62998486, -0.30000705, -0.64083093, -0.09886123, -0.11624328, 0.12708664, 0
1243, 421446403, 0.32004473, -0.63004833, -0.3000302, -0.6407748, 0.14027216, 0.12884918, 0.10299873, 0
1245, 421479737, 0.3201172, -0.6298822, -0.29995266, -0.6409381, 0.03693127, 0.07960906, 0.12143898, 0
1247, 421513071, 0.3199799, -0.63014716, -0.30006886, -0.6406919, -0.14330344, -0.17709848, 0.07252216, 0
1249, 421546405, 0.31998813, -0.6301313, -0.3000597, -0.64070755, 0.053380035, 0.053651154, 0.08022404, 0
1251, 421579739, 0.32005495, -0.6299748, -0.29999256, -0.6408596, 0.10006329, 0.14928922, 0.11125469, 0
1252, 421596406, 0.31995225, -0.63017195, -0.30008018, -0.6406759, -0.0802977, -0.071383335, 0.0995903, 0
1254, 421629740, 0.32003707, -0.63003284, -0.30001053, -0.6408031, 0.13212979, 0.13834804, 0.09631634, 0
1256, 421663074, 0.32007056, -0.62994885, -0.29999316, -0.64087707, 0.0025899564, -9.521652E-5, 0.110058784, 0
1258, 421696408, 0.3199636, -0.63016784, -0.30011156, -0.64065975, -0.121835575, -0.1321764, 0.07939625, 0
1260, 421729742, 0.32000837, -0.6300823, -0.30007747, -0.6407375, 0.05860085, 0.07206192, 0.07878399, 0
1261, 421746409, 0.32000276, -0.63009715, -0.30008146, -0.64072376, -0.08480495, -0.11009712, 0.07649994, 0
1263, 421779743, 0.31999117, -0.63010293, -0.3000885, -0.6407206, -0.0026970191, 0.022051342, 0.09785271, 0
1265, 421813077, 0.32000402, -0.6300699, -0.30008128, -0.64075017, 0.042995177, 0.059341125, 0.106378555, 0
1267, 421846411, 0.32003906, -0.63000655, -0.30005372, -0.64080775, 0.04052223, 0.028486056, 0.072086334, 0
1269, 421879745, 0.32000667, -0.6300652, -0.30008626, -0.640751, -0.054233294, -0.0451143, 0.07910633, 0
1270, 421896412, 0.3200229, -0.630039, -0.3000717, -0.64077544, 0.05358131, 0.0772425, 0.09142399, 0
1274, 421963080, 0.31998512, -0.63007194, -0.30008903, -0.640754, -0.032305222, -0.053903054, 0.094587326, 0
1276, 421996414, 0.31996447, -0.6301112, -0.30009174, -0.64072424, -0.0025793395, -0.0074420874, 0.08972359, 0
1278, 422029748, 0.31998214, -0.63006616, -0.30007967, -0.6407655, 0.04192589, 0.05352107, 0.08983326, 0
1279, 422046415, 0.31996265, -0.6301013, -0.3000882, -0.64073664, -0.023436116, -0.042074304, 0.101929665, 0
1281, 422079749, 0.31996274, -0.6300872, -0.30009308, -0.64074814, 0.02094931, 0.03821669, 0.08071709, 0
1283, 422113083, 0.31999788, -0.63004553, -0.30008385, -0.6407758, 0.027450744, 0.0403537, 0.102124214, 0
1285, 422146417, 0.31999448, -0.630041, -0.30010003, -0.6407744, -0.02128458, -0.011503988, 0.09390545, 0
1287, 422179751, 0.31996256, -0.6300918, -0.30012807, -0.6407273, -0.031769685, -0.051893227, 0.08314228, 0
1288, 422196418, 0.31999344, -0.630026, -0.3001042, -0.64078784, 0.02530502, 0.0199758, 0.100400925, 0
1290, 422229752, 0.31999022, -0.6300493, -0.30010852, -0.64076453, -0.014607689, -0.01873575, 0.08576584, 0
1296, 422329754, 0.31999528, -0.63002133, -0.30012298, -0.6407827, 0.012322828, 0.047845855, 0.087854385, 0
1297, 422346421, 0.31997243, -0.63006324, -0.30014, -0.6407449, -0.019683557, 0.0041287313, 0.092209816, 0
1299, 422379755, 0.31997433, -0.63005364, -0.30013534, -0.6407556, 0.022447405, 0.025003947, 0.06668377, 0
1301, 422413089, 0.3200002, -0.63003075, -0.300122, -0.64077145, 0.02039958, 0.041973498, 0.10033417, 0
1303, 422446423, 0.31999242, -0.630032, -0.30012777, -0.6407712, -0.010802716, -0.011238902, 0.09005737, 0
1305, 422479757, 0.31997922, -0.63005406, -0.3001387, -0.6407511, -0.018798893, -0.038576994, 0.082110405, 0
1306, 422496424, 0.31999958, -0.6300012, -0.3001211, -0.6408012, 1.9479154E-4, 0.019643212, 0.08621025, 0
1308, 422529758, 0.3199822, -0.6300391, -0.3001394, -0.64076394, -0.04168796, -0.028690122, 0.082756996, 0
1310, 422563092, 0.3199811, -0.6300518, -0.30014852, -0.6407479, 0.014116631, 0.0030809026, 0.08530712, 0
1314, 422629760, 0.3199953, -0.63000554, -0.30014524, -0.64078766, 0.0054039843, 0.00488577, 0.08808136, 0
1317, 422679761, 0.31998593, -0.6300168, -0.30016157, -0.64077365, 0.012335569, 0.013242025, 0.08612633, 0
1319, 422713095, 0.31998944, -0.63001466, -0.3001538, -0.6407777, -0.014726486, 0.0023685668, 0.09109211, 0
1321, 422746429, 0.31997353, -0.63002646, -0.30015868, -0.6407717, -0.0147095, -0.0164662, 0.10079098, 0
1323, 422779763, 0.3199821, -0.63001543, -0.30016714, -0.64077437, -0.006353691, 5.2860816E-4, 0.089261055, 0
1324, 422796430, 0.3199829, -0.6300071, -0.30016804, -0.6407818, -0.0030129547, -0.0077684163, 0.09350014, 0
1326, 422829764, 0.3199693, -0.6300331, -0.30017716, -0.64075863, -0.019285591, -0.010489016, 0.07933712, 0
1328, 422863098, 0.3199707, -0.630039, -0.30018562, -0.6407483, 0.011849539, 0.017865168, 0.09588432, 0
1330, 422896432, 0.31998172, -0.6300186, -0.3001831, -0.6407639, -0.0021886388, 0.018622428, 0.0877018, 0
1332, 422929766, 0.31998622, -0.6300178, -0.30017853, -0.6407646, -0.0050569805, 0.010512262, 0.08525276, 0
1333, 422946433, 0.31997994, -0.6300367, -0.30018136, -0.64074785, -0.002127173, 0.019437134, 0.08717823, 0
1337, 423013101, 0.31995836, -0.63003564, -0.3001913, -0.640755, 0.0012366972, -0.01336898, 0.062111855, 0
1339, 423046435, 0.31995642, -0.6300523, -0.30018497, -0.6407426, 1.6897579E-4, -0.0068913517, 0.08083439, 0
1341, 423079769, 0.31994838, -0.6300533, -0.30018136, -0.6407473, -5.811337E-6, 0.017102988, 0.08526611, 0
1342, 423096436, 0.3199489, -0.630053, -0.30018038, -0.6407478, -0.0014031025, -0.018402493, 0.08829117, 0
1344, 423129770, 0.3199378, -0.63006127, -0.30017775, -0.6407465, 0.004876494, -0.011856915, 0.09307003, 0
1346, 423163104, 0.31993854, -0.63005674, -0.3001641, -0.64075696, 0.005664824, 0.014155746, 0.09390926, 0
1348, 423196438, 0.31994775, -0.6300471, -0.30016723, -0.6407603, -0.0071694017, 0.0025972205, 0.087231636, 0
1350, 423229772, 0.31994107, -0.63005984, -0.30016676, -0.6407514, -0.016485533, -0.006767302, 0.08611488, 0
1351, 423246439, 0.3199332, -0.63006777, -0.30017433, -0.64074403, 0.012056848, 0.0048403963, 0.0923748, 0
1353, 423279773, 0.31995592, -0.63006294, -0.30016062, -0.6407438, 0.010370107, 0.0069865678, 0.085796356, 0
1355, 423313107, 0.3199484, -0.6300704, -0.300167, -0.6407372, -0.01599537, -0.008615307, 0.07838154, 0
1357, 423346441, 0.31993768, -0.6300826, -0.3001523, -0.6407375, 0.002375272, -0.0046825963, 0.08678436, 0
1358, 423363108, 0.319937, -0.6300771, -0.30015352, -0.6407426, 0.009985218, 0.010593397, 0.08791447, 0
1360, 423396442, 0.31992435, -0.6300825, -0.30014935, -0.64074564, -0.013770857, -0.015324049, 0.08004761, 0
1362, 423429776, 0.31991872, -0.6300942, -0.30015603, -0.6407338, 0.006901633, -0.016265709, 0.08228207, 0
1364, 423463110, 0.31992066, -0.6300937, -0.3001576, -0.6407325, 0.015253865, 0.0018734856, 0.0973196, 0
1366, 423496444, 0.31991315, -0.63010114, -0.30015594, -0.6407298, 2.6788027E-4, 0.017178535, 0.09977245, 0
1367, 423513111, 0.3199077, -0.630115, -0.3001633, -0.64071536, -0.0080734, -0.01257618, 0.09232426, 0
1369, 423546445, 0.31990743, -0.63011664, -0.3001555, -0.6407176, -0.0024766354, 0.011780697, 0.083711624, 0
1373, 423613113, 0.3199227, -0.6301005, -0.30013505, -0.64073545, 0.014182232, 0.019185457, 0.086156845, 0
1375, 423646447, 0.31990558, -0.6301079, -0.30014554, -0.6407317, -0.002077106, 0.013461514, 0.093024254, 0
1376, 423663114, 0.31990635, -0.6301045, -0.30014887, -0.6407331, 0.012129042, 0.0118707735, 0.09388828, 0
1378, 423696448, 0.319904, -0.6301166, -0.3001459, -0.64072376, -0.016378805, -0.0030648096, 0.08221245, 0
1380, 423729782, 0.31988347, -0.630116, -0.300155, -0.6407304, 0.0023998586, -0.011792096, 0.0830183, 0
1382, 423763116, 0.31987527, -0.6301116, -0.30016395, -0.64073473, -0.0053232964, -0.011358035, 0.096074104, 0
1384, 423796450, 0.31987754, -0.6301223, -0.30017424, -0.64071816, -0.010300818, -0.007914146, 0.08659458, 0
1385, 423813117, 0.31988412, -0.6301182, -0.3001606, -0.6407253, 0.01167207, 0.029733034, 0.094979286, 0
1387, 423846451, 0.31987855, -0.6301185, -0.30016053, -0.64072776, -0.0046506342, -0.027785342, 0.09481144, 0
1389, 423879785, 0.31987226, -0.6301258, -0.30016068, -0.6407236, -0.0027508857, -0.0044727176, 0.09528923, 0
1393, 423946453, 0.31985623, -0.63013, -0.30016893, -0.6407237, 0.008166046, 0.0106110545, 0.09914398, 0
1394, 423963120, 0.3198586, -0.630132, -0.30016673, -0.64072156, -0.0121530695, -0.014475146, 0.07049942, 0
1396, 423996454, 0.31987184, -0.63012457, -0.30017456, -0.6407185, 0.015672952, 0.0085634515, 0.10058403, 0
1398, 424029788, 0.31984693, -0.63012403, -0.30017897, -0.6407294, 0.006147165, 0.008643917, 0.09527588, 0
1400, 424063122, 0.31985492, -0.6301243, -0.30016544, -0.6407317, 9.3752507E-4, -0.010410563, 0.09084511, 0
1402, 424096456, 0.31984386, -0.6301296, -0.3001771, -0.64072645, 0.004810334, -0.0074224183, 0.08360195, 0
1403, 424113123, 0.31984693, -0.6301083, -0.3001774, -0.64074564, -0.007872461, 0.014103891, 0.083459854, 0
1405, 424146457, 0.31984958, -0.6301234, -0.30019078, -0.6407232, -0.014314999, -0.01126617, 0.08001709, 0
1407, 424179791, 0.31984544, -0.6301209, -0.30019462, -0.640726, 0.010223706, 0.004223501, 0.08132744, 0
1409, 424213125, 0.31986547, -0.6301209, -0.30019125, -0.6407176, -0.00970415, 0.0035328458, 0.09520149, 0
1412, 424263126, 0.31986538, -0.6301195, -0.300196, -0.6407168, 0.0077084033, -0.005476738, 0.09225273, 0
1414, 424296460, 0.31985265, -0.63013124, -0.3002022, -0.6407086, 0.0036000113, -0.009749412, 0.095360756, 0
1416, 424329794, 0.31985527, -0.63012743, -0.30020422, -0.64071006, 0.003107389, -9.349547E-4, 0.095947266, 0
1418, 424363128, 0.3198542, -0.6301199, -0.30021182, -0.64071447, -0.0015576618, -0.0066220183, 0.09437275, 0
1420, 424396462, 0.31984344, -0.6301192, -0.30021462, -0.6407193, 0.015189046, 0.015194634, 0.090768814, 0
1421, 424413129, 0.31983846, -0.6301182, -0.30021495, -0.6407227, 0.014447989, 0.010835238, 0.092850685, 0
1423, 424446463, 0.31983235, -0.63012475, -0.30022183, -0.640716, 0.011386644, -0.0033106739, 0.087472916, 0
1425, 424479797, 0.3198462, -0.6301254, -0.30021897, -0.6407098, 0.0056811403, -0.008809316, 0.087285995, 0
1427, 424513131, 0.31983778, -0.6301147, -0.30022484, -0.6407218, -0.0033177147, -0.0012107696, 0.08186531, 0
1429, 424546465, 0.31983513, -0.6301086, -0.30024368, -0.6407202, 0.017227037, 0.0012284272, 0.08622551, 0
1432, 424596466, 0.31983373, -0.6301109, -0.3002474, -0.64071685, -0.0062302, -0.015443851, 0.07753372, 0
1434, 424629800, 0.31983438, -0.6301076, -0.30024558, -0.6407207, 0.001108289, 0.007674988, 0.092455864, 0
1436, 424663134, 0.31984007, -0.63010454, -0.30025822, -0.6407148, -0.0080573065, -0.004251887, 0.08137035, 0
1439, 424713135, 0.32000247, -0.6300587, -0.30015805, -0.640726, 0.0021375662, 0.0061477236, 0.0766058, 0
1441, 424746469, 0.3199966, -0.6300616, -0.3001601, -0.64072496, 0.01633265, 0.010199343, 0.0974102, 0
1443, 424779803, 0.31998414, -0.63006324, -0.30015805, -0.64073056, 0.008468682, 0.004225289, 0.09541607, 0
1445, 424813137, 0.31997776, -0.63007206, -0.30014586, -0.64073074, 0.011899942, 0.013231743, 0.09791851, 0
1447, 424846471, 0.31997088, -0.6300832, -0.30014688, -0.6407228, -0.0018613042, 5.8023963E-4, 0.0911665, 0
1448, 424863138, 0.31996655, -0.63007647, -0.30014277, -0.64073354, 0.008555182, 0.007274229, 0.09009743, 0
1450, 424896472, 0.3199682, -0.6300694, -0.3001339, -0.6407438, 0.0052726706, 0.0042737913, 0.090164185, 0
1452, 424929806, 0.31995636, -0.6300697, -0.30012977, -0.64075136, -0.006585586, -0.014996826, 0.08541584, 0
1454, 424963140, 0.31996068, -0.6300714, -0.3001155, -0.64075416, -0.010922743, 0.0033379425, 0.090224266, 0
1456, 424996474, 0.31996438, -0.6300645, -0.3001231, -0.64075553, 6.8495545E-4, 0.008640117, 0.09768963, 0
1458, 425029808, 0.31996417, -0.63005936, -0.3001241, -0.64076024, 0.0027478682, -0.0023683433, 0.086247444, 0
1459, 425046475, 0.31997195, -0.6300602, -0.30013138, -0.64075214, -3.158238E-4, 0.004082017, 0.09485912, 0
1461, 425079809, 0.3199814, -0.6300418, -0.30013084, -0.6407658, -4.234453E-4, 0.00949863, 0.091192245, 0
1463, 425113143, 0.3199843, -0.6300492, -0.30013242, -0.6407563, -0.014243252, -0.011570819, 0.0818882, 0
1465, 425146477, 0.3199861, -0.63005215, -0.3001404, -0.64074886, -0.0059432094, -0.008418392, 0.08736324, 0
1467, 425179811, 0.31998473, -0.63003534, -0.3001419, -0.64076537, 0.008199237, 0.007170296, 0.09898949, 0
1470, 425229812, 0.3199855, -0.6300438, -0.30014953, -0.64075303, 0.010656204, 0.010610831, 0.0840683, 0
1472, 425263146, 0.3199773, -0.6300436, -0.300152, -0.6407562, 0.011365633, 0.00715912, 0.09459591, 0
1474, 425296480, 0.31997693, -0.6300445, -0.30015367, -0.64075464, 0.010731304, 0.012641446, 0.096227646, 0
1476, 425329814, 0.31997588, -0.63003516, -0.30015588, -0.64076334, -6.658451E-4, 6.899845E-4, 0.096886635, 0
1477, 425346481, 0.31996757, -0.6300489, -0.3001548, -0.64075446, 0.015187817, 0.013277116, 0.111637115, 0
1479, 425379815, 0.31996167, -0.63003916, -0.30016127, -0.64076394, -4.4389674E-4, 0.019186575, 0.080124855, 0
1481, 425413149, 0.31996116, -0.63004196, -0.30016017, -0.64076185, -0.0076067047, 0.002120691, 0.09059048, 0
1483, 425446483, 0.31996596, -0.63003284, -0.3001722, -0.6407629, -0.008172863, -0.0019644555, 0.10154343, 0
1485, 425479817, 0.31997058, -0.63001704, -0.3001694, -0.6407774, 0.019523075, 0.016976703, 0.08903885, 0
1486, 425496484, 0.3199682, -0.63002175, -0.3001687, -0.64077437, -0.011610827, -0.0017621762, 0.0891161, 0
1490, 425563152, 0.31996304, -0.63004106, -0.30015585, -0.640764, -0.01208624, -0.013770186, 0.09530258, 0
1492, 425596486, 0.3199534, -0.6300436, -0.30016324, -0.64076275, -0.0019036599, 0.005536863, 0.0903101, 0
1494, 425629820, 0.319952, -0.6300446, -0.30017358, -0.6407577, 0.004495069, 0.0084201805, 0.08638954, 0
1495, 425646487, 0.31995174, -0.6300426, -0.30017176, -0.6407606, 0.0107845, 0.008980527, 0.096508026, 0
1497, 425679821, 0.319957, -0.6300409, -0.30016667, -0.64076215, 0.011303721, 0.008732204, 0.0880537, 0
1499, 425713155, 0.31994444, -0.6300278, -0.30019292, -0.6407689, 0.0014912784, 0.00552077, 0.103957176, 0
1501, 425746489, 0.31994385, -0.6300186, -0.30019593, -0.6407768, 0.006031832, 0.00972192, 0.09392643, 0
1503, 425779823, 0.31994528, -0.630022, -0.30019888, -0.6407714, -0.0046528694, -0.016654843, 0.08372784, 0
1504, 425796490, 0.3199459, -0.63001513, -0.30019397, -0.6407801, 0.013855233, 0.008651293, 0.088074684, 0
1506, 425829824, 0.31994715, -0.6300117, -0.300197, -0.64078146, 0.018852424, 0.023588886, 0.09262562, 0
1510, 425896492, 0.31993476, -0.6299947, -0.30020466, -0.6408009, -0.0013451009, 0.015847739, 0.09124184, 0
1512, 425929826, 0.31992978, -0.6299902, -0.3001962, -0.6408116, 7.80619E-4, 0.010106585, 0.09361172, 0
1513, 425946493, 0.31992936, -0.62998563, -0.30019978, -0.64081466, 0.006510262, 0.02851377, 0.07592201, 0
1515, 425979827, 0.31991655, -0.62999, -0.300208, -0.640813, -0.019058615, -0.012673631, 0.09313774, 0
1517, 426013161, 0.31991357, -0.62998873, -0.30019772, -0.6408206, -0.0026974662, 0.020001505, 0.08568668, 0
1519, 426046495, 0.319903, -0.629978, -0.30019513, -0.64083755, -0.025821222, -0.012095851, 0.11288357, 0
1521, 426079829, 0.31993684, -0.6299389, -0.30016068, -0.64087516, 0.0014017615, -0.0027237288, 0.07314491, 0
1522, 426096496, 0.31995136, -0.6299029, -0.30015087, -0.64090794, 6.5086974E-4, 0.009713426, 0.07623863, 0
1524, 426129830, 0.3199533, -0.6298992, -0.30014536, -0.6409132, -0.013679999, -0.010481193, 0.086408615, 0
1526, 426163164, 0.3199597, -0.62987804, -0.30013323, -0.6409365, 0.0059661195, 0.0107500795, 0.07842064, 0
1530, 426229832, 0.31995657, -0.6298513, -0.30012444, -0.6409684, 0.014767389, 0.0050596627, 0.08117485, 0
1533, 426279833, 0.3199524, -0.6298544, -0.3001239, -0.6409677, 0.015409095, 0.011627815, 0.086764336, 0
1537, 426346501, 0.3199558, -0.6298514, -0.30013692, -0.6409629, -0.004537201, -6.20919E-4, 0.09681034, 0
1539, 426379835, 0.3199623, -0.6298388, -0.3001346, -0.6409731, -0.0011599205, -0.0019809953, 0.09240055, 0
1540, 426396502, 0.31996155, -0.6298347, -0.30013877, -0.64097553, 0.0055498267, -0.0015746488, 0.09400082, 0
1542, 426429836, 0.31996566, -0.6298266, -0.30012882, -0.6409861, 0.0022417232, 0.01587389, 0.07680988, 0
1544, 426463170, 0.31996632, -0.6298384, -0.30012494, -0.64097595, 0.00788699, 0.0067076236, 0.093419075, 0
1546, 426496504, 0.31996864, -0.6298198, -0.30012783, -0.64099187, 0.025847597, 0.014989673, 0.09488678, 0
1548, 426529838, 0.31995997, -0.6298121, -0.30013874, -0.6409984, 0.006679685, 0.021311067, 0.09002209, 0
1549, 426546505, 0.31995735, -0.6298219, -0.30013707, -0.64099103, -0.015137862, 0.0076372144, 0.092017174, 0
1551, 426579839, 0.31997076, -0.62982166, -0.30012545, -0.64099, -0.005065027, 0.018873882, 0.09438419, 0
1553, 426613173, 0.31998876, -0.62982136, -0.30011997, -0.6409839, -5.671641E-4, -0.0013379486, 0.07877064, 0
1555, 426646507, 0.31999457, -0.6298346, -0.30010682, -0.6409741, -0.0011937827, -0.010720799, 0.104540825, 0
1557, 426679841, 0.31999987, -0.62982637, -0.3001036, -0.64098114, 5.623586E-4, -8.129166E-4, 0.10034847, 0
1558, 426696508, 0.32000884, -0.62984097, -0.30011216, -0.6409583, 0.020032795, 0.01457975, 0.10684395, 0
1560, 426729842, 0.32002923, -0.6298213, -0.30010444, -0.640971, 0.014749508, -7.118888E-4, 0.08320427, 0
1562, 426763176, 0.32002673, -0.62982684, -0.30009145, -0.64097285, 0.012327634, -0.003059669, 0.08897591, 0
1564, 426796510, 0.3200162, -0.6298334, -0.30008778, -0.64097327, 0.00748489, 0.012929107, 0.08952522, 0
1566, 426829844, 0.32002056, -0.6298453, -0.3000821, -0.6409621, 0.003029271, 0.0023531443, 0.09390259, 0
1569, 426879845, 0.3200241, -0.6298276, -0.30007577, -0.6409808, -0.013662453, 0.012238899, 0.08136845, 0
1571, 426913179, 0.32002544, -0.6298439, -0.30007094, -0.64096636, 0.012414133, 0.015648812, 0.086886406, 0
1573, 426946513, 0.3200099, -0.62986165, -0.30006346, -0.6409601, -0.006038873, -0.015791638, 0.087062836, 0
1575, 426979847, 0.32001898, -0.62985605, -0.30006367, -0.64096105, -0.0019816658, -0.002698472, 0.08454609, 0
1576, 426996514, 0.32001933, -0.6298604, -0.3000774, -0.6409501, 0.005193435, 0.011790308, 0.09814739, 0
1578, 427029848, 0.32002956, -0.629861, -0.30006874, -0.6409485, 3.4007497E-4, 0.020934224, 0.08452797, 0
1580, 427063182, 0.32003284, -0.62986237, -0.3000701, -0.64094484, 0.0033035215, -0.0053102206, 0.07251263, 0
1582, 427096516, 0.32003233, -0.6298777, -0.3000671, -0.6409315, 0.002842079, -0.006112409, 0.08583832, 0
1584, 427129850, 0.32001755, -0.62987345, -0.30007434, -0.6409396, 0.008417498, 0.01574224, 0.079808235, 0
1585, 427146517, 0.32001892, -0.6298812, -0.3000704, -0.64093316, 0.001531846, -0.011637426, 0.085124016, 0
1589, 427213185, 0.31998432, -0.6299137, -0.30008277, -0.6409127, -0.006462095, 0.0035496093, 0.10112858, 0
1591, 427246519, 0.3199911, -0.62990075, -0.30007502, -0.6409258, -0.0012598308, -0.012325175, 0.08678818, 0
1593, 427279853, 0.31996968, -0.62993306, -0.30009308, -0.64089614, 0.0042259595, 0.009152856, 0.08526039, 0
1594, 427296520, 0.31997108, -0.6299372, -0.30009142, -0.6408922, -0.0033981793, 0.0065086973, 0.107590675, 0
1596, 427329854, 0.31998658, -0.6299036, -0.3000712, -0.6409269, 0.017957926, 0.011147038, 0.08006096, 0
1598, 427363188, 0.31996247, -0.6299611, -0.3000908, -0.6408734, -0.041377053, -0.028232144, 0.073740005, 0
1600, 427396522, 0.3199594, -0.62997055, -0.30009013, -0.64086586, -0.002390471, 0.021379909, 0.11951828, 0
1602, 427429856, 0.319988, -0.6299264, -0.30007204, -0.6409035, 0.03744993, 0.030554669, 0.06484413, 0
1603, 427446523, 0.3199578, -0.62996995, -0.30010244, -0.6408615, 0.008762937, 0.019001953, 0.057627678, 0
1605, 427479857, 0.3199463, -0.6299914, -0.30013582, -0.6408305, 0.01761718, 0.039378736, 0.14648533, 0
1609, 427546525, 0.31990772, -0.63000464, -0.30015552, -0.64082754, 0.0098588215, 0.018566774, 0.09119606, 0
1611, 427579859, 0.31989866, -0.63001966, -0.3001504, -0.64081967, -0.024286918, -0.042162143, 0.085214615, 0
1612, 427596526, 0.31990013, -0.63000685, -0.3001514, -0.6408311, 0.016340585, 0.026187671, 0.09417248, 0
1614, 427629860, 0.31988063, -0.63003224, -0.30017298, -0.6408056, 1.4528342E-6, -0.010497286, 0.089904785, 0
1616, 427663194, 0.31987277, -0.63004565, -0.30017573, -0.6407953, -0.011169166, -0.040868897, 0.09890747, 0
1618, 427696528, 0.31985354, -0.63006616, -0.3001819, -0.64078176, 0.0042131073, -0.008621118, 0.095293045, 0
1620, 427729862, 0.31986138, -0.6300411, -0.3001823, -0.64080226, 0.0040782173, 0.003867668, 0.081869125, 0
1621, 427746529, 0.31985724, -0.63004786, -0.3001873, -0.6407954, 0.02151558, 0.04128888, 0.07965469, 0
1623, 427779863, 0.31983525, -0.6300885, -0.30019498, -0.64076275, -0.007278923, -0.014063883, 0.103069305, 0
1625, 427813197, 0.31984782, -0.63005465, -0.30017608, -0.64079857, 0.026699852, 0.020551346, 0.08114433, 0
1629, 427879865, 0.31983045, -0.6300675, -0.3001997, -0.6407835, 0.004496857, 0.027328258, 0.08085346, 0
1630, 427896532, 0.3198316, -0.6300647, -0.3002039, -0.6407837, 0.0031794717, -0.010734433, 0.10018444, 0
1634, 427963200, 0.31984088, -0.6300814, -0.3001988, -0.6407652, -0.017821582, -0.0057362365, 0.09145546, 0
1636, 427996534, 0.31984884, -0.6300644, -0.30021214, -0.6407717, 0.013477049, 0.010001088, 0.090185165, 0
1638, 428029868, 0.31985545, -0.6300486, -0.30021363, -0.64078325, -5.6470546E-4, 0.0021088447, 0.09876442, 0
1639, 428046535, 0.3198504, -0.63006246, -0.30022472, -0.640767, 0.01416558, 0.017388415, 0.08251476, 0
1641, 428079869, 0.3198566, -0.6300559, -0.30022475, -0.64077014, 0.011304056, 0.028831383, 0.08149719, 0
1643, 428113203, 0.31985483, -0.63005054, -0.30022585, -0.64077586, -0.0017388191, -0.00357956, 0.09666157, 0
1645, 428146537, 0.31985536, -0.63003933, -0.30021536, -0.6407914, -0.011434476, 0.010038861, 0.08488655, 0
1647, 428179871, 0.31983653, -0.6300558, -0.30022758, -0.6407791, 0.0075633433, 0.0062773614, 0.087340355, 0
1648, 428196538, 0.3198466, -0.63004965, -0.3002246, -0.6407814, -0.01522805, -0.008689737, 0.09771347, 0
1650, 428229872, 0.319866, -0.6300394, -0.3002121, -0.6407876, 5.994617E-4, 0.008202255, 0.09020901, 0
1652, 428263206, 0.31985652, -0.6300464, -0.30021685, -0.6407833, -0.01720927, 0.007666047, 0.099069595, 0
1654, 428296540, 0.31985655, -0.63004225, -0.30021495, -0.64078826, -0.0059496914, 0.0021727695, 0.07584095, 0
1655, 428313207, 0.31986347, -0.6300236, -0.30021423, -0.6408035, -0.0018388411, 0.009003996, 0.08500385, 0
1657, 428346541, 0.31986022, -0.630035, -0.3002176, -0.6407924, 0.0019608792, -0.0023075477, 0.09282303, 0
1659, 428379875, 0.31984782, -0.6300303, -0.30022871, -0.6407979, 0.004872359, 0.009286069, 0.09627056, 0
1661, 428413209, 0.31984183, -0.63002247, -0.30023342, -0.6408064, -0.007060327, 0.021877002, 0.089131355, 0
1663, 428446543, 0.31983963, -0.63003397, -0.30023956, -0.6407934, 0.0049873563, -0.006397835, 0.091861725, 0
1666, 428496544, 0.31984568, -0.63000625, -0.30023316, -0.6408205, -0.020331968, 0.010543106, 0.075161934, 0
1668, 428529878, 0.31983227, -0.6300377, -0.30023572, -0.64079505, -0.01571408, -0.025892634, 0.09663296, 0
1670, 428563212, 0.31984013, -0.6300355, -0.30024484, -0.640789, 0.015771186, 0.021002172, 0.089167595, 0
1672, 428596546, 0.31983665, -0.63003427, -0.30025172, -0.64078885, -0.009111171, 0.010241363, 0.0936718, 0
1673, 428613213, 0.3198553, -0.6299852, -0.30023035, -0.6408377, -0.01913908, -0.028963704, 0.10609913, 0
1675, 428646547, 0.31982976, -0.6300263, -0.3002576, -0.6407974, -0.046501536, -0.030808132, 0.08420086, 0
1677, 428679881, 0.31983024, -0.6300325, -0.300253, -0.6407933, 0.009266288, 0.025704214, 0.08715725, 0
1679, 428713215, 0.31982854, -0.6300174, -0.30024356, -0.64081323, 0.006352015, 0.014423515, 0.09792805, 0
1681, 428746549, 0.319797, -0.630058, -0.30026254, -0.64078015, 0.004126496, -0.0032845228, 0.08926487, 0
1682, 428763216, 0.31976956, -0.63011754, -0.3002889, -0.64072305, 0.011984429, 0.01713115, 0.09228134, 0
1686, 428829884, 0.31980938, -0.6300243, -0.30025107, -0.6408124, 0.018941382, 0.02354128, 0.08870506, 0
1688, 428863218, 0.31982, -0.62997395, -0.3002305, -0.6408665, -0.023613585, -0.01185848, 0.09504795, 0
1690, 428896552, 0.31983566, -0.6299353, -0.30021393, -0.64090425, 0.020404832, 0.013036394, 0.07686329, 0
1691, 428913219, 0.31984022, -0.6299325, -0.30021927, -0.6409022, -0.0019645672, 0.009252319, 0.09444332, 0
1693, 428946553, 0.31984904, -0.62991345, -0.30020574, -0.640923, -0.018329851, -0.009507794, 0.09414196, 0
1695, 428979887, 0.31981933, -0.62995976, -0.30024827, -0.6408724, -0.0046528694, 0.01805694, 0.09013271, 0
1697, 429013221, 0.31985295, -0.62988645, -0.30021518, -0.6409431, -0.02794616, 0.0011743371, 0.08247852, 0
1699, 429046555, 0.3198389, -0.6299137, -0.3002212, -0.64092046, 0.010825515, 0.0049581877, 0.09362221, 0
1700, 429063222, 0.31984177, -0.62991995, -0.300228, -0.64090973, -0.03528655, -0.035578344, 0.08351326, 0
1702, 429096556, 0.3198494, -0.6299108, -0.30022615, -0.6409158, -0.016381152, -0.016142776, 0.10201359, 0
1706, 429163224, 0.31989592, -0.62979746, -0.30018097, -0.641025, 0.0081986785, 0.012831879, 0.096570015, 0
1708, 429196558, 0.31988612, -0.6298186, -0.30019665, -0.64100176, -0.009249525, -0.005483667, 0.08516598, 0
1709, 429213225, 0.31989148, -0.6297978, -0.30018836, -0.6410235, 0.0014860259, 0.016339244, 0.092879295, 0
1711, 429246559, 0.319932, -0.6296994, -0.30014724, -0.64111924, 0.015450445, 0.008930908, 0.100141525, 0
1713, 429279893, 0.31991166, -0.62973, -0.3001493, -0.6410983, -0.025338434, -0.021540167, 0.08710098, 0
1715, 429313227, 0.31994936, -0.62966716, -0.30008864, -0.64116967, -0.015671387, -0.013222356, 0.09773636, 0
1717, 429346561, 0.31989127, -0.6297838, -0.3001405, -0.6410599, 0.019079402, 0.034307897, 0.07867336, 0
1718, 429363228, 0.31983837, -0.6298935, -0.30018967, -0.6409554, -0.052940607, -0.0654998, 0.09289932, 0
1720, 429396562, 0.31987458, -0.62982416, -0.30016205, -0.6410185, -0.00760894, -0.016748942, 0.08516598, 0
1722, 429429896, 0.31994468, -0.6296946, -0.30008587, -0.64114636, -0.024806473, -0.028897095, 0.09398651, 0
1726, 429496564, 0.3201265, -0.62933177, -0.2999198, -0.6414894, -1.484126E-4, -0.0044499193, 0.08082867, 0
1727, 429513231, 0.32017088, -0.6292409, -0.2998845, -0.6415729, -0.0014655745, 0.0017009336, 0.08740711, 0
1729, 429546565, 0.32020733, -0.6291713, -0.29982394, -0.64165133, 0.03505812, 0.0024673594, 0.08745861, 0
1731, 429579899, 0.3200945, -0.6291164, -0.29957026, -0.64187986, -0.025448402, -0.037883658, 0.08574295, 0
1735, 429646567, 0.32020494, -0.62884593, -0.29941055, -0.6421644, -0.0052209273, -0.006769984, 0.080379486, 0
1736, 429663234, 0.3202979, -0.628594, -0.29923555, -0.64244604, 0.03127628, 0.04275736, 0.1232481, 0
1738, 429696568, 0.32038012, -0.6277861, -0.29834715, -0.6436072, 0.14270045, 0.00994588, 0.08224106, 0
1740, 429729902, 0.32031912, -0.6273129, -0.29764035, -0.6444258, -0.10297901, -0.023874313, 0.08162689, 0
1742, 429763236, 0.32028815, -0.6272827, -0.297567, -0.64450437, -0.06613123, -0.041234788, 0.09382439, 0
1744, 429796570, 0.32034427, -0.6271599, -0.29750478, -0.6446247, 0.025628107, 0.0553389, 0.08521271, 0
1745, 429813237, 0.32030264, -0.6272548, -0.29754332, -0.64453524, 0.0069473414, 0.014632946, 0.088850975, 0
1747, 429846571, 0.32026306, -0.6273292, -0.2975738, -0.64446837, 0.0017432893, 0.013835899, 0.087818146, 0
1749, 429879905, 0.32019174, -0.62748533, -0.29765216, -0.64431566, -0.036194906, -0.027656823, 0.0986948, 0
1751, 429913239, 0.3202368, -0.6273918, -0.29762408, -0.6443972, 0.018104885, 0.018457253, 0.098361015, 0
1753, 429946573, 0.3202221, -0.62741387, -0.29762277, -0.6443837, -0.007772663, -0.00398613, 0.09059334, 0
1754, 429963240, 0.32019624, -0.62745607, -0.2976501, -0.64434284, -0.007769534, 0.01124896, 0.07772827, 0
1756, 429996574, 0.32010922, -0.6276215, -0.29773584, -0.6441853, -0.026002156, -0.029323783, 0.10312939, 0
1758, 430029908, 0.32006222, -0.6276828, -0.29776832, -0.644134, 0.008410569, 0.014203355, 0.07208252, 0
1760, 430063242, 0.3201216, -0.62755245, -0.2977225, -0.64425266, 0.006508474, 0.015787167, 0.10395908, 0
1763, 430113243, 0.3199848, -0.6278431, -0.29785636, -0.6439756, -0.027768243, -0.019737758, 0.100123405, 0
1765, 430146577, 0.3199388, -0.62794226, -0.2978923, -0.64388496, -0.0027248464, 0.010687272, 0.09938812, 0
1767, 430179911, 0.31986678, -0.6280944, -0.29796997, -0.6437366, 0.013472467, 0.03159065, 0.08802223, 0
1769, 430213245, 0.31966865, -0.6283284, -0.29795513, -0.64361334, 0.17338923, 0.0177552, 0.093613625, 0
1771, 430246579, 0.3193567, -0.62848383, -0.29764584, -0.6437596, -0.23013397, -0.014191061, 0.095318794, 0
1774, 430296580, 0.31943667, -0.62828475, -0.29754636, -0.64396024, -0.0073497766, -0.0069172787, 0.088825226, 0
1776, 430329914, 0.31957963, -0.6278224, -0.29718715, -0.6445059, 0.07582331, 0.09564455, 0.11876774, 0
1778, 430363248, 0.31970003, -0.626864, -0.29615977, -0.6458505, 0.077167176, -0.040969476, 0.09797001, 0
1780, 430396582, 0.31991455, -0.6253843, -0.2946526, -0.647865, -0.030411955, 0.044266295, 0.10651493, 0
1781, 430413249, 0.3201313, -0.6242661, -0.29363054, -0.6492988, -0.04954824, 0.088496156, 0.08186436, 0
1785, 430479917, 0.32029057, -0.6226744, -0.29198137, -0.6514887, 0.03839321, 0.027082842, 0.107131004, 0
1787, 430513251, 0.32029942, -0.62173414, -0.29089814, -0.6528655, 0.13378324, 0.024868945, 0.11881256, 0
1789, 430546585, 0.3204172, -0.6200911, -0.28913438, -0.65514994, -0.020018714, -0.090796106, 0.121593475, 0
1790, 430563252, 0.32047424, -0.61936975, -0.28835946, -0.656145, 0.065361224, 0.066359654, 0.08458996, 0
1792, 430596586, 0.3206815, -0.6176493, -0.2866707, -0.65840167, 0.095299385, 0.14847094, 0.09979248, 0
1794, 430629920, 0.32114813, -0.6155138, -0.28493133, -0.66092426, -0.063801326, 0.04803517, 0.089030266, 0
1796, 430663254, 0.32153, -0.6128831, -0.28255457, -0.6641956, 0.5956258, 0.42506722, 0.058714867, 0
1798, 430696588, 0.3221394, -0.60965073, -0.27988335, -0.6679953, -0.44764873, -0.25762013, 0.09139252, 0
1800, 430729922, 0.32311276, -0.6061387, -0.2775067, -0.67170244, -0.0016622659, -0.017917916, 0.04897976, 0
1801, 430746589, 0.32366288, -0.6046322, -0.27665532, -0.67314506, -0.1742687, -0.033163957, 0.088350296, 0
1805, 430813257, 0.3248473, -0.59911066, -0.2724389, -0.67920375, 0.07029622, -0.030506613, 0.119755745, 0
1807, 430846591, 0.32631725, -0.5939221, -0.26913548, -0.68435353, 0.031177487, -0.025273057, 0.11619663, 0
1809, 430879925, 0.32738507, -0.5901677, -0.2667867, -0.6880015, -0.1740292, -0.12045739, 0.10062313, 0
1810, 430896592, 0.32758638, -0.58931124, -0.2661973, -0.6888678, -0.045321386, -0.120180905, 0.100149155, 0
1812, 430929926, 0.32944345, -0.5840991, -0.26347697, -0.6934517, 0.086627975, 0.11548054, 0.098727226, 0
1814, 430963260, 0.33146203, -0.5782118, -0.26038322, -0.69857335, 0.14659433, 0.07330845, 0.12221146, 0
1816, 430996594, 0.33279094, -0.5736662, -0.25775686, -0.7026512, -0.084154695, 0.056304365, 0.06842232, 0
1818, 431029928, 0.33421248, -0.56938803, -0.25552726, -0.70626146, -0.08018628, -0.019983176, 0.14961338, 0
1819, 431046595, 0.33487085, -0.56733215, -0.25443017, -0.707998, 0.12609573, 0.017423058, 0.07350826, 0
1821, 431079929, 0.33736065, -0.5598576, -0.2506468, -0.71408933, 0.22470987, 0.059425503, 0.08162022, 0
1825, 431146597, 0.34520313, -0.5330694, -0.23670694, -0.7352834, -0.15157609, 0.04231715, 0.10981178, 0
1827, 431179931, 0.3498534, -0.5174794, -0.22907723, -0.746553, 0.04329798, 0.022357553, 0.081941605, 0
1828, 431196598, 0.3522315, -0.5094002, -0.22521003, -0.75214684, 0.024386885, 0.021524409, -0.015255928, 0
1830, 431229932, 0.35729676, -0.49149927, -0.21675716, -0.7640575, 0.043352462, 0.09361538, -0.07550907, 0
1832, 431263266, 0.36210236, -0.47402927, -0.20860924, -0.77502304, 0.013238672, 0.10368051, 0.120435715, 0
1834, 431296600, 0.365866, -0.45790732, -0.20074409, -0.78496176, -0.16187283, -0.18495329, 0.0025262833, 0
1836, 431329934, 0.3696954, -0.44005334, -0.19205868, -0.7954823, 0.16618925, 0.07435874, 0.0987854, 0
1837, 431346601, 0.37132007, -0.42976162, -0.18674842, -0.801593, -0.06911211, -0.25689316, -0.28804493, 0
1839, 431379935, 0.3769073, -0.39455292, -0.16926795, -0.820742, -0.26723886, -0.3740507, -0.29829884, 0
1841, 431413269, 0.38380247, -0.35121852, -0.14882845, -0.84094685, -0.57151115, -0.6858086, -0.43280983, 0
1843, 431446603, 0.3937256, -0.290293, -0.12152632, -0.86367905, -0.7269192, -1.2410759, -1.5852222, 0
1845, 431479937, 0.40722612, -0.19332843, -0.078803584, -0.8891463, -0.41635138, -0.9617418, -2.8367958, 0
1846, 431496604, 0.4138394, -0.12286224, -0.048533075, -0.9007145, -0.41137034, -0.49361122, -4.0256567, 0
1848, 431529938, 0.42081234, 0.017111791, 0.014909458, -0.90686375, 4.1864424, 7.437985, 1.0951872, 0
1850, 431563272, 0.42172065, 0.009154069, 0.010010231, -0.9066245, 0.14259401, 1.3523334, -2.3998566, 0
1852, 431596606, 0.42162997, 0.0071491064, 0.008491656, -0.90670013, -0.12418108, -0.28046742, 0.32799053, 0
1854, 431629940, 0.42160434, 0.008714452, 0.009571383, -0.9066877, -0.037562948, 9.845291E-4, 0.041427612, 0
1855, 431646607, 0.42158383, 0.008309808, 0.009292054, -0.90670377, -0.053756304, -0.076928124, 0.13936234, 0
1857, 431679941, 0.4216587, 0.008330331, 0.009303658, -0.90666866, -0.1114546, -0.17118062, 0.076107025, 0
1861, 431746609, 0.42307416, 0.007165265, 0.008529709, -0.90602666, 0.23667692, 0.14870726, 0.11867523, 0
1863, 431779943, 0.42309383, 0.0071505317, 0.008552577, -0.90601724, -0.094651304, -0.13072772, 0.10658741, 0
1864, 431796610, 0.42309237, 0.0071268654, 0.008552375, -0.90601814, -0.1068546, -0.15286651, 0.10309219, 0
1866, 431829944, 0.42318115, 0.007114858, 0.008564714, -0.9059767, -0.116785064, -0.16541223, 0.10639286, 0
1868, 431863278, 0.42315012, 0.007157048, 0.00860896, -0.9059905, -0.10698131, -0.14442854, 0.10048771, 0
1870, 431896612, 0.4231076, 0.0071856044, 0.008626024, -0.9060099, -0.11061486, -0.1322158, 0.094818115, 0
1872, 431929946, 0.4243597, 0.007194146, 0.0086539965, -0.90542376, -1.2463094, -0.62888926, 0.08124828, 0
1873, 431946613, 0.42626747, 0.007204311, 0.00869401, -0.90452665, -0.5559632, -0.49189055, 0.11719608, 0
1875, 431979947, 0.42991617, 0.0070995605, 0.008678671, -0.9027992, 1.2085454, 0.54240984, -0.028942108, 0
1877, 432013281, 0.43003055, 0.0071430737, 0.008702541, -0.9027442, -0.10145433, -0.15685424, 0.09371185, 0
1881, 432079949, 0.42998475, 0.007140561, 0.00873699, -0.90276563, -0.10675762, -0.14899693, 0.094142914, 0
1882, 432096616, 0.42996895, 0.007153384, 0.0087544555, -0.90277296, -0.11225936, -0.14837778, 0.07062721, 0
1884, 432129950, 0.42993957, 0.0071605104, 0.008769835, -0.9027867, -0.09959301, -0.1693009, 0.10730648, 0
1886, 432163284, 0.42991897, 0.0071539693, 0.008790961, -0.9027963, -0.10691776, -0.15014513, 0.10475254, 0
1888, 432196618, 0.42988586, 0.007129645, 0.008804012, -0.9028122, -0.10245338, -0.15298942, 0.0971365, 0
1890, 432229952, 0.42987677, 0.007120115, 0.008830188, -0.90281636, -0.1035943, -0.16101798, 0.09869194, 0
1891, 432246619, 0.4298578, 0.0071154796, 0.008829709, -0.9028254, -0.1144918, -0.13922092, 0.0978508, 0
1893, 432279953, 0.42982855, 0.0071181105, 0.008840043, -0.90283924, -0.10389751, -0.16724734, 0.12170887, 0
1895, 432313287, 0.42980054, 0.007122878, 0.008860568, -0.9028523, -0.09155578, -0.14515334, 0.10082054, 0
1899, 432379955, 0.42975113, 0.007094335, 0.0088680405, -0.902876, -0.11020007, -0.14872214, 0.09132385, 0
1902, 432429956, 0.42970553, 0.007068445, 0.008891198, -0.9028976, -0.0959585, -0.14271265, 0.1127758, 0
1904, 432463290, 0.42967948, 0.0070345006, 0.0088939415, -0.90291023, -0.082177304, -0.15586625, 0.11562538, 0
1906, 432496624, 0.42964563, 0.007028288, 0.008932748, -0.90292597, -0.10204582, -0.15240279, 0.11647415, 0
1908, 432529958, 0.42962134, 0.0070226383, 0.008954778, -0.9029375, -0.08665644, -0.14651129, 0.07681942, 0
1909, 432546625, 0.42961398, 0.0070180125, 0.008969548, -0.9029409, -0.09328189, -0.16265647, 0.12858868, 0
1913, 432613293, 0.42956457, 0.0069945976, 0.00898477, -0.9029644, -0.09903587, -0.14815064, 0.12429142, 0
1915, 432646627, 0.4295435, 0.006985599, 0.008993339, -0.9029744, -0.089080624, -0.15916371, 0.10279465, 0
1917, 432679961, 0.429516, 0.0069735837, 0.009011168, -0.9029874, -0.08179377, -0.14815044, 0.07959366, 0
1918, 432696628, 0.42950088, 0.006965594, 0.009020432, -0.9029945, -0.08979649, -0.15508546, 0.11497688, 0
1920, 432729962, 0.42946103, 0.0069733933, 0.0090371985, -0.9030133, -0.08787267, -0.15058622, 0.07265949, 0
1924, 432796630, 0.42939743, 0.006958102, 0.009060738, -0.9030433, -0.09043242, -0.15517314, 0.1286459, 0
1926, 432829964, 0.4293705, 0.006940941, 0.009071499, -0.90305626, -0.10627785, -0.14688163, 0.10637283, 0
1927, 432846631, 0.42935938, 0.006932762, 0.009076854, -0.9030615, -0.097139835, -0.15099229, 0.08879089, 0
1929, 432879965, 0.42934486, 0.0069344165, 0.009095871, -0.90306824, -0.111893974, -0.15486719, 0.10571957, 0
1933, 432946633, 0.42929587, 0.0069221854, 0.009131516, -0.90309113, -0.09660598, -0.15242279, 0.102025986, 0
1935, 432979967, 0.429269, 0.006918379, 0.0091475565, -0.9031039, -0.08982193, -0.17493005, 0.13078594, 0
1936, 432996634, 0.42924994, 0.006910924, 0.009165143, -0.9031128, -0.084664084, -0.1563515, 0.12536907, 0
1938, 433029968, 0.4292323, 0.0069077876, 0.009173641, -0.9031212, -0.07923551, -0.15755998, 0.10621834, 0
1940, 433063302, 0.42921114, 0.00690111, 0.0091779195, -0.9031311, -0.09003238, -0.17923708, 0.11596775, 0
1944, 433129970, 0.4291472, 0.006879612, 0.009233679, -0.9031612, -0.09338598, -0.1605549, 0.113176346, 0
1945, 433146637, 0.4291351, 0.0068786433, 0.00924863, -0.90316683, -0.10432438, -0.16615325, 0.0953207, 0
1947, 433179971, 0.42910504, 0.0068573053, 0.009252867, -0.9031812, -0.08316459, -0.15823172, 0.12842274, 0
1949, 433213305, 0.4290829, 0.0068860594, 0.009290578, -0.90319115, -0.10785143, -0.16494223, 0.10356617, 0
1952, 433263306, 0.42904148, 0.0069532352, 0.009360004, -0.90320957, -0.1125848, -0.17336461, 0.1414442, 0
1954, 433296640, 0.42900217, 0.007029197, 0.00942541, -0.903227, -0.07867235, -0.1450635, 0.074913025, 0
1956, 433329974, 0.42898032, 0.007087099, 0.009491173, -0.90323615, -0.09199291, -0.16525218, 0.09414482, 0
1958, 433363308, 0.42896333, 0.007126724, 0.009544759, -0.90324336, -0.06321273, -0.10782213, 0.035528183, 0
1960, 433396642, 0.42893487, 0.007122684, 0.009563116, -0.9032568, -0.09145718, -0.19665948, 0.17353535, 0
1961, 433413309, 0.42892578, 0.007134152, 0.009583677, -0.90326077, -0.085971355, -0.1631639, 0.081715584, 0
1965, 433479977, 0.42886615, 0.007124498, 0.00961022, -0.9032889, -0.094119646, -0.16671543, 0.08845329, 0
1967, 433513311, 0.42884532, 0.007112365, 0.009628158, -0.9032986, -0.09470315, -0.15346391, 0.06499386, 0
1969, 433546645, 0.428821, 0.007095982, 0.009618978, -0.9033105, -0.08904506, -0.14127067, 0.08038807, 0
1970, 433563312, 0.42880583, 0.0070834914, 0.009615899, -0.9033178, -0.09429854, -0.14976183, 0.128685, 0
1972, 433596646, 0.42877877, 0.0070700594, 0.009643396, -0.9033304, -0.082568064, -0.16518685, 0.10472107, 0
1974, 433629980, 0.42875266, 0.0070549883, 0.009654821, -0.9033427, -0.082382604, -0.15260708, 0.13171959, 0
1976, 433663314, 0.42871755, 0.007037266, 0.009669327, -0.9033594, -0.06974202, -0.12922119, 0.08966255, 0
1978, 433696648, 0.42869845, 0.0070274174, 0.009671747, -0.9033685, -0.09494932, -0.16946225, 0.08776951, 0
1979, 433713315, 0.42867553, 0.0070299082, 0.009676042, -0.90337944, -0.07294608, -0.16121128, 0.095191956, 0
1981, 433746649, 0.42863676, 0.0070274225, 0.009696087, -0.90339756, -0.10285294, -0.15082817, 0.06213379, 0
1985, 433813317, 0.42599645, 0.00703907, 0.009744743, -0.90464497, -0.017691473, -0.24600032, 0.1197443, 0
1987, 433846651, 0.42169642, 0.0071072225, 0.009806565, -0.9066562, -0.10368029, -0.128576, 0.03672409, 0
1988, 433863318, 0.42001873, 0.007101953, 0.009790537, -0.9074349, -0.06351492, -0.10889524, 0.16556454, 0
1990, 433896652, 0.4188602, 0.006852696, 0.009677395, -0.90797335, -0.049548194, -0.10172459, 0.13593006, 0
1992, 433929986, 0.41878548, 0.006557391, 0.009547179, -0.90801144, -0.036428545, -0.017588845, 0.07829094, 0
1994, 433963320, 0.41723463, 0.0060641523, 0.009420798, -0.90872973, 0.6448693, 1.6385674, 0.108239174, 0
1996, 433996654, 0.4138079, 0.006038185, 0.009487761, -0.9102948, -0.67583466, -1.7085311, 0.13427925, 0
1997, 434013321, 0.41335985, 0.005949464, 0.009572547, -0.910498, -0.5477665, -1.3267215, 0.09790039, 0
1999, 434046655, 0.41332904, 0.0058368733, 0.009652378, -0.9105119, -0.044983305, -0.48426998, 0.10426617, 0
2001, 434079989, 0.4134689, 0.005851248, 0.009522188, -0.9104497, -0.17609596, -0.14209187, 0.11621475, 0
2005, 434146657, 0.41550466, 0.0059794663, 0.00936129, -0.9095234, -0.0052661956, -0.11004904, 0.1130867, 0
2006, 434163324, 0.4158437, 0.00607083, 0.009353349, -0.9093677, 0.054675903, -0.09165582, 0.12117481, 0
2008, 434196658, 0.4164174, 0.0061713504, 0.0093936175, -0.90910417, -0.20843232, -0.29160112, 0.103648186, 0
2010, 434229992, 0.4168611, 0.006177374, 0.0094832, -0.9088998, -0.03651789, -0.11775468, 0.11304283, 0
2012, 434263326, 0.4168764, 0.0061632227, 0.009523315, -0.9088925, -0.08902309, -0.16240196, 0.099515915, 0
2014, 434296660, 0.41674227, 0.006088073, 0.009561913, -0.9089541, -0.016386228, -0.16093989, 0.1051836, 0
2015, 434313327, 0.41650653, 0.006141884, 0.009573315, -0.90906173, -2.2192392E-4, -0.009016378, 0.088391304, 0
2017, 434346661, 0.41546246, 0.006470225, 0.009685701, -0.90953577, -0.12253324, -0.3351886, 0.08636379, 0
2019, 434379995, 0.41448164, 0.0066053397, 0.009801401, -0.90998095, -0.13891272, 0.06366332, 0.08338356, 0
2021, 434413329, 0.414047, 0.006841394, 0.009791989, -0.91017723, -0.1926516, -0.37935454, 0.13770676, 0
2024, 434463330, 0.41400135, 0.0068397215, 0.009793833, -0.91019785, -0.07588392, -0.15835977, 0.12601852, 0
2026, 434496664, 0.4139911, 0.0068278816, 0.009796932, -0.9102026, -0.10377503, -0.15920405, 0.09418774, 0
2028, 434529998, 0.41396874, 0.006812497, 0.00980807, -0.9102128, -0.07554574, -0.15972169, 0.09924412, 0
2030, 434563332, 0.41394743, 0.006789525, 0.009792232, -0.9102229, -0.09003418, -0.1852325, 0.107367516, 0
2032, 434596666, 0.41391972, 0.006762247, 0.009777984, -0.91023576, -0.08172911, -0.16104126, 0.084905624, 0
2033, 434613333, 0.41390452, 0.006751376, 0.009776799, -0.91024274, -0.08009052, -0.15881258, 0.09037876, 0
2035, 434646667, 0.41387343, 0.006707048, 0.009773543, -0.9102573, -0.106223725, -0.16672362, 0.11025238, 0
2037, 434680001, 0.41384834, 0.006683324, 0.009774824, -0.91026884, -0.08100887, -0.16990267, 0.10498428, 0
2039, 434713335, 0.41382754, 0.0066794027, 0.009789164, -0.91027814, -0.08209654, -0.1707092, 0.09955788, 0
2041, 434746669, 0.41381043, 0.0066604014, 0.009786345, -0.91028607, -0.09313394, -0.15320511, 0.110079765, 0
2042, 434763336, 0.41378993, 0.006668145, 0.009797017, -0.91029537, -0.10126111, -0.17154686, 0.14583683, 0
2044, 434796670, 0.41375396, 0.0066850437, 0.009811429, -0.9103114, -0.07222726, -0.13401863, 0.0838356, 0
2046, 434830004, 0.41373435, 0.0066848747, 0.009815395, -0.9103202, -0.07573117, -0.15072836, 0.13665867, 0
2048, 434863338, 0.41370168, 0.0066977693, 0.009853108, -0.91033465, -0.082935974, -0.16693301, 0.124777794, 0
2050, 434896672, 0.41368562, 0.00671195, 0.009874557, -0.9103415, -0.07598928, -0.14999646, 0.051747322, 0
2051, 434913339, 0.4136741, 0.0067025344, 0.009877869, -0.91034675, -0.076074965, -0.16033679, 0.09049606, 0
2053, 434946673, 0.41363996, 0.0066843424, 0.009872924, -0.91036254, -0.07883486, -0.15564205, 0.08361244, 0
2055, 434980007, 0.4136117, 0.0066638095, 0.009883628, -0.9103754, -0.088706456, -0.16415174, 0.11675453, 0
2057, 435013341, 0.41358092, 0.0066513773, 0.009895655, -0.9103894, -0.08340843, -0.16166216, 0.100670815, 0
2060, 435063342, 0.41353592, 0.0066398173, 0.009913003, -0.9104096, -0.06771661, -0.14953452, 0.08270931, 0
2062, 435096676, 0.4135067, 0.0066184197, 0.009902273, -0.9104231, -0.076013654, -0.1639176, 0.097268105, 0
2066, 435163344, 0.41346473, 0.006585951, 0.009897399, -0.91044253, -0.08264092, -0.15370083, 0.09680748, 0
2068, 435196678, 0.41343817, 0.006574662, 0.009893099, -0.9104547, -0.07672071, -0.15691479, 0.08669758, 0
2069, 435213345, 0.4134184, 0.006573724, 0.009899859, -0.91046363, -0.06206014, -0.15111443, 0.14825153, 0
2071, 435246679, 0.41339085, 0.0065552574, 0.009919712, -0.910476, -0.08044463, -0.15191212, 0.07952309, 0
2073, 435280013, 0.41335827, 0.006529943, 0.009927076, -0.91049093, -0.07681024, -0.1633748, 0.109199524, 0
2075, 435313347, 0.41335416, 0.006482373, 0.009925983, -0.9104932, -0.06454371, -0.12332674, -0.0063438416, 0
2077, 435346681, 0.4133393, 0.006419498, 0.009858012, -0.91050106, -0.105934165, -0.23581338, 0.2743559, 0
2078, 435363348, 0.41332474, 0.0064002965, 0.009897243, -0.9105074, -0.09880763, -0.20455746, 0.004805565, 0
2082, 435430016, 0.41326666, 0.006291542, 0.009838611, -0.9105353, -0.06775587, -0.16644275, 0.062394142, 0
2084, 435463350, 0.41324437, 0.006218603, 0.009813265, -0.91054606, -0.061233163, -0.15230268, 0.08539963, 0
2086, 435496684, 0.41321352, 0.006157503, 0.009795163, -0.9105607, -0.090641685, -0.15846647, 0.100893974, 0
2089, 435546685, 0.41319197, 0.006082106, 0.009770957, -0.9105712, -0.06528192, -0.14370039, 0.086520195, 0
2091, 435580019, 0.41315445, 0.0060468162, 0.0097699445, -0.91058856, -0.08400329, -0.1605228, 0.10236931, 0
2093, 435613353, 0.41313463, 0.006011784, 0.009782129, -0.91059756, -0.046365477, -0.15587234, 0.09171295, 0
2095, 435646687, 0.41310254, 0.0059809824, 0.00977578, -0.91061246, -0.08372652, -0.15803224, 0.12288189, 0
2096, 435663354, 0.4130823, 0.005968064, 0.009774505, -0.91062176, -0.077136464, -0.16505817, 0.093667984, 0
2098, 435696688, 0.4130558, 0.00592585, 0.00978182, -0.910634, -0.07420648, -0.15321626, 0.120194435, 0
2100, 435730022, 0.41302767, 0.0059146862, 0.009775124, -0.9106468, -0.062750176, -0.18709394, 0.099666595, 0
2104, 435796690, 0.41297588, 0.0058888276, 0.009791463, -0.91067034, -0.056426354, -0.1657936, 0.093094826, 0
2105, 435813357, 0.4129678, 0.00587958, 0.009796377, -0.910674, -0.06513662, -0.14862503, 0.11532688, 0
2107, 435846691, 0.41294616, 0.005857637, 0.009806623, -0.91068375, -0.068270594, -0.17171745, 0.09344673, 0
2109, 435880025, 0.41293094, 0.0058273408, 0.009807331, -0.9106909, -0.071172364, -0.1671088, 0.109054565, 0
2111, 435913359, 0.41290176, 0.005807367, 0.009823706, -0.9107041, -0.06972703, -0.16321264, 0.090932846, 0
2113, 435946693, 0.4128762, 0.0057857037, 0.009837224, -0.91071564, -0.068740934, -0.17572372, 0.09286976, 0
2114, 435963360, 0.41285822, 0.0057731653, 0.009841721, -0.9107238, -0.07147395, -0.15979625, 0.09082031, 0
2116, 435996694, 0.41284147, 0.0057527535, 0.009844317, -0.91073143, -0.06900062, -0.17221624, 0.101257324, 0
2118, 436030028, 0.41282198, 0.0057341796, 0.009844949, -0.91074055, -0.05996809, -0.16605657, 0.09568882, 0
2120, 436063362, 0.4128003, 0.0057238676, 0.009854375, -0.91075027, -0.07997787, -0.1700701, 0.106710434, 0
2123, 436113363, 0.41275793, 0.005685677, 0.009856266, -0.9107697, -0.050474208, -0.15779455, 0.08159828, 0
2125, 436146697, 0.41273582, 0.005654895, 0.009867787, -0.9107798, -0.0611735, -0.16912527, 0.11822224, 0
2127, 436180031, 0.41272333, 0.005653972, 0.00988164, -0.9107853, -0.053099766, -0.16132271, 0.08207607, 0
2129, 436213365, 0.4126934, 0.005641113, 0.009892292, -0.91079885, -0.06983785, -0.17447075, 0.12195969, 0
2131, 436246699, 0.412659, 0.005630727, 0.009894179, -0.9108144, -0.047197495, -0.15477252, 0.09050465, 0
2133, 436280033, 0.4126254, 0.005601244, 0.009892515, -0.9108299, -0.061086684, -0.16716076, 0.09733677, 0
2134, 436296700, 0.4126169, 0.0055908286, 0.009893327, -0.91083384, -0.07563495, -0.16255595, 0.09368801, 0
2136, 436330034, 0.4125786, 0.005576565, 0.009895181, -0.9108512, -0.06453365, -0.15443018, 0.09096241, 0
2138, 436363368, 0.4125629, 0.005553436, 0.009901714, -0.91085833, -0.059454523, -0.16648771, 0.111392975, 0
2140, 436396702, 0.41255367, 0.005541788, 0.009928153, -0.9108624, -0.05812157, -0.16286112, 0.10003185, 0
2143, 436446703, 0.41251636, 0.0055269077, 0.009951897, -0.9108791, -0.06999397, -0.16093378, 0.111328125, 0
2145, 436480037, 0.4124998, 0.005527888, 0.009968949, -0.9108863, -0.065061465, -0.15246074, 0.09308052, 0
2147, 436513371, 0.41247204, 0.0055127162, 0.009974858, -0.910899, -0.06270818, -0.15891376, 0.11144543, 0
2149, 436546705, 0.4124491, 0.0055159833, 0.009987864, -0.9109093, -0.063388124, -0.14984466, 0.10039902, 0
2151, 436580039, 0.4124248, 0.005495912, 0.009984278, -0.9109204, -0.050213095, -0.15435502, 0.09298897, 0
2152, 436596706, 0.41242287, 0.00548141, 0.009997866, -0.91092116, -0.07056153, -0.14966431, 0.08816433, 0
2154, 436630040, 0.41240692, 0.0054672486, 0.010006388, -0.9109284, -0.057741486, -0.15180284, 0.10587692, 0
2156, 436663374, 0.41237837, 0.0054410277, 0.0100105, -0.9109415, -0.070932314, -0.1671928, 0.09805679, 0
2158, 436696708, 0.4123453, 0.005393838, 0.01001933, -0.9109566, -0.059726838, -0.16027115, 0.117943764, 0
2161, 436746709, 0.41231713, 0.00535303, 0.010026022, -0.9109695, -0.04102578, -0.15337071, 0.08011627, 0
2163, 436780043, 0.41230288, 0.0053260475, 0.010019675, -0.9109761, -0.071707405, -0.15111053, 0.08283806, 0
2165, 436813377, 0.41229266, 0.005305102, 0.010028295, -0.91098076, -0.039928883, -0.14943881, 0.08819103, 0
2167, 436846711, 0.41227522, 0.005280349, 0.010015865, -0.910989, -0.06842345, -0.15482995, 0.11145592, 0
2169, 436880045, 0.4122446, 0.0052583287, 0.010024064, -0.91100293, -0.049866777, -0.16520454, 0.09886742, 0
2170, 436896712, 0.41222948, 0.0052494537, 0.010026032, -0.91100985, -0.044020098, -0.15253548, 0.07709694, 0
2172, 436930046, 0.4122001, 0.0052482123, 0.01003396, -0.9110231, -0.05339791, -0.16375743, 0.103717804, 0
2174, 436963380, 0.41218427, 0.0052273404, 0.010024733, -0.9110304, -0.058746845, -0.14552756, 0.0989542, 0
2176, 436996714, 0.41215554, 0.0052086674, 0.010024277, -0.9110435, -0.04768465, -0.16451982, 0.10667038, 0
2178, 437030048, 0.41211882, 0.0051921047, 0.010023649, -0.9110603, -0.055051252, -0.15325364, 0.095225334, 0
2181, 437080049, 0.41207743, 0.005175462, 0.010033887, -0.9110789, -0.05784027, -0.13661256, 0.093434334, 0
2183, 437113383, 0.41204816, 0.005158775, 0.010028957, -0.9110923, -0.04308493, -0.16238871, 0.114580154, 0
2185, 437146717, 0.41202757, 0.0051296265, 0.010033349, -0.9111017, -0.04977906, -0.16046256, 0.103141785, 0
2187, 437180051, 0.41200665, 0.0051119574, 0.010027559, -0.91111135, -0.04288821, -0.15666465, 0.092684746, 0
2188, 437196718, 0.41199026, 0.0051033436, 0.010026181, -0.91111887, -0.05783577, -0.16295631, 0.099858284, 0
2190, 437230052, 0.4119643, 0.005077492, 0.0100333765, -0.91113067, -0.050980344, -0.16028471, 0.092819214, 0
2194, 437296720, 0.4119071, 0.0050400337, 0.010041048, -0.91115665, -0.039212167, -0.16293542, 0.09122276, 0
2196, 437330054, 0.41188118, 0.0050254413, 0.01004726, -0.91116846, -0.05111233, -0.15070203, 0.08823776, 0
