sep=,
DeviceTag:,Xsens_5,,,,,,,,,,,,,,,,,
FirmwareVersion:,2.2.1,,,,,,,,,,,,,,,,,
AppVersion:,2023.0.0,,,,,,,,,,,,,,,,,
StartTime:,2023-06-22 11:35:07.000 +0200,,,,,,,,,,,,,,,,,
© Movella Technologies B. V. 2005-2023,,,,,,,,,,,,,,,,,,,

PacketCounter,SampleTimeFine,Quat_W,Quat_X,Quat_Y,Quat_Z,Acc_X,Acc_Y,Acc_Z,Gyr_X,Gyr_Y,Gyr_Z,Mag_X,Mag_Y,Mag_Z,Status,
0, 1154394921, 0.41137305, 0.3678909, -0.5718397, 0.6069826, 0.0, 0.0, 0.0, 0.0, 0.0, 0.0, -0.7021484375, 0.2880859375, -0.561767578125, 0, 
1, 1154411588, 0.41017282, 0.36809602, -0.5732228, 0.60636556, 9.096673011779785, -3.9536375999450684, 0.5654449462890625, -0.7147095799446106, -3.8393561840057373, 1.5043554306030273, -0.70556640625, 0.289306640625, -0.56005859375, 0, 
2, 1154428255, 0.40862474, 0.3686752, -0.57467693, 0.6056822, 9.093669891357422, -3.9540908336639404, 0.5465024709701538, 0.3196144998073578, -4.005045413970947, 1.5683872699737549, -0.704833984375, 0.29150390625, -0.561279296875, 0, 
3, 1154444922, 0.40735415, 0.3691867, -0.5759119, 0.60505325, 9.096290588378906, -3.9546210765838623, 0.5641223192214966, 1.133611798286438, -3.9510152339935303, 1.5916564464569092, -0.70556640625, 0.2919921875, -0.556640625, 0, 
4, 1154461589, 0.4063022, 0.3696725, -0.5767656, 0.60465044, 9.126067161560059, -3.958543300628662, 0.5257117748260498, 1.43173086643219, -3.888225793838501, 1.5022296905517578, -0.70556640625, 0.290771484375, -0.562255859375, 0, 
5, 1154478256, 0.40531072, 0.37020722, -0.5773441, 0.6044367, 9.142176628112793, -3.9406626224517822, 0.5102912187576294, 1.9084340333938599, -3.553877353668213, 1.7162237167358398, -0.703857421875, 0.29248046875, -0.562255859375, 0, 
6, 1154494923, 0.4045914, 0.37062418, -0.5778076, 0.6042201, 9.154610633850098, -3.8853373527526855, 0.4927772581577301, 2.321951389312744, -3.18331241607666, 1.6687121391296387, -0.704345703125, 0.29150390625, -0.560546875, 0, 
7, 1154511590, 0.40392777, 0.37112892, -0.578059, 0.60411376, 9.174822807312012, -3.8786840438842773, 0.46001049876213074, 2.7216501235961914, -2.764493703842163, 1.7758500576019287, -0.704345703125, 0.29248046875, -0.558837890625, 0, 
8, 1154528257, 0.4034164, 0.37156552, -0.5782149, 0.60403806, 9.197622299194336, -3.872321367263794, 0.4345790147781372, 3.176787853240967, -2.1130988597869873, 1.856094479560852, -0.704345703125, 0.29150390625, -0.558349609375, 0, 
9, 1154544924, 0.40294492, 0.37197852, -0.5782426, 0.604072, 9.15217399597168, -3.823857069015503, 0.3674357831478119, 3.5891783237457275, -1.2599527835845947, 2.080218553543091, -0.702880859375, 0.2919921875, -0.55615234375, 0, 
10, 1154561591, 0.40270263, 0.37219924, -0.5782597, 0.60408133, 9.070866584777832, -3.8223066329956055, 0.3413286805152893, 3.1295576095581055, 0.20521534979343414, 2.1022837162017822, -0.704345703125, 0.291015625, -0.556640625, 0, 
11, 1154578258, 0.40259877, 0.37231076, -0.5781893, 0.60414916, 8.993060111999512, -3.9440858364105225, 0.29350411891937256, 2.4449305534362793, 1.923187255859375, 1.8302642107009888, -0.70068359375, 0.290283203125, -0.556640625, 0, 
12, 1154594925, 0.40259495, 0.37229404, -0.5780248, 0.60431945, 8.943693161010742, -4.042971611022949, 0.3145372271537781, 3.1809439659118652, 3.268949031829834, 1.4260257482528687, -0.703857421875, 0.29150390625, -0.558837890625, 0, 
13, 1154611592, 0.40263388, 0.37219524, -0.57776767, 0.60460013, 8.938275337219238, -4.051533222198486, 0.4320206046104431, 3.5772809982299805, 4.307921886444092, 0.9181962013244629, -0.701171875, 0.293212890625, -0.5595703125, 0, 
14, 1154628259, 0.40292978, 0.37183374, -0.577561, 0.6048229, 8.907120704650879, -4.050585746765137, 0.6240901350975037, 2.451526403427124, 5.4203715324401855, 0.41393330693244934, -0.70166015625, 0.289794921875, -0.560546875, 0, 
15, 1154644926, 0.40323383, 0.37148595, -0.5772642, 0.60511726, 8.893350601196289, -4.051877975463867, 0.8325042724609375, 1.185029149055481, 5.898611545562744, -0.16928716003894806, -0.7021484375, 0.28857421875, -0.5634765625, 0, 
16, 1154661593, 0.40363115, 0.3710622, -0.5769895, 0.6053744, 8.906720161437988, -4.060762405395508, 1.0009047985076904, 0.5544189214706421, 5.412854194641113, -0.5265203714370728, -0.69921875, 0.28955078125, -0.565185546875, 0, 
17, 1154678260, 0.4039677, 0.370726, -0.5766941, 0.6056371, 8.909232139587402, -4.043664932250977, 1.0896388292312622, 0.6872463226318359, 4.0326361656188965, -0.832335889339447, -0.701416015625, 0.290283203125, -0.565185546875, 0, 
18, 1154694927, 0.40419528, 0.37052345, -0.5763941, 0.60589474, 8.945636749267578, -3.9694154262542725, 1.1613664627075195, 0.9375208616256714, 2.3646862506866455, -1.0304756164550781, -0.700927734375, 0.2890625, -0.565673828125, 0, 
19, 1154711594, 0.4043701, 0.37037465, -0.5761959, 0.6060576, 8.966368675231934, -3.8400988578796387, 1.2283034324645996, -0.004392578266561031, 0.88629549741745, -0.9796090126037598, -0.700927734375, 0.290283203125, -0.564453125, 0, 
20, 1154728261, 0.40461332, 0.37019828, -0.5761692, 0.60602856, 8.983601570129395, -3.7468812465667725, 1.2597936391830444, -1.8752083778381348, -0.22484110295772552, -1.0361361503601074, -0.69873046875, 0.290283203125, -0.566162109375, 0, 
21, 1154744928, 0.40497872, 0.36989748, -0.57642066, 0.6057289, 8.967103004455566, -3.6837644577026367, 1.3051259517669678, -4.4855146408081055, -1.2713762521743774, -0.7991036176681519, -0.699951171875, 0.28857421875, -0.56396484375, 0, 
22, 1154761595, 0.40532514, 0.36962157, -0.57686305, 0.60524416, 9.003606796264648, -3.6267592906951904, 1.259163737297058, -7.14077091217041, -2.2972161769866943, -0.665558934211731, -0.69873046875, 0.2890625, -0.565185546875, 0, 
23, 1154778262, 0.4058244, 0.3692293, -0.57758987, 0.6044556, 9.055269241333008, -3.6660642623901367, 1.190795660018921, -10.023289680480957, -3.102633476257324, -0.6822584867477417, -0.699462890625, 0.29150390625, -0.56005859375, 0, 
24, 1154794929, 0.4063179, 0.36880314, -0.57852495, 0.6034889, 9.144287109375, -3.8235995769500732, 1.0070922374725342, -11.735977172851562, -4.097522258758545, -0.3065842092037201, -0.6982421875, 0.29296875, -0.5634765625, 0, 
25, 1154811596, 0.40667015, 0.36846817, -0.5795443, 0.60247743, 9.136022567749023, -3.9532504081726074, 0.835559070110321, -11.472306251525879, -5.372458457946777, 0.0715683326125145, -0.69873046875, 0.29541015625, -0.558837890625, 0, 
26, 1154828263, 0.4069142, 0.36822918, -0.58059835, 0.6014432, 9.049254417419434, -3.9932594299316406, 0.6885342001914978, -10.58980655670166, -6.389103889465332, 0.14537136256694794, -0.699462890625, 0.298095703125, -0.558349609375, 0, 
27, 1154844930, 0.40692925, 0.3681731, -0.5815987, 0.6005001, 8.985488891601562, -3.978130578994751, 0.5719993710517883, -9.353684425354004, -7.203433513641357, 0.36133769154548645, -0.699462890625, 0.29931640625, -0.554443359375, 0, 
28, 1154861597, 0.40703216, 0.36802936, -0.58266395, 0.59948474, 9.05399227142334, -3.8886938095092773, 0.4936620891094208, -9.414207458496094, -6.971754550933838, 0.28026068210601807, -0.701171875, 0.300537109375, -0.551513671875, 0, 
29, 1154878264, 0.40731516, 0.36768988, -0.5838487, 0.59834707, 9.109501838684082, -3.8522965908050537, 0.3788829743862152, -11.023557662963867, -5.9525604248046875, 0.2934768497943878, -0.70166015625, 0.304931640625, -0.550537109375, 0, 
30, 1154894931, 0.40759477, 0.3673297, -0.58500344, 0.597249, 9.15761661529541, -3.945007801055908, 0.28501901030540466, -11.697186470031738, -4.993467807769775, 0.40094780921936035, -0.702392578125, 0.304443359375, -0.550048828125, 0, 
31, 1154911598, 0.4078448, 0.36697385, -0.5860793, 0.5962414, 9.1386137008667, -4.039271831512451, 0.2055356502532959, -10.100921630859375, -4.7331767082214355, 0.5855898261070251, -0.701171875, 0.30712890625, -0.547607421875, 0, 
32, 1154928265, 0.40787593, 0.36678076, -0.5869382, 0.59549373, 9.111605644226074, -4.084031581878662, 0.15663744509220123, -6.730236530303955, -4.910607814788818, 0.969728946685791, -0.7041015625, 0.307861328125, -0.546630859375, 0, 
33, 1154944932, 0.40756738, 0.36688402, -0.58751154, 0.5950758, 9.099067687988281, -4.038260459899902, 0.1936880499124527, -2.500683307647705, -5.615571975708008, 1.2996846437454224, -0.7001953125, 0.31005859375, -0.543701171875, 0, 
34, 1154961599, 0.40711197, 0.3671339, -0.58790505, 0.59484476, 9.075935363769531, -3.9406416416168213, 0.236262708902359, -0.13401846587657928, -5.671010971069336, 1.3392432928085327, -0.702392578125, 0.310546875, -0.543701171875, 0, 
35, 1154978266, 0.40653127, 0.36748883, -0.5881845, 0.59474653, 9.060111999511719, -3.921603202819824, 0.2995806336402893, 0.050066426396369934, -5.179695129394531, 1.4495315551757812, -0.705078125, 0.31005859375, -0.543212890625, 0, 
36, 1154994933, 0.40618291, 0.3676117, -0.58857185, 0.59452546, 9.046205520629883, -4.006747245788574, 0.3186596930027008, -0.21019060909748077, -4.642660617828369, 1.4506840705871582, -0.701171875, 0.3134765625, -0.542724609375, 0, 
37, 1155011600, 0.4059405, 0.367655, -0.58899575, 0.59424424, 9.041410446166992, -4.0870680809021, 0.33277425169944763, 0.21238689124584198, -4.642237663269043, 1.2881457805633545, -0.701416015625, 0.31396484375, -0.539306640625, 0, 
38, 1155028267, 0.40559778, 0.36780712, -0.5893165, 0.5940661, 9.05837345123291, -4.1095380783081055, 0.3158178925514221, 1.8947956562042236, -5.0153889656066895, 1.2475242614746094, -0.705078125, 0.311279296875, -0.54150390625, 0, 
39, 1155044934, 0.40488377, 0.3683097, -0.5894055, 0.5941535, 9.074695587158203, -4.065673351287842, 0.32245656847953796, 3.1511247158050537, -5.403640270233154, 1.3524212837219238, -0.70361328125, 0.312255859375, -0.539306640625, 0, 
40, 1155061601, 0.40417644, 0.3688013, -0.5894863, 0.5942499, 9.0586576461792, -4.017483234405518, 0.34870514273643494, 4.0226874351501465, -5.620516777038574, 1.3822473287582397, -0.70361328125, 0.312255859375, -0.5380859375, 0, 
41, 1155078268, 0.40344164, 0.36930704, -0.5895631, 0.5943589, 9.062616348266602, -3.930082321166992, 0.4129358232021332, 4.105325222015381, -5.680858612060547, 1.4507865905761719, -0.705322265625, 0.311279296875, -0.53759765625, 0, 
42, 1155094935, 0.40277806, 0.36974606, -0.58971196, 0.5943884, 9.079474449157715, -3.9502110481262207, 0.448051393032074, 3.151137351989746, -5.534623622894287, 1.411253571510315, -0.70458984375, 0.311767578125, -0.53662109375, 0, 
43, 1155111602, 0.40215027, 0.37017483, -0.5898911, 0.5943688, 9.066410064697266, -4.042220115661621, 0.40132981538772583, 2.667210817337036, -5.55177116394043, 1.2585762739181519, -0.70751953125, 0.310302734375, -0.535888671875, 0, 
44, 1155128269, 0.40140262, 0.370691, -0.59004366, 0.59440106, 9.070091247558594, -4.053826808929443, 0.39278361201286316, 3.4534566402435303, -6.155986785888672, 1.4572536945343018, -0.705810546875, 0.311279296875, -0.5380859375, 0, 
45, 1155144936, 0.4006089, 0.37123504, -0.5902031, 0.59443897, 9.073406219482422, -3.9758079051971436, 0.37452447414398193, 3.6043028831481934, -6.446525573730469, 1.5524178743362427, -0.7080078125, 0.311279296875, -0.535400390625, 0, 
46, 1155161603, 0.3999171, 0.37169838, -0.59041905, 0.5944007, 9.103468894958496, -3.8862860202789307, 0.3556070625782013, 2.925887107849121, -6.204370975494385, 1.4163249731063843, -0.70703125, 0.310302734375, -0.5341796875, 0, 
47, 1155178270, 0.39933252, 0.37200868, -0.59075314, 0.59426755, 9.107586860656738, -3.8754212856292725, 0.33216384053230286, 1.393567681312561, -5.722542762756348, 1.6708635091781616, -0.708740234375, 0.31298828125, -0.531494140625, 0, 
48, 1155194937, 0.3988253, 0.37220448, -0.591161, 0.59407985, 9.102496147155762, -3.928624391555786, 0.2710999548435211, 1.0681331157684326, -5.5922651290893555, 1.9060527086257935, -0.708251953125, 0.310791015625, -0.531005859375, 0, 
49, 1155211604, 0.39815223, 0.37254244, -0.5914459, 0.59403604, 9.071002960205078, -3.930100202560425, 0.2291330099105835, 1.9918807744979858, -5.69198751449585, 2.0767228603363037, -0.708251953125, 0.314208984375, -0.529296875, 0, 
50, 1155228271, 0.39741004, 0.37294224, -0.5916606, 0.5940684, 9.080069541931152, -3.9471096992492676, 0.24258363246917725, 2.946850299835205, -5.823317050933838, 2.1481311321258545, -0.709228515625, 0.313720703125, -0.528076171875, 0, 
51, 1155244938, 0.3967935, 0.37321234, -0.5919299, 0.59404254, 9.128849029541016, -4.006289482116699, 0.21855713427066803, 3.016491174697876, -5.604545593261719, 2.183527708053589, -0.709716796875, 0.3115234375, -0.5302734375, 0, 
52, 1155261605, 0.396033, 0.37360993, -0.5921032, 0.5941275, 9.170748710632324, -4.068646430969238, 0.20983365178108215, 2.723174571990967, -5.322678565979004, 2.2716097831726074, -0.70703125, 0.314208984375, -0.528076171875, 0, 
53, 1155278272, 0.395496, 0.37376195, -0.5924036, 0.5940899, 9.163347244262695, -4.118392467498779, 0.18788902461528778, 2.8362035751342773, -5.1172003746032715, 2.397355556488037, -0.712158203125, 0.313720703125, -0.527099609375, 0, 
54, 1155294939, 0.3948141, 0.37406614, -0.59258384, 0.5941724, 9.159049034118652, -4.147812366485596, 0.13552778959274292, 3.0630807876586914, -4.990212440490723, 2.3472697734832764, -0.71044921875, 0.313232421875, -0.528076171875, 0, 
55, 1155311606, 0.3940928, 0.37441078, -0.5926904, 0.594328, 9.120270729064941, -4.170705795288086, 0.12543858587741852, 3.400592088699341, -4.693975925445557, 2.331146478652954, -0.7099609375, 0.313720703125, -0.527587890625, 0, 
56, 1155328273, 0.39347753, 0.37469795, -0.592767, 0.5944782, 9.063935279846191, -4.19816255569458, 0.1133618950843811, 4.021252632141113, -4.363597869873047, 2.0406088829040527, -0.712158203125, 0.31103515625, -0.5224609375, 0, 
57, 1155344940, 0.39297825, 0.37495527, -0.59283453, 0.59457886, 9.124733924865723, -4.152585506439209, 0.09859107434749603, 3.2421905994415283, -3.7467546463012695, 1.5073268413543701, -0.70947265625, 0.313720703125, -0.525390625, 0, 
58, 1155361607, 0.3926876, 0.37497962, -0.5930736, 0.5945172, 9.146544456481934, -4.056744575500488, 0.1183275505900383, 0.6399781107902527, -2.776416540145874, 1.5936925411224365, -0.709228515625, 0.31591796875, -0.525390625, 0, 
59, 1155378274, 0.39280742, 0.37448436, -0.59369564, 0.594129, 9.098398208618164, -4.062137603759766, 0.15603186190128326, -3.5523793697357178, -1.3654001951217651, 2.1645867824554443, -0.70947265625, 0.314208984375, -0.52294921875, 0, 
60, 1155394941, 0.39294636, 0.37393826, -0.5943257, 0.59375113, 9.03158950805664, -4.139182090759277, 0.14228320121765137, -4.962409973144531, -0.5138036012649536, 2.327458381652832, -0.71044921875, 0.317138671875, -0.524169921875, 0, 
61, 1155411608, 0.392954, 0.37356466, -0.5947599, 0.59354645, 8.989835739135742, -4.133377552032471, 0.15234017372131348, -2.5161402225494385, -0.8345897793769836, 2.1137712001800537, -0.70947265625, 0.31591796875, -0.523681640625, 0, 
62, 1155428275, 0.39280823, 0.37324926, -0.5952068, 0.5933934, 9.025186538696289, -3.9391028881073, 0.1442491114139557, -1.740165114402771, -1.6272516250610352, 2.667402505874634, -0.7099609375, 0.31884765625, -0.521484375, 0, 
63, 1155444942, 0.3926868, 0.37280482, -0.5958885, 0.5930687, 8.996471405029297, -3.7830617427825928, 0.10976867377758026, -3.583101511001587, -2.176208972930908, 3.2538955211639404, -0.711181640625, 0.316650390625, -0.51806640625, 0, 
64, 1155461609, 0.39255032, 0.37227464, -0.5967939, 0.59258157, 9.078808784484863, -3.665752649307251, 0.18404902517795563, -6.177835941314697, -2.5272181034088135, 3.8285934925079346, -0.710693359375, 0.321044921875, -0.517578125, 0, 
65, 1155478276, 0.39274028, 0.37136397, -0.5980365, 0.5917738, 9.212270736694336, -3.7085540294647217, 0.16730953752994537, -10.427894592285156, -1.5132884979248047, 4.110052108764648, -0.70947265625, 0.324462890625, -0.519775390625, 0, 
66, 1155494943, 0.39330962, 0.37009555, -0.59951043, 0.59069794, 9.378271102905273, -3.8100080490112305, 0.1241803914308548, -14.055912971496582, 0.025734378024935722, 3.957043170928955, -0.7099609375, 0.326171875, -0.516845703125, 0, 
67, 1155511610, 0.39406225, 0.36867034, -0.60098654, 0.58958673, 9.455818176269531, -3.8531477451324463, 0.05265464261174202, -15.402071952819824, 1.457370400428772, 3.8159823417663574, -0.707275390625, 0.33056640625, -0.51416015625, 0, 
68, 1155528277, 0.39502072, 0.36698723, -0.60256183, 0.5883863, 9.433417320251465, -3.8728833198547363, -0.08473746478557587, -17.11994171142578, 2.7364954948425293, 4.100526809692383, -0.708984375, 0.331787109375, -0.51416015625, 0, 
69, 1155544944, 0.39611974, 0.36521316, -0.604213, 0.58705664, 9.331062316894531, -3.897585868835449, -0.28511300683021545, -18.999874114990234, 3.3788387775421143, 3.790896415710449, -0.708984375, 0.336669921875, -0.512939453125, 0, 
70, 1155561611, 0.39737272, 0.36357367, -0.60578215, 0.58560854, 9.195235252380371, -3.9340336322784424, -0.541650652885437, -19.181631088256836, 3.4423704147338867, 2.1136202812194824, -0.706787109375, 0.339599609375, -0.51123046875, 0, 
71, 1155578278, 0.39851892, 0.36249265, -0.6068671, 0.584375, 9.197800636291504, -3.9710309505462646, -0.7015655040740967, -14.57225513458252, 2.6934401988983154, -0.385407418012619, -0.707763671875, 0.340576171875, -0.512451171875, 0, 
72, 1155594945, 0.39951667, 0.36189067, -0.6075512, 0.583355, 9.119322776794434, -3.8422961235046387, -0.8432746529579163, -10.462663650512695, 1.902889609336853, -2.181549549102783, -0.706298828125, 0.341796875, -0.505615234375, 0, 
73, 1155611612, 0.40050083, 0.361569, -0.60821027, 0.58219194, 9.024667739868164, -3.585237503051758, -1.1119226217269897, -10.407301902770996, 0.6492629647254944, -3.729261636734009, -0.706298828125, 0.343017578125, -0.50634765625, 0, 
74, 1155628279, 0.40175092, 0.36122814, -0.60921794, 0.580486, 9.034018516540527, -3.3732995986938477, -1.2891689538955688, -14.101633071899414, -0.6642274260520935, -5.298490047454834, -0.70849609375, 0.342529296875, -0.4990234375, 0, 
75, 1155644946, 0.4033295, 0.36067855, -0.6107693, 0.578098, 8.936614990234375, -3.213834762573242, -1.4120348691940308, -22.008146286010742, -0.829596757888794, -6.195671558380127, -0.708984375, 0.34423828125, -0.500244140625, 0, 
76, 1155661613, 0.40561378, 0.35943782, -0.61329323, 0.57459, 8.786764144897461, -3.1355252265930176, -1.4974814653396606, -33.140968322753906, -0.9581364989280701, -6.7273430824279785, -0.709716796875, 0.34765625, -0.4990234375, 0, 
77, 1155678280, 0.408216, 0.35784543, -0.6166345, 0.57014763, 8.701799392700195, -3.1497294902801514, -1.6067255735397339, -41.87956237792969, -2.766688346862793, -7.019562721252441, -0.712646484375, 0.35107421875, -0.48779296875, 0, 
78, 1155694947, 0.41082788, 0.35614017, -0.62066007, 0.56494784, 8.638514518737793, -3.1341865062713623, -1.6477147340774536, -48.060176849365234, -5.953824520111084, -6.958682537078857, -0.715576171875, 0.352783203125, -0.482666015625, 0, 
79, 1155711614, 0.41330802, 0.35455236, -0.6251904, 0.55911213, 8.558133125305176, -3.2498631477355957, -1.646472454071045, -52.96227264404297, -9.432537078857422, -7.414620399475098, -0.71728515625, 0.359130859375, -0.473876953125, 0, 
80, 1155728281, 0.4153682, 0.35343695, -0.62992734, 0.55294055, 8.501757621765137, -3.4307165145874023, -1.7084752321243286, -52.67721176147461, -14.418966293334961, -8.240360260009766, -0.724609375, 0.35986328125, -0.467041015625, 0, 
81, 1155744948, 0.41662148, 0.35335723, -0.6345168, 0.5467668, 8.477249145507812, -3.4553475379943848, -1.7410277128219604, -47.859615325927734, -21.039737701416016, -9.944896697998047, -0.728271484375, 0.364013671875, -0.45263671875, 0, 
82, 1155761615, 0.41704586, 0.3543245, -0.639021, 0.540536, 8.570196151733398, -3.38952898979187, -1.622020959854126, -42.23052215576172, -28.633888244628906, -11.776922225952148, -0.73779296875, 0.366455078125, -0.44189453125, 0, 
83, 1155778282, 0.4167925, 0.35622427, -0.6434658, 0.5341722, 8.795377731323242, -3.319047451019287, -1.5197988748550415, -38.592132568359375, -35.02482604980469, -13.823480606079102, -0.74462890625, 0.3662109375, -0.43017578125, 0, 
84, 1155794949, 0.41629753, 0.35877967, -0.6478738, 0.5274779, 8.966078758239746, -3.3605222702026367, -1.4915571212768555, -36.74140548706055, -39.4647216796875, -16.8978214263916, -0.75439453125, 0.36474609375, -0.416748046875, 0, 
85, 1155811616, 0.41531348, 0.36227322, -0.6519671, 0.52077985, 9.051541328430176, -3.452549695968628, -1.5235017538070679, -32.43414306640625, -43.83555221557617, -19.98562240600586, -0.76025390625, 0.36328125, -0.404296875, 0, 
86, 1155828283, 0.41381174, 0.36674336, -0.65556407, 0.5142907, 9.10872745513916, -3.3915743827819824, -1.5580159425735474, -25.36110496520996, -47.819129943847656, -23.17962074279785, -0.772216796875, 0.359619140625, -0.389892578125, 0, 
87, 1155844950, 0.41193667, 0.3720935, -0.65864086, 0.50798315, 9.273165702819824, -3.145303726196289, -1.5483357906341553, -20.106754302978516, -50.334571838378906, -26.488239288330078, -0.78369140625, 0.353759765625, -0.373046875, 0, 
88, 1155861617, 0.41011313, 0.37774765, -0.661319, 0.501768, 9.31881046295166, -3.0790417194366455, -1.633613109588623, -17.306541442871094, -49.920108795166016, -28.80666160583496, -0.79345703125, 0.349609375, -0.35791015625, 0, 
89, 1155878284, 0.4085477, 0.38353726, -0.6634039, 0.4958663, 9.157698631286621, -3.192946672439575, -1.7374358177185059, -13.793113708496094, -46.877403259277344, -30.99344825744629, -0.80322265625, 0.34326171875, -0.341552734375, 0, 
90, 1155894951, 0.40699643, 0.38969898, -0.6645239, 0.49081224, 9.007831573486328, -3.480755567550659, -1.8954490423202515, -5.636837482452393, -43.156517028808594, -32.8912353515625, -0.815185546875, 0.333984375, -0.3359375, 0, 
91, 1155911618, 0.40501422, 0.39671448, -0.66409, 0.48740712, 8.872774124145508, -3.633068323135376, -1.9450206756591797, 10.543746948242188, -39.20753479003906, -34.88813781738281, -0.821533203125, 0.3212890625, -0.322509765625, 0, 
92, 1155928285, 0.40268475, 0.40419698, -0.66209877, 0.48589614, 8.87063217163086, -3.5031063556671143, -1.6673084497451782, 26.622976303100586, -32.86219787597656, -34.88304901123047, -0.83349609375, 0.3115234375, -0.31640625, 0, 
93, 1155944952, 0.40066987, 0.41108966, -0.6589747, 0.4860262, 8.876014709472656, -3.6486740112304688, -1.3123174905776978, 35.36927795410156, -21.808565139770508, -31.916698455810547, -0.84033203125, 0.301025390625, -0.3095703125, 0, 
94, 1155961619, 0.3991534, 0.41685182, -0.65491575, 0.48784894, 8.85573959350586, -4.24198055267334, -0.9198773503303528, 41.638824462890625, -8.493925094604492, -26.5252685546875, -0.8447265625, 0.285400390625, -0.3095703125, 0, 
95, 1155978286, 0.39772204, 0.4215331, -0.6497345, 0.49190685, 8.990579605102539, -4.675786018371582, -0.48283496499061584, 52.18022918701172, 4.912281513214111, -19.14933967590332, -0.8486328125, 0.2744140625, -0.314697265625, 0, 
96, 1155994953, 0.3974438, 0.42409953, -0.6440256, 0.49740228, 9.201088905334473, -4.963672161102295, 0.20719683170318604, 51.2208366394043, 22.6884822845459, -11.368352890014648, -0.849609375, 0.2646484375, -0.32177734375, 0, 
97, 1156011620, 0.39898643, 0.42380697, -0.63850373, 0.50349844, 8.979832649230957, -5.7704997062683105, 0.4997206926345825, 40.109947204589844, 41.56993103027344, -2.9390532970428467, -0.8505859375, 0.26025390625, -0.334228515625, 0, 
98, 1156028287, 0.40090004, 0.42265493, -0.63327813, 0.5095105, 8.804550170898438, -5.000329494476318, -0.4758777618408203, 35.16139221191406, 44.93966293334961, -0.04831891134381294, -0.846923828125, 0.255615234375, -0.34814453125, 0, 
99, 1156044954, 0.40260834, 0.42232704, -0.62894857, 0.5137803, 9.746374130249023, -3.1345129013061523, -0.5064586997032166, 27.252256393432617, 33.53312301635742, -5.289877891540527, -0.849609375, 0.25048828125, -0.359375, 0, 
100, 1156061621, 0.4041977, 0.42158026, -0.62569976, 0.5171018, 10.900617599487305, -3.1516449451446533, 0.7581994533538818, 18.62288475036621, 28.624645233154297, -2.570193290710449, -0.847900390625, 0.25146484375, -0.36669921875, 0, 
101, 1156078288, 0.4059375, 0.4206015, -0.62248635, 0.5204037, 10.781651496887207, -3.3262197971343994, 1.2102090120315552, 17.14318084716797, 29.80165672302246, -2.0143444538116455, -0.84375, 0.247314453125, -0.375732421875, 0, 
102, 1156094955, 0.4061487, 0.42144388, -0.6188063, 0.5239344, 9.60062026977539, -3.620659112930298, 0.34097906947135925, 29.245508193969727, 18.50101089477539, -5.041791915893555, -0.83984375, 0.24267578125, -0.384765625, 0, 
103, 1156111622, 0.40289146, 0.4247402, -0.61457, 0.5287516, 9.097139358520508, -4.069893836975098, -0.067500039935112, 53.592994689941406, 0.0653066337108612, -1.0453287363052368, -0.84423828125, 0.23876953125, -0.38916015625, 0, 
104, 1156128289, 0.3997224, 0.4281589, -0.6108045, 0.5327476, 9.109724044799805, -3.20510196685791, 0.2928285300731659, 48.38861083984375, -3.7634847164154053, -2.8512678146362305, -0.843994140625, 0.23046875, -0.39306640625, 0, 
105, 1156144956, 0.39921573, 0.429561, -0.60890985, 0.53416604, 9.345088958740234, -2.168872833251953, 0.3069463074207306, 17.31171226501465, 1.9729549884796143, -5.723970890045166, -0.8447265625, 0.2265625, -0.391357421875, 0, 
106, 1156161623, 0.40123522, 0.42856327, -0.60904497, 0.5332993, 9.788408279418945, -2.0162854194641113, -0.04335156828165054, -13.71798324584961, 8.925888061523438, -5.173514366149902, -0.843994140625, 0.229248046875, -0.39306640625, 0, 
107, 1156178290, 0.40368775, 0.42705882, -0.60971165, 0.5318919, 9.5990571975708, -2.6828689575195312, -0.5727806091308594, -20.653888702392578, 9.479705810546875, -4.479848384857178, -0.843994140625, 0.225830078125, -0.394775390625, 0, 
108, 1156194957, 0.40412602, 0.42719084, -0.6093631, 0.53185236, 9.335336685180664, -3.2327258586883545, -0.9793955683708191, -0.72176593542099, 1.8448379039764404, -3.136159896850586, -0.84521484375, 0.22705078125, -0.394775390625, 0, 
109, 1156211624, 0.4029319, 0.42866868, -0.60817206, 0.5329315, 9.560491561889648, -2.900531768798828, -0.9777618646621704, 15.574027061462402, -4.285764217376709, -2.1872496604919434, -0.843017578125, 0.2275390625, -0.398193359375, 0, 
110, 1156228291, 0.4023669, 0.42949244, -0.60737884, 0.5335995, 9.86998462677002, -2.26090407371521, -0.8720148205757141, 8.653964042663574, -1.5450994968414307, -1.6998130083084106, -0.8447265625, 0.22412109375, -0.3974609375, 0, 
111, 1156244958, 0.40341794, 0.42870545, -0.60758996, 0.5331981, 9.900485038757324, -2.1862287521362305, -0.9154112935066223, -8.652152061462402, 5.146534442901611, -0.8410316705703735, -0.845703125, 0.221435546875, -0.3974609375, 0, 
112, 1156261625, 0.40495425, 0.42727527, -0.6081624, 0.53252834, 9.655397415161133, -2.81577467918396, -1.1440376043319702, -14.356149673461914, 7.748764991760254, 0.45651480555534363, -0.845703125, 0.2236328125, -0.402099609375, 0, 
113, 1156278292, 0.40517744, 0.4267945, -0.60808134, 0.5328367, 9.465690612792969, -3.1603639125823975, -1.2286479473114014, -1.3831754922866821, 3.493668556213379, 2.11352801322937, -0.844482421875, 0.226318359375, -0.402587890625, 0, 
114, 1156294959, 0.40430537, 0.42722023, -0.6073502, 0.5339905, 9.526373863220215, -2.845857620239258, -1.1799838542938232, 10.282266616821289, -0.09431879222393036, 2.7724156379699707, -0.843994140625, 0.2275390625, -0.402099609375, 0, 
115, 1156311626, 0.40338805, 0.4275342, -0.6065599, 0.53532976, 9.673717498779297, -2.5565407276153564, -1.2338143587112427, 11.065427780151367, 0.8680723905563354, 3.7628209590911865, -0.84228515625, 0.226318359375, -0.40087890625, 0, 
116, 1156328293, 0.40296292, 0.42721042, -0.60601175, 0.5365279, 9.666626930236816, -2.5749762058258057, -1.3356504440307617, 6.379669666290283, 4.20371675491333, 4.967244625091553, -0.843505859375, 0.228515625, -0.399169921875, 0, 
117, 1156344960, 0.4026521, 0.42660224, -0.6054312, 0.53789866, 9.57491683959961, -2.736189842224121, -1.406432867050171, 6.101044178009033, 6.359156131744385, 6.146519660949707, -0.84228515625, 0.22412109375, -0.406005859375, 0, 
118, 1156361627, 0.4023291, 0.42588806, -0.60469747, 0.53952914, 9.517239570617676, -2.669506072998047, -1.3041852712631226, 7.578489303588867, 7.8983025550842285, 6.915567874908447, -0.83984375, 0.228515625, -0.40771484375, 0, 
119, 1156378294, 0.4021882, 0.42481738, -0.60398316, 0.5412756, 9.535408020019531, -2.530367851257324, -1.0697296857833862, 6.382323741912842, 10.328577041625977, 8.133811950683594, -0.8388671875, 0.227294921875, -0.40869140625, 0, 
120, 1156394961, 0.40249795, 0.4232061, -0.6034147, 0.542939, 9.475388526916504, -2.5356967449188232, -0.9198893904685974, 2.723356008529663, 13.572903633117676, 8.927870750427246, -0.834716796875, 0.22900390625, -0.414306640625, 0, 
121, 1156411628, 0.40311018, 0.42121595, -0.6029083, 0.5445925, 9.495603561401367, -2.5412344932556152, -0.8340361714363098, 0.5497708320617676, 16.04503631591797, 9.554553985595703, -0.83251953125, 0.231689453125, -0.414306640625, 0, 
122, 1156428295, 0.40431646, 0.41855592, -0.60267293, 0.54600793, 9.508639335632324, -2.490078926086426, -0.6658135056495667, -5.042163848876953, 19.58745574951172, 10.265876770019531, -0.830322265625, 0.234375, -0.419921875, 0, 
123, 1156444962, 0.40637824, 0.41501248, -0.60290045, 0.5469302, 9.585869789123535, -2.6214542388916016, -0.6120768785476685, -13.782349586486816, 23.754575729370117, 10.715290069580078, -0.826904296875, 0.237060546875, -0.425048828125, 0, 
124, 1156461629, 0.40902847, 0.41074473, -0.6035601, 0.5474484, 9.653571128845215, -3.097874879837036, -0.6933763027191162, -20.752666473388672, 26.54168128967285, 11.63577938079834, -0.821044921875, 0.2431640625, -0.4267578125, 0, 
125, 1156478296, 0.41152018, 0.40641114, -0.604281, 0.54802, 9.634016990661621, -3.4375360012054443, -0.7376911044120789, -20.532499313354492, 26.12601089477539, 12.830809593200684, -0.816650390625, 0.250732421875, -0.432373046875, 0, 
126, 1156494963, 0.41340488, 0.40241185, -0.6048111, 0.54896694, 9.608968734741211, -3.5705490112304688, -0.7800272703170776, -15.684211730957031, 23.97173500061035, 14.242471694946289, -0.815185546875, 0.25341796875, -0.43896484375, 0, 
127, 1156511630, 0.41471818, 0.39887568, -0.60501385, 0.5503321, 9.30748462677002, -3.60784649848938, -0.6102612614631653, -9.747465133666992, 21.932632446289062, 14.727568626403809, -0.811279296875, 0.259033203125, -0.44287109375, 0, 
128, 1156528297, 0.4154606, 0.3959875, -0.60484016, 0.55204624, 9.166231155395508, -3.504725217819214, -0.3062264621257782, -3.4486284255981445, 19.14748191833496, 14.123233795166016, -0.807861328125, 0.26220703125, -0.444091796875, 0, 
129, 1156544964, 0.4160728, 0.39334777, -0.60460347, 0.55372894, 9.132171630859375, -3.5237138271331787, -0.10735210031270981, -2.341107130050659, 17.775697708129883, 13.30233097076416, -0.800537109375, 0.26611328125, -0.44921875, 0, 
130, 1156561631, 0.41660267, 0.39091438, -0.6043501, 0.55532783, 8.884663581848145, -3.860750198364258, -0.054612159729003906, -1.8325530290603638, 16.462413787841797, 12.451984405517578, -0.800537109375, 0.268798828125, -0.4541015625, 0, 
131, 1156578298, 0.41659757, 0.389265, -0.60371, 0.5571836, 8.779450416564941, -4.111212253570557, 0.018206488341093063, 4.403961181640625, 13.025834083557129, 10.886171340942383, -0.80029296875, 0.27392578125, -0.45703125, 0, 
132, 1156594965, 0.41613322, 0.38833824, -0.6027419, 0.5592218, 8.900872230529785, -3.9792428016662598, 0.1609634906053543, 9.656770706176758, 9.783195495605469, 9.2316255569458, -0.794921875, 0.27099609375, -0.4580078125, 0, 
133, 1156611632, 0.4154982, 0.3878094, -0.6016933, 0.56118673, 8.99268627166748, -3.816354513168335, 0.3471628725528717, 11.300633430480957, 7.541967391967773, 7.765693664550781, -0.79638671875, 0.27197265625, -0.4619140625, 0, 
134, 1156628299, 0.4145988, 0.3877081, -0.6005969, 0.5630929, 9.052170753479004, -3.7122933864593506, 0.4940272271633148, 13.140776634216309, 4.753841876983643, 6.692801475524902, -0.79296875, 0.274658203125, -0.46484375, 0, 
135, 1156644966, 0.41327655, 0.38813823, -0.59938323, 0.56505835, 9.093703269958496, -3.5960257053375244, 0.5201157331466675, 16.419301986694336, 1.421999454498291, 5.972869396209717, -0.7919921875, 0.27294921875, -0.46533203125, 0, 
136, 1156661633, 0.41157442, 0.38900563, -0.5980877, 0.5670736, 9.16446590423584, -3.4063217639923096, 0.5236449837684631, 19.23649024963379, -1.5343822240829468, 5.561069011688232, -0.794189453125, 0.270751953125, -0.467529296875, 0, 
137, 1156678300, 0.40980428, 0.38992888, -0.5969521, 0.568915, 9.21865463256836, -3.2552382946014404, 0.4862321615219116, 18.183008193969727, -2.9693603515625, 5.539707183837891, -0.791259765625, 0.2724609375, -0.470458984375, 0, 
138, 1156694967, 0.4082676, 0.3906061, -0.59614503, 0.57039976, 9.213446617126465, -3.3001198768615723, 0.42496949434280396, 14.048364639282227, -2.9422738552093506, 5.5319061279296875, -0.791748046875, 0.270263671875, -0.469970703125, 0, 
139, 1156711634, 0.40692437, 0.39112237, -0.5955898, 0.5715845, 9.118131637573242, -3.416480779647827, 0.35938289761543274, 10.846837043762207, -3.056403398513794, 5.284088134765625, -0.79345703125, 0.270751953125, -0.46826171875, 0, 
140, 1156728301, 0.40569004, 0.39157385, -0.5952069, 0.57255065, 9.118207931518555, -3.4705867767333984, 0.26377612352371216, 8.787997245788574, -3.448943614959717, 4.981141090393066, -0.791259765625, 0.270751953125, -0.469970703125, 0, 
141, 1156744968, 0.40460032, 0.39190114, -0.5950024, 0.57331, 9.138850212097168, -3.4372522830963135, 0.21079504489898682, 6.433547019958496, -3.4133541584014893, 4.830280780792236, -0.790283203125, 0.2724609375, -0.46826171875, 0, 
142, 1156761635, 0.4036998, 0.39204413, -0.59503675, 0.5738111, 9.158429145812988, -3.5081801414489746, 0.16965334117412567, 3.465033531188965, -3.308866262435913, 4.77108907699585, -0.790771484375, 0.27197265625, -0.466552734375, 0, 
143, 1156778302, 0.40272397, 0.39225224, -0.5951165, 0.57427174, 9.19013786315918, -3.66572904586792, 0.0860322043299675, 3.4244630336761475, -4.08984899520874, 4.818216323852539, -0.790283203125, 0.269775390625, -0.46484375, 0, 
144, 1156794969, 0.40159833, 0.3926089, -0.5951559, 0.5747753, 9.228166580200195, -3.6459455490112305, 0.061146754771471024, 4.628490447998047, -5.089679718017578, 4.808521747589111, -0.791259765625, 0.270751953125, -0.467041015625, 0, 
145, 1156811636, 0.400445, 0.39299718, -0.59526855, 0.57519776, 9.269612312316895, -3.6140103340148926, 0.12439989298582077, 4.145576000213623, -5.745607852935791, 4.764148712158203, -0.787353515625, 0.27294921875, -0.466552734375, 0, 
146, 1156828303, 0.3993522, 0.39331016, -0.5955474, 0.57545507, 9.26569652557373, -3.5656790733337402, 0.14613142609596252, 2.415745496749878, -6.104416370391846, 4.8325605392456055, -0.791259765625, 0.275390625, -0.466064453125, 0, 
147, 1156844970, 0.3982652, 0.39359963, -0.595953, 0.5755904, 9.21697998046875, -3.6231422424316406, 0.17995575070381165, 1.3304837942123413, -6.676054000854492, 4.9228835105896, -0.79150390625, 0.273681640625, -0.462646484375, 0, 
148, 1156861637, 0.3970443, 0.3940254, -0.59638184, 0.5756987, 9.177000999450684, -3.665684223175049, 0.1548951119184494, 1.834541916847229, -7.904337406158447, 4.887551307678223, -0.790771484375, 0.2763671875, -0.463134765625, 0, 
149, 1156878304, 0.39546928, 0.39478946, -0.59669304, 0.57593644, 9.187051773071289, -3.7124829292297363, 0.16327214241027832, 4.706303596496582, -10.034931182861328, 4.941146373748779, -0.7919921875, 0.274658203125, -0.4619140625, 0, 
150, 1156894971, 0.3937045, 0.39578223, -0.59700775, 0.576138, 9.201354026794434, -3.654329299926758, 0.22393083572387695, 5.645766258239746, -11.829092025756836, 4.66897439956665, -0.79248046875, 0.27490234375, -0.45751953125, 0, 
151, 1156911638, 0.39184657, 0.396825, -0.5974682, 0.57621014, 9.162833213806152, -3.6970269680023193, 0.24907727539539337, 4.844422340393066, -13.143590927124023, 4.888847351074219, -0.792724609375, 0.275390625, -0.4541015625, 0, 
152, 1156928305, 0.38996232, 0.39792755, -0.5980682, 0.57610554, 9.197184562683105, -3.713719367980957, 0.24345579743385315, 3.873084783554077, -14.40138053894043, 4.6549391746521, -0.793701171875, 0.277587890625, -0.451904296875, 0, 
153, 1156944972, 0.38796982, 0.39915025, -0.59879225, 0.5758528, 9.221450805664062, -3.786242723464966, 0.20924875140190125, 3.3956005573272705, -16.088762283325195, 4.538465976715088, -0.79443359375, 0.277099609375, -0.44970703125, 0, 
154, 1156961639, 0.38585997, 0.40049535, -0.5996147, 0.57548064, 9.211810111999512, -3.8346848487854004, 0.0981425866484642, 3.0929996967315674, -17.643688201904297, 4.45741605758667, -0.794921875, 0.27783203125, -0.44677734375, 0, 
155, 1156978306, 0.38363567, 0.4019786, -0.60046685, 0.57504493, 9.191984176635742, -3.87471866607666, -0.04949496313929558, 3.394500970840454, -18.935829162597656, 4.258072853088379, -0.79736328125, 0.28076171875, -0.44189453125, 0, 
156, 1156994973, 0.38132834, 0.40358475, -0.6013055, 0.57457787, 9.208917617797852, -3.8548078536987305, -0.23557047545909882, 3.9233016967773438, -19.8498592376709, 3.957277297973633, -0.799560546875, 0.278564453125, -0.437255859375, 0, 
157, 1157011640, 0.3790647, 0.4052318, -0.60211587, 0.57406765, 9.236845970153809, -3.878941297531128, -0.3545215427875519, 3.762056350708008, -19.846208572387695, 3.4318313598632812, -0.798583984375, 0.279541015625, -0.4345703125, 0, 
158, 1157028307, 0.3769581, 0.40679216, -0.602943, 0.5734829, 9.199057579040527, -3.8907415866851807, -0.5542283654212952, 2.70439076423645, -19.09603500366211, 3.0293779373168945, -0.79931640625, 0.282470703125, -0.428466796875, 0, 
159, 1157044974, 0.37505707, 0.40824297, -0.6037416, 0.57285786, 9.141337394714355, -3.911904811859131, -0.7264761924743652, 1.729723572731018, -17.81536865234375, 2.4953649044036865, -0.80419921875, 0.281494140625, -0.425537109375, 0, 
160, 1157061641, 0.3733785, 0.4095556, -0.604533, 0.5721824, 9.088425636291504, -3.914215564727783, -0.8962361216545105, 0.6323460340499878, -16.47698211669922, 2.0392913818359375, -0.805419921875, 0.28369140625, -0.422119140625, 0, 
161, 1157078308, 0.3718496, 0.41073066, -0.6053054, 0.5715189, 9.057183265686035, -3.9144654273986816, -0.998725175857544, 0.14236189424991608, -15.270841598510742, 1.985709309577942, -0.803955078125, 0.2822265625, -0.417724609375, 0, 
162, 1157094975, 0.37040868, 0.41181058, -0.6060245, 0.57091504, 9.078322410583496, -3.9196035861968994, -1.0556004047393799, 0.05420291796326637, -14.172272682189941, 2.0409302711486816, -0.806640625, 0.2822265625, -0.416748046875, 0, 
163, 1157111642, 0.36908528, 0.41276217, -0.606664, 0.57040536, 9.055469512939453, -3.9028053283691406, -1.100860834121704, 0.013389046303927898, -12.64047622680664, 2.134633779525757, -0.80615234375, 0.28564453125, -0.4150390625, 0, 
164, 1157128309, 0.36793637, 0.41358474, -0.6071803, 0.5700025, 9.093284606933594, -3.892141342163086, -1.0426876544952393, 0.12745524942874908, -10.763626098632812, 1.9053102731704712, -0.8056640625, 0.284423828125, -0.41162109375, 0, 
165, 1157144976, 0.3669794, 0.41432586, -0.6074284, 0.5698169, 9.07056999206543, -3.7949635982513428, -1.0153120756149292, 1.4633499383926392, -8.374894142150879, 1.2697434425354004, -0.80517578125, 0.283447265625, -0.406982421875, 0, 
166, 1157161643, 0.3661406, 0.41503575, -0.6075321, 0.56972915, 9.08351993560791, -3.5903825759887695, -1.082039713859558, 2.1119916439056396, -7.129783630371094, 0.7688230276107788, -0.80908203125, 0.28466796875, -0.40478515625, 0, 
167, 1157178310, 0.36526063, 0.4155583, -0.6077729, 0.5696563, 9.14708423614502, -3.6102454662323, -1.0451953411102295, 1.5298917293548584, -6.9498162269592285, 2.1337239742279053, -0.811279296875, 0.28515625, -0.406494140625, 0, 
168, 1157194977, 0.36424652, 0.4159336, -0.6081199, 0.5696614, 9.18401050567627, -3.585587501525879, -0.9070319533348083, 1.1962989568710327, -6.845341205596924, 3.813392400741577, -0.8095703125, 0.28857421875, -0.40478515625, 0, 
169, 1157211644, 0.36346585, 0.4160628, -0.6085517, 0.5696045, 9.157198905944824, -3.581026077270508, -0.748035728931427, -0.04413069039583206, -5.557085990905762, 3.9684898853302, -0.80859375, 0.28515625, -0.402587890625, 0, 
170, 1157228311, 0.36284867, 0.4161647, -0.6088761, 0.5695768, 9.114659309387207, -3.618645668029785, -0.7089824676513672, -0.6671341061592102, -4.139640808105469, 3.289548397064209, -0.811279296875, 0.2890625, -0.40087890625, 0, 
171, 1157244978, 0.36230564, 0.41623518, -0.60911393, 0.56961685, 9.06937313079834, -3.6519360542297363, -0.7249307632446289, 0.08361907303333282, -3.4807276725769043, 3.021690607070923, -0.809814453125, 0.28955078125, -0.399169921875, 0, 
172, 1157261645, 0.36168033, 0.41639182, -0.60922307, 0.56978303, 8.981629371643066, -3.672456979751587, -0.7764540314674377, 0.9746593832969666, -3.2311062812805176, 2.9953219890594482, -0.810302734375, 0.28955078125, -0.402587890625, 0, 
173, 1157278312, 0.36100692, 0.41659582, -0.60924006, 0.5700426, 8.877729415893555, -3.72676420211792, -0.8356956839561462, 2.349010705947876, -3.2759153842926025, 2.9276273250579834, -0.810302734375, 0.2890625, -0.40087890625, 0, 
174, 1157294979, 0.36021155, 0.4169412, -0.6091136, 0.57042825, 8.834694862365723, -3.7325611114501953, -0.8787232041358948, 4.008509635925293, -3.5591025352478027, 2.73327898979187, -0.810791015625, 0.289794921875, -0.398681640625, 0, 
175, 1157311646, 0.35946116, 0.41731736, -0.6089442, 0.57080734, 8.812803268432617, -3.7016923427581787, -0.8531254529953003, 4.04554557800293, -3.3753693103790283, 2.295762300491333, -0.80859375, 0.29248046875, -0.402587890625, 0, 
176, 1157328313, 0.35885024, 0.4176554, -0.6088119, 0.5710856, 8.871979713439941, -3.9123623371124268, -0.7321245670318604, 3.3864147663116455, -3.1981937885284424, 1.7194510698318481, -0.810302734375, 0.289794921875, -0.398193359375, 0, 
177, 1157344980, 0.3580914, 0.4182452, -0.6085304, 0.57143, 8.87248706817627, -4.1993794441223145, -0.7695046663284302, 5.065878868103027, -4.141778945922852, 1.0078918933868408, -0.810302734375, 0.289794921875, -0.39697265625, 0, 
178, 1157361647, 0.35670313, 0.41941622, -0.6078277, 0.5721876, 8.940065383911133, -4.151495933532715, -0.7257030606269836, 11.46890640258789, -6.73929500579834, 0.8557527661323547, -0.810302734375, 0.290283203125, -0.394775390625, 0, 
179, 1157378314, 0.35540292, 0.420512, -0.6072804, 0.5727733, 9.120837211608887, -3.953193187713623, -0.44976353645324707, 9.957626342773438, -7.071208953857422, 0.8041046261787415, -0.8125, 0.28857421875, -0.396484375, 0, 
180, 1157394981, 0.35419452, 0.42147997, -0.60699594, 0.5731117, 9.191258430480957, -4.041938781738281, -0.2808404564857483, 7.255561351776123, -7.5368852615356445, 1.1396822929382324, -0.8115234375, 0.28857421875, -0.398681640625, 0, 
181, 1157411648, 0.35280815, 0.42260844, -0.606796, 0.5733475, 9.121847152709961, -4.053905963897705, -0.2013038694858551, 7.631454944610596, -9.552977561950684, 1.1328694820404053, -0.814208984375, 0.289794921875, -0.39306640625, 0, 
182, 1157428315, 0.3513213, 0.42387953, -0.6068219, 0.5732947, 9.125009536743164, -3.966123104095459, -0.023570053279399872, 5.773163318634033, -11.786100387573242, 0.9256626963615417, -0.81201171875, 0.286865234375, -0.3935546875, 0, 
183, 1157444982, 0.34956652, 0.42541444, -0.6070754, 0.572962, 9.18960189819336, -4.1522297859191895, 0.11577217280864716, 5.359328269958496, -15.458046913146973, 0.8449317216873169, -0.8125, 0.289794921875, -0.39306640625, 0, 
184, 1157461649, 0.34737337, 0.42742106, -0.6074438, 0.5724118, 9.346748352050781, -4.354324817657471, 0.2234678864479065, 7.486482620239258, -20.59964942932129, 0.2772643268108368, -0.81494140625, 0.287109375, -0.38525390625, 0, 
185, 1157478316, 0.34473363, 0.43017334, -0.60775244, 0.5716178, 9.572274208068848, -4.443495273590088, 0.3275662064552307, 9.374893188476562, -25.848955154418945, -1.7990663051605225, -0.8173828125, 0.287109375, -0.379638671875, 0, 
186, 1157494983, 0.34229594, 0.4330432, -0.6084498, 0.5701721, 9.807289123535156, -4.524523735046387, 0.31589582562446594, 5.360785961151123, -28.644969940185547, -3.5700111389160156, -0.82080078125, 0.2861328125, -0.375732421875, 0, 
187, 1157511650, 0.33972406, 0.4360639, -0.60951895, 0.56826276, 9.80215072631836, -4.927052974700928, 0.05644615739583969, 2.1720991134643555, -31.899694442749023, -3.6120948791503906, -0.822021484375, 0.28466796875, -0.3671875, 0, 
188, 1157528317, 0.33691135, 0.43952823, -0.6106936, 0.56600267, 9.96383285522461, -5.2630743980407715, -0.1298559606075287, 2.3178770542144775, -36.1300163269043, -5.110141277313232, -0.821533203125, 0.28515625, -0.359375, 0, 
189, 1157544984, 0.33390084, 0.44341952, -0.61195475, 0.5633835, 10.033609390258789, -5.45741081237793, -0.35854318737983704, 3.2370352745056152, -40.50143814086914, -6.9498419761657715, -0.827880859375, 0.2802734375, -0.3505859375, 0, 
190, 1157561651, 0.3298378, 0.4483841, -0.61303735, 0.56066376, 10.078275680541992, -5.208800315856934, -0.4004424214363098, 7.910736083984375, -48.47401428222656, -8.014692306518555, -0.829345703125, 0.280517578125, -0.33984375, 0, 
191, 1157578318, 0.32522613, 0.45422, -0.61424965, 0.5573236, 10.395715713500977, -4.577584266662598, -0.6257728338241577, 8.860417366027832, -56.59864044189453, -10.709772109985352, -0.8349609375, 0.278564453125, -0.326904296875, 0, 
192, 1157594985, 0.32070473, 0.46024767, -0.6162424, 0.5527803, 10.468944549560547, -4.125877857208252, -1.218077301979065, 0.18643106520175934, -62.17631149291992, -11.974055290222168, -0.838134765625, 0.277587890625, -0.31396484375, 0, 
193, 1157611652, 0.31562358, 0.46704498, -0.6182235, 0.5477687, 10.453125953674316, -4.309914588928223, -2.0873982906341553, 2.3860890865325928, -69.23143005371094, -14.274388313293457, -0.8427734375, 0.276123046875, -0.2978515625, 0, 
194, 1157628319, 0.30914274, 0.4759128, -0.6191994, 0.5427064, 10.556042671203613, -4.2965168952941895, -3.110151529312134, 14.825166702270508, -80.89131164550781, -21.095050811767578, -0.85107421875, 0.270751953125, -0.2802734375, 0, 
195, 1157644986, 0.29987264, 0.48749664, -0.6184882, 0.53841996, 10.752748489379883, -4.959417343139648, -3.3813347816467285, 39.32502365112305, -96.7200927734375, -26.09914207458496, -0.854248046875, 0.263671875, -0.2607421875, 0, 
196, 1157661653, 0.28736466, 0.500952, -0.61650634, 0.5351531, 10.492753982543945, -4.636540412902832, -3.496290922164917, 63.46417236328125, -111.49552917480469, -24.338674545288086, -0.8603515625, 0.2529296875, -0.23486328125, 0, 
197, 1157678320, 0.27338618, 0.51522374, -0.6140489, 0.531741, 10.49332046508789, -3.8483123779296875, -3.488203287124634, 71.22945404052734, -120.2311782836914, -24.298595428466797, -0.86572265625, 0.25, -0.210205078125, 0, 
198, 1157694987, 0.25960308, 0.5289034, -0.61227673, 0.5272426, 10.335025787353516, -3.612910509109497, -3.692211866378784, 62.665618896484375, -122.48748779296875, -22.19993019104004, -0.871337890625, 0.240234375, -0.183349609375, 0, 
199, 1157711654, 0.246658, 0.5414281, -0.6117035, 0.5213773, 9.992443084716797, -3.4275496006011963, -3.9325826168060303, 47.453033447265625, -121.85334777832031, -18.41926383972168, -0.87353515625, 0.23486328125, -0.154052734375, 0, 
200, 1157728321, 0.23498362, 0.55265796, -0.61236155, 0.51416457, 9.70317554473877, -3.659902811050415, -4.478011131286621, 30.497621536254883, -118.96174621582031, -15.219133377075195, -0.874755859375, 0.234619140625, -0.126708984375, 0, 
201, 1157744988, 0.2232101, 0.56338274, -0.6133311, 0.50655913, 9.484517097473145, -4.336482524871826, -5.089266300201416, 26.249225616455078, -119.08395385742188, -11.722335815429688, -0.8759765625, 0.232177734375, -0.09521484375, 0, 
202, 1157761655, 0.20998116, 0.57442456, -0.6137252, 0.4992852, 9.228621482849121, -4.781651973724365, -5.641351699829102, 35.80364990234375, -124.10652160644531, -9.709271430969238, -0.875244140625, 0.23095703125, -0.066162109375, 0, 
203, 1157778322, 0.19386852, 0.5863725, -0.6129403, 0.49283507, 8.808417320251465, -4.702933311462402, -5.814694404602051, 56.048946380615234, -134.3654022216797, -7.118814468383789, -0.873779296875, 0.231689453125, -0.035888671875, 0, 
204, 1157794989, 0.17522843, 0.59888524, -0.61124, 0.48684433, 8.606880187988281, -4.0194196701049805, -5.991214752197266, 72.0524673461914, -143.79469299316406, -4.028387069702148, -0.87158203125, 0.233642578125, -0.00146484375, 0, 
205, 1157811656, 0.15638265, 0.61079043, -0.6099177, 0.48008367, 8.613253593444824, -3.3745839595794678, -5.922183036804199, 67.70079803466797, -146.19033813476562, -0.14119011163711548, -0.865478515625, 0.23681640625, 0.031005859375, 0, 
206, 1157828323, 0.13972323, 0.62096804, -0.61038536, 0.4714931, 8.47761344909668, -3.1067140102386475, -5.881375789642334, 43.123905181884766, -140.88742065429688, 5.481684684753418, -0.861083984375, 0.2392578125, 0.065673828125, 0, 
207, 1157844990, 0.12684375, 0.62903076, -0.6132137, 0.46065158, 8.019730567932129, -3.128854274749756, -5.900977611541748, 7.901935577392578, -130.0245361328125, 10.073062896728516, -0.849365234375, 0.24609375, 0.098388671875, 0, 
208, 1157861657, 0.11767532, 0.6352666, -0.61804515, 0.4478941, 7.357065200805664, -3.2299108505249023, -6.008902072906494, -24.118764877319336, -118.61237335205078, 13.054621696472168, -0.84375, 0.25146484375, 0.12744140625, 0, 
209, 1157878324, 0.11138822, 0.64019, -0.624202, 0.4337299, 6.701848030090332, -3.2936253547668457, -6.2016191482543945, -47.78609085083008, -109.53068542480469, 14.432217597961426, -0.828369140625, 0.255859375, 0.16064453125, 0, 
210, 1157894991, 0.10677762, 0.64428955, -0.6309111, 0.41885635, 6.025933265686035, -3.3745791912078857, -6.450772285461426, -60.45210647583008, -103.40251159667969, 14.859773635864258, -0.822265625, 0.2578125, 0.192626953125, 0, 
211, 1157911658, 0.10263497, 0.6480318, -0.63740504, 0.40402445, 5.426036834716797, -3.295595645904541, -6.542709827423096, -61.95743179321289, -99.96778869628906, 14.128989219665527, -0.807861328125, 0.258544921875, 0.219482421875, 0, 
212, 1157928325, 0.09827049, 0.6515883, -0.64344215, 0.38956094, 5.017854690551758, -3.10205078125, -6.554353713989258, -58.18983840942383, -98.41753387451172, 13.765246391296387, -0.796142578125, 0.260986328125, 0.249755859375, 0, 
213, 1157944992, 0.09366151, 0.6549673, -0.64894295, 0.3756576, 4.733896732330322, -2.9070520401000977, -6.507935523986816, -53.27369689941406, -96.10960388183594, 13.163386344909668, -0.785400390625, 0.260498046875, 0.276123046875, 0, 
214, 1157961659, 0.08909027, 0.65814734, -0.65394235, 0.36230463, 4.494909286499023, -2.7109551429748535, -6.426132678985596, -49.79664993286133, -92.58804321289062, 12.035465240478516, -0.771484375, 0.2587890625, 0.304931640625, 0, 
215, 1157978326, 0.084698536, 0.6611789, -0.658338, 0.3496565, 4.241542339324951, -2.5856003761291504, -6.319761753082275, -46.00583267211914, -87.81918334960938, 9.944522857666016, -0.760986328125, 0.256103515625, 0.3291015625, 0, 
216, 1157994993, 0.08031006, 0.6642525, -0.66191876, 0.33790922, 4.109398365020752, -2.7529563903808594, -6.4280805587768555, -39.94005584716797, -83.30836486816406, 6.554928779602051, -0.750244140625, 0.2568359375, 0.3525390625, 0, 
217, 1158011660, 0.075251706, 0.6675135, -0.6645061, 0.32740614, 4.098021030426025, -2.6528916358947754, -6.3642778396606445, -28.798583984375, -80.53535461425781, 3.39190673828125, -0.73681640625, 0.255126953125, 0.372314453125, 0, 
218, 1158028327, 0.07057427, 0.6706786, -0.6665297, 0.31772274, 4.268752098083496, -2.58739972114563, -6.491737365722656, -25.576284408569336, -74.50880432128906, 0.7974624037742615, -0.72705078125, 0.251220703125, 0.391357421875, 0, 
219, 1158044994, 0.06678362, 0.67364645, -0.6681834, 0.30866092, 4.273123741149902, -2.8066604137420654, -6.506319522857666, -26.09769058227539, -66.96338653564453, -1.6463631391525269, -0.717529296875, 0.25244140625, 0.410400390625, 0, 
220, 1158061661, 0.06330768, 0.6765169, -0.66940904, 0.30034745, 4.198714733123779, -3.0324814319610596, -6.664177894592285, -23.26085090637207, -61.650150299072266, -3.5163187980651855, -0.707275390625, 0.24853515625, 0.42333984375, 0, 
221, 1158078328, 0.06029231, 0.67918074, -0.6703375, 0.29279032, 4.163402557373047, -2.9928152561187744, -6.847191333770752, -21.4136905670166, -55.45896530151367, -4.587189197540283, -0.69580078125, 0.243896484375, 0.44091796875, 0, 
222, 1158094995, 0.057808366, 0.681597, -0.6710559, 0.2859506, 4.219984531402588, -3.1019210815429688, -7.042971611022949, -20.284950256347656, -49.075679779052734, -5.213798522949219, -0.688232421875, 0.24169921875, 0.451416015625, 0, 
223, 1158111662, 0.05511161, 0.6838434, -0.67152363, 0.2799595, 4.370993137359619, -3.0207149982452393, -7.306610584259033, -14.966493606567383, -45.6533317565918, -4.864339351654053, -0.68359375, 0.239990234375, 0.4638671875, 0, 
224, 1158128329, 0.053056248, 0.68568015, -0.67215556, 0.2742895, 4.547762870788574, -2.5969018936157227, -7.2530598640441895, -16.987674713134766, -40.4666633605957, -3.324333429336548, -0.672607421875, 0.23779296875, 0.473388671875, 0, 
225, 1158144996, 0.05277432, 0.6869082, -0.6732864, 0.2684355, 4.600616931915283, -2.399254560470581, -7.338935852050781, -27.365022659301758, -32.19784164428711, -1.5681856870651245, -0.6689453125, 0.2333984375, 0.48291015625, 0, 
226, 1158161663, 0.054521736, 0.6875807, -0.6749024, 0.26223505, 4.3192620277404785, -2.6823880672454834, -7.841568470001221, -39.6503791809082, -23.62089729309082, -0.5690287947654724, -0.665283203125, 0.228271484375, 0.489013671875, 0, 
227, 1158178330, 0.0563332, 0.68827116, -0.6762749, 0.25644058, 3.7934625148773193, -3.0154645442962646, -8.09039306640625, -37.62958908081055, -21.357032775878906, -1.7718724012374878, -0.65869140625, 0.22265625, 0.499755859375, 0, 
228, 1158194997, 0.056072406, 0.68936443, -0.67694384, 0.25175348, 3.6351540088653564, -2.7752907276153564, -8.144553184509277, -21.296802520751953, -26.17628288269043, -2.908769130706787, -0.65673828125, 0.21875, 0.503173828125, 0, 
229, 1158211664, 0.05521362, 0.6904506, -0.6774965, 0.24744321, 4.054725170135498, -2.020324230194092, -7.962769508361816, -16.521135330200195, -27.097871780395508, -2.2618658542633057, -0.64794921875, 0.216064453125, 0.510986328125, 0, 
230, 1158228331, 0.056526065, 0.6909281, -0.6787327, 0.2423746, 4.188024997711182, -1.7309412956237793, -7.983601093292236, -31.744264602661133, -19.815961837768555, -0.15544423460960388, -0.646484375, 0.212158203125, 0.5166015625, 0, 
231, 1158244998, 0.05936642, 0.6909887, -0.6803742, 0.2368573, 3.73732328414917, -2.2759034633636475, -8.417279243469238, -41.91598129272461, -14.297669410705566, 1.0061440467834473, -0.643310546875, 0.20556640625, 0.525634765625, 0, 
232, 1158261665, 0.060708184, 0.69135296, -0.6815337, 0.23207216, 3.1851754188537598, -2.7566165924072266, -8.658576965332031, -30.462549209594727, -18.118043899536133, 0.03086984157562256, -0.6416015625, 0.2021484375, 0.528564453125, 0, 
233, 1158278332, 0.05936367, 0.6923265, -0.68192667, 0.22833347, 3.1701931953430176, -2.465329647064209, -8.573286056518555, -11.33028507232666, -26.34745216369629, -1.7655268907546997, -0.6357421875, 0.196044921875, 0.535888671875, 0, 
234, 1158294999, 0.05693214, 0.6934954, -0.68210506, 0.22484548, 3.459930896759033, -1.8274718523025513, -8.170992851257324, -4.572971820831299, -30.439083099365234, -1.9084601402282715, -0.63134765625, 0.196044921875, 0.544677734375, 0, 
235, 1158311666, 0.0554578, 0.6943012, -0.6827397, 0.22076403, 3.608020067214966, -1.3774452209472656, -7.84710168838501, -12.760380744934082, -28.389341354370117, 0.2597200572490692, -0.624755859375, 0.197021484375, 0.551025390625, 0, 
236, 1158328333, 0.055668317, 0.69459426, -0.6839446, 0.21600933, 3.4222679138183594, -1.6064214706420898, -7.910300254821777, -25.00534439086914, -23.14311408996582, 2.585785388946533, -0.6201171875, 0.192626953125, 0.55712890625, 0, 
237, 1158345000, 0.055584777, 0.69484276, -0.6850607, 0.21165077, 2.9777979850769043, -2.23058819770813, -8.092619895935059, -21.61484718322754, -22.537214279174805, 2.964827537536621, -0.6162109375, 0.188720703125, 0.56103515625, 0, 
238, 1158361667, 0.05360798, 0.6952853, -0.6857543, 0.20843624, 2.9335405826568604, -2.1068546772003174, -8.023738861083984, -6.505642890930176, -26.09271240234375, 3.2107975482940674, -0.61083984375, 0.188720703125, 0.568359375, 0, 
239, 1158378334, 0.0509594, 0.69573206, -0.68631625, 0.20574296, 3.0946238040924072, -1.628194808959961, -7.785335540771484, -0.656852126121521, -26.71173095703125, 3.7085554599761963, -0.604736328125, 0.189208984375, 0.57177734375, 0, 
240, 1158395001, 0.049104445, 0.6958722, -0.68712497, 0.20300265, 3.2080156803131104, -1.1980400085449219, -7.533209323883057, -5.127788066864014, -22.843231201171875, 5.197473526000977, -0.60107421875, 0.1884765625, 0.577392578125, 0, 
241, 1158411668, 0.048811417, 0.69559634, -0.6883165, 0.1999591, 3.120253086090088, -1.2470684051513672, -7.588036060333252, -14.692204475402832, -16.475811004638672, 6.723021030426025, -0.595458984375, 0.1875, 0.581787109375, 0, 
242, 1158428335, 0.049112592, 0.6951663, -0.6895306, 0.19717892, 2.943894147872925, -1.6181741952896118, -7.875173568725586, -16.357654571533203, -12.209887504577637, 6.840003967285156, -0.593505859375, 0.185302734375, 0.58740234375, 0, 
243, 1158445002, 0.048868127, 0.69482124, -0.6904657, 0.19517393, 2.780099868774414, -1.956313967704773, -8.085529327392578, -9.665934562683105, -11.111055374145508, 6.106540679931641, -0.591064453125, 0.1845703125, 0.587646484375, 0, 
244, 1158461669, 0.047210574, 0.6947277, -0.6909003, 0.19437423, 2.7320780754089355, -2.110893726348877, -8.016592025756836, 3.552233934402466, -12.220903396606445, 4.815401554107666, -0.58740234375, 0.185791015625, 0.5908203125, 0, 
245, 1158478336, 0.04421267, 0.69482154, -0.6908769, 0.1948264, 2.961107015609741, -1.6613824367523193, -7.735429286956787, 16.55954933166504, -12.698808670043945, 3.926964044570923, -0.58837890625, 0.1884765625, 0.5908203125, 0, 
246, 1158495003, 0.042127833, 0.69471395, -0.6909119, 0.19554691, 3.4395532608032227, -1.0223631858825684, -7.6243896484375, 13.330698013305664, -6.832679748535156, 4.022073745727539, -0.582275390625, 0.191650390625, 0.59033203125, 0, 
247, 1158511670, 0.042556055, 0.69413805, -0.6913708, 0.1958779, 3.540977716445923, -1.20335054397583, -7.810398101806641, -1.2089577913284302, 3.723695755004883, 4.796919822692871, -0.583984375, 0.193603515625, 0.592529296875, 0, 
248, 1158528337, 0.043890715, 0.6934137, -0.6918374, 0.1965005, 3.3032381534576416, -1.8482190370559692, -8.281957626342773, -4.189650535583496, 9.592978477478027, 4.419569492340088, -0.586181640625, 0.19287109375, 0.59033203125, 0, 
249, 1158545004, 0.044719867, 0.69282067, -0.69199634, 0.19784051, 3.074191093444824, -2.034681558609009, -8.48931884765625, 2.0850346088409424, 10.51381778717041, 3.229794502258301, -0.58837890625, 0.190185546875, 0.585205078125, 0, 
250, 1158561671, 0.045010317, 0.6923014, -0.69196004, 0.19971095, 3.2300264835357666, -2.035388469696045, -8.540736198425293, 7.455778121948242, 10.440055847167969, 2.842851400375366, -0.590576171875, 0.194580078125, 0.585205078125, 0, 
251, 1158578338, 0.045167755, 0.6917155, -0.69188124, 0.20196593, 3.379361391067505, -1.9436298608779907, -8.50075912475586, 9.949614524841309, 11.741429328918457, 3.2587130069732666, -0.592041015625, 0.194091796875, 0.5830078125, 0, 
252, 1158595005, 0.04528252, 0.6910514, -0.6917579, 0.204618, 3.6215648651123047, -1.7049671411514282, -8.5495023727417, 12.0753173828125, 13.54311752319336, 3.6033966541290283, -0.59423828125, 0.197998046875, 0.5791015625, 0, 
253, 1158611672, 0.04637467, 0.6902101, -0.69176495, 0.20717335, 3.710087537765503, -1.5413696765899658, -8.736661911010742, 6.738433837890625, 17.927175521850586, 3.669785976409912, -0.600830078125, 0.203125, 0.57568359375, 0, 
254, 1158628339, 0.04819274, 0.6892852, -0.69187343, 0.20946313, 3.631284475326538, -1.7357536554336548, -9.116788864135742, 1.87233567237854, 20.193265914916992, 3.4439713954925537, -0.601806640625, 0.201416015625, 0.570556640625, 0, 
255, 1158645006, 0.049779747, 0.6885327, -0.69183403, 0.21168506, 3.487274646759033, -1.9735685586929321, -9.295879364013672, 2.925723075866699, 18.571670532226562, 2.2418758869171143, -0.605712890625, 0.200927734375, 0.568359375, 0, 
256, 1158661673, 0.0504791, 0.6881089, -0.69149, 0.21400838, 3.514709949493408, -2.0862884521484375, -9.265426635742188, 8.17166805267334, 14.464021682739258, 0.567520260810852, -0.6083984375, 0.203125, 0.560546875, 0, 
257, 1158678340, 0.050522964, 0.687808, -0.69104415, 0.21639249, 3.6786365509033203, -1.871444821357727, -9.061907768249512, 11.756552696228027, 11.500490188598633, 0.49059247970581055, -0.6123046875, 0.20361328125, 0.558837890625, 0, 
258, 1158695007, 0.051084403, 0.6872999, -0.6908982, 0.2183323, 3.9375498294830322, -1.4883567094802856, -9.07126522064209, 6.68866491317749, 12.064094543457031, 1.975489616394043, -0.61376953125, 0.204833984375, 0.555419921875, 0, 
259, 1158711674, 0.05296569, 0.6865436, -0.691206, 0.21928737, 3.849912166595459, -1.6516180038452148, -9.264225006103516, -4.9753098487854, 13.886799812316895, 2.987948179244995, -0.615478515625, 0.205810546875, 0.55322265625, 0, 
260, 1158728341, 0.054814253, 0.6858706, -0.6916053, 0.21968012, 3.6546943187713623, -2.0789718627929688, -9.542860984802246, -7.58375883102417, 10.917657852172852, 2.88148832321167, -0.619384765625, 0.204345703125, 0.55322265625, 0, 
261, 1158745008, 0.055768587, 0.685543, -0.69178283, 0.2199031, 3.5808792114257812, -2.2670211791992188, -9.44467544555664, -3.7016117572784424, 5.440464496612549, 1.4824182987213135, -0.619384765625, 0.20361328125, 0.551513671875, 0, 
262, 1158761675, 0.05592798, 0.68546367, -0.6918082, 0.22003014, 3.707260847091675, -2.0827372074127197, -9.27200698852539, -0.08664775639772415, 0.9070032238960266, 0.7470263242721558, -0.619384765625, 0.203125, 0.551025390625, 0, 
263, 1158778342, 0.05616531, 0.6853833, -0.69195926, 0.21974443, 3.719494104385376, -1.8925162553787231, -9.087674140930176, -2.603774309158325, -0.7050023674964905, 1.0693110227584839, -0.620361328125, 0.2021484375, 0.5537109375, 0, 
264, 1158795009, 0.056694277, 0.68522626, -0.6922874, 0.21906382, 3.7200348377227783, -1.8845330476760864, -9.119327545166016, -6.145908355712891, -1.1263313293457031, 1.6810448169708252, -0.61865234375, 0.201416015625, 0.551513671875, 0, 
265, 1158811676, 0.057170067, 0.68512475, -0.69264114, 0.21813805, 3.6321425437927246, -1.9707599878311157, -9.213448524475098, -7.072026252746582, -2.622779130935669, 1.5259984731674194, -0.62060546875, 0.200439453125, 0.556640625, 0, 
266, 1158828343, 0.05758395, 0.6851404, -0.6929959, 0.21684879, 3.6082510948181152, -2.0310940742492676, -9.251720428466797, -8.460888862609863, -4.796479225158691, 0.9253168106079102, -0.618896484375, 0.19970703125, 0.552734375, 0, 
267, 1158845010, 0.05776721, 0.6852952, -0.69329894, 0.21533671, 3.6154117584228516, -2.189091682434082, -9.155250549316406, -8.299543380737305, -7.121678829193115, 0.2733324468135834, -0.61474609375, 0.19970703125, 0.551513671875, 0, 
268, 1158861677, 0.057503477, 0.68556577, -0.6935171, 0.2138388, 3.6247406005859375, -2.1820902824401855, -9.01740837097168, -5.957414150238037, -9.314291954040527, -0.01287038717418909, -0.614990234375, 0.19580078125, 0.554931640625, 0, 
269, 1158878344, 0.057068873, 0.685821, -0.69376165, 0.21233867, 3.614560127258301, -2.03604793548584, -8.915897369384766, -5.211584091186523, -10.122282981872559, 0.43109387159347534, -0.61328125, 0.193115234375, 0.556640625, 0, 
270, 1158895011, 0.056753073, 0.6859488, -0.69417584, 0.21064974, 3.594860792160034, -1.8308932781219482, -8.939026832580566, -6.970717430114746, -10.324254035949707, 1.5902997255325317, -0.61181640625, 0.19482421875, 0.562255859375, 0, 
271, 1158911678, 0.0568237, 0.6859796, -0.6947538, 0.20861503, 3.482220411300659, -1.8655455112457275, -8.959197044372559, -10.713736534118652, -10.031862258911133, 2.1331233978271484, -0.61181640625, 0.193115234375, 0.560546875, 0, 
272, 1158928345, 0.056725655, 0.6860728, -0.6953011, 0.2065018, 3.4735984802246094, -1.9508663415908813, -8.97358512878418, -10.22217845916748, -11.280508041381836, 1.9023786783218384, -0.60791015625, 0.1923828125, 0.564453125, 0, 
273, 1158945012, 0.056652047, 0.68617666, -0.6958735, 0.2042357, 3.5413718223571777, -1.8090393543243408, -8.930253982543945, -11.099888801574707, -11.905089378356934, 1.8733466863632202, -0.605712890625, 0.190185546875, 0.569091796875, 0, 
274, 1158961679, 0.056985494, 0.6862185, -0.696565, 0.20162879, 3.4571313858032227, -1.8329870700836182, -8.930387496948242, -14.838760375976562, -11.525357246398926, 2.028892993927002, -0.60595703125, 0.186279296875, 0.569580078125, 0, 
275, 1158978346, 0.05713026, 0.6862706, -0.69727176, 0.1989499, 3.3377974033355713, -1.8539742231369019, -8.99581241607666, -14.310474395751953, -12.787054061889648, 2.284649133682251, -0.60205078125, 0.185302734375, 0.57470703125, 0, 
276, 1158995013, 0.057087716, 0.6863871, -0.6979247, 0.19625223, 3.3042445182800293, -1.8131009340286255, -9.046889305114746, -13.417113304138184, -13.835484504699707, 1.9691386222839355, -0.600341796875, 0.182861328125, 0.577880859375, 0, 
277, 1159011680, 0.056788594, 0.6865653, -0.6985019, 0.19364503, 3.3126327991485596, -1.8285000324249268, -9.016972541809082, -11.645763397216797, -14.687505722045898, 1.6954154968261719, -0.59619140625, 0.178955078125, 0.58203125, 0, 
278, 1159028347, 0.0562614, 0.68681, -0.6989796, 0.1911917, 3.3203256130218506, -1.8017940521240234, -8.909170150756836, -9.67331314086914, -15.102455139160156, 1.2674651145935059, -0.594482421875, 0.18017578125, 0.584716796875, 0, 
279, 1159045014, 0.055459887, 0.68711454, -0.6993129, 0.18910159, 3.3000504970550537, -1.802836298942566, -8.699203491210938, -6.420904159545898, -14.728813171386719, 0.7965235710144043, -0.59130859375, 0.175537109375, 0.585205078125, 0, 
280, 1159061681, 0.054381125, 0.6874106, -0.69951916, 0.1875696, 3.361081838607788, -1.7004631757736206, -8.525957107543945, -2.2713229656219482, -13.367968559265137, 0.8076778054237366, -0.590087890625, 0.17724609375, 0.592041015625, 0, 
281, 1159078348, 0.05363757, 0.68755203, -0.6997395, 0.18644081, 3.345879077911377, -1.5866090059280396, -8.323077201843262, -1.9950248003005981, -9.664711952209473, 1.3355554342269897, -0.585693359375, 0.17626953125, 0.5908203125, 0, 
282, 1159095015, 0.053303797, 0.68750954, -0.6999772, 0.18579945, 3.3451485633850098, -1.7047414779663086, -8.236456871032715, -1.6789640188217163, -5.170974254608154, 1.9579695463180542, -0.585693359375, 0.17626953125, 0.59375, 0, 
283, 1159111682, 0.05316029, 0.68733513, -0.7001485, 0.18584006, 3.3209991455078125, -1.6649004220962524, -8.170650482177734, 0.7331955432891846, -0.8526211380958557, 2.2840700149536133, -0.584716796875, 0.178955078125, 0.592529296875, 0, 
284, 1159128349, 0.053484306, 0.68700844, -0.7003044, 0.18636726, 3.2839853763580322, -1.7113540172576904, -8.10922622680664, 0.8251451849937439, 3.885401725769043, 2.525892496109009, -0.5869140625, 0.17724609375, 0.591552734375, 0, 
285, 1159145016, 0.05416697, 0.6865192, -0.70045406, 0.1874073, 3.2334232330322266, -1.8379215002059937, -8.120015144348145, 1.5414812564849854, 8.233593940734863, 3.006425619125366, -0.58740234375, 0.178955078125, 0.59326171875, 0, 
286, 1159161683, 0.054712202, 0.6859399, -0.7005069, 0.18916424, 3.220024585723877, -1.841614842414856, -8.21766471862793, 5.723090648651123, 11.09775161743164, 3.425246238708496, -0.5908203125, 0.178955078125, 0.59033203125, 0, 
287, 1159178350, 0.055322222, 0.6852683, -0.70051575, 0.19137615, 3.2672154903411865, -1.6437287330627441, -8.334566116333008, 7.6225056648254395, 13.686150550842285, 3.747685670852661, -0.590087890625, 0.1806640625, 0.5869140625, 0, 
288, 1159195017, 0.05653763, 0.6844678, -0.7006093, 0.1935305, 3.235520124435425, -1.5540622472763062, -8.676372528076172, 4.330221652984619, 16.46291732788086, 3.9511022567749023, -0.594970703125, 0.1806640625, 0.584228515625, 0, 
289, 1159211684, 0.057587273, 0.683695, -0.7006713, 0.19571589, 3.3061609268188477, -1.6775414943695068, -9.025415420532227, 5.314826488494873, 15.786179542541504, 3.905575752258301, -0.598876953125, 0.1806640625, 0.5791015625, 0, 
290, 1159228351, 0.05836286, 0.6829833, -0.7007229, 0.19777505, 3.4691944122314453, -1.543570876121521, -9.248640060424805, 6.036656379699707, 13.799667358398438, 3.883727550506592, -0.6015625, 0.182861328125, 0.576171875, 0, 
291, 1159245018, 0.05921581, 0.6823473, -0.7008102, 0.19940187, 3.5159027576446533, -1.6227469444274902, -9.351849555969238, 3.5794732570648193, 12.027393341064453, 3.4139254093170166, -0.6025390625, 0.18359375, 0.57470703125, 0, 
292, 1159261685, 0.059707142, 0.6818668, -0.70084715, 0.20076378, 3.5025289058685303, -1.6932647228240967, -9.488667488098145, 4.138827800750732, 8.853525161743164, 2.8206188678741455, -0.6064453125, 0.18359375, 0.570556640625, 0, 
293, 1159278352, 0.0598592, 0.6815945, -0.7007768, 0.20188536, 3.55161190032959, -1.644684910774231, -9.580202102661133, 4.812095642089844, 5.856825351715088, 1.689292311668396, -0.608154296875, 0.185302734375, 0.570556640625, 0, 
294, 1159295019, 0.059616894, 0.68155396, -0.7005797, 0.20277674, 3.60054874420166, -1.6548693180084229, -9.537681579589844, 5.830239772796631, 2.615025281906128, 0.43456438183784485, -0.6064453125, 0.1845703125, 0.569091796875, 0, 
295, 1159311686, 0.05925075, 0.6817086, -0.7002983, 0.20333585, 3.6793951988220215, -1.5054473876953125, -9.383500099182129, 5.01729154586792, 0.2305847406387329, -0.8578590154647827, -0.605712890625, 0.18798828125, 0.565673828125, 0, 
296, 1159328353, 0.059208553, 0.6819713, -0.7000035, 0.20348082, 3.6724655628204346, -1.5409464836120605, -9.261955261230469, 1.5788244009017944, -0.2951735258102417, -2.0565075874328613, -0.60791015625, 0.185302734375, 0.5673828125, 0, 
297, 1159345020, 0.059176423, 0.68233824, -0.6996613, 0.20343731, 3.6382415294647217, -1.6528706550598145, -9.15529727935791, 0.7426722645759583, -1.2559059858322144, -2.863692045211792, -0.60791015625, 0.18798828125, 0.568359375, 0, 
298, 1159361687, 0.059081405, 0.68270135, -0.69932824, 0.20339291, 3.6881556510925293, -1.591650128364563, -8.99844741821289, 1.02640962600708, -1.5614269971847534, -2.7118725776672363, -0.6064453125, 0.18505859375, 0.5673828125, 0, 
299, 1159378354, 0.05938972, 0.6830017, -0.69907296, 0.20317143, 3.6512186527252197, -1.5692451000213623, -8.95974063873291, -1.844728946685791, -0.4008643329143524, -2.6772313117980957, -0.609130859375, 0.1845703125, 0.566162109375, 0, 
300, 1159395021, 0.059709724, 0.6833267, -0.69877714, 0.20300266, 3.5270028114318848, -1.6977368593215942, -8.885512351989746, -1.571992039680481, -0.11793367564678192, -2.977924346923828, -0.6103515625, 0.18359375, 0.568359375, 0, 
301, 1159411688, 0.059709284, 0.6837156, -0.69838905, 0.2030285, 3.537745475769043, -1.5974152088165283, -8.758898735046387, 1.0272293090820312, -0.7946596741676331, -3.189856767654419, -0.605712890625, 0.18408203125, 0.568359375, 0, 
302, 1159428355, 0.05995958, 0.6840556, -0.698035, 0.20302756, 3.560417890548706, -1.5428000688552856, -8.652424812316895, -0.33907371759414673, 0.3352126181125641, -3.1584300994873047, -0.61083984375, 0.18359375, 0.566650390625, 0, 
303, 1159445022, 0.06039095, 0.6842935, -0.6977564, 0.20305507, 3.523916721343994, -1.5044902563095093, -8.620768547058105, -1.1965357065200806, 1.4462018013000488, -2.5510761737823486, -0.608642578125, 0.1806640625, 0.5673828125, 0, 
304, 1159461689, 0.060918607, 0.6844399, -0.69755316, 0.20310271, 3.452500820159912, -1.5380181074142456, -8.67714786529541, -1.6923078298568726, 2.097916841506958, -1.8759894371032715, -0.609130859375, 0.178955078125, 0.56494140625, 0, 
305, 1159478356, 0.061277978, 0.6845758, -0.69734865, 0.20323844, 3.4366097450256348, -1.59052574634552, -8.734926223754883, -0.4752052426338196, 1.7212183475494385, -1.5550494194030762, -0.609130859375, 0.1796875, 0.566162109375, 0, 
306, 1159495023, 0.061490126, 0.68467313, -0.6971917, 0.20338501, 3.514907121658325, -1.5458225011825562, -8.72230052947998, 0.18859273195266724, 1.1031070947647095, -0.9318797588348389, -0.612548828125, 0.177978515625, 0.565673828125, 0, 
307, 1159511690, 0.06188399, 0.68467873, -0.6971504, 0.20338799, 3.4885478019714355, -1.5093259811401367, -8.740408897399902, -1.5507465600967407, 1.3780336380004883, -0.2573563754558563, -0.612548828125, 0.177490234375, 0.56396484375, 0, 
308, 1159528357, 0.062260322, 0.684607, -0.69720316, 0.2033338, 3.4543004035949707, -1.5534621477127075, -8.78177547454834, -1.9008337259292603, 1.0928620100021362, 0.5589396357536316, -0.61181640625, 0.177490234375, 0.56494140625, 0, 
309, 1159545024, 0.062441714, 0.6844982, -0.6973106, 0.2032765, 3.4621715545654297, -1.5303866863250732, -8.858132362365723, -1.087694525718689, 0.1771182417869568, 1.2727783918380737, -0.6142578125, 0.1796875, 0.565673828125, 0, 
310, 1159561691, 0.06262174, 0.68437093, -0.69745845, 0.20314212, 3.490854263305664, -1.5455772876739502, -8.895408630371094, -1.505834698677063, -0.1844242364168167, 1.5159324407577515, -0.612548828125, 0.178466796875, 0.564453125, 0, 
311, 1159578358, 0.062656194, 0.6842832, -0.69757706, 0.20302014, 3.5241641998291016, -1.6114729642868042, -8.946980476379395, -0.6950647234916687, -0.8645823001861572, 1.3968207836151123, -0.61181640625, 0.1767578125, 0.564453125, 0, 
312, 1159595025, 0.062654875, 0.68425435, -0.6976583, 0.20283832, 3.544224500656128, -1.5413633584976196, -8.934343338012695, -0.7230720520019531, -1.38705575466156, 0.9492129683494568, -0.613037109375, 0.177978515625, 0.566162109375, 0, 
313, 1159611692, 0.0626865, 0.684239, -0.6977625, 0.2025214, 3.5634231567382812, -1.5563547611236572, -8.97970962524414, -1.558084487915039, -1.8860551118850708, 0.9094237685203552, -0.61181640625, 0.177978515625, 0.564453125, 0, 
314, 1159628359, 0.062722884, 0.68421364, -0.6979075, 0.20209563, 3.5630064010620117, -1.5643514394760132, -8.99889850616455, -2.1535544395446777, -2.380661964416504, 1.0898780822753906, -0.612548828125, 0.174072265625, 0.570556640625, 0, 
315, 1159645026, 0.0626702, 0.68422323, -0.6980384, 0.20162688, 3.5803496837615967, -1.6278823614120483, -9.027323722839355, -1.9414424896240234, -3.0295982360839844, 1.0332739353179932, -0.612548828125, 0.17578125, 0.566162109375, 0, 
316, 1159661693, 0.06246935, 0.6842933, -0.698126, 0.20114776, 3.569147825241089, -1.6252803802490234, -9.049613952636719, -1.1593972444534302, -3.878108501434326, 0.6651425361633301, -0.612548828125, 0.174072265625, 0.569580078125, 0, 
317, 1159678360, 0.062067598, 0.6844357, -0.69815266, 0.20069498, 3.564540386199951, -1.599934458732605, -9.027425765991211, 0.04888824373483658, -4.801229000091553, 0.29377129673957825, -0.61376953125, 0.17529296875, 0.568359375, 0, 
318, 1159695027, 0.06167275, 0.684625, -0.698163, 0.20013416, 3.56899356842041, -1.5140986442565918, -8.95925235748291, -0.4536266028881073, -5.334126949310303, -0.06636251509189606, -0.60986328125, 0.17236328125, 0.569091796875, 0, 
319, 1159711694, 0.061404224, 0.68480957, -0.6981995, 0.19945705, 3.4877383708953857, -1.5743292570114136, -8.87702465057373, -1.7236193418502808, -5.234172821044922, 7.235587108880281E-4, -0.609130859375, 0.17578125, 0.569580078125, 0, 
320, 1159728361, 0.060987584, 0.68496114, -0.6982675, 0.19882528, 3.397352933883667, -1.5930421352386475, -8.845992088317871, -0.8588835597038269, -5.7032952308654785, 0.5176006555557251, -0.607177734375, 0.173583984375, 0.572998046875, 0, 
321, 1159745028, 0.060369734, 0.685099, -0.69834393, 0.19826952, 3.3910558223724365, -1.6129223108291626, -8.894776344299316, 0.3764362931251526, -6.2594757080078125, 1.0388193130493164, -0.607666015625, 0.17236328125, 0.572998046875, 0, 
322, 1159761695, 0.05971399, 0.6851723, -0.69847256, 0.19776076, 3.474722385406494, -1.5443367958068848, -8.922937393188477, 0.8491955995559692, -6.238191604614258, 1.4009060859680176, -0.60546875, 0.174072265625, 0.573486328125, 0, 
323, 1159778362, 0.05920158, 0.6852118, -0.6986501, 0.19714965, 3.5075955390930176, -1.5532317161560059, -8.939543724060059, -0.4557652473449707, -5.974368095397949, 1.65549635887146, -0.603759765625, 0.175048828125, 0.57470703125, 0, 
324, 1159795029, 0.058802545, 0.68519, -0.6989049, 0.19644026, 3.493557929992676, -1.586315631866455, -8.918340682983398, -1.570609450340271, -5.852758884429932, 2.0925002098083496, -0.607666015625, 0.171875, 0.576416015625, 0, 
325, 1159811696, 0.05837373, 0.68512213, -0.6992133, 0.19570638, 3.45578670501709, -1.627440333366394, -8.961079597473145, -1.546648621559143, -6.117696285247803, 2.4633078575134277, -0.603759765625, 0.1728515625, 0.5791015625, 0, 
326, 1159828363, 0.05784735, 0.68506396, -0.69952005, 0.19496955, 3.4509620666503906, -1.737746000289917, -8.993152618408203, -1.1926425695419312, -6.561640739440918, 2.695333242416382, -0.602783203125, 0.171142578125, 0.5791015625, 0, 
327, 1159845030, 0.057032216, 0.685018, -0.69979656, 0.19437744, 3.4927704334259033, -1.7786805629730225, -9.029496192932129, 0.9339224100112915, -7.287159442901611, 2.901951313018799, -0.60107421875, 0.173583984375, 0.57861328125, 0, 
328, 1159861697, 0.056099955, 0.6850087, -0.7000198, 0.19387762, 3.537076234817505, -1.706337571144104, -9.035245895385742, 1.9331507682800293, -7.404108047485352, 2.788320541381836, -0.599853515625, 0.17333984375, 0.57861328125, 0, 
329, 1159878364, 0.05529152, 0.6850226, -0.7002084, 0.1933788, 3.5405054092407227, -1.6906262636184692, -8.987311363220215, 1.4531173706054688, -6.846415996551514, 2.2835450172424316, -0.598388671875, 0.17578125, 0.58203125, 0, 
330, 1159895031, 0.054570034, 0.6850961, -0.7003312, 0.1928778, 3.540696144104004, -1.634795069694519, -8.957015037536621, 1.0692853927612305, -6.459088325500488, 1.6860520839691162, -0.59716796875, 0.17333984375, 0.58203125, 0, 
331, 1159911698, 0.054008074, 0.6851658, -0.7004397, 0.19239315, 3.537895441055298, -1.6662038564682007, -8.965778350830078, 0.5316108465194702, -5.669000148773193, 1.2558356523513794, -0.597412109375, 0.171142578125, 0.5859375, 0, 
332, 1159928365, 0.053394612, 0.6852874, -0.7004583, 0.19206384, 3.537590503692627, -1.672105312347412, -8.971558570861816, 1.5662870407104492, -5.172881603240967, 0.8707998394966125, -0.598876953125, 0.174560546875, 0.585205078125, 0, 
333, 1159945032, 0.052755676, 0.6854328, -0.70042366, 0.19184765, 3.550931930541992, -1.62832772731781, -8.977033615112305, 2.3735482692718506, -4.817736625671387, 0.4645567536354065, -0.59619140625, 0.173583984375, 0.5869140625, 0, 
334, 1159961699, 0.05219953, 0.6856347, -0.7002972, 0.19174063, 3.5762853622436523, -1.5667086839675903, -8.97863483428955, 2.6770975589752197, -3.9643211364746094, -0.3416222631931305, -0.596923828125, 0.177001953125, 0.5908203125, 0, 
335, 1159978366, 0.05188639, 0.685873, -0.7001055, 0.19167306, 3.5700836181640625, -1.5308208465576172, -8.949806213378906, 1.8262944221496582, -2.6435890197753906, -1.1433764696121216, -0.593505859375, 0.174560546875, 0.585205078125, 0, 
336, 1159995033, 0.051690374, 0.6861174, -0.69988096, 0.19167079, 3.6045870780944824, -1.5215530395507812, -8.99209213256836, 1.640384554862976, -1.7757155895233154, -1.450677752494812, -0.594482421875, 0.1728515625, 0.584228515625, 0, 
337, 1160011700, 0.051621336, 0.6863354, -0.69966173, 0.19170903, 3.549628257751465, -1.4666427373886108, -8.974507331848145, 1.2152010202407837, -0.9413436055183411, -1.4231313467025757, -0.593994140625, 0.175048828125, 0.58642578125, 0, 
338, 1160028367, 0.05159349, 0.6865599, -0.69941866, 0.19179976, 3.4844956398010254, -1.47610604763031, -9.002934455871582, 1.3030781745910645, -0.500011146068573, -1.5976818799972534, -0.59521484375, 0.174072265625, 0.58642578125, 0, 
339, 1160045034, 0.051527824, 0.6868028, -0.69914585, 0.19194254, 3.499735116958618, -1.4304977655410767, -8.997590065002441, 1.8029738664627075, -0.46335935592651367, -1.7757924795150757, -0.595703125, 0.17236328125, 0.588623046875, 0, 
340, 1160061701, 0.05156149, 0.68705857, -0.6988699, 0.19202274, 3.4848134517669678, -1.3723642826080322, -9.002151489257812, 0.9113447070121765, -0.22589118778705597, -1.7730133533477783, -0.593994140625, 0.171875, 0.58642578125, 0, 
341, 1160078368, 0.051715925, 0.68725026, -0.69867355, 0.19201043, 3.4531843662261963, -1.3683953285217285, -9.054122924804688, -0.05856344476342201, -0.1208663359284401, -1.5458674430847168, -0.597412109375, 0.170654296875, 0.584228515625, 0, 
342, 1160095035, 0.05190993, 0.6874313, -0.69850904, 0.19190839, 3.4443514347076416, -1.388547658920288, -9.053296089172363, -0.8206564784049988, -0.29872092604637146, -1.2524738311767578, -0.593994140625, 0.174560546875, 0.584716796875, 0, 
343, 1160111702, 0.05213716, 0.6875779, -0.6983997, 0.19171889, 3.412548780441284, -1.4115383625030518, -9.0176362991333, -1.4988808631896973, -0.5230625867843628, -0.8860329389572144, -0.595703125, 0.171875, 0.584228515625, 0, 
344, 1160128369, 0.052504178, 0.6876553, -0.6983865, 0.1913889, 3.3592467308044434, -1.4280298948287964, -8.989986419677734, -2.7718961238861084, -0.5667961835861206, -0.6397668719291687, -0.593994140625, 0.171142578125, 0.584716796875, 0, 
345, 1160145036, 0.052764848, 0.68776065, -0.69835734, 0.19104493, 3.303421974182129, -1.458297848701477, -8.998330116271973, -2.484957218170166, -1.0786532163619995, -0.41785842180252075, -0.593505859375, 0.170654296875, 0.588134765625, 0, 
346, 1160161703, 0.052843608, 0.68785757, -0.6983443, 0.19072168, 3.291450262069702, -1.4349473714828491, -8.981982231140137, -1.481502652168274, -1.8802284002304077, -0.14877136051654816, -0.595703125, 0.167724609375, 0.584228515625, 0, 
347, 1160178370, 0.05286518, 0.68790555, -0.698394, 0.19036056, 3.2981653213500977, -1.4538400173187256, -8.960119247436523, -1.418572187423706, -2.3257484436035156, 0.3503113090991974, -0.59521484375, 0.1689453125, 0.585205078125, 0, 
348, 1160195037, 0.05284643, 0.6879175, -0.6984858, 0.18998504, 3.2877278327941895, -1.4475409984588623, -8.914556503295898, -1.41183602809906, -2.5313284397125244, 0.8430995941162109, -0.593994140625, 0.16943359375, 0.5830078125, 0, 
349, 1160211704, 0.052911334, 0.6878421, -0.69866455, 0.18958288, 3.2482292652130127, -1.4314457178115845, -8.866453170776367, -2.082197427749634, -2.172828197479248, 1.5576173067092896, -0.5947265625, 0.16943359375, 0.587646484375, 0, 
350, 1160228371, 0.05301896, 0.68766737, -0.6989495, 0.1891353, 3.205475091934204, -1.4503016471862793, -8.858495712280273, -2.6561903953552246, -2.0987558364868164, 2.4483113288879395, -0.593994140625, 0.1689453125, 0.588623046875, 0, 
351, 1160245038, 0.05310351, 0.68740827, -0.6993104, 0.18871881, 3.202111005783081, -1.4926354885101318, -8.831415176391602, -2.4527747631073, -2.0158090591430664, 3.148012161254883, -0.593994140625, 0.16796875, 0.588134765625, 0, 
352, 1160261705, 0.053148348, 0.6871068, -0.6996938, 0.18838248, 3.176231622695923, -1.4929355382919312, -8.843085289001465, -1.956336259841919, -1.76192307472229, 3.6020867824554443, -0.592529296875, 0.16845703125, 0.58935546875, 0, 
353, 1160278372, 0.05312331, 0.686782, -0.70007396, 0.18816192, 3.179183006286621, -1.5034939050674438, -8.858765602111816, -1.305312991142273, -1.3990426063537598, 4.1930623054504395, -0.590087890625, 0.167724609375, 0.58642578125, 0, 
354, 1160295039, 0.05312763, 0.68635505, -0.70053196, 0.18801422, 3.160388469696045, -1.5434496402740479, -8.91507625579834, -1.0188475847244263, -0.918304979801178, 4.713844299316406, -0.591796875, 0.171142578125, 0.587646484375, 0, 
355, 1160311706, 0.053033285, 0.685888, -0.7009968, 0.18801254, 3.123091697692871, -1.5382781028747559, -8.96413516998291, 0.24930761754512787, -0.7195760607719421, 4.915006637573242, -0.59130859375, 0.167724609375, 0.587646484375, 0, 
356, 1160328373, 0.052781332, 0.6854826, -0.70139176, 0.1880887, 3.143951177597046, -1.4837709665298462, -9.00244426727295, 1.2740975618362427, -1.048443078994751, 4.878342628479004, -0.593505859375, 0.1689453125, 0.589111328125, 0, 
357, 1160345040, 0.052675918, 0.6850413, -0.7018395, 0.1880562, 3.162076473236084, -1.4429354667663574, -9.042253494262695, 0.13946755230426788, -0.90688157081604, 4.826322078704834, -0.59228515625, 0.170166015625, 0.587646484375, 0, 
358, 1160361707, 0.052539583, 0.6846068, -0.70229375, 0.18798025, 3.1677260398864746, -1.5524340867996216, -9.094270706176758, -0.04807504266500473, -1.2085610628128052, 5.030994415283203, -0.589599609375, 0.17236328125, 0.59033203125, 0, 
359, 1160378374, 0.052136093, 0.6842483, -0.70269096, 0.18791403, 3.175363779067993, -1.5130164623260498, -9.128499984741211, 1.1986807584762573, -2.447741746902466, 4.98013973236084, -0.591796875, 0.1728515625, 0.58984375, 0, 
360, 1160395041, 0.05190031, 0.68386513, -0.70315427, 0.18764101, 3.169437885284424, -1.4372488260269165, -9.126035690307617, -0.5305286645889282, -2.6760408878326416, 4.8954644203186035, -0.589111328125, 0.1728515625, 0.591552734375, 0, 
361, 1160411708, 0.05178912, 0.683562, -0.70359933, 0.18710692, 3.144639492034912, -1.5188294649124146, -9.160751342773438, -2.394941568374634, -3.356416702270508, 4.290146827697754, -0.591796875, 0.17236328125, 0.59033203125, 0, 
362, 1160428375, 0.051581196, 0.6833118, -0.7040308, 0.18645371, 3.1465518474578857, -1.5199629068374634, -9.17424201965332, -2.166757583618164, -4.604177951812744, 3.5820705890655518, -0.588623046875, 0.173828125, 0.58984375, 0, 
363, 1160445042, 0.051264744, 0.68316144, -0.70439076, 0.1857315, 3.1067118644714355, -1.5378400087356567, -9.183634757995605, -1.904637336730957, -5.535251140594482, 2.9274487495422363, -0.585693359375, 0.171142578125, 0.591552734375, 0, 
364, 1160461709, 0.050728142, 0.68311125, -0.7046761, 0.18497983, 3.14363169670105, -1.5555145740509033, -9.126578330993652, -0.7915221452713013, -6.87785530090332, 2.255000114440918, -0.585693359375, 0.170654296875, 0.592041015625, 0, 
365, 1160478376, 0.05004194, 0.6832294, -0.7048051, 0.18423748, 3.173813581466675, -1.5913344621658325, -9.087739944458008, -0.17848213016986847, -7.511053085327148, 1.5084666013717651, -0.585693359375, 0.1728515625, 0.59375, 0, 
366, 1160495043, 0.049343675, 0.68338037, -0.7048889, 0.18354446, 3.2229766845703125, -1.5760194063186646, -9.046268463134766, 0.3251596987247467, -7.439786911010742, 0.9369704723358154, -0.587646484375, 0.17236328125, 0.59716796875, 0, 
367, 1160511710, 0.048795655, 0.68355036, -0.70494753, 0.18283056, 3.23769474029541, -1.558668851852417, -8.970532417297363, -0.40868911147117615, -6.842319011688232, 0.4877490997314453, -0.581298828125, 0.17041015625, 0.59375, 0, 
368, 1160528377, 0.048507538, 0.6837041, -0.7050149, 0.18207148, 3.2226099967956543, -1.5791131258010864, -8.933320045471191, -1.8463040590286255, -5.78903341293335, 0.23953638970851898, -0.57861328125, 0.171142578125, 0.59814453125, 0, 
369, 1160545044, 0.04828546, 0.68384326, -0.70505595, 0.181447, 3.1926567554473877, -1.6698968410491943, -8.921615600585938, -1.3615069389343262, -4.873110294342041, -0.0347820483148098, -0.57861328125, 0.170654296875, 0.598876953125, 0, 
370, 1160561711, 0.047921237, 0.6840349, -0.70498276, 0.18110563, 3.1727397441864014, -1.6884678602218628, -8.906731605529785, 0.7630599737167358, -4.222445487976074, -0.4382973611354828, -0.579833984375, 0.171630859375, 0.59814453125, 0, 
371, 1160578378, 0.047358636, 0.684273, -0.7047855, 0.18112196, 3.2319748401641846, -1.5769790410995483, -8.927427291870117, 3.561426877975464, -3.5034589767456055, -0.8363187909126282, -0.579345703125, 0.171630859375, 0.59814453125, 0, 
372, 1160595045, 0.046973176, 0.68445665, -0.7045882, 0.18129574, 3.3187973499298096, -1.441301703453064, -8.922821998596191, 3.555804491043091, -1.8817137479782104, -0.8629430532455444, -0.58154296875, 0.171630859375, 0.599853515625, 0, 
373, 1160611712, 0.047003698, 0.68454146, -0.7044541, 0.1814889, 3.299525499343872, -1.3871870040893555, -8.944263458251953, 1.70173978805542, 0.2612687349319458, -0.7685986161231995, -0.579833984375, 0.174560546875, 0.598876953125, 0, 
374, 1160628379, 0.04731315, 0.6845276, -0.7043911, 0.18170458, 3.2352728843688965, -1.385753870010376, -8.973733901977539, 0.6122010946273804, 1.6903293132781982, -0.6687988042831421, -0.578125, 0.172119140625, 0.599853515625, 0, 
375, 1160645046, 0.04761286, 0.6845582, -0.704258, 0.18202646, 3.1717214584350586, -1.4503768682479858, -9.044967651367188, 0.8509755730628967, 2.331338405609131, -0.4855015277862549, -0.580322265625, 0.170654296875, 0.59814453125, 0, 
376, 1160661713, 0.047639843, 0.6846145, -0.70408016, 0.18249561, 3.152475118637085, -1.38581383228302, -9.097495079040527, 3.0377492904663086, 1.6257468461990356, -0.6007331013679504, -0.58154296875, 0.1689453125, 0.598876953125, 0, 
377, 1160678380, 0.047515668, 0.68481445, -0.703767, 0.18298548, 3.152751922607422, -1.2712883949279785, -9.067120552062988, 3.4689393043518066, 1.1686370372772217, -0.7990394830703735, -0.58154296875, 0.170654296875, 0.59716796875, 0, 
378, 1160695047, 0.047533877, 0.68491274, -0.70357865, 0.18333612, 3.161329984664917, -1.189473032951355, -9.011984825134277, 2.505735397338867, 0.9952903985977173, -0.8168658018112183, -0.581298828125, 0.171630859375, 0.594970703125, 0, 
379, 1160711714, 0.047654793, 0.6850099, -0.7034157, 0.183567, 3.225022077560425, -1.1431630849838257, -8.993668556213379, 1.2503160238265991, 1.0032687187194824, -0.6110806465148926, -0.58203125, 0.172119140625, 0.596435546875, 0, 
380, 1160728381, 0.048086476, 0.6850148, -0.7033806, 0.18357071, 3.2034571170806885, -1.2725765705108643, -8.985921859741211, -1.230779767036438, 1.3741405010223389, -0.4224814772605896, -0.583740234375, 0.171142578125, 0.6015625, 0, 
381, 1160745048, 0.04837414, 0.6851109, -0.7032525, 0.18362752, 3.140493631362915, -1.414796233177185, -8.992103576660156, -0.3296738862991333, 0.940056562423706, -0.7974130511283875, -0.584716796875, 0.167724609375, 0.5908203125, 0, 
382, 1160761715, 0.048366036, 0.6852486, -0.7030715, 0.18380836, 3.176971435546875, -1.3236263990402222, -8.92272663116455, 1.9433828592300415, -0.03669019415974617, -1.1142165660858154, -0.58251953125, 0.16943359375, 0.59814453125, 0, 
383, 1160778382, 0.04857273, 0.68535435, -0.7029306, 0.18389878, 3.2292556762695312, -1.2016947269439697, -8.879408836364746, 0.30657759308815, 0.665027379989624, -0.88011634349823, -0.583740234375, 0.169921875, 0.595458984375, 0, 
384, 1160795049, 0.049124666, 0.6853567, -0.70291, 0.18382238, 3.196232557296753, -1.273263692855835, -8.855714797973633, -2.372389078140259, 1.6660099029541016, -0.21332816779613495, -0.5859375, 0.1689453125, 0.594970703125, 0, 
385, 1160811716, 0.049737547, 0.6851774, -0.7030628, 0.18374223, 3.2037034034729004, -1.3931734561920166, -8.852148056030273, -2.5395116806030273, 1.9084596633911133, 0.8039633631706238, -0.584228515625, 0.167236328125, 0.59423828125, 0, 
386, 1160828383, 0.050251015, 0.6849861, -0.7032058, 0.18376814, 3.1745331287384033, -1.4586330652236938, -8.839277267456055, -1.8426032066345215, 2.091782808303833, 1.425097107887268, -0.58642578125, 0.170166015625, 0.59423828125, 0, 
387, 1160845050, 0.050542306, 0.68478644, -0.7033102, 0.18403223, 3.1800098419189453, -1.5295299291610718, -8.777532577514648, 0.21184906363487244, 2.251746892929077, 1.907000184059143, -0.58740234375, 0.16455078125, 0.59326171875, 0, 
388, 1160861717, 0.05066317, 0.68447685, -0.70346075, 0.18457422, 3.2539288997650146, -1.4402908086776733, -8.71988296508789, 2.5955076217651367, 2.701416015625, 2.5243043899536133, -0.58642578125, 0.16845703125, 0.595458984375, 0, 
389, 1160878384, 0.05103709, 0.6841187, -0.7036003, 0.18526661, 3.3183419704437256, -1.4499891996383667, -8.619318008422852, 1.7895914316177368, 4.857263088226318, 2.912003993988037, -0.5869140625, 0.16845703125, 0.596435546875, 0, 
390, 1160895051, 0.05155741, 0.68358237, -0.70381707, 0.18627551, 3.3518288135528564, -1.558816909790039, -8.516047477722168, 2.8560919761657715, 7.060519218444824, 3.5156826972961426, -0.58740234375, 0.170654296875, 0.587646484375, 0, 
391, 1160911718, 0.052185964, 0.68296313, -0.7039779, 0.18775864, 3.4474706649780273, -1.5525438785552979, -8.43761920928955, 4.327465534210205, 10.103080749511719, 4.178630352020264, -0.593017578125, 0.171875, 0.587646484375, 0, 
392, 1160928385, 0.053152006, 0.6821392, -0.70419335, 0.18966505, 3.4728684425354004, -1.5295294523239136, -8.527478218078613, 5.104531764984131, 13.736542701721191, 4.50242805480957, -0.590576171875, 0.17236328125, 0.585205078125, 0, 
393, 1160945052, 0.054534804, 0.6812874, -0.70434177, 0.19177155, 3.3360140323638916, -1.582001805305481, -8.534317970275879, 3.8608686923980713, 16.91092300415039, 4.334691047668457, -0.59716796875, 0.174560546875, 0.580810546875, 0, 
394, 1160961719, 0.055844437, 0.680465, -0.70437783, 0.19416685, 3.3656396865844727, -1.701798439025879, -8.592000961303711, 5.802672863006592, 17.88688850402832, 3.8133962154388428, -0.599365234375, 0.17236328125, 0.576904296875, 0, 
395, 1160978386, 0.057159197, 0.6796932, -0.70428264, 0.19681528, 3.5215981006622314, -1.5750981569290161, -8.58790397644043, 6.977249622344971, 19.187711715698242, 3.3699512481689453, -0.603271484375, 0.175537109375, 0.5712890625, 0, 
396, 1160995053, 0.058891814, 0.67879677, -0.70423794, 0.19953884, 3.500357151031494, -1.7382745742797852, -8.587031364440918, 5.633887767791748, 21.525802612304688, 3.1703391075134277, -0.607177734375, 0.177978515625, 0.57470703125, 0, 
397, 1161011720, 0.059939284, 0.6779848, -0.70397925, 0.20287251, 3.4804720878601074, -1.8756290674209595, -8.492207527160645, 12.011810302734375, 21.07257652282715, 3.091247797012329, -0.609130859375, 0.18017578125, 0.562744140625, 0, 
398, 1161028387, 0.060500138, 0.67726564, -0.7034561, 0.206883, 3.6733477115631104, -1.7727928161621094, -8.26887321472168, 17.79452896118164, 21.928544998168945, 2.5797884464263916, -0.613525390625, 0.181884765625, 0.558837890625, 0, 
399, 1161045054, 0.061332367, 0.6764626, -0.70279855, 0.21145001, 3.9447402954101562, -1.6535108089447021, -8.270331382751465, 19.311992645263672, 26.034839630126953, 2.298140048980713, -0.6201171875, 0.185791015625, 0.558837890625, 0, 
400, 1161061721, 0.063138075, 0.6754595, -0.70217955, 0.21612972, 4.056636810302734, -1.5737133026123047, -8.50550651550293, 15.346240043640137, 31.45139503479004, 1.8861846923828125, -0.624755859375, 0.186279296875, 0.544189453125, 0, 
401, 1161078388, 0.066149764, 0.6744531, -0.7015442, 0.22039303, 3.7774198055267334, -1.7825608253479004, -8.926692962646484, 7.858530521392822, 35.296749114990234, -0.25473225116729736, -0.63134765625, 0.189208984375, 0.53857421875, 0, 
402, 1161095055, 0.06847854, 0.67385477, -0.70051694, 0.22473674, 3.7076575756073, -2.0730597972869873, -9.136061668395996, 11.961033821105957, 32.04987335205078, -2.685720205307007, -0.63671875, 0.1875, 0.53076171875, 0, 
403, 1161111722, 0.0699137, 0.6737215, -0.6990588, 0.22919087, 3.93353533744812, -1.8952739238739014, -9.013948440551758, 17.27079200744629, 27.871623992919922, -5.189332485198975, -0.642822265625, 0.19189453125, 0.5234375, 0, 
404, 1161128389, 0.07104404, 0.67362475, -0.6975793, 0.23359281, 4.219747543334961, -1.7592602968215942, -8.826513290405273, 18.928295135498047, 25.907472610473633, -5.531645774841309, -0.64697265625, 0.192626953125, 0.515625, 0, 
405, 1161145056, 0.07185907, 0.673459, -0.69616354, 0.23800401, 4.333482265472412, -1.4903042316436768, -8.808736801147461, 20.040557861328125, 24.64455795288086, -4.085573196411133, -0.653076171875, 0.193603515625, 0.510009765625, 0, 
406, 1161161723, 0.07332974, 0.6729474, -0.69520956, 0.24176118, 4.198990821838379, -1.3382495641708374, -8.841117858886719, 13.629703521728516, 24.770286560058594, -2.4233527183532715, -0.658447265625, 0.196044921875, 0.50439453125, 0, 
407, 1161178390, 0.07511689, 0.6724684, -0.69442356, 0.2447851, 3.9727113246917725, -1.5312957763671875, -8.890820503234863, 7.973627090454102, 22.96328353881836, -2.198355197906494, -0.662109375, 0.196044921875, 0.498291015625, 0, 
408, 1161195057, 0.07662543, 0.672156, -0.69361794, 0.24744578, 3.975752353668213, -1.693689227104187, -8.657753944396973, 7.543585300445557, 19.746917724609375, -2.6702561378479004, -0.663818359375, 0.196044921875, 0.494140625, 0, 
409, 1161211724, 0.07822572, 0.6719048, -0.6928336, 0.24981277, 4.068504810333252, -1.7174395322799683, -8.277424812316895, 5.778597831726074, 18.693819046020508, -3.2281525135040283, -0.669921875, 0.1982421875, 0.490234375, 0, 
410, 1161228391, 0.08005024, 0.6714891, -0.69219285, 0.2521185, 4.102175712585449, -1.7419154644012451, -7.823639392852783, 4.136014938354492, 19.68092155456543, -2.21012282371521, -0.671875, 0.19873046875, 0.480224609375, 0, 
411, 1161245058, 0.08212739, 0.6706265, -0.69184726, 0.25468156, 4.116073131561279, -1.6533511877059937, -7.4663825035095215, 3.887265682220459, 22.476560592651367, 0.5284613966941833, -0.677490234375, 0.196044921875, 0.480224609375, 0, 
412, 1161261725, 0.08464115, 0.6693044, -0.6917428, 0.25760394, 4.145660877227783, -1.4209680557250977, -7.405086994171143, 2.636930465698242, 27.000064849853516, 3.550870895385742, -0.681640625, 0.19873046875, 0.47119140625, 0, 
413, 1161278392, 0.088252276, 0.66751397, -0.69202226, 0.26027295, 3.864959716796875, -1.434127926826477, -7.463012218475342, -4.785341262817383, 31.757234573364258, 5.687161445617676, -0.68603515625, 0.19482421875, 0.461181640625, 0, 
414, 1161295059, 0.092218384, 0.6655567, -0.69242615, 0.26282355, 3.7049295902252197, -1.6049346923828125, -7.6326584815979, -7.21811056137085, 33.09290313720703, 6.27586030960083, -0.689697265625, 0.197021484375, 0.458251953125, 0, 
415, 1161311726, 0.09604146, 0.6634636, -0.6928867, 0.2655191, 3.908916711807251, -1.598147988319397, -7.474104404449463, -6.110383987426758, 33.31588363647461, 7.589812278747559, -0.6962890625, 0.19775390625, 0.449951171875, 0, 
416, 1161328393, 0.10059474, 0.6610028, -0.6935518, 0.26822028, 4.15639066696167, -1.766884207725525, -7.027412414550781, -10.022497177124023, 37.35929870605469, 8.946558952331543, -0.703369140625, 0.19482421875, 0.442626953125, 0, 
417, 1161345060, 0.10573119, 0.65806866, -0.6943213, 0.2714493, 4.280584812164307, -2.1253368854522705, -6.75376033782959, -10.718031883239746, 43.35396194458008, 11.010294914245605, -0.70654296875, 0.193115234375, 0.43408203125, 0, 
418, 1161361727, 0.110721886, 0.65462303, -0.69500345, 0.27600685, 4.375143051147461, -2.398172378540039, -6.500626087188721, -3.8089253902435303, 49.625701904296875, 14.181302070617676, -0.713623046875, 0.197509765625, 0.4228515625, 0, 
419, 1161378394, 0.11485751, 0.65071017, -0.69539666, 0.28250274, 4.633087158203125, -2.430647850036621, -6.322763919830322, 9.48802661895752, 55.359649658203125, 18.207361221313477, -0.72119140625, 0.20263671875, 0.408203125, 0, 
420, 1161395061, 0.11863626, 0.64628065, -0.6954775, 0.29078853, 4.960402965545654, -2.2824761867523193, -6.180905342102051, 19.719070434570312, 62.94648361206055, 21.481355667114258, -0.72802734375, 0.204833984375, 0.39306640625, 0, 
421, 1161411728, 0.12281857, 0.64120305, -0.69527763, 0.30060506, 5.164985179901123, -2.419771671295166, -6.0841240882873535, 25.314071655273438, 73.1657943725586, 23.740070343017578, -0.73876953125, 0.21484375, 0.376220703125, 0, 
422, 1161428395, 0.12692446, 0.6356352, -0.6945026, 0.31228873, 5.295600891113281, -2.6414878368377686, -5.860473155975342, 35.330596923828125, 82.51747131347656, 25.29806137084961, -0.74609375, 0.220947265625, 0.35205078125, 0, 
423, 1161445062, 0.1310143, 0.6296278, -0.6929691, 0.32588035, 5.610473155975342, -2.4320740699768066, -5.556366920471191, 45.7394905090332, 92.36909484863281, 25.790224075317383, -0.7587890625, 0.23193359375, 0.327392578125, 0, 
424, 1161461729, 0.1365545, 0.6227137, -0.6910962, 0.34053877, 6.225412845611572, -2.1472089290618896, -5.340457439422607, 44.47068405151367, 106.21649932861328, 26.370729446411133, -0.768310546875, 0.24072265625, 0.301025390625, 0, 
425, 1161478396, 0.1445338, 0.6144239, -0.68939054, 0.35543478, 6.773787975311279, -2.104865550994873, -5.480734348297119, 33.46178436279297, 121.85932922363281, 28.161911010742188, -0.778076171875, 0.24853515625, 0.26611328125, 0, 
426, 1161495063, 0.15478806, 0.60464394, -0.6881141, 0.3700615, 6.878386974334717, -2.522568941116333, -5.729392051696777, 20.0380859375, 134.68951416015625, 31.241085052490234, -0.78857421875, 0.25830078125, 0.233642578125, 0, 
427, 1161511730, 0.16600339, 0.59383315, -0.6867968, 0.38485754, 6.82639217376709, -2.7661244869232178, -5.714463233947754, 15.840214729309082, 142.58319091796875, 33.71028137207031, -0.796142578125, 0.265380859375, 0.1953125, 0, 
428, 1161528397, 0.17824039, 0.58213484, -0.68534774, 0.39955965, 6.659152507781982, -2.7727839946746826, -5.707205295562744, 10.545621871948242, 149.50802612304688, 34.57667922973633, -0.804931640625, 0.271728515625, 0.15771484375, 0, 
429, 1161545064, 0.19127916, 0.56970525, -0.6835065, 0.4143275, 6.938356399536133, -3.081857442855835, -5.907806873321533, 7.81041955947876, 156.0323028564453, 34.35549545288086, -0.811767578125, 0.281982421875, 0.114013671875, 0, 
430, 1161561731, 0.20351145, 0.55696964, -0.68078476, 0.4300002, 7.650904178619385, -3.389420747756958, -5.936634063720703, 17.310300827026367, 157.817138671875, 35.85480499267578, -0.81640625, 0.2890625, 0.076416015625, 0, 
431, 1161578398, 0.21446975, 0.54403085, -0.6771132, 0.4467115, 8.299723625183105, -3.4113452434539795, -5.720738410949707, 29.555259704589844, 157.762939453125, 38.410945892333984, -0.81787109375, 0.297119140625, 0.031982421875, 0, 
432, 1161595065, 0.2245607, 0.530884, -0.6725515, 0.46412218, 8.472044944763184, -3.4661922454833984, -5.515590667724609, 38.46702575683594, 158.29278564453125, 39.77373504638672, -0.8173828125, 0.305419921875, -0.013916015625, 0, 
433, 1161611732, 0.23396605, 0.5177523, -0.6669811, 0.4820049, 8.317855834960938, -3.5195155143737793, -5.20229434967041, 46.380882263183594, 158.35935974121094, 38.96699142456055, -0.81494140625, 0.316162109375, -0.06005859375, 0, 
434, 1161628399, 0.24320038, 0.50478095, -0.66026795, 0.500096, 8.238036155700684, -3.6239402294158936, -5.2719035148620605, 51.97632598876953, 159.63465881347656, 35.09365463256836, -0.808349609375, 0.324462890625, -0.103759765625, 0, 
435, 1161645066, 0.25222507, 0.49230516, -0.6519937, 0.5185774, 8.802977561950684, -3.966917037963867, -5.135324001312256, 60.65933609008789, 160.97035217285156, 28.82762908935547, -0.803466796875, 0.328369140625, -0.153564453125, 0, 
436, 1161661733, 0.2604734, 0.4805197, -0.6421362, 0.5375087, 9.860427856445312, -4.22379732131958, -4.534891605377197, 72.13389587402344, 159.32595825195312, 23.95054817199707, -0.796630859375, 0.33056640625, -0.20068359375, 0, 
437, 1161678400, 0.268539, 0.4686762, -0.6316944, 0.5560502, 10.498056411743164, -4.13386344909668, -3.7862417697906494, 73.06084442138672, 158.514892578125, 22.285526275634766, -0.787353515625, 0.33349609375, -0.25, 0, 
438, 1161695067, 0.27711162, 0.4561217, -0.62149394, 0.57350457, 10.478039741516113, -4.061736583709717, -3.216952323913574, 64.4592056274414, 159.49917602539062, 22.245649337768555, -0.77099609375, 0.33154296875, -0.29150390625, 0, 
439, 1161711734, 0.2861741, 0.4429472, -0.6115983, 0.58978796, 10.292362213134766, -4.17088508605957, -2.8690285682678223, 55.524383544921875, 159.7980499267578, 21.72880744934082, -0.75732421875, 0.330322265625, -0.339111328125, 0, 
440, 1161728401, 0.29537258, 0.42976418, -0.60167885, 0.60501283, 10.751481056213379, -4.737460613250732, -2.3324313163757324, 50.727012634277344, 157.24534606933594, 19.094266891479492, -0.740966796875, 0.3291015625, -0.3828125, 0, 
441, 1161745068, 0.3038708, 0.41724065, -0.5915223, 0.6194145, 11.149291038513184, -5.220814228057861, -1.5826160907745361, 51.698829650878906, 149.67141723632812, 16.93605613708496, -0.7236328125, 0.32568359375, -0.419921875, 0, 
442, 1161761735, 0.31104785, 0.4059246, -0.5811938, 0.63299954, 11.232309341430664, -5.427736282348633, -1.0228855609893799, 55.40430450439453, 137.18817138671875, 15.476142883300781, -0.70556640625, 0.322265625, -0.456298828125, 0, 
443, 1161778402, 0.3169736, 0.39597803, -0.5710572, 0.64546335, 10.734823226928711, -5.156297206878662, -0.7310285568237305, 56.493446350097656, 122.70451354980469, 13.607503890991211, -0.687744140625, 0.317626953125, -0.490478515625, 0, 
444, 1161795069, 0.32206914, 0.38744023, -0.56135774, 0.6565358, 9.944636344909668, -4.842926979064941, -0.5747866630554199, 54.40538024902344, 108.47400665283203, 9.936657905578613, -0.671142578125, 0.314453125, -0.517333984375, 0, 
445, 1161811736, 0.32624915, 0.3803673, -0.5520983, 0.66638565, 9.786771774291992, -4.394432544708252, -0.13983546197414398, 53.3742561340332, 94.12284088134766, 6.895442962646484, -0.65625, 0.305908203125, -0.544189453125, 0, 
446, 1161828403, 0.33011332, 0.37379465, -0.54436636, 0.6745132, 10.065406799316406, -4.12217378616333, 0.7120111584663391, 41.78003692626953, 82.72314453125, 6.594624996185303, -0.640380859375, 0.297607421875, -0.5654296875, 0, 
447, 1161845070, 0.33415285, 0.367173, -0.5389913, 0.68045163, 9.82551383972168, -4.1755757331848145, 1.1233458518981934, 22.090496063232422, 72.63912200927734, 7.081942558288574, -0.631591796875, 0.2939453125, -0.581787109375, 0, 
448, 1161861737, 0.33813256, 0.3605259, -0.5357284, 0.684604, 9.209983825683594, -4.415281295776367, 0.9762101769447327, 5.679070949554443, 63.17679214477539, 8.705960273742676, -0.621337890625, 0.2958984375, -0.59814453125, 0, 
449, 1161878404, 0.34149253, 0.35433406, -0.533703, 0.68774366, 8.620641708374023, -4.73301887512207, 1.182593822479248, -1.2853164672851562, 53.370887756347656, 10.670018196105957, -0.61279296875, 0.294677734375, -0.60595703125, 0, 
450, 1161895071, 0.34353763, 0.34912246, -0.5319807, 0.6907185, 8.291521072387695, -4.906703948974609, 1.3402119874954224, 2.1779143810272217, 42.80342483520508, 13.637821197509766, -0.603759765625, 0.29833984375, -0.61474609375, 0, 
451, 1161911738, 0.3443867, 0.3447807, -0.5302685, 0.6937863, 8.26701831817627, -4.7131195068359375, 1.6206647157669067, 7.392273902893066, 34.506263732910156, 16.370737075805664, -0.597412109375, 0.298095703125, -0.624267578125, 0, 
452, 1161928405, 0.3452821, 0.34086487, -0.5289603, 0.69627035, 8.3101806640625, -4.445598602294922, 2.029651641845703, 7.361246585845947, 28.293153762817383, 15.935553550720215, -0.590087890625, 0.30126953125, -0.6298828125, 0, 
453, 1161945072, 0.34707272, 0.33703727, -0.5285741, 0.6975358, 8.373967170715332, -4.170790672302246, 2.0177717208862305, -3.3907017707824707, 26.07244300842285, 10.60108757019043, -0.5869140625, 0.303466796875, -0.631103515625, 0, 
454, 1161961739, 0.35002258, 0.33307368, -0.52907735, 0.69758403, 8.607047080993652, -4.305460453033447, 1.9555796384811401, -18.195222854614258, 28.00859260559082, 2.903120994567871, -0.582763671875, 0.30615234375, -0.64013671875, 0, 
455, 1161978406, 0.35386267, 0.3291555, -0.5295245, 0.69716704, 8.553810119628906, -4.898879051208496, 1.8733463287353516, -18.31341552734375, 27.954421997070312, -0.8846213221549988, -0.580322265625, 0.307861328125, -0.642822265625, 0, 
456, 1161995073, 0.35741723, 0.32561836, -0.52919286, 0.6972667, 8.460616111755371, -5.077424049377441, 1.847465991973877, -10.974020004272461, 28.044828414916992, -1.3243408203125, -0.575439453125, 0.309326171875, -0.646240234375, 0, 
457, 1162011740, 0.36079833, 0.32232103, -0.5280534, 0.697921, 8.466081619262695, -5.164399147033691, 1.839738130569458, -4.492718696594238, 29.7507266998291, -2.0446362495422363, -0.56982421875, 0.31201171875, -0.64892578125, 0, 
458, 1162028407, 0.3636892, 0.3199949, -0.5256671, 0.69929075, 8.511727333068848, -5.360198974609375, 1.9493117332458496, 7.454815864562988, 28.08480453491211, -4.283154010772705, -0.568115234375, 0.30908203125, -0.653564453125, 0, 
459, 1162045074, 0.36557588, 0.31928107, -0.5216718, 0.70162135, 8.563419342041016, -5.247718334197998, 2.11920166015625, 24.87601661682129, 22.88678550720215, -6.4359283447265625, -0.566162109375, 0.300048828125, -0.6591796875, 0, 
460, 1162061741, 0.3668057, 0.3194836, -0.5167891, 0.7044947, 8.71037769317627, -4.829634666442871, 2.4924769401550293, 34.794498443603516, 19.606327056884766, -7.167826175689697, -0.563232421875, 0.296630859375, -0.66796875, 0, 
461, 1162078408, 0.36822453, 0.31926712, -0.5122106, 0.7071913, 8.801177978515625, -4.486493110656738, 2.808777093887329, 31.240930557250977, 21.172042846679688, -6.347097396850586, -0.562744140625, 0.2880859375, -0.674072265625, 0, 
462, 1162095075, 0.37004027, 0.318335, -0.50827426, 0.70950013, 8.677517890930176, -4.381397247314453, 2.9410829544067383, 23.954349517822266, 23.67009735107422, -5.383049964904785, -0.5576171875, 0.28076171875, -0.68212890625, 0, 
463, 1162111742, 0.3719242, 0.31731316, -0.50465864, 0.7115508, 8.558378219604492, -4.322055816650391, 3.196194648742676, 20.90595054626465, 23.11040496826172, -5.470705032348633, -0.556396484375, 0.276123046875, -0.688232421875, 0, 
464, 1162128409, 0.37367865, 0.31657368, -0.50145614, 0.7132233, 8.468727111816406, -4.281301498413086, 3.511521577835083, 18.592639923095703, 19.398649215698242, -5.859195709228516, -0.552001953125, 0.268310546875, -0.69482421875, 0, 
465, 1162145076, 0.3750601, 0.3163607, -0.49876505, 0.71447843, 8.314846992492676, -4.335603713989258, 3.7054226398468018, 16.513790130615234, 13.501578330993652, -5.994527816772461, -0.553466796875, 0.2666015625, -0.696533203125, 0, 
466, 1162161743, 0.37572727, 0.31695127, -0.4962843, 0.7155927, 8.130651473999023, -4.467153072357178, 3.821239948272705, 18.734106063842773, 6.19235372543335, -5.075516223907471, -0.552490234375, 0.260986328125, -0.699951171875, 0, 
467, 1162178410, 0.37542397, 0.3184788, -0.49363664, 0.7169039, 8.044538497924805, -4.545041084289551, 3.825122594833374, 24.792814254760742, -0.8788568377494812, -3.3461079597473145, -0.553466796875, 0.258056640625, -0.703857421875, 0, 
468, 1162195077, 0.37441424, 0.32066554, -0.4907624, 0.71842885, 8.03377628326416, -4.440579414367676, 3.7934131622314453, 29.77800941467285, -5.395031452178955, -2.134946823120117, -0.55517578125, 0.25146484375, -0.704345703125, 0, 
469, 1162211744, 0.37318724, 0.3230618, -0.48790812, 0.7199362, 8.046184539794922, -4.2240400314331055, 3.762047052383423, 30.56332778930664, -7.193165302276611, -1.8404514789581299, -0.556884765625, 0.242431640625, -0.704833984375, 0, 
470, 1162228411, 0.3722167, 0.32502282, -0.48554444, 0.7211531, 8.158431053161621, -4.04161262512207, 3.6897506713867188, 25.290908813476562, -5.961106777191162, -1.445014238357544, -0.55810546875, 0.23681640625, -0.7060546875, 0, 
471, 1162245078, 0.3717379, 0.32613602, -0.48390436, 0.7219993, 8.239212036132812, -4.100863933563232, 3.594646453857422, 17.22425079345703, -2.8047149181365967, -0.3791131377220154, -0.55908203125, 0.234619140625, -0.70947265625, 0, 
472, 1162261745, 0.37150592, 0.3267532, -0.48261058, 0.7227052, 8.213342666625977, -4.281073093414307, 3.468754768371582, 13.294382095336914, -0.7598716020584106, 0.49944794178009033, -0.55859375, 0.231689453125, -0.70947265625, 0, 
473, 1162278412, 0.37113512, 0.32748127, -0.48118165, 0.7235185, 8.258005142211914, -4.335260391235352, 3.4388349056243896, 14.771431922912598, -1.0930804014205933, 0.6788010597229004, -0.55859375, 0.227783203125, -0.708740234375, 0, 
474, 1162295079, 0.37059987, 0.32844692, -0.47962758, 0.72438675, 8.417376518249512, -4.308921813964844, 3.465223550796509, 16.462730407714844, -2.315601348876953, 0.4927247166633606, -0.561767578125, 0.226318359375, -0.711669921875, 0, 
475, 1162311746, 0.36997068, 0.32952052, -0.4781131, 0.72522134, 8.542398452758789, -4.202347755432129, 3.5616421699523926, 16.494773864746094, -3.2475717067718506, 0.4952988624572754, -0.5595703125, 0.223388671875, -0.71044921875, 0, 
476, 1162328413, 0.36946586, 0.33040136, -0.4769076, 0.72587144, 8.63096809387207, -4.036215782165527, 3.7178244590759277, 13.824414253234863, -3.2151453495025635, 0.8876984119415283, -0.5634765625, 0.218994140625, -0.712158203125, 0, 
477, 1162345080, 0.36924604, 0.33085167, -0.47627524, 0.7261933, 8.673406600952148, -3.9419305324554443, 3.8016011714935303, 7.887317180633545, -2.1837329864501953, 1.1648914813995361, -0.5625, 0.216064453125, -0.7138671875, 0, 
478, 1162361747, 0.36938372, 0.33080086, -0.4762646, 0.7261533, 8.654728889465332, -3.9848809242248535, 3.7639927864074707, 1.384520173072815, -0.8449181914329529, 1.4237333536148071, -0.565185546875, 0.21728515625, -0.715576171875, 0, 
479, 1162378414, 0.3698029, 0.33038512, -0.47673944, 0.72581756, 8.611190795898438, -4.088160037994385, 3.6623404026031494, -3.618300437927246, 0.01130800973623991, 1.5296292304992676, -0.5634765625, 0.2177734375, -0.71337890625, 0, 
480, 1162395081, 0.3703305, 0.32985812, -0.47739968, 0.72535414, 8.590278625488281, -4.219831943511963, 3.5534114837646484, -5.457470893859863, 0.13700233399868011, 1.4587970972061157, -0.56298828125, 0.219482421875, -0.71337890625, 0, 
481, 1162411748, 0.37088776, 0.3293424, -0.47796527, 0.7249312, 8.62561321258545, -4.274939060211182, 3.4139904975891113, -4.899524211883545, 0.5121387243270874, 1.1429924964904785, -0.5634765625, 0.219482421875, -0.7138671875, 0, 
482, 1162428415, 0.37148985, 0.32888022, -0.47821334, 0.7246689, 8.651281356811523, -4.201500415802002, 3.3758163452148438, -2.933684825897217, 1.6659266948699951, 0.30535459518432617, -0.561767578125, 0.22119140625, -0.711669921875, 0, 
483, 1162445082, 0.3722972, 0.32828623, -0.4783324, 0.72444534, 8.573577880859375, -4.135298728942871, 3.3406190872192383, -2.87422513961792, 3.363856792449951, -0.43124744296073914, -0.562255859375, 0.22216796875, -0.716796875, 0, 
484, 1162461749, 0.37328315, 0.32754344, -0.47851974, 0.7241504, 8.407279014587402, -4.118400573730469, 3.258896589279175, -4.266966819763184, 4.3772358894348145, -0.8925706148147583, -0.556884765625, 0.22216796875, -0.716064453125, 0, 
485, 1162478416, 0.37425664, 0.32688242, -0.47874334, 0.7237989, 8.28156566619873, -4.141579627990723, 3.2421810626983643, -4.196647644042969, 3.598341226577759, -1.0495381355285645, -0.556884765625, 0.223876953125, -0.71337890625, 0, 
486, 1162495083, 0.37511843, 0.32642493, -0.47884223, 0.72349364, 8.29812240600586, -4.1577935218811035, 3.229278802871704, -2.736121416091919, 2.691779375076294, -1.39341402053833, -0.55517578125, 0.224365234375, -0.71337890625, 0, 
487, 1162511750, 0.37595287, 0.32598308, -0.47899193, 0.7231606, 8.245368957519531, -4.154042720794678, 3.1904609203338623, -3.0311930179595947, 2.3634636402130127, -1.3135795593261719, -0.55517578125, 0.22607421875, -0.71337890625, 0, 
488, 1162528417, 0.37666407, 0.32559362, -0.4792317, 0.7228073, 8.15205192565918, -4.268978595733643, 3.071056604385376, -3.0097672939300537, 1.3512874841690063, -0.6621842980384827, -0.553955078125, 0.22607421875, -0.71435546875, 0, 
489, 1162545084, 0.37703478, 0.3255383, -0.4793719, 0.7225457, 8.12866497039795, -4.2452616691589355, 3.0207433700561523, -0.5326736569404602, -0.9914996027946472, -0.04277960583567619, -0.557373046875, 0.226806640625, -0.712158203125, 0, 
490, 1162561751, 0.37704393, 0.3258973, -0.47940907, 0.72235435, 8.257393836975098, -4.110725402832031, 3.036180257797241, 1.7518577575683594, -3.6197218894958496, 0.1106724962592125, -0.5556640625, 0.2265625, -0.715087890625, 0, 
491, 1162578418, 0.37714556, 0.32613775, -0.4797799, 0.7219464, 8.436775207519531, -3.9778952598571777, 2.9998250007629395, -0.917863130569458, -4.190551280975342, 0.34337666630744934, -0.5556640625, 0.227783203125, -0.712646484375, 0, 
492, 1162595085, 0.377439, 0.32607874, -0.4805903, 0.72128046, 8.415218353271484, -4.004003047943115, 2.9563028812408447, -5.0784807205200195, -3.8262503147125244, 0.7281691431999207, -0.553955078125, 0.22607421875, -0.712158203125, 0, 
493, 1162611752, 0.37775055, 0.32598773, -0.48150137, 0.72055054, 8.4370756149292, -4.158931255340576, 2.8935577869415283, -5.9321770668029785, -3.996612787246704, 0.7761672735214233, -0.55615234375, 0.22900390625, -0.712646484375, 0, 
494, 1162628419, 0.37793183, 0.32606557, -0.4822171, 0.7199414, 8.517324447631836, -4.268823146820068, 2.8266279697418213, -3.964609384536743, -4.406466484069824, 0.6437495946884155, -0.556396484375, 0.231689453125, -0.7099609375, 0, 
495, 1162645086, 0.37800634, 0.32625642, -0.4827122, 0.71948385, 8.547308921813965, -4.300771236419678, 2.801654815673828, -1.7265455722808838, -4.459048748016357, 0.7432292103767395, -0.561279296875, 0.23291015625, -0.712890625, 0, 
496, 1162661753, 0.3779487, 0.32666302, -0.4828075, 0.71926564, 8.583962440490723, -4.267049312591553, 2.893270492553711, 1.8307958841323853, -4.33872127532959, 0.34657829999923706, -0.55859375, 0.230712890625, -0.707763671875, 0, 
497, 1162678420, 0.37785426, 0.32716694, -0.48251724, 0.719281, 8.652063369750977, -4.156282424926758, 3.0431206226348877, 4.828736782073975, -3.3943679332733154, -0.08062238991260529, -0.55859375, 0.22998046875, -0.7099609375, 0, 
498, 1162695087, 0.3779699, 0.32741472, -0.48220316, 0.7193181, 8.607566833496094, -4.150097846984863, 3.1417367458343506, 3.9742331504821777, -1.3628966808319092, -0.22407911717891693, -0.560302734375, 0.227783203125, -0.7099609375, 0, 
499, 1162711754, 0.37817854, 0.32746944, -0.4819508, 0.71935266, 8.447415351867676, -4.181523323059082, 3.150376319885254, 2.7749440670013428, -0.16481132805347443, -0.022455936297774315, -0.557373046875, 0.22900390625, -0.711669921875, 0, 
500, 1162728421, 0.37836775, 0.32763052, -0.48162326, 0.7193993, 8.369389533996582, -4.169363498687744, 3.1798033714294434, 3.661271810531616, -0.6126622557640076, -0.33979731798171997, -0.559814453125, 0.224609375, -0.707763671875, 0, 
501, 1162745088, 0.37843668, 0.32793877, -0.481291, 0.7194449, 8.414756774902344, -4.089591979980469, 3.2106175422668457, 3.9446887969970703, -1.5125516653060913, -0.4774143397808075, -0.55859375, 0.226806640625, -0.711669921875, 0, 
502, 1162761755, 0.37862164, 0.32809335, -0.48124954, 0.71930474, 8.434863090515137, -4.050884246826172, 3.2362184524536133, 1.5205490589141846, -1.69784677028656, -0.216395303606987, -0.55859375, 0.226806640625, -0.71044921875, 0, 
503, 1162778422, 0.37883824, 0.32818457, -0.4813883, 0.71905637, 8.404145240783691, -4.125400066375732, 3.263324022293091, 0.06911586970090866, -2.01057767868042, -0.03074164129793644, -0.560791015625, 0.2255859375, -0.708251953125, 0, 
504, 1162795089, 0.3789679, 0.32835567, -0.48153412, 0.7188122, 8.388494491577148, -4.1874823570251465, 3.2492728233337402, 0.3829098641872406, -2.6624464988708496, 0.11001934856176376, -0.561279296875, 0.226806640625, -0.7099609375, 0, 
505, 1162811756, 0.37908208, 0.3285751, -0.48161963, 0.7185943, 8.415772438049316, -4.184385776519775, 3.2522380352020264, 0.8763386011123657, -2.705488681793213, -0.08222316950559616, -0.56201171875, 0.22900390625, -0.70556640625, 0, 
506, 1162828423, 0.37925, 0.32872328, -0.48171148, 0.7183764, 8.427755355834961, -4.1600213050842285, 3.249952554702759, 0.5890921354293823, -2.219654083251953, -0.08040466159582138, -0.5595703125, 0.227294921875, -0.708740234375, 0, 
507, 1162845090, 0.37955332, 0.32871723, -0.48188248, 0.7181042, 8.47221851348877, -4.120953559875488, 3.231203556060791, -0.7174693942070007, -1.3217883110046387, -0.2283180207014084, -0.55908203125, 0.22509765625, -0.70654296875, 0, 
508, 1162861757, 0.37995183, 0.32860157, -0.4821176, 0.71778846, 8.450135231018066, -4.143441677093506, 3.1778435707092285, -1.7484700679779053, -0.6917413473129272, -0.3517584204673767, -0.55810546875, 0.226806640625, -0.707275390625, 0, 
509, 1162878424, 0.38036212, 0.32848, -0.48236176, 0.7174626, 8.43142318725586, -4.16586446762085, 3.111405849456787, -1.718733549118042, -0.7489343881607056, -0.32568463683128357, -0.56201171875, 0.229736328125, -0.704345703125, 0, 
