sep=,
DeviceTag:,Xsens_1,,,,,,,,,,,,,,,,,
FirmwareVersion:,2.2.1,,,,,,,,,,,,,,,,,
AppVersion:,2023.0.0,,,,,,,,,,,,,,,,,
StartTime:,2023-06-22 11:29:26.000 +0200,,,,,,,,,,,,,,,,,
© Movella Technologies B. V. 2005-2023,,,,,,,,,,,,,,,,,,,

PacketCounter,SampleTimeFine,Quat_W,Quat_X,Quat_Y,Quat_Z,Acc_X,Acc_Y,Acc_Z,Gyr_X,Gyr_Y,Gyr_Z,Mag_X,Mag_Y,Mag_Z,Status,
0, 271413908, 0.572715, 0.15411225, -0.6991801, 0.39924207, 0.0, 0.0, 0.0, 0.0, 0.0, 0.0, -0.77978515625, 0.539794921875, -0.21728515625, 0, 
1, 271430575, 0.5728795, 0.15352094, -0.6989482, 0.39963967, 9.065007209777832, -3.743380546569824, -0.24065817892551422, -2.2810158729553223, 0.4007427394390106, 0.6033903956413269, -0.77880859375, 0.53759765625, -0.214111328125, 0, 
2, 271447242, 0.57286346, 0.15342797, -0.69879264, 0.39997032, 9.090819358825684, -3.727255344390869, -0.32704758644104004, 0.8218667507171631, -0.14101073145866394, 0.8610286116600037, -0.777587890625, 0.53857421875, -0.21630859375, 0, 
3, 271463909, 0.5725689, 0.15381347, -0.6988053, 0.40022194, 9.185032844543457, -3.667936086654663, -0.312161386013031, 3.520920515060425, 0.20503605902194977, 1.0127068758010864, -0.777587890625, 0.53857421875, -0.2158203125, 0, 
4, 271480576, 0.57252026, 0.15429328, -0.69874346, 0.4002146, 9.240644454956055, -3.6096720695495605, -0.2100079357624054, 3.1952288150787354, 1.3811968564987183, 1.3349659442901611, -0.776123046875, 0.535400390625, -0.21826171875, 0, 
5, 271497243, 0.5727847, 0.15477608, -0.6985303, 0.40002182, 9.22667121887207, -3.561018943786621, -0.18353837728500366, 0.06976259499788284, 2.1357853412628174, 1.3200337886810303, -0.777099609375, 0.53857421875, -0.2197265625, 0, 
6, 271513910, 0.5733556, 0.15505311, -0.69828147, 0.39953116, 9.220297813415527, -3.558054208755493, -0.26134777069091797, -1.580316424369812, 2.438412666320801, 0.8417678475379944, -0.776611328125, 0.536376953125, -0.21923828125, 0, 
7, 271530577, 0.57394564, 0.15537657, -0.6980494, 0.39896333, 9.226456642150879, -3.5718650817871094, -0.2874848544597626, -1.6064285039901733, 2.523395299911499, 0.05269172787666321, -0.776611328125, 0.53857421875, -0.21923828125, 0, 
8, 271547244, 0.57457, 0.15563948, -0.6978776, 0.39826208, 9.225292205810547, -3.555076837539673, -0.294202595949173, -1.1538009643554688, 2.2665767669677734, -0.8383293151855469, -0.776611328125, 0.536865234375, -0.221435546875, 0, 
9, 271563911, 0.5751313, 0.15596186, -0.6976954, 0.39764464, 9.221797943115234, -3.503225564956665, -0.23096413910388947, -1.043294906616211, 2.4444501399993896, -1.1342710256576538, -0.779052734375, 0.539794921875, -0.22412109375, 0, 
10, 271580578, 0.5757423, 0.1561537, -0.69751936, 0.3969938, 9.243877410888672, -3.564610481262207, -0.19111327826976776, -1.4678893089294434, 2.6297645568847656, -1.0640923976898193, -0.776123046875, 0.5380859375, -0.22021484375, 0, 
11, 271597245, 0.576418, 0.15622906, -0.69736075, 0.39626095, 9.188834190368652, -3.647439479827881, -0.22963061928749084, -1.5527955293655396, 2.425848960876465, -1.5690594911575317, -0.780029296875, 0.540283203125, -0.2216796875, 0, 
12, 271613912, 0.5769921, 0.15650612, -0.69710076, 0.3957737, 9.13526725769043, -3.7053701877593994, -0.2542770802974701, 1.0765979290008545, 1.9201136827468872, -2.2322492599487305, -0.78125, 0.535400390625, -0.221923828125, 0, 
13, 271630579, 0.5773478, 0.15707839, -0.696765, 0.3956189, 9.137709617614746, -3.6380293369293213, -0.20897872745990753, 3.172805070877075, 1.2453597784042358, -2.642808198928833, -0.779541015625, 0.53369140625, -0.222900390625, 0, 
14, 271647246, 0.5776727, 0.1575869, -0.6964013, 0.39558315, 9.204052925109863, -3.521961212158203, -0.15028925240039825, 3.4681708812713623, 1.4967743158340454, -2.268120050430298, -0.7802734375, 0.535400390625, -0.22509765625, 0, 
15, 271663913, 0.5782049, 0.15768969, -0.69611627, 0.39526653, 9.277230262756348, -3.4862821102142334, -0.08065181970596313, 0.9060428738594055, 2.4654977321624756, -1.995152235031128, -0.7802734375, 0.53271484375, -0.224609375, 0, 
16, 271680580, 0.5788065, 0.15768792, -0.6958512, 0.3948527, 9.216572761535645, -3.632110357284546, -0.08756600320339203, -0.6696183681488037, 2.8565523624420166, -1.9995064735412598, -0.7802734375, 0.5322265625, -0.226806640625, 0, 
17, 271697247, 0.5792214, 0.15797685, -0.6955115, 0.39472744, 9.201630592346191, -3.7169480323791504, -0.18954338133335114, 1.5416347980499268, 1.9195243120193481, -2.0924034118652344, -0.7822265625, 0.533203125, -0.220703125, 0, 
18, 271713914, 0.5794307, 0.15860455, -0.69509566, 0.3949011, 9.23709487915039, -3.721398115158081, -0.26630958914756775, 4.750560760498047, 0.719774603843689, -2.4181978702545166, -0.77685546875, 0.531005859375, -0.22705078125, 0, 
19, 271730581, 0.57954997, 0.15941402, -0.69463176, 0.39521626, 9.279099464416504, -3.6781187057495117, -0.25577670335769653, 7.561363697052002, -0.13214874267578125, -2.8318302631378174, -0.77880859375, 0.530029296875, -0.22900390625, 0, 
20, 271747248, 0.5796551, 0.16020969, -0.6942423, 0.3954243, 9.36653995513916, -3.5509676933288574, -0.2141546905040741, 7.0314106941223145, -0.5306695699691772, -3.2304279804229736, -0.781494140625, 0.530029296875, -0.22802734375, 0, 
21, 271763915, 0.57984275, 0.16076659, -0.694039, 0.3952804, 9.359746932983398, -3.465376138687134, -0.15168088674545288, 3.0934832096099854, -0.28047189116477966, -3.4617106914520264, -0.781005859375, 0.529541015625, -0.2294921875, 0, 
22, 271780582, 0.5802579, 0.16088068, -0.6940801, 0.39455184, 9.349343299865723, -3.4369871616363525, -0.11930149793624878, -1.6929864883422852, 0.09978066384792328, -3.9427804946899414, -0.7822265625, 0.525146484375, -0.230224609375, 0, 
23, 271797249, 0.5807621, 0.16083173, -0.69428986, 0.39345962, 9.304889678955078, -3.4722931385040283, -0.056108955293893814, -6.264278411865234, 0.4716002941131592, -4.564670085906982, -0.781005859375, 0.5263671875, -0.22900390625, 0, 
24, 271813916, 0.5814212, 0.16046499, -0.69462997, 0.39203298, 9.24821949005127, -3.54172682762146, -0.07468272000551224, -8.786184310913086, 0.7429030537605286, -4.6714253425598145, -0.783203125, 0.52685546875, -0.231201171875, 0, 
25, 271830583, 0.58197147, 0.1602128, -0.69491136, 0.39081877, 9.226253509521484, -3.5308454036712646, -0.08256524801254272, -10.071889877319336, 1.4755802154541016, -4.169928073883057, -0.784912109375, 0.524658203125, -0.226806640625, 0, 
26, 271847250, 0.5826486, 0.15951243, -0.69530094, 0.38940087, 9.259137153625488, -3.5641913414001465, -0.10561276227235794, -10.992874145507812, 1.7033671140670776, -3.185452938079834, -0.783203125, 0.5224609375, -0.2236328125, 0, 
27, 271863917, 0.58331907, 0.15880245, -0.6955842, 0.38817963, 9.326227188110352, -3.5720622539520264, -0.17271831631660461, -8.787835121154785, 1.9202038049697876, -2.5582995414733887, -0.785888671875, 0.523681640625, -0.22509765625, 0, 
28, 271880584, 0.5837094, 0.15864335, -0.69561553, 0.38760123, 9.291156768798828, -3.6002140045166016, -0.20775340497493744, -3.8254878520965576, 1.333992838859558, -2.186953544616699, -0.78466796875, 0.524169921875, -0.223388671875, 0, 
29, 271897251, 0.583884, 0.15883198, -0.69546145, 0.38753736, 9.301426887512207, -3.5687925815582275, -0.23252032697200775, 1.59100341796875, 0.40281733870506287, -1.5137362480163574, -0.785400390625, 0.523193359375, -0.227783203125, 0, 
30, 271913918, 0.58388084, 0.15928036, -0.69519734, 0.38783228, 9.346697807312012, -3.436880111694336, -0.2427702695131302, 4.550256729125977, -0.15103812515735626, -1.014083743095398, -0.786376953125, 0.523193359375, -0.2255859375, 0, 
31, 271930585, 0.5838485, 0.1597858, -0.6949075, 0.38819227, 9.38903522491455, -3.347247362136841, -0.20398598909378052, 4.927518367767334, -0.12237748503684998, -0.9486815929412842, -0.787109375, 0.52197265625, -0.2255859375, 0, 
32, 271947252, 0.5838154, 0.16034925, -0.6946159, 0.38853106, 9.381799697875977, -3.34377121925354, -0.1960771232843399, 4.987490653991699, -0.24586912989616394, -1.2465060949325562, -0.78662109375, 0.518310546875, -0.226318359375, 0, 
33, 271963919, 0.5837353, 0.16102691, -0.6943316, 0.38887927, 9.379814147949219, -3.325204372406006, -0.24073342978954315, 3.7421889305114746, -0.10585730522871017, -1.5390673875808716, -0.787109375, 0.521484375, -0.22509765625, 0, 
34, 271980586, 0.58389115, 0.16128294, -0.69419307, 0.38878644, 9.290595054626465, -3.365403652191162, -0.24208681285381317, 1.9557281732559204, 0.10865548253059387, -1.7631399631500244, -0.787109375, 0.5205078125, -0.228271484375, 0, 
35, 271997253, 0.58406013, 0.16149355, -0.694089, 0.3886313, 9.19886302947998, -3.3782854080200195, -0.28061434626579285, 0.7464500665664673, 0.35289815068244934, -1.774088978767395, -0.787841796875, 0.518798828125, -0.22900390625, 0, 
36, 272013920, 0.5841671, 0.1616859, -0.69398457, 0.38857678, 9.200940132141113, -3.3422560691833496, -0.23949217796325684, 0.023237120360136032, 0.7135249972343445, -1.1090682744979858, -0.78955078125, 0.518310546875, -0.2294921875, 0, 
37, 272030587, 0.584271, 0.16175371, -0.69392407, 0.3885002, 9.22766399383545, -3.3018813133239746, -0.2279120534658432, -0.723110556602478, 0.8635130524635315, -0.5473561882972717, -0.788818359375, 0.51611328125, -0.228759765625, 0, 
38, 272047254, 0.5843216, 0.16183323, -0.6938735, 0.38848156, 9.246280670166016, -3.333796739578247, -0.1677713245153427, -1.3681280612945557, 0.9919606447219849, -0.18602505326271057, -0.788818359375, 0.51953125, -0.23095703125, 0, 
39, 272063921, 0.5844431, 0.16179065, -0.6938141, 0.38842276, 9.220705032348633, -3.4840896129608154, -0.17125192284584045, -0.7484927177429199, 1.1343673467636108, 0.01575821451842785, -0.787353515625, 0.517822265625, -0.231201171875, 0, 
40, 272080588, 0.58456737, 0.16167721, -0.6937753, 0.38835236, 9.188591003417969, -3.5994620323181152, -0.15564341843128204, -0.7866684794425964, 1.0995210409164429, 0.27194923162460327, -0.79052734375, 0.517333984375, -0.228759765625, 0, 
41, 272097255, 0.5846322, 0.16166838, -0.69374406, 0.38831407, 9.155767440795898, -3.6077029705047607, -0.1666870266199112, -0.020515773445367813, 0.4801549017429352, -0.00819606427103281, -0.787353515625, 0.515625, -0.22998046875, 0, 
42, 272113922, 0.58462024, 0.16185182, -0.6937172, 0.38830376, 9.193025588989258, -3.507547616958618, -0.15421010553836823, 0.5259631872177124, -0.22741517424583435, -0.6695672273635864, -0.787841796875, 0.518310546875, -0.22998046875, 0, 
43, 272130589, 0.5847038, 0.16185996, -0.6937521, 0.38811183, 9.267767906188965, -3.386507272720337, -0.12239283323287964, -1.1645710468292236, 0.18277862668037415, -0.7863355278968811, -0.791015625, 0.516357421875, -0.228759765625, 0, 
44, 272147256, 0.5848965, 0.1616252, -0.69384277, 0.38775742, 9.30160140991211, -3.3592588901519775, -0.09411534667015076, -3.83418345451355, 1.170289158821106, -0.49825671315193176, -0.787841796875, 0.51513671875, -0.22998046875, 0, 
45, 272163923, 0.5852471, 0.16109572, -0.693993, 0.38717923, 9.281126022338867, -3.43768310546875, -0.1349872648715973, -5.184471607208252, 1.7379176616668701, -0.35479992628097534, -0.788330078125, 0.5146484375, -0.227294921875, 0, 
46, 272180590, 0.58555263, 0.16075309, -0.6940646, 0.38673148, 9.289420127868652, -3.53011417388916, -0.23665902018547058, -4.261761665344238, 1.7421953678131104, -0.6861387491226196, -0.791259765625, 0.51513671875, -0.23046875, 0, 
47, 272197257, 0.5858215, 0.16063078, -0.69403005, 0.38643688, 9.254427909851074, -3.463200807571411, -0.2883508503437042, -2.5478873252868652, 1.6769465208053589, -1.166876196861267, -0.788818359375, 0.5146484375, -0.227783203125, 0, 
48, 272213924, 0.5860193, 0.16066395, -0.693911, 0.38633677, 9.270941734313965, -3.386418581008911, -0.2426803857088089, -1.03123140335083, 1.6344808340072632, -1.0386974811553955, -0.788330078125, 0.515625, -0.22900390625, 0, 
49, 272230591, 0.5862421, 0.16060555, -0.69380563, 0.3862126, 9.29334831237793, -3.327763557434082, -0.20189522206783295, -0.6838334202766418, 1.5991480350494385, -0.7624900341033936, -0.787841796875, 0.5146484375, -0.22900390625, 0, 
50, 272247258, 0.58648217, 0.16049755, -0.6936909, 0.38609892, 9.310491561889648, -3.306165933609009, -0.16776137053966522, -0.9353374242782593, 1.9050920009613037, -0.5248171091079712, -0.790771484375, 0.513671875, -0.231689453125, 0, 
51, 272263925, 0.58665127, 0.16052514, -0.6935519, 0.38608006, 9.284452438354492, -3.309915781021118, -0.19921034574508667, -0.5712527632713318, 1.6959638595581055, -0.5994523167610168, -0.78955078125, 0.51513671875, -0.2294921875, 0, 
52, 272280592, 0.58686966, 0.16053157, -0.69341403, 0.38599324, 9.308051109313965, -3.2600209712982178, -0.19457142055034637, 0.28152838349342346, 1.4250842332839966, -0.9080086946487427, -0.791259765625, 0.51513671875, -0.23095703125, 0, 
53, 272297259, 0.58702403, 0.16070557, -0.6932478, 0.38598433, 9.274775505065918, -3.2660672664642334, -0.2117050439119339, 0.05567559599876404, 1.4027241468429565, -1.2141954898834229, -0.79345703125, 0.512451171875, -0.2314453125, 0, 
54, 272313926, 0.5872483, 0.16077252, -0.69313264, 0.38582212, 9.239978790283203, -3.2593982219696045, -0.17527960240840912, -0.8496373295783997, 1.4796007871627808, -1.4430196285247803, -0.791259765625, 0.51416015625, -0.23046875, 0, 
55, 272330593, 0.58756065, 0.16070795, -0.69305074, 0.38552052, 9.231839179992676, -3.340735912322998, -0.10118398070335388, -1.1995067596435547, 1.582679033279419, -1.5766537189483643, -0.78955078125, 0.511962890625, -0.231689453125, 0, 
56, 272347260, 0.58779913, 0.16079016, -0.69293207, 0.38533607, 9.170578002929688, -3.397277355194092, -0.09645185619592667, -0.7037089467048645, 1.4128414392471313, -1.6387901306152344, -0.791259765625, 0.510986328125, -0.232666015625, 0, 
57, 272363927, 0.58778006, 0.16132933, -0.69270664, 0.38554513, 9.196678161621094, -3.420112371444702, -0.1054951474070549, 1.244309663772583, 0.6919078826904297, -1.6482926607131958, -0.79345703125, 0.511474609375, -0.23193359375, 0, 
58, 272380594, 0.5878633, 0.16162226, -0.69248563, 0.38569248, 9.307196617126465, -3.4454331398010254, -0.072345070540905, 2.612898826599121, 0.7167137861251831, -1.0423856973648071, -0.7919921875, 0.50927734375, -0.232666015625, 0, 
59, 272397261, 0.5878096, 0.162123, -0.69218105, 0.38611063, 9.396196365356445, -3.4100656509399414, -0.0688907653093338, 3.1889281272888184, 0.8460834622383118, -0.658950686454773, -0.791259765625, 0.5087890625, -0.231689453125, 0, 
60, 272413928, 0.58782506, 0.16244625, -0.6918813, 0.3864885, 9.48697566986084, -3.3760082721710205, -0.12959395349025726, 3.6929612159729004, 1.018585205078125, -0.1775984913110733, -0.79248046875, 0.510986328125, -0.23486328125, 0, 
61, 272430595, 0.58785605, 0.16266343, -0.69156027, 0.3869243, 9.4656982421875, -3.4308245182037354, -0.14809828996658325, 3.096491813659668, 1.7025593519210815, 0.5070353746414185, -0.791259765625, 0.510986328125, -0.234375, 0, 
62, 272447262, 0.5879251, 0.16283755, -0.69120824, 0.38737494, 9.493961334228516, -3.413257122039795, -0.17811952531337738, 2.8625330924987793, 2.2067582607269287, 0.6333316564559937, -0.7919921875, 0.509765625, -0.234375, 0, 
63, 272463929, 0.587988, 0.16308327, -0.6908112, 0.38788396, 9.45138168334961, -3.3364462852478027, -0.24896341562271118, 3.6821653842926025, 2.196782112121582, 0.49347350001335144, -0.791015625, 0.507568359375, -0.235595703125, 0, 
64, 272480596, 0.58806425, 0.16339816, -0.69043535, 0.3883049, 9.353385925292969, -3.2569119930267334, -0.23765261471271515, 4.659955024719238, 1.4750288724899292, -0.2046070396900177, -0.7919921875, 0.50830078125, -0.23876953125, 0, 
65, 272497263, 0.58803594, 0.16377307, -0.6900985, 0.38878837, 9.324519157409668, -3.178227663040161, -0.19806379079818726, 4.143795490264893, 1.14046311378479, 0.1066448837518692, -0.792236328125, 0.5078125, -0.241455078125, 0, 
66, 272513930, 0.5880708, 0.16384923, -0.68987083, 0.38910732, 9.34978199005127, -3.1876206398010254, -0.14229995012283325, 0.4048022925853729, 2.133467435836792, 0.8421392440795898, -0.79052734375, 0.506103515625, -0.239501953125, 0, 
67, 272530597, 0.58835834, 0.16346589, -0.6897803, 0.3889946, 9.307961463928223, -3.28039288520813, -0.13241691887378693, -2.995239019393921, 3.1032416820526123, 0.7670812010765076, -0.792724609375, 0.5087890625, -0.237548828125, 0, 
68, 272547264, 0.58865595, 0.16311543, -0.6897299, 0.38878053, 9.250417709350586, -3.370638847351074, -0.1459953784942627, -2.8748464584350586, 2.575030565261841, 0.2226192057132721, -0.79052734375, 0.506591796875, -0.241455078125, 0, 
69, 272563931, 0.5887927, 0.1630817, -0.6896375, 0.38875127, 9.278361320495605, -3.396637201309204, -0.1365494430065155, -1.993564486503601, 1.9234431982040405, -0.1483103334903717, -0.79150390625, 0.509765625, -0.23876953125, 0, 
70, 272580598, 0.5891098, 0.16286492, -0.6895741, 0.38847446, 9.363358497619629, -3.3403801918029785, -0.007639724761247635, -2.580197811126709, 2.2907168865203857, -0.7470200657844543, -0.791748046875, 0.5087890625, -0.24267578125, 0, 
71, 272597265, 0.5895863, 0.1625056, -0.68953085, 0.38797826, 9.402119636535645, -3.258490562438965, 0.06298656016588211, -4.154534339904785, 2.9884836673736572, -1.3621348142623901, -0.7900390625, 0.508056640625, -0.240966796875, 0, 
72, 272613932, 0.5901823, 0.16207828, -0.6894787, 0.3873432, 9.298773765563965, -3.2719945907592773, 0.06359972804784775, -4.7570343017578125, 3.4386396408081055, -1.9214519262313843, -0.79052734375, 0.5048828125, -0.24169921875, 0, 
73, 272630599, 0.5907542, 0.16159776, -0.68942237, 0.38677186, 9.27983570098877, -3.460463523864746, 0.0712478831410408, -5.121490478515625, 3.7143094539642334, -1.3447182178497314, -0.791015625, 0.50830078125, -0.2421875, 0, 
74, 272647266, 0.5913498, 0.16123492, -0.68917066, 0.38646188, 9.270866394042969, -3.55511736869812, 0.12444701790809631, -4.2227911949157715, 5.059679985046387, -1.1317739486694336, -0.792724609375, 0.506103515625, -0.241455078125, 0, 
75, 272663933, 0.5918767, 0.16114739, -0.6888152, 0.38632533, 9.14993953704834, -3.5356295108795166, 0.10415246337652206, -1.3553086519241333, 4.38791036605835, -1.6913089752197266, -0.791259765625, 0.506103515625, -0.2431640625, 0, 
76, 272680600, 0.5922081, 0.16135034, -0.6883425, 0.38657513, 9.226898193359375, -3.4867334365844727, 0.09428312629461288, 2.094741106033325, 3.6120243072509766, -1.1322606801986694, -0.792236328125, 0.506591796875, -0.245361328125, 0, 
77, 272697267, 0.59241116, 0.16179685, -0.68770856, 0.38720503, 9.310599327087402, -3.4094977378845215, 0.1497296243906021, 5.059872627258301, 3.5681886672973633, -0.5955977439880371, -0.7890625, 0.50390625, -0.24560546875, 0, 
78, 272713934, 0.5925508, 0.1620757, -0.6871748, 0.3878221, 9.277177810668945, -3.474395990371704, 0.033494412899017334, 5.02000617980957, 2.9478232860565186, 0.4190045893192291, -0.791748046875, 0.506591796875, -0.248046875, 0, 
79, 272730601, 0.5925572, 0.16255106, -0.68664896, 0.38854396, 9.326135635375977, -3.39919376373291, -0.028630418702960014, 5.327525615692139, 2.2818291187286377, 0.263433039188385, -0.790283203125, 0.50390625, -0.249755859375, 0, 
80, 272747268, 0.59253365, 0.16306594, -0.6861512, 0.38924298, 9.319297790527344, -3.323540687561035, -0.06229016184806824, 6.490367412567139, 1.4835454225540161, 0.09341592341661453, -0.789306640625, 0.502685546875, -0.252197265625, 0, 
81, 272763935, 0.5923103, 0.16390467, -0.6856463, 0.3901193, 9.390604019165039, -3.1596765518188477, -0.054812829941511154, 7.385904312133789, 0.4576670825481415, -0.19345277547836304, -0.789306640625, 0.50341796875, -0.252685546875, 0, 
82, 272780602, 0.59215796, 0.16454826, -0.68521947, 0.390829, 9.497424125671387, -3.0765535831451416, 0.038520507514476776, 5.395873069763184, 0.8635386228561401, -0.03704877570271492, -0.79150390625, 0.502197265625, -0.2509765625, 0, 
83, 272797269, 0.5922801, 0.16460958, -0.6849954, 0.3910107, 9.461884498596191, -3.1527230739593506, 0.11502760648727417, 0.8774206042289734, 1.8674153089523315, 0.0858345553278923, -0.79150390625, 0.5029296875, -0.253173828125, 0, 
84, 272813936, 0.59260136, 0.16429606, -0.6848726, 0.39087105, 9.386773109436035, -3.2427566051483154, 0.09961815923452377, -2.881108522415161, 3.110245943069458, 0.1387760043144226, -0.79150390625, 0.50390625, -0.255859375, 0, 
85, 272830603, 0.59298486, 0.16391042, -0.68474954, 0.39066663, 9.30640697479248, -3.3981451988220215, 0.1440751701593399, -2.8924293518066406, 3.282465934753418, 0.061797045171260834, -0.792724609375, 0.500732421875, -0.254638671875, 0, 
86, 272847270, 0.5932934, 0.16368604, -0.68454164, 0.39065656, 9.257709503173828, -3.5076887607574463, 0.12082332372665405, 0.22181236743927002, 2.606802463531494, 0.20435731112957, -0.79052734375, 0.502197265625, -0.253662109375, 0, 
87, 272863937, 0.5933717, 0.16397212, -0.6841057, 0.39118102, 9.289990425109863, -3.5646042823791504, 0.2195429652929306, 3.3681278228759766, 2.523446559906006, 0.3058220446109772, -0.791015625, 0.500732421875, -0.25537109375, 0, 
88, 272880604, 0.5933897, 0.1644413, -0.68351907, 0.39198178, 9.307478904724121, -3.4780492782592773, 0.2532372772693634, 5.7839436531066895, 2.697446823120117, 0.5402424335479736, -0.79052734375, 0.498046875, -0.256591796875, 0, 
89, 272897271, 0.5933283, 0.16503972, -0.6828628, 0.39296547, 9.279594421386719, -3.4488818645477295, 0.25946342945098877, 7.203854560852051, 2.5422911643981934, 0.7967343926429749, -0.78955078125, 0.49951171875, -0.259765625, 0, 
90, 272913938, 0.59320563, 0.16570842, -0.68213195, 0.3941372, 9.290753364562988, -3.445335626602173, 0.2591961622238159, 8.578335762023926, 2.5942726135253906, 1.3021243810653687, -0.7900390625, 0.500244140625, -0.259765625, 0, 
91, 272930605, 0.59300846, 0.16646513, -0.68138784, 0.39539987, 9.307790756225586, -3.4437806606292725, 0.17922337353229523, 10.162381172180176, 1.9075192213058472, 1.4485524892807007, -0.78955078125, 0.501220703125, -0.262451171875, 0, 
92, 272947272, 0.59274584, 0.16731595, -0.68067974, 0.3966524, 9.351239204406738, -3.3596246242523193, 0.0832909494638443, 10.430550575256348, 1.2018442153930664, 1.1765645742416382, -0.790283203125, 0.499755859375, -0.26416015625, 0, 
93, 272963939, 0.5925053, 0.16823786, -0.6800026, 0.39778146, 9.345792770385742, -3.196654796600342, 0.0951559767127037, 9.986408233642578, 0.8677586317062378, 0.31489548087120056, -0.79150390625, 0.49755859375, -0.265380859375, 0, 
94, 272980606, 0.5923711, 0.16899654, -0.67943156, 0.39863464, 9.370963096618652, -3.0595319271087646, 0.10540839284658432, 7.881061553955078, 0.9728794693946838, -0.1976916790008545, -0.7919921875, 0.495849609375, -0.26806640625, 0, 
95, 272997273, 0.5922794, 0.16957363, -0.67901665, 0.39923218, 9.40845775604248, -3.0140786170959473, 0.09641066938638687, 4.421424865722656, 1.1233923435211182, -0.32460257411003113, -0.788818359375, 0.498046875, -0.270263671875, 0, 
96, 273013940, 0.592382, 0.1695935, -0.67890877, 0.39925513, 9.330819129943848, -3.107327461242676, 0.003166044130921364, -0.15507209300994873, 1.124967336654663, -0.1776881217956543, -0.7958984375, 0.49658203125, -0.267822265625, 0, 
97, 273030607, 0.59245795, 0.16965671, -0.67890364, 0.39912418, 9.292612075805664, -3.1849443912506104, -0.05559701472520828, -1.56489098072052, 0.522511899471283, -0.8099439740180969, -0.7919921875, 0.49755859375, -0.26904296875, 0, 
98, 273047274, 0.5924027, 0.16998142, -0.67888516, 0.39909938, 9.315339088439941, -3.282928705215454, -0.018934793770313263, -0.24426192045211792, -0.45084109902381897, -1.2515454292297363, -0.789794921875, 0.494873046875, -0.267578125, 0, 
99, 273063941, 0.5923787, 0.17014228, -0.6789508, 0.39895493, 9.382024765014648, -3.2515714168548584, 0.1434917151927948, -1.6728869676589966, -0.34425389766693115, -0.9558210372924805, -0.7919921875, 0.49658203125, -0.26904296875, 0, 
100, 273080608, 0.59264606, 0.16975056, -0.6791234, 0.3984307, 9.409302711486816, -3.2588963508605957, 0.2290612906217575, -5.38663911819458, 1.3144309520721436, -0.5696200728416443, -0.789794921875, 0.4921875, -0.26806640625, 0, 
101, 273097275, 0.5929149, 0.16930711, -0.67932117, 0.39788157, 9.344559669494629, -3.2904043197631836, 0.24592182040214539, -6.496829032897949, 1.5833518505096436, -0.4147849380970001, -0.792724609375, 0.494384765625, -0.26904296875, 0, 
102, 273113942, 0.59307235, 0.16902886, -0.6793989, 0.3976327, 9.30057144165039, -3.446519374847412, 0.22715310752391815, -4.151780128479004, 1.5118985176086426, 0.2029358148574829, -0.79150390625, 0.494384765625, -0.266845703125, 0, 
103, 273130609, 0.5931297, 0.1690288, -0.67931354, 0.39769286, 9.261140823364258, -3.5100064277648926, 0.2757166624069214, -0.4255549907684326, 1.0930668115615845, 0.25152310729026794, -0.793212890625, 0.495361328125, -0.266845703125, 0, 
104, 273147276, 0.5930357, 0.16930644, -0.67907923, 0.39811492, 9.290034294128418, -3.4308578968048096, 0.27459415793418884, 2.3533267974853516, 0.8733866214752197, 0.6430131793022156, -0.793212890625, 0.49169921875, -0.26904296875, 0, 
105, 273163943, 0.59273714, 0.16978502, -0.6788589, 0.3987311, 9.306872367858887, -3.350752830505371, 0.2095109522342682, 3.023207664489746, -0.014375126920640469, 1.0334725379943848, -0.791015625, 0.494873046875, -0.2685546875, 0, 
106, 273180610, 0.5925533, 0.17004122, -0.67867666, 0.39920485, 9.393025398254395, -3.3146021366119385, 0.1685411036014557, 2.9599761962890625, 0.1780402809381485, 1.2613292932510376, -0.792724609375, 0.493896484375, -0.26806640625, 0, 
107, 273197277, 0.59240705, 0.17021537, -0.6785047, 0.39963982, 9.357856750488281, -3.331852912902832, 0.17633457481861115, 2.6648285388946533, 0.3878723978996277, 1.4049655199050903, -0.793212890625, 0.493896484375, -0.2685546875, 0, 
108, 273213944, 0.5922393, 0.17039411, -0.67838615, 0.4000134, 9.377644538879395, -3.2399003505706787, 0.21277430653572083, 1.6728743314743042, 0.205791637301445, 1.2415051460266113, -0.79541015625, 0.49658203125, -0.272216796875, 0, 
109, 273230611, 0.59228563, 0.17030324, -0.67832816, 0.4000818, 9.386472702026367, -3.1765196323394775, 0.20821791887283325, -0.9741597771644592, 1.2361712455749512, 0.754831850528717, -0.793212890625, 0.4931640625, -0.26806640625, 0, 
110, 273247278, 0.5924587, 0.1699718, -0.6783453, 0.39993736, 9.383622169494629, -3.178110122680664, 0.19494123756885529, -3.006214141845703, 1.826147198677063, 0.7703020572662354, -0.793212890625, 0.49267578125, -0.26953125, 0, 
111, 273263945, 0.59267044, 0.1694986, -0.67842674, 0.39968622, 9.318061828613281, -3.302647352218628, 0.14742141962051392, -3.964615821838379, 1.886625051498413, 0.9843793511390686, -0.792236328125, 0.4931640625, -0.270263671875, 0, 
112, 273280612, 0.5926988, 0.16933186, -0.67844456, 0.39968473, 9.269766807556152, -3.3557727336883545, 0.16330836713314056, -3.1049251556396484, 1.4498451948165894, 0.9596052765846252, -0.7900390625, 0.495849609375, -0.270751953125, 0, 
113, 273297279, 0.59275556, 0.1692341, -0.678405, 0.39970928, 9.260156631469727, -3.3283917903900146, 0.2014632225036621, -1.22719407081604, 1.170698881149292, 0.632076621055603, -0.791015625, 0.494384765625, -0.271484375, 0, 
114, 273313946, 0.5927149, 0.1693355, -0.67831093, 0.39988604, 9.288124084472656, -3.2706007957458496, 0.28316885232925415, 0.30513688921928406, 0.6592452526092529, 0.5198481678962708, -0.792236328125, 0.493896484375, -0.27197265625, 0, 
115, 273330613, 0.59262186, 0.16946244, -0.67816603, 0.40021604, 9.298089981079102, -3.346834182739258, 0.30730682611465454, 0.9480413794517517, 0.8632120490074158, 1.1050344705581665, -0.788818359375, 0.495361328125, -0.27197265625, 0, 
116, 273347280, 0.5925076, 0.16952878, -0.67807555, 0.40050998, 9.29433536529541, -3.3851559162139893, 0.28270700573921204, 0.94390469789505, 0.46609991788864136, 1.3767081499099731, -0.789306640625, 0.495361328125, -0.269775390625, 0, 
117, 273363947, 0.59236085, 0.1697258, -0.67795146, 0.4008538, 9.311198234558105, -3.3399605751037598, 0.24967193603515625, 2.071657657623291, 0.060881391167640686, 1.0258783102035522, -0.788330078125, 0.4931640625, -0.271484375, 0, 
118, 273380614, 0.59217227, 0.17016844, -0.6777118, 0.40135, 9.372760772705078, -3.2839653491973877, 0.23012185096740723, 3.93381667137146, -0.0857897475361824, 0.4752180874347687, -0.79052734375, 0.4931640625, -0.27294921875, 0, 
119, 273397281, 0.5920005, 0.17058375, -0.6774227, 0.4019146, 9.345720291137695, -3.2852582931518555, 0.28731364011764526, 3.9333300590515137, 0.4662536382675171, 0.7743616700172424, -0.791015625, 0.495849609375, -0.270751953125, 0, 
120, 273413948, 0.59191185, 0.17076418, -0.6772158, 0.402317, 9.349185943603516, -3.2863895893096924, 0.2957315742969513, 2.6603333950042725, 0.6969663500785828, 1.1040929555892944, -0.791748046875, 0.493896484375, -0.2734375, 0, 
121, 273430615, 0.5918098, 0.17090273, -0.6770491, 0.40268832, 9.339927673339844, -3.3355607986450195, 0.27792888879776, 2.0688018798828125, 0.6111318469047546, 1.254164218902588, -0.79052734375, 0.4931640625, -0.273681640625, 0, 
122, 273447282, 0.59171635, 0.17110804, -0.67684454, 0.40308234, 9.33950138092041, -3.364339590072632, 0.2761732339859009, 2.273991346359253, 0.7413148283958435, 0.9622370600700378, -0.7939453125, 0.494873046875, -0.276123046875, 0, 
123, 273463949, 0.5915881, 0.17139494, -0.67657864, 0.40359485, 9.306950569152832, -3.3570148944854736, 0.35798999667167664, 2.7611453533172607, 0.9616097807884216, 1.072615146636963, -0.791259765625, 0.49267578125, -0.27685546875, 0, 
124, 273480616, 0.5914544, 0.17160162, -0.6762833, 0.40419757, 9.349129676818848, -3.3450586795806885, 0.36483049392700195, 3.5642952919006348, 1.1505416631698608, 1.809274673461914, -0.790771484375, 0.4931640625, -0.27587890625, 0, 
125, 273497283, 0.591228, 0.17179532, -0.6759556, 0.40499362, 9.336785316467285, -3.4415390491485596, 0.29146161675453186, 4.461617946624756, 1.1638412475585938, 2.8745265007019043, -0.78857421875, 0.491455078125, -0.275390625, 0, 
126, 273513950, 0.59098864, 0.17200552, -0.67555165, 0.40592676, 9.340777397155762, -3.527266263961792, 0.29355183243751526, 5.168079853057861, 1.610129714012146, 3.289900302886963, -0.7890625, 0.4921875, -0.278076171875, 0, 
127, 273530617, 0.5907336, 0.17231403, -0.6750745, 0.40695992, 9.338133811950684, -3.4616692066192627, 0.3354661464691162, 6.4012675285339355, 1.6242934465408325, 3.1914706230163574, -0.7890625, 0.49267578125, -0.277587890625, 0, 
128, 273547284, 0.590385, 0.17273635, -0.6745783, 0.40810797, 9.388675689697266, -3.26729154586792, 0.3223797082901001, 7.971275806427002, 0.9319182634353638, 3.3794684410095215, -0.786376953125, 0.4892578125, -0.281982421875, 0, 
129, 273563951, 0.58994734, 0.17319931, -0.674059, 0.4094004, 9.392513275146484, -3.215613842010498, 0.3489525318145752, 7.564334869384766, 1.190484881401062, 3.957784414291382, -0.789794921875, 0.494384765625, -0.2841796875, 0, 
130, 273580618, 0.58966607, 0.17327285, -0.6736481, 0.4104494, 9.397258758544922, -3.2755179405212402, 0.30694642663002014, 5.39117956161499, 1.9002447128295898, 4.515967845916748, -0.789306640625, 0.4921875, -0.28515625, 0, 
131, 273597285, 0.58939254, 0.1731441, -0.673328, 0.411421, 9.369784355163574, -3.3815648555755615, 0.2989160716533661, 3.6919362545013428, 2.144442558288574, 5.224024295806885, -0.787109375, 0.49267578125, -0.285400390625, 0, 
132, 273613952, 0.58912385, 0.17300111, -0.6730522, 0.41231602, 9.390323638916016, -3.3948826789855957, 0.2873237729072571, 3.1178276538848877, 1.95168137550354, 5.023041725158691, -0.785400390625, 0.494140625, -0.28759765625, 0, 
133, 273630619, 0.58896804, 0.172655, -0.6728235, 0.41305625, 9.406676292419434, -3.34157133102417, 0.34529000520706177, 1.881919026374817, 2.4655044078826904, 5.096979141235352, -0.784423828125, 0.4931640625, -0.290283203125, 0, 
134, 273647286, 0.58887583, 0.17211252, -0.6726703, 0.41366342, 9.397164344787598, -3.2712361812591553, 0.39949846267700195, -0.5777457356452942, 3.142364740371704, 5.353637218475342, -0.785888671875, 0.499755859375, -0.287353515625, 0, 
135, 273663953, 0.58888793, 0.17129289, -0.6726356, 0.41404238, 9.389004707336426, -3.2891647815704346, 0.4040973484516144, -2.4877493381500244, 3.3841428756713867, 5.605648517608643, -0.784912109375, 0.49755859375, -0.286376953125, 0, 
136, 273680620, 0.5889338, 0.17038053, -0.6726794, 0.41428226, 9.345076560974121, -3.3232808113098145, 0.3737625777721405, -3.2196643352508545, 3.1121485233306885, 5.499829292297363, -0.78466796875, 0.49951171875, -0.285400390625, 0, 
137, 273697287, 0.5889496, 0.16951184, -0.67271644, 0.41455632, 9.356204986572266, -3.3707401752471924, 0.3754429817199707, -3.8532910346984863, 3.304807662963867, 5.486369609832764, -0.78271484375, 0.500732421875, -0.289794921875, 0, 
138, 273713954, 0.5890075, 0.16855174, -0.6727639, 0.4147885, 9.349608421325684, -3.4390881061553955, 0.4262435734272003, -4.014913082122803, 3.486145257949829, 5.658717155456543, -0.781005859375, 0.502685546875, -0.288818359375, 0, 
139, 273730621, 0.58906984, 0.16759191, -0.6728002, 0.4150298, 9.324406623840332, -3.444571018218994, 0.4441927373409271, -4.055342674255371, 3.600569725036621, 5.67238187789917, -0.777099609375, 0.503662109375, -0.2900390625, 0, 
140, 273747288, 0.5890716, 0.16673586, -0.67280275, 0.41536766, 9.247278213500977, -3.4778711795806885, 0.43969181180000305, -3.266202211380005, 3.3618595600128174, 5.71304178237915, -0.781982421875, 0.50341796875, -0.289306640625, 0, 
141, 273763955, 0.58892363, 0.16617036, -0.67269814, 0.41597304, 9.235677719116211, -3.4850733280181885, 0.4150138795375824, -0.6778081655502319, 2.698887348175049, 5.74427604675293, -0.777587890625, 0.5048828125, -0.293212890625, 0, 
142, 273780622, 0.58872086, 0.16571502, -0.67255205, 0.4166778, 9.238076210021973, -3.4442203044891357, 0.4070979356765747, 0.9682369828224182, 2.1921143531799316, 5.774217128753662, -0.780517578125, 0.5048828125, -0.29248046875, 0, 
143, 273797289, 0.5884451, 0.16533794, -0.67235005, 0.41754165, 9.264885902404785, -3.4466235637664795, 0.4454275965690613, 1.4314236640930176, 2.3678112030029297, 6.171041965484619, -0.77880859375, 0.506103515625, -0.293212890625, 0, 
144, 273813956, 0.58824515, 0.16484502, -0.67205817, 0.41848764, 9.287784576416016, -3.531062602996826, 0.4952731132507324, 1.7416126728057861, 3.417874574661255, 6.737345218658447, -0.77587890625, 0.508544921875, -0.293212890625, 0, 
145, 273830623, 0.5882214, 0.1640994, -0.67173743, 0.41932803, 9.262767791748047, -3.7182705402374268, 0.5907426476478577, 0.6565304398536682, 4.7361345291137695, 6.971726894378662, -0.7744140625, 0.51025390625, -0.29443359375, 0, 
146, 273847290, 0.5882882, 0.16318607, -0.6713816, 0.4201596, 9.241190910339355, -3.8265514373779297, 0.5883065462112427, -0.03481407091021538, 5.748951435089111, 7.405005931854248, -0.7744140625, 0.51025390625, -0.296142578125, 0, 
147, 273863957, 0.5882717, 0.16250211, -0.67088133, 0.42124566, 9.19477653503418, -3.712374210357666, 0.5877376198768616, 2.816603899002075, 5.4683003425598145, 7.452465534210205, -0.773681640625, 0.5107421875, -0.296142578125, 0, 
148, 273880624, 0.588072, 0.1619981, -0.6703025, 0.4226378, 9.268827438354492, -3.5963785648345947, 0.627903163433075, 4.901939392089844, 4.950923919677734, 8.27409553527832, -0.77099609375, 0.512939453125, -0.297119140625, 0, 
149, 273897291, 0.58789474, 0.16131218, -0.6697305, 0.42405096, 9.328025817871094, -3.6033289432525635, 0.606227457523346, 4.591040134429932, 5.418638229370117, 9.167121887207031, -0.77001953125, 0.513916015625, -0.300537109375, 0, 
150, 273913958, 0.58773136, 0.16061813, -0.6690787, 0.4255671, 9.35986328125, -3.713214159011841, 0.5940572023391724, 4.95399808883667, 6.060710906982422, 9.481468200683594, -0.768310546875, 0.515625, -0.30224609375, 0, 
151, 273930625, 0.58763933, 0.15979475, -0.66833746, 0.42716587, 9.342365264892578, -3.78657603263855, 0.6159862279891968, 4.610146999359131, 7.376499176025391, 10.08322525024414, -0.763916015625, 0.51708984375, -0.3046875, 0, 
152, 273947292, 0.587643, 0.15879866, -0.66752625, 0.4287979, 9.27933120727539, -3.860218048095703, 0.6918168663978577, 4.739249229431152, 8.403071403503418, 10.688353538513184, -0.76171875, 0.521240234375, -0.307861328125, 0, 
153, 273963959, 0.5875826, 0.15778841, -0.6667286, 0.4304911, 9.210761070251465, -3.7582836151123047, 0.6481030583381653, 4.9331374168396, 8.18116283416748, 11.198238372802734, -0.759033203125, 0.525146484375, -0.310302734375, 0, 
154, 273980626, 0.58750427, 0.15680462, -0.66590476, 0.4322294, 9.220808029174805, -3.66751766204834, 0.5911012291908264, 5.579884052276611, 8.072310447692871, 11.304583549499512, -0.759521484375, 0.524658203125, -0.311279296875, 0, 
155, 273997293, 0.58744735, 0.15585819, -0.66501415, 0.43401623, 9.25474739074707, -3.654179573059082, 0.6537969708442688, 6.094994068145752, 8.402495384216309, 11.197905540466309, -0.759033203125, 0.52783203125, -0.316162109375, 0, 
156, 274013960, 0.58742774, 0.15484957, -0.6641911, 0.435661, 9.21890640258789, -3.6655819416046143, 0.6520115733146667, 4.721038341522217, 8.436841011047363, 10.864709854125977, -0.75537109375, 0.529296875, -0.318603515625, 0, 
157, 274030627, 0.58748525, 0.15374783, -0.66342044, 0.43714526, 9.187429428100586, -3.7177200317382812, 0.646581768989563, 3.4681155681610107, 8.648427963256836, 10.487907409667969, -0.752685546875, 0.52978515625, -0.322021484375, 0, 
158, 274047294, 0.5876292, 0.15255544, -0.66260326, 0.43860662, 9.088286399841309, -3.811696767807007, 0.7348969578742981, 2.8419997692108154, 9.576531410217285, 10.490968704223633, -0.7509765625, 0.5302734375, -0.326416015625, 0, 
159, 274063961, 0.58778197, 0.15132087, -0.66181386, 0.44001916, 9.008005142211914, -3.8587710857391357, 0.7937297821044922, 2.58842134475708, 9.48532485961914, 10.507412910461426, -0.751708984375, 0.531982421875, -0.32958984375, 0, 
160, 274080628, 0.58793145, 0.1500914, -0.6609824, 0.44148773, 9.074665069580078, -3.833409070968628, 0.8244324326515198, 2.422361135482788, 9.940462112426758, 10.625768661499023, -0.748291015625, 0.533447265625, -0.329833984375, 0, 
161, 274097295, 0.58817786, 0.14882448, -0.6600978, 0.4429099, 9.054625511169434, -3.875411033630371, 0.8395922183990479, 2.4947173595428467, 10.491930961608887, 10.302550315856934, -0.74560546875, 0.53564453125, -0.33544921875, 0, 
162, 274113962, 0.58843523, 0.14759332, -0.6592047, 0.44430763, 9.013834953308105, -3.9121248722076416, 0.8815723657608032, 2.9816150665283203, 10.24567699432373, 10.04380989074707, -0.74072265625, 0.5361328125, -0.336669921875, 0, 
163, 274130629, 0.58859026, 0.14650811, -0.6582942, 0.445809, 9.027212142944336, -3.940162181854248, 0.9376621246337891, 3.559142827987671, 9.801257133483887, 10.040813446044922, -0.739501953125, 0.54052734375, -0.33837890625, 0, 
164, 274147296, 0.5888127, 0.14538038, -0.6573882, 0.4472192, 8.9987154006958, -3.945796489715576, 0.9253100156784058, 3.2726261615753174, 9.945623397827148, 9.70925521850586, -0.737548828125, 0.538818359375, -0.341064453125, 0, 
165, 274163963, 0.58904535, 0.14426349, -0.65652543, 0.44853997, 8.99557876586914, -3.926941394805908, 0.9035331606864929, 2.5738987922668457, 9.791536331176758, 9.288694381713867, -0.737548828125, 0.5419921875, -0.341552734375, 0, 
166, 274180630, 0.58937925, 0.14304486, -0.6557024, 0.44969404, 9.031015396118164, -3.9219017028808594, 0.9450106620788574, 1.6374081373214722, 10.026034355163574, 8.860590934753418, -0.737060546875, 0.54150390625, -0.34716796875, 0, 
167, 274197297, 0.5897141, 0.14178254, -0.6549461, 0.45075592, 8.995858192443848, -3.9880917072296143, 0.9704828262329102, -0.10783593356609344, 10.255678176879883, 8.64418888092041, -0.732666015625, 0.546875, -0.35107421875, 0, 
168, 274213964, 0.59011775, 0.14039966, -0.6542688, 0.45164326, 9.011340141296387, -4.027153491973877, 1.0043795108795166, -1.189217448234558, 10.209611892700195, 8.413033485412598, -0.727294921875, 0.546142578125, -0.351806640625, 0, 
169, 274230631, 0.59054804, 0.13900626, -0.65362334, 0.45244545, 8.960749626159668, -4.078686714172363, 1.040235161781311, -1.662566065788269, 10.117854118347168, 8.076905250549316, -0.728271484375, 0.550048828125, -0.353515625, 0, 
170, 274247298, 0.5909533, 0.13774396, -0.6530228, 0.4531691, 8.948053359985352, -4.052063941955566, 1.0036674737930298, -1.5949995517730713, 9.338457107543945, 7.2955498695373535, -0.724365234375, 0.552490234375, -0.355712890625, 0, 
171, 274263965, 0.59135866, 0.13662462, -0.6524148, 0.4538543, 8.97343921661377, -4.038512229919434, 0.9455175399780273, -0.7670302987098694, 8.701431274414062, 6.54628849029541, -0.723876953125, 0.551513671875, -0.358642578125, 0, 
172, 274280632, 0.59183216, 0.13556693, -0.65174615, 0.45451462, 8.915837287902832, -4.12727165222168, 0.9822861552238464, -0.6602892875671387, 9.12835693359375, 5.883239269256592, -0.722900390625, 0.552001953125, -0.359130859375, 0, 
173, 274297299, 0.5922569, 0.13447933, -0.65123904, 0.45501128, 8.861856460571289, -4.129188537597656, 1.0936741828918457, -2.3520214557647705, 8.384909629821777, 5.610297203063965, -0.72216796875, 0.5537109375, -0.359130859375, 0, 
174, 274313966, 0.59265566, 0.13342474, -0.6507771, 0.45546296, 8.86984634399414, -4.056612014770508, 1.109366774559021, -2.283968448638916, 7.81785774230957, 5.439076900482178, -0.718994140625, 0.553955078125, -0.362548828125, 0, 
175, 274330633, 0.5930694, 0.13236414, -0.650332, 0.45586935, 8.854510307312012, -4.107400417327881, 1.1036244630813599, -2.7742719650268555, 7.894514560699463, 5.230050086975098, -0.718505859375, 0.553466796875, -0.3642578125, 0, 
176, 274347300, 0.5935461, 0.13127467, -0.64986014, 0.45623684, 8.849753379821777, -4.230640411376953, 1.1865288019180298, -2.789742946624756, 8.226059913635254, 5.0146355628967285, -0.718017578125, 0.5556640625, -0.366455078125, 0, 
177, 274363967, 0.5939767, 0.13020416, -0.64936733, 0.4566845, 8.876053810119629, -4.265702247619629, 1.2087030410766602, -2.7761549949645996, 8.376405715942383, 5.311563491821289, -0.71728515625, 0.5595703125, -0.36474609375, 0, 
178, 274380634, 0.5943717, 0.1293226, -0.6488275, 0.45718837, 8.838461875915527, -4.286023139953613, 1.176106333732605, -1.3809025287628174, 7.766066074371338, 4.79893684387207, -0.714111328125, 0.56103515625, -0.3681640625, 0, 
179, 274397301, 0.59464777, 0.12876223, -0.6482054, 0.4578692, 8.81056022644043, -4.289690017700195, 1.163504719734192, 1.135142207145691, 6.70176887512207, 4.3940253257751465, -0.71533203125, 0.558837890625, -0.36767578125, 0, 
180, 274413968, 0.5948257, 0.12841107, -0.64757943, 0.45862198, 8.784579277038574, -4.2554707527160645, 1.1607290506362915, 2.138289451599121, 5.827389240264893, 4.016430854797363, -0.712646484375, 0.558837890625, -0.372802734375, 0, 
181, 274430635, 0.59497046, 0.12813286, -0.64701575, 0.45930701, 8.829936027526855, -4.121759414672852, 1.1477471590042114, 2.4109747409820557, 4.924976825714111, 3.6344807147979736, -0.709716796875, 0.56201171875, -0.37158203125, 0, 
182, 274447302, 0.59519786, 0.127664, -0.6465089, 0.45985645, 8.902414321899414, -4.0925822257995605, 1.2384668588638306, 0.610760509967804, 5.625228404998779, 3.709334135055542, -0.707763671875, 0.56298828125, -0.37548828125, 0, 
183, 274463969, 0.5954953, 0.12690276, -0.64620304, 0.46011177, 8.87191390991211, -4.14962911605835, 1.3095409870147705, -2.747584104537964, 5.864887237548828, 3.745410203933716, -0.70654296875, 0.5634765625, -0.376708984375, 0, 
184, 274480636, 0.5958291, 0.12608147, -0.6459652, 0.4602392, 8.879781723022461, -4.1947431564331055, 1.2486494779586792, -3.5577006340026855, 5.702732563018799, 3.4787814617156982, -0.7099609375, 0.56201171875, -0.37548828125, 0, 
185, 274497303, 0.59616446, 0.12535165, -0.6456902, 0.46039015, 8.835017204284668, -4.280604839324951, 1.2544400691986084, -3.1510345935821533, 5.694548606872559, 3.1067566871643066, -0.707275390625, 0.560791015625, -0.376708984375, 0, 
186, 274513970, 0.5963374, 0.12494877, -0.645442, 0.46062395, 8.788418769836426, -4.298207759857178, 1.1502877473831177, -1.7205780744552612, 4.072253227233887, 2.4839837551116943, -0.70556640625, 0.56298828125, -0.3779296875, 0, 
187, 274530637, 0.5964224, 0.12479889, -0.645219, 0.460867, 8.822486877441406, -4.220017910003662, 1.1500753164291382, -0.1239846870303154, 2.5325839519500732, 1.7805695533752441, -0.703125, 0.5634765625, -0.376220703125, 0, 
188, 274547304, 0.59656376, 0.1245266, -0.64499676, 0.46106836, 8.879897117614746, -4.200189590454102, 1.3208502531051636, -0.77345871925354, 3.0957045555114746, 1.9985721111297607, -0.70166015625, 0.565673828125, -0.3779296875, 0, 
189, 274563971, 0.5967519, 0.12400083, -0.6448853, 0.46112248, 8.79616928100586, -4.329092979431152, 1.370879054069519, -2.5355868339538574, 3.3636391162872314, 2.52402925491333, -0.703369140625, 0.564453125, -0.379638671875, 0, 
190, 274580638, 0.596786, 0.123721026, -0.64479244, 0.46128333, 8.777234077453613, -4.357178211212158, 1.2989392280578613, -1.6288589239120483, 2.2480010986328125, 2.269669532775879, -0.700439453125, 0.56494140625, -0.378662109375, 0, 
191, 274597305, 0.5967577, 0.12373357, -0.6445525, 0.46165174, 8.77290153503418, -4.397472858428955, 1.3091745376586914, 1.2756662368774414, 1.689183235168457, 1.9419164657592773, -0.7021484375, 0.56298828125, -0.378662109375, 0, 
192, 274613972, 0.5966416, 0.12396245, -0.6443296, 0.4620515, 8.785284996032715, -4.28792142868042, 1.3026694059371948, 2.393890857696533, 0.5422079563140869, 1.4083654880523682, -0.703369140625, 0.565185546875, -0.379638671875, 0, 
193, 274630639, 0.59647804, 0.124256544, -0.64423203, 0.46231955, 8.803732872009277, -4.173985958099365, 1.227098822593689, 1.506718397140503, -0.392252117395401, 0.8093485832214355, -0.703369140625, 0.564697265625, -0.38134765625, 0, 
194, 274647306, 0.5964065, 0.12434312, -0.6442277, 0.46239448, 8.852481842041016, -4.169874668121338, 1.2851026058197021, -0.6420271396636963, 0.17173314094543457, 0.7193455100059509, -0.702880859375, 0.565673828125, -0.3818359375, 0, 
195, 274663973, 0.5964686, 0.12403053, -0.64441437, 0.46213824, 8.804168701171875, -4.227755546569824, 1.3697891235351562, -4.292131423950195, 0.8797194361686707, 0.9073171019554138, -0.702880859375, 0.564453125, -0.380126953125, 0, 
196, 274680640, 0.5965166, 0.12374967, -0.64466494, 0.46180207, 8.782022476196289, -4.256404399871826, 1.3749057054519653, -4.8775224685668945, 0.47332271933555603, 0.5175046324729919, -0.703857421875, 0.5673828125, -0.381103515625, 0, 
197, 274697307, 0.59654087, 0.12358381, -0.6448707, 0.46152776, 8.79472541809082, -4.292025566101074, 1.3416035175323486, -3.7821054458618164, 0.14080581068992615, 0.33410483598709106, -0.70654296875, 0.56689453125, -0.37841796875, 0, 
198, 274713974, 0.5964969, 0.1235656, -0.6450682, 0.46131358, 8.807373046875, -4.350810527801514, 1.3010234832763672, -2.6711676120758057, -0.6232402324676514, 0.16175702214241028, -0.702880859375, 0.56298828125, -0.38134765625, 0, 
199, 274730641, 0.59640193, 0.12373164, -0.64520824, 0.46119595, 8.844581604003906, -4.347885608673096, 1.346336841583252, -1.804254412651062, -0.8296017050743103, -0.23755136132240295, -0.705810546875, 0.56689453125, -0.375, 0, 
200, 274747308, 0.5963061, 0.123887025, -0.645383, 0.46103364, 8.817974090576172, -4.327919006347656, 1.4182555675506592, -2.302985191345215, -0.9217435121536255, -0.3461620509624481, -0.704345703125, 0.566162109375, -0.37744140625, 0, 
201, 274763975, 0.5962477, 0.12393798, -0.6455893, 0.4608068, 8.856976509094238, -4.343016624450684, 1.4028937816619873, -2.610568046569824, -0.8797642588615417, -0.1600729525089264, -0.704833984375, 0.566162109375, -0.377197265625, 0, 
202, 274780642, 0.5961546, 0.124093875, -0.64575404, 0.46065408, 8.86473274230957, -4.346956729888916, 1.3634508848190308, -1.7369571924209595, -1.1118152141571045, -0.25416120886802673, -0.704833984375, 0.566162109375, -0.37451171875, 0, 
203, 274797309, 0.5960464, 0.124424815, -0.6458407, 0.4605833, 8.832725524902344, -4.345693111419678, 1.3337966203689575, -0.4756854474544525, -1.3093786239624023, -0.720658004283905, -0.704833984375, 0.565185546875, -0.3779296875, 0, 
204, 274813976, 0.5959281, 0.12482138, -0.6458811, 0.4605726, 8.772200584411621, -4.320911407470703, 1.3582289218902588, -0.05855703353881836, -1.1776784658432007, -0.8196127414703369, -0.703857421875, 0.565185546875, -0.37890625, 0, 
205, 274830643, 0.5957826, 0.12512152, -0.64594024, 0.46059632, 8.771918296813965, -4.234828948974609, 1.4089040756225586, -0.2453504353761673, -1.0892119407653809, -0.13362784683704376, -0.703125, 0.564453125, -0.37744140625, 0, 
206, 274847310, 0.5956226, 0.12540899, -0.6459545, 0.4607052, 8.82118034362793, -4.216487884521484, 1.3653172254562378, 0.062430959194898605, -0.7771213054656982, 0.25934138894081116, -0.70703125, 0.5634765625, -0.377685546875, 0, 
207, 274863977, 0.5954882, 0.12565848, -0.645895, 0.46089435, 8.856481552124023, -4.346459865570068, 1.3674907684326172, 0.7056811451911926, -0.2875857949256897, 0.6486928462982178, -0.70654296875, 0.5615234375, -0.37890625, 0, 
208, 274880644, 0.59541255, 0.12570687, -0.6458153, 0.4610904, 8.843342781066895, -4.436245441436768, 1.399394154548645, -0.04087146744132042, 0.6848835945129395, 1.3672314882278442, -0.70654296875, 0.565185546875, -0.375, 0, 
209, 274897311, 0.5953162, 0.1258066, -0.6457149, 0.4613282, 8.810834884643555, -4.444122791290283, 1.4029160737991333, 0.7790358662605286, 0.3628166913986206, 1.4171507358551025, -0.704345703125, 0.56298828125, -0.37744140625, 0, 
210, 274913978, 0.5951276, 0.12627065, -0.6455049, 0.46173856, 8.89729118347168, -4.318043231964111, 1.2908748388290405, 3.2812812328338623, -0.5097503066062927, 0.6653666496276855, -0.7060546875, 0.56201171875, -0.37939453125, 0, 
211, 274930645, 0.5949366, 0.12696719, -0.64533955, 0.4620248, 8.917160034179688, -4.254964351654053, 1.1693100929260254, 3.4798951148986816, -1.5122188329696655, -0.8377082347869873, -0.705078125, 0.56298828125, -0.37890625, 0, 
212, 274947312, 0.59473115, 0.12773354, -0.6452877, 0.46215025, 8.941874504089355, -4.042159557342529, 1.1347150802612305, 2.7689766883850098, -2.4309465885162354, -1.6402055025100708, -0.704345703125, 0.56396484375, -0.376220703125, 0, 
213, 274963979, 0.59459996, 0.12827733, -0.64537305, 0.46204942, 8.922637939453125, -3.9354002475738525, 1.1899117231369019, 0.9880099296569824, -2.467111587524414, -1.577402949333191, -0.706787109375, 0.559814453125, -0.37841796875, 0, 
214, 274980646, 0.5944881, 0.12876001, -0.6454852, 0.46190214, 8.909195899963379, -4.038991928100586, 1.212178349494934, -0.3100097179412842, -1.9528721570968628, -1.6348906755447388, -0.7060546875, 0.560791015625, -0.37744140625, 0, 
215, 274997313, 0.5944308, 0.12913753, -0.6456828, 0.46159422, 8.848584175109863, -4.1837158203125, 1.2627973556518555, -1.5772238969802856, -1.964718222618103, -1.875240445137024, -0.707275390625, 0.55859375, -0.37841796875, 0, 
216, 275013980, 0.5942792, 0.12967648, -0.64600533, 0.4611869, 8.809229850769043, -4.231753349304199, 1.1614114046096802, -2.0334243774414062, -3.3091418743133545, -2.640009880065918, -0.70654296875, 0.561279296875, -0.3779296875, 0, 
217, 275030647, 0.5939563, 0.1305395, -0.6463623, 0.46085942, 8.857915878295898, -4.226430892944336, 1.1309540271759033, -0.05440777167677879, -5.293639183044434, -3.132721424102783, -0.70703125, 0.559326171875, -0.375, 0, 
218, 275047314, 0.5934344, 0.13180257, -0.6466932, 0.46070796, 8.896255493164062, -4.080296993255615, 1.1334388256072998, 2.6366100311279297, -7.179887294769287, -3.580162525177002, -0.7099609375, 0.5576171875, -0.377685546875, 0, 
219, 275063981, 0.59288734, 0.13304642, -0.64707077, 0.46052447, 8.953545570373535, -3.951127290725708, 1.0980838537216187, 2.162339448928833, -7.375004291534424, -3.5181162357330322, -0.711669921875, 0.55615234375, -0.372802734375, 0, 
220, 275080648, 0.5926901, 0.13356471, -0.6475228, 0.45999244, 9.084084510803223, -4.035719394683838, 1.2918879985809326, -2.752244710922241, -4.214345932006836, -2.7098042964935303, -0.71337890625, 0.556640625, -0.375, 0, 
221, 275097315, 0.5929, 0.1331221, -0.64799243, 0.45918852, 9.066704750061035, -4.306004047393799, 1.5721218585968018, -8.40234375, 0.35992249846458435, -0.8113912343978882, -0.71533203125, 0.55615234375, -0.373046875, 0, 
222, 275113982, 0.5932101, 0.13222677, -0.6483974, 0.45847434, 8.924171447753906, -4.612627029418945, 1.5881307125091553, -9.832674026489258, 2.612509250640869, 1.1827692985534668, -0.713134765625, 0.5576171875, -0.369384765625, 0, 
223, 275130649, 0.5934373, 0.1315092, -0.6486191, 0.4580729, 8.899328231811523, -4.681781768798828, 1.5375384092330933, -6.819159507751465, 2.5709776878356934, 1.7831950187683105, -0.71484375, 0.55712890625, -0.3681640625, 0, 
224, 275147316, 0.5935138, 0.1311566, -0.6485573, 0.45816237, 8.808298110961914, -4.737242221832275, 1.5571916103363037, -2.404193639755249, 2.479590892791748, 2.317411184310913, -0.7119140625, 0.5576171875, -0.369384765625, 0, 
225, 275163983, 0.59339535, 0.13108097, -0.64823747, 0.4587898, 8.75070571899414, -4.619038105010986, 1.6205708980560303, 2.24291729927063, 2.196084499359131, 3.6538443565368652, -0.709716796875, 0.558837890625, -0.37158203125, 0, 
226, 275180650, 0.593063, 0.13087068, -0.6477393, 0.4599814, 8.818866729736328, -4.486164569854736, 1.6098623275756836, 5.03842830657959, 2.8471338748931885, 7.061538219451904, -0.7109375, 0.558837890625, -0.372802734375, 0, 
227, 275197317, 0.59272707, 0.13014111, -0.64716333, 0.46143, 8.840616226196289, -4.5197882652282715, 1.6134014129638672, 4.106024742126465, 5.1111063957214355, 10.322152137756348, -0.708740234375, 0.55712890625, -0.375, 0, 
228, 275213984, 0.5926096, 0.12875013, -0.6465612, 0.46281302, 8.90058708190918, -4.654465675354004, 1.6662852764129639, 1.0656683444976807, 8.190114974975586, 12.273050308227539, -0.71044921875, 0.5625, -0.374267578125, 0, 
229, 275230651, 0.5928305, 0.12673971, -0.6457739, 0.46418238, 8.854673385620117, -4.847258567810059, 1.8548572063446045, -0.6982349157333374, 12.121171951293945, 13.797704696655273, -0.703857421875, 0.564453125, -0.376708984375, 0, 
230, 275247318, 0.5932624, 0.12398253, -0.6447545, 0.4657893, 8.887664794921875, -5.017343044281006, 2.087446451187134, -2.7398664951324463, 16.87432098388672, 17.099958419799805, -0.7021484375, 0.5673828125, -0.3828125, 0, 
231, 275263985, 0.59374684, 0.12071727, -0.643498, 0.46776354, 8.814961433410645, -5.100362300872803, 2.0313570499420166, -2.619936943054199, 20.07005500793457, 20.42245864868164, -0.6943359375, 0.573486328125, -0.38427734375, 0, 
232, 275280652, 0.59406674, 0.117605194, -0.6419505, 0.47026968, 8.800177574157715, -4.982735633850098, 1.8683662414550781, 1.6363749504089355, 20.338735580444336, 22.215282440185547, -0.689697265625, 0.5751953125, -0.390380859375, 0, 
233, 275297319, 0.5940335, 0.115260884, -0.6399503, 0.4736065, 8.761702537536621, -4.914506912231445, 1.7413336038589478, 9.613785743713379, 19.11647605895996, 22.873205184936523, -0.68359375, 0.580322265625, -0.3955078125, 0, 
234, 275313986, 0.5937482, 0.11356651, -0.637682, 0.47741765, 8.719533920288086, -4.72442626953125, 1.5757030248641968, 15.931976318359375, 17.08833122253418, 22.628673553466797, -0.67919921875, 0.5830078125, -0.40283203125, 0, 
235, 275330653, 0.593401, 0.111939296, -0.63542527, 0.48122728, 8.792132377624512, -4.484149932861328, 1.5359573364257812, 16.23276138305664, 16.547916412353516, 22.534393310546875, -0.673828125, 0.586181640625, -0.406982421875, 0, 
236, 275347320, 0.59314454, 0.110075384, -0.6333468, 0.4847009, 8.798125267028809, -4.30263614654541, 1.5478973388671875, 13.396062850952148, 16.607995986938477, 22.09284782409668, -0.669677734375, 0.58544921875, -0.414306640625, 0, 
237, 275363987, 0.5930211, 0.10808192, -0.63148373, 0.48772198, 8.71495532989502, -4.220447063446045, 1.5599753856658936, 9.863336563110352, 16.542224884033203, 20.49770736694336, -0.6640625, 0.589599609375, -0.416015625, 0, 
238, 275380654, 0.59311646, 0.10594936, -0.6297647, 0.49029, 8.651790618896484, -4.293242454528809, 1.6354541778564453, 6.97446870803833, 16.875478744506836, 18.715639114379883, -0.658203125, 0.589599609375, -0.424072265625, 0, 
239, 275397321, 0.59332764, 0.10354331, -0.62824506, 0.49249327, 8.602581024169922, -4.42301607131958, 1.762813925743103, 2.6692845821380615, 17.729251861572266, 18.001476287841797, -0.6533203125, 0.5927734375, -0.42919921875, 0, 
240, 275413988, 0.59374446, 0.10060513, -0.62691754, 0.49428833, 8.564864158630371, -4.614670753479004, 1.9502500295639038, -1.6681145429611206, 19.129018783569336, 18.170873641967773, -0.64892578125, 0.59912109375, -0.431884765625, 0, 
241, 275430655, 0.59432507, 0.09722103, -0.6257056, 0.49580103, 8.581496238708496, -4.825686454772949, 2.0689785480499268, -4.932821273803711, 20.516916275024414, 18.539587020874023, -0.642822265625, 0.60009765625, -0.4365234375, 0, 
242, 275447322, 0.5949566, 0.093774214, -0.624547, 0.49716616, 8.561582565307617, -4.985844135284424, 2.138364791870117, -6.414046764373779, 20.85999298095703, 17.98309898376465, -0.637939453125, 0.60693359375, -0.43994140625, 0, 
243, 275463989, 0.59561235, 0.09052189, -0.6232419, 0.49861944, 8.441912651062012, -5.09760046005249, 2.2251181602478027, -4.665961265563965, 20.89617919921875, 17.355134963989258, -0.634033203125, 0.6064453125, -0.43896484375, 0, 
244, 275480656, 0.596184, 0.08743686, -0.6216776, 0.50043637, 8.349365234375, -5.268224239349365, 2.3289835453033447, -1.3724409341812134, 21.18402671813965, 18.271879196166992, -0.629150390625, 0.611572265625, -0.4453125, 0, 
245, 275497323, 0.5967044, 0.084363684, -0.61978185, 0.5026898, 8.238748550415039, -5.373222351074219, 2.415274143218994, 1.8299434185028076, 22.467403411865234, 20.005489349365234, -0.62353515625, 0.615234375, -0.44921875, 0, 
246, 275513990, 0.5972263, 0.08122307, -0.6176533, 0.5052008, 8.238588333129883, -5.391251087188721, 2.578014373779297, 3.289578914642334, 23.905046463012695, 21.15543556213379, -0.614990234375, 0.61572265625, -0.45458984375, 0, 
247, 275530657, 0.59776425, 0.077922955, -0.6153845, 0.5078466, 8.272421836853027, -5.364862442016602, 2.628462553024292, 3.5668771266937256, 25.244977951049805, 22.205121994018555, -0.610595703125, 0.6220703125, -0.460693359375, 0, 
248, 275547324, 0.5982652, 0.07464681, -0.6128705, 0.51078033, 8.293042182922363, -5.5075554847717285, 2.6874191761016846, 5.928418159484863, 26.048702239990234, 23.323562622070312, -0.601806640625, 0.626708984375, -0.466552734375, 0, 
249, 275563991, 0.59882045, 0.07109833, -0.61029166, 0.5137154, 8.316506385803223, -5.604402542114258, 2.7555315494537354, 5.083926677703857, 27.446311950683594, 24.26317596435547, -0.59521484375, 0.628173828125, -0.473388671875, 0, 
250, 275580658, 0.59945554, 0.06743188, -0.6076486, 0.516594, 8.163195610046387, -5.60391902923584, 2.6686418056488037, 4.396275520324707, 28.535083770751953, 24.153257369995117, -0.587646484375, 0.628662109375, -0.475830078125, 0, 
251, 275597325, 0.6001002, 0.0638508, -0.6048854, 0.519535, 7.988083839416504, -5.628597736358643, 2.6968984603881836, 5.544139862060547, 28.723302841186523, 23.986440658569336, -0.580322265625, 0.635009765625, -0.481689453125, 0, 
252, 275613992, 0.6007077, 0.060154267, -0.60209006, 0.52251244, 7.870334625244141, -5.484104633331299, 2.723240613937378, 5.35767936706543, 29.123865127563477, 24.72663116455078, -0.572265625, 0.637939453125, -0.489501953125, 0, 
253, 275630659, 0.60132146, 0.05608667, -0.5993106, 0.525446, 7.862524509429932, -5.423956871032715, 2.842888832092285, 3.622424602508545, 30.37872886657715, 26.067461013793945, -0.56640625, 0.64013671875, -0.496826171875, 0, 
254, 275647326, 0.602042, 0.051526636, -0.5965527, 0.52821904, 7.777337551116943, -5.492119789123535, 2.964836835861206, 0.6411155462265015, 32.5661506652832, 26.994766235351562, -0.554443359375, 0.6435546875, -0.50390625, 0, 
255, 275663993, 0.60291874, 0.046337463, -0.59388775, 0.53069675, 7.674834251403809, -5.666863441467285, 3.094844341278076, -3.3990275859832764, 34.88092803955078, 27.874460220336914, -0.5458984375, 0.649169921875, -0.50634765625, 0, 
256, 275680660, 0.60369766, 0.04100542, -0.5912792, 0.5331574, 7.551853179931641, -5.815616607666016, 3.0789153575897217, -4.339352607727051, 34.835105895996094, 28.717981338500977, -0.53173828125, 0.655517578125, -0.513671875, 0, 
257, 275697327, 0.6043022, 0.035996526, -0.58849776, 0.5359045, 7.646914958953857, -5.879946708679199, 3.0962488651275635, -1.2225091457366943, 33.79611587524414, 29.1442813873291, -0.52685546875, 0.658447265625, -0.51708984375, 0, 
258, 275713994, 0.60494554, 0.031002317, -0.5855449, 0.538718, 7.704922199249268, -5.901792049407959, 3.285090684890747, -0.10239391028881073, 34.51129913330078, 29.22791290283203, -0.517578125, 0.66259765625, -0.52392578125, 0, 
259, 275730661, 0.6057191, 0.025639653, -0.58269554, 0.54121447, 7.681867599487305, -5.785882472991943, 3.440056562423706, -3.411400079727173, 35.97397232055664, 28.89322280883789, -0.50537109375, 0.6640625, -0.530517578125, 0, 
260, 275747328, 0.6066466, 0.019952701, -0.5799961, 0.5433108, 7.49147367477417, -5.779459476470947, 3.399793863296509, -6.84770393371582, 37.02039337158203, 28.026273727416992, -0.494384765625, 0.66845703125, -0.53466796875, 0, 
261, 275763995, 0.60763925, 0.014059639, -0.5773478, 0.54520303, 7.330819129943848, -5.871606826782227, 3.3741190433502197, -8.693846702575684, 37.785762786865234, 27.77814292907715, -0.480712890625, 0.672119140625, -0.53857421875, 0, 
262, 275780662, 0.60868883, 0.008047866, -0.57468784, 0.5469618, 7.163593292236328, -5.9444732666015625, 3.4697375297546387, -9.679327964782715, 38.494163513183594, 27.47810173034668, -0.474365234375, 0.68115234375, -0.5419921875, 0, 
263, 275797329, 0.609787, 0.0018851368, -0.57207614, 0.5485301, 7.069024085998535, -5.963021278381348, 3.6142055988311768, -11.369732856750488, 39.14678955078125, 27.042322158813477, -0.464599609375, 0.68505859375, -0.546142578125, 0, 
264, 275813996, 0.61095625, -0.004622507, -0.5695874, 0.5498012, 7.001098155975342, -5.97928524017334, 3.710035800933838, -14.358318328857422, 40.127479553222656, 26.92680549621582, -0.452392578125, 0.688720703125, -0.550537109375, 0, 
265, 275830663, 0.61212105, -0.011299228, -0.5670767, 0.5510029, 6.964417457580566, -6.173253059387207, 3.787325620651245, -15.278237342834473, 40.8592643737793, 27.307897567749023, -0.44189453125, 0.696533203125, -0.55419921875, 0, 
266, 275847330, 0.6133322, -0.017915344, -0.56430995, 0.5523196, 6.945883274078369, -6.429609298706055, 3.8356478214263916, -13.58475112915039, 41.8581428527832, 27.409099578857422, -0.43017578125, 0.698974609375, -0.5546875, 0, 
267, 275863997, 0.61456203, -0.024335274, -0.56128234, 0.55379003, 6.807717323303223, -6.732611656188965, 3.9164319038391113, -11.10934829711914, 42.21333312988281, 27.28201675415039, -0.41845703125, 0.707275390625, -0.55712890625, 0, 
268, 275880664, 0.6157759, -0.030421786, -0.5580416, 0.5554135, 6.7096848487854, -6.6820969581604, 4.038118362426758, -8.344966888427734, 41.80024337768555, 26.70121955871582, -0.40380859375, 0.7080078125, -0.564453125, 0, 
269, 275897331, 0.616971, -0.036341064, -0.5546464, 0.5571296, 6.589839458465576, -6.672005653381348, 4.088133811950684, -6.665884494781494, 41.693748474121094, 26.564144134521484, -0.394287109375, 0.71484375, -0.568603515625, 0, 
270, 275913998, 0.61812514, -0.04230799, -0.55111974, 0.5589261, 6.449371814727783, -6.76064395904541, 4.155040740966797, -6.092105388641357, 42.278018951416016, 27.25589370727539, -0.38232421875, 0.71826171875, -0.573974609375, 0, 
271, 275930665, 0.6192581, -0.04837594, -0.5474824, 0.5607516, 6.298821926116943, -6.830600738525391, 4.272871971130371, -5.967936992645264, 43.0225830078125, 27.879150390625, -0.3701171875, 0.720703125, -0.574462890625, 0, 
272, 275947332, 0.62037, -0.054580037, -0.5437918, 0.5625414, 6.246593952178955, -6.841891288757324, 4.297672748565674, -6.47310209274292, 43.6908073425293, 28.33451271057129, -0.355224609375, 0.72509765625, -0.58154296875, 0, 
273, 275963999, 0.6214194, -0.06088099, -0.5400975, 0.5642927, 6.093533515930176, -6.884668350219727, 4.259274005889893, -7.051931381225586, 43.87328338623047, 28.759450912475586, -0.34521484375, 0.7275390625, -0.585205078125, 0, 
274, 275980666, 0.62236416, -0.067281134, -0.53645116, 0.5660005, 6.0398030281066895, -6.966358184814453, 4.259199142456055, -7.541317939758301, 43.33012771606445, 29.522642135620117, -0.334228515625, 0.732177734375, -0.587890625, 0, 
275, 275997333, 0.6232037, -0.07359349, -0.53271025, 0.5678215, 5.949727535247803, -7.036284446716309, 4.335590362548828, -6.422671794891357, 42.94637680053711, 30.135597229003906, -0.318115234375, 0.73388671875, -0.589599609375, 0, 
276, 276014000, 0.62398034, -0.07986124, -0.5288725, 0.56970584, 5.846065044403076, -7.108343601226807, 4.411924362182617, -5.659584999084473, 42.93254470825195, 30.529253005981445, -0.304931640625, 0.739013671875, -0.594970703125, 0, 
277, 276030667, 0.62468994, -0.086075395, -0.52498275, 0.5716175, 5.662367820739746, -7.282450199127197, 4.475677967071533, -5.165920734405518, 42.68971252441406, 30.73655128479004, -0.29541015625, 0.742431640625, -0.596435546875, 0, 
278, 276047334, 0.62526315, -0.092091635, -0.52107996, 0.5736209, 5.5844621658325195, -7.206143856048584, 4.568568706512451, -4.012631893157959, 41.421878814697266, 30.95070457458496, -0.280029296875, 0.74267578125, -0.60107421875, 0, 
279, 276064001, 0.62567586, -0.098057516, -0.5171319, 0.57575095, 5.5808844566345215, -7.090070724487305, 4.605634689331055, -3.2694857120513916, 40.76418685913086, 31.969200134277344, -0.26416015625, 0.74609375, -0.604248046875, 0, 
280, 276080668, 0.6260342, -0.10419618, -0.51313853, 0.57785225, 5.5138163566589355, -7.118069171905518, 4.572417736053467, -3.973459243774414, 41.4720573425293, 32.70852279663086, -0.254150390625, 0.747314453125, -0.605224609375, 0, 
281, 276097335, 0.6263072, -0.11054107, -0.5092742, 0.57979286, 5.321133613586426, -7.249444007873535, 4.597445964813232, -6.0091776847839355, 41.55958557128906, 32.990360260009766, -0.23974609375, 0.754150390625, -0.6123046875, 0, 
282, 276114002, 0.62650806, -0.11685264, -0.5054554, 0.58167684, 5.241357326507568, -7.2828369140625, 4.645834445953369, -6.296899795532227, 41.0229377746582, 32.88471603393555, -0.2275390625, 0.75537109375, -0.61279296875, 0, 
283, 276130669, 0.6266639, -0.123080656, -0.50168693, 0.5834841, 5.19003438949585, -7.260444164276123, 4.73374080657959, -6.439982891082764, 40.38297653198242, 32.40473556518555, -0.212646484375, 0.757568359375, -0.615234375, 0, 
284, 276147336, 0.62677777, -0.12940072, -0.49799848, 0.585152, 5.105556011199951, -7.175581455230713, 4.751211166381836, -7.677550315856934, 40.38697814941406, 32.22707748413086, -0.200439453125, 0.760009765625, -0.6171875, 0, 
285, 276164003, 0.626855, -0.13583934, -0.49437827, 0.58667773, 4.926348686218262, -7.314439296722412, 4.800284385681152, -8.985898971557617, 40.578887939453125, 32.11341094970703, -0.1865234375, 0.763916015625, -0.617919921875, 0, 
286, 276180670, 0.6269311, -0.14219426, -0.49072364, 0.58815694, 4.682020664215088, -7.40582799911499, 4.822948455810547, -8.647473335266113, 40.43522262573242, 31.67066192626953, -0.169921875, 0.762451171875, -0.618408203125, 0, 
287, 276197337, 0.62697726, -0.14850089, -0.48700356, 0.5896395, 4.518288612365723, -7.426413059234619, 4.866768836975098, -8.195034980773926, 40.42301559448242, 31.70720100402832, -0.158935546875, 0.769775390625, -0.62060546875, 0, 
288, 276214004, 0.626942, -0.1550135, -0.48329353, 0.59105164, 4.456566333770752, -7.4177045822143555, 4.983277797698975, -9.445204734802246, 41.017120361328125, 32.413421630859375, -0.14208984375, 0.769775390625, -0.616943359375, 0, 
289, 276230671, 0.62683684, -0.16178632, -0.47965875, 0.59230775, 4.323434829711914, -7.501587390899658, 5.000056743621826, -11.470015525817871, 41.68760299682617, 32.81245803833008, -0.131103515625, 0.771728515625, -0.6201171875, 0, 
290, 276247338, 0.6266996, -0.16850992, -0.47600758, 0.5935225, 4.171447277069092, -7.660955429077148, 4.970377445220947, -11.367411613464355, 41.50124740600586, 32.621498107910156, -0.114990234375, 0.77490234375, -0.619140625, 0, 
291, 276264005, 0.6265007, -0.17503315, -0.47233286, 0.594779, 4.108222484588623, -7.64882230758667, 4.970409393310547, -10.34489917755127, 40.53873062133789, 32.42420196533203, -0.100341796875, 0.77734375, -0.617919921875, 0, 
292, 276280672, 0.6262989, -0.18143445, -0.46862492, 0.5960052, 3.949007511138916, -7.66727876663208, 4.9806742668151855, -9.78657054901123, 40.215999603271484, 31.951017379760742, -0.086181640625, 0.7763671875, -0.61962890625, 0, 
293, 276297339, 0.62600064, -0.18776904, -0.46503696, 0.59716576, 3.8378114700317383, -7.640733242034912, 4.974649906158447, -10.32306957244873, 39.20292663574219, 31.702117919921875, -0.071533203125, 0.78125, -0.617919921875, 0, 
294, 276314006, 0.6256385, -0.19405113, -0.4614992, 0.59828025, 3.794480562210083, -7.671919822692871, 4.928308486938477, -10.535297393798828, 38.631317138671875, 31.535335540771484, -0.059814453125, 0.783203125, -0.619140625, 0, 
295, 276330673, 0.6252204, -0.20039475, -0.4580515, 0.59927493, 3.7472853660583496, -7.680724143981934, 4.898938179016113, -11.626241683959961, 38.488468170166016, 31.331878662109375, -0.04541015625, 0.787109375, -0.61474609375, 0, 
296, 276347340, 0.62475604, -0.20684014, -0.45470262, 0.6001189, 3.6473991870880127, -7.726948261260986, 4.8821702003479, -13.008071899414062, 38.553409576416016, 31.066783905029297, -0.032470703125, 0.787353515625, -0.61474609375, 0, 
297, 276364007, 0.6242872, -0.21319579, -0.45136607, 0.60090107, 3.430917739868164, -7.8614726066589355, 4.878688335418701, -12.870683670043945, 38.2147216796875, 30.53072738647461, -0.020263671875, 0.78759765625, -0.614013671875, 0, 
298, 276380674, 0.6238136, -0.21927088, -0.44808877, 0.6016591, 3.206113338470459, -7.901575565338135, 4.902354717254639, -11.99107551574707, 36.83175277709961, 29.4930362701416, -0.007568359375, 0.789794921875, -0.611328125, 0, 
299, 276397341, 0.62332106, -0.22512083, -0.44485718, 0.60240674, 3.01444935798645, -7.852878570556641, 4.921048164367676, -11.272961616516113, 35.6669921875, 28.767282485961914, 0.003662109375, 0.793212890625, -0.610595703125, 0, 
300, 276414008, 0.62273586, -0.23097716, -0.44161823, 0.6031774, 2.9278030395507812, -7.962484836578369, 4.94057035446167, -11.340656280517578, 35.41064453125, 29.282718658447266, 0.019775390625, 0.792724609375, -0.6083984375, 0, 
301, 276430675, 0.6220294, -0.23691583, -0.43838042, 0.6039646, 2.833230495452881, -8.09876823425293, 4.948519706726074, -11.83877944946289, 35.35917282104492, 30.10433578491211, 0.0341796875, 0.79296875, -0.60791015625, 0, 
302, 276447342, 0.6212843, -0.2426862, -0.4350709, 0.60483277, 2.7385048866271973, -8.210748672485352, 4.946377277374268, -10.637504577636719, 34.72319030761719, 30.22287368774414, 0.04541015625, 0.794921875, -0.603515625, 0, 
303, 276464009, 0.6205586, -0.24801882, -0.4315738, 0.60591906, 2.632344961166382, -8.207579612731934, 4.860206604003906, -7.297796726226807, 33.40409469604492, 30.07811164855957, 0.058837890625, 0.792724609375, -0.600830078125, 0, 
304, 276480676, 0.6197784, -0.25309727, -0.42802018, 0.60713714, 2.5288734436035156, -8.137887001037598, 4.844017028808594, -5.6725287437438965, 32.20716094970703, 30.21227264404297, 0.066650390625, 0.796875, -0.602783203125, 0, 
305, 276497343, 0.61883366, -0.25820643, -0.4245507, 0.60838425, 2.4380381107330322, -8.146678924560547, 4.873129844665527, -6.35033655166626, 31.450010299682617, 30.969358444213867, 0.082275390625, 0.794189453125, -0.59912109375, 0, 
306, 276514010, 0.61773986, -0.26335296, -0.42110178, 0.60968524, 2.426748275756836, -8.237497329711914, 4.913474082946777, -6.696852684020996, 30.99587631225586, 31.898448944091797, 0.091796875, 0.795654296875, -0.5966796875, 0, 
307, 276530677, 0.61664146, -0.26843637, -0.41760463, 0.6109843, 2.350693464279175, -8.324972152709961, 5.017930507659912, -6.236717224121094, 30.93482780456543, 31.821903228759766, 0.10400390625, 0.794189453125, -0.59716796875, 0, 
308, 276547344, 0.61552817, -0.27331948, -0.4141361, 0.6123014, 2.1884207725524902, -8.336769104003906, 5.012180805206299, -5.4795732498168945, 29.90520477294922, 31.339984893798828, 0.1181640625, 0.79541015625, -0.598876953125, 0, 
309, 276564011, 0.61434597, -0.2781548, -0.41087875, 0.6135048, 2.096163272857666, -8.39011287689209, 5.02370023727417, -6.617101669311523, 28.83506202697754, 30.622121810913086, 0.130126953125, 0.79443359375, -0.59326171875, 0, 
310, 276580678, 0.61319494, -0.28282204, -0.40769204, 0.6146471, 1.9273333549499512, -8.39736270904541, 5.0517401695251465, -6.314124584197998, 28.041717529296875, 29.62965202331543, 0.140625, 0.793212890625, -0.59326171875, 0, 
311, 276597345, 0.61204684, -0.28738058, -0.40453354, 0.6157629, 1.8398445844650269, -8.319913864135742, 5.074376583099365, -6.039887428283691, 27.528560638427734, 29.15191650390625, 0.150634765625, 0.791748046875, -0.5888671875, 0, 
312, 276614012, 0.61086786, -0.29206192, -0.40147808, 0.6167299, 1.8105045557022095, -8.249054908752441, 5.091655254364014, -7.467560291290283, 27.831626892089844, 28.80016326904297, 0.162841796875, 0.79296875, -0.5859375, 0, 
313, 276630679, 0.60963964, -0.29688066, -0.398655, 0.6174753, 1.720700979232788, -8.185609817504883, 5.067185878753662, -9.740880012512207, 27.755172729492188, 27.999004364013672, 0.17626953125, 0.792236328125, -0.58642578125, 0, 
314, 276647346, 0.6084204, -0.30167502, -0.3959817, 0.618074, 1.573889970779419, -8.212895393371582, 4.949016094207764, -10.660981178283691, 27.355144500732422, 26.984575271606445, 0.182373046875, 0.789306640625, -0.581298828125, 0, 
315, 276664013, 0.60727865, -0.30633658, -0.39327022, 0.618635, 1.33881413936615, -8.40246295928955, 4.98602819442749, -9.883718490600586, 27.246578216552734, 26.223907470703125, 0.193603515625, 0.79052734375, -0.57958984375, 0, 
316, 276680680, 0.60615766, -0.31095567, -0.39054686, 0.61915517, 1.2457661628723145, -8.360941886901855, 5.042319297790527, -9.721882820129395, 27.26297950744629, 25.879133224487305, 0.205810546875, 0.7880859375, -0.576171875, 0, 
317, 276697347, 0.60498285, -0.3155092, -0.3878961, 0.61966664, 1.2401984930038452, -8.213695526123047, 5.015808582305908, -9.89577865600586, 26.560749053955078, 25.74550437927246, 0.213623046875, 0.79052734375, -0.5732421875, 0, 
318, 276714014, 0.60387737, -0.31990346, -0.3852065, 0.62016934, 1.1629396677017212, -8.341292381286621, 4.956966876983643, -8.944376945495605, 26.25307273864746, 25.080015182495117, 0.22607421875, 0.78955078125, -0.567138671875, 0, 
319, 276730681, 0.6028572, -0.32419187, -0.38245174, 0.6206399, 0.9662598967552185, -8.544812202453613, 4.934560775756836, -8.12455940246582, 26.376134872436523, 24.45435333251953, 0.234375, 0.78759765625, -0.567626953125, 0, 
320, 276747348, 0.60190415, -0.3283398, -0.3796533, 0.62110233, 0.8805568814277649, -8.533076286315918, 5.024286270141602, -7.225127220153809, 26.157512664794922, 23.865922927856445, 0.2421875, 0.785400390625, -0.564697265625, 0, 
321, 276764015, 0.6009441, -0.33263806, -0.3769041, 0.62141913, 0.8338595628738403, -8.426033020019531, 5.086183071136475, -8.452583312988281, 26.91172218322754, 23.57786750793457, 0.2529296875, 0.788330078125, -0.562255859375, 0, 
322, 276780682, 0.5999163, -0.33702964, -0.37426442, 0.6216416, 0.6732048392295837, -8.515312194824219, 5.033862113952637, -9.710991859436035, 26.90239906311035, 23.475940704345703, 0.263427734375, 0.786376953125, -0.556640625, 0, 
323, 276797349, 0.59899145, -0.34116662, -0.37147564, 0.6219491, 0.5744090676307678, -8.70410442352295, 4.966460704803467, -7.566160202026367, 26.50224494934082, 23.080270767211914, 0.271240234375, 0.78662109375, -0.554931640625, 0, 
324, 276814016, 0.5982116, -0.34497684, -0.36841387, 0.6224191, 0.42040324211120605, -8.732064247131348, 5.057373046875, -4.296144962310791, 26.22252082824707, 22.939573287963867, 0.27978515625, 0.782958984375, -0.55029296875, 0, 
325, 276830683, 0.59733385, -0.34887394, -0.36544234, 0.6228416, 0.29907581210136414, -8.529488563537598, 5.112900733947754, -5.3926167488098145, 26.091129302978516, 23.17169189453125, 0.2919921875, 0.779541015625, -0.54638671875, 0, 
326, 276847350, 0.59640235, -0.35273188, -0.36252126, 0.6232683, 0.28106263279914856, -8.53577709197998, 4.9667463302612305, -5.571036338806152, 25.574262619018555, 23.199378967285156, 0.2998046875, 0.779296875, -0.544677734375, 0, 
327, 276864017, 0.59557587, -0.35631472, -0.35946846, 0.62378854, 0.1721918284893036, -8.681297302246094, 4.880303382873535, -3.3919992446899414, 24.9750919342041, 22.77121353149414, 0.3076171875, 0.7763671875, -0.541259765625, 0, 
328, 276880684, 0.5947467, -0.3598884, -0.3564073, 0.6242845, -0.02595498412847519, -8.701892852783203, 4.972742080688477, -3.382535219192505, 25.02692222595215, 22.682851791381836, 0.315185546875, 0.775634765625, -0.5419921875, 0, 
329, 276897351, 0.593715, -0.36367145, -0.3535549, 0.62469584, -0.07292413711547852, -8.499707221984863, 4.955167770385742, -5.841723442077637, 24.7869815826416, 23.203266143798828, 0.325439453125, 0.775146484375, -0.536865234375, 0, 
330, 276914018, 0.59252757, -0.3676578, -0.3508515, 0.625014, -0.05766943469643593, -8.51761245727539, 4.909745216369629, -7.930782794952393, 24.90975570678711, 23.613847732543945, 0.334228515625, 0.772705078125, -0.53515625, 0, 
331, 276930685, 0.5913216, -0.37163347, -0.34818566, 0.6252958, -0.17208154499530792, -8.746670722961426, 4.883760452270508, -8.183798789978027, 24.762683868408203, 23.42765235900879, 0.342529296875, 0.768798828125, -0.533935546875, 0, 
332, 276947352, 0.5901786, -0.37538278, -0.34546357, 0.6256457, -0.2921201288700104, -8.779067039489746, 4.8543548583984375, -6.695769786834717, 23.998390197753906, 23.03926658630371, 0.353271484375, 0.76904296875, -0.526123046875, 0, 
333, 276964019, 0.58897966, -0.3791241, -0.3427793, 0.6259959, -0.34241658449172974, -8.654574394226074, 4.890252113342285, -6.966599464416504, 23.680917739868164, 23.167282104492188, 0.361572265625, 0.76708984375, -0.52490234375, 0, 
334, 276980686, 0.5876216, -0.38303888, -0.3402862, 0.6262491, -0.3460184335708618, -8.584549903869629, 4.885801315307617, -9.135660171508789, 23.53474998474121, 23.373109817504883, 0.37060546875, 0.765625, -0.519775390625, 0, 
335, 276997353, 0.58627284, -0.38684702, -0.33778822, 0.6265247, -0.4816661775112152, -8.739542961120605, 4.853821754455566, -8.608674049377441, 23.064544677734375, 23.192110061645508, 0.37744140625, 0.7626953125, -0.51513671875, 0, 
336, 277014020, 0.58502495, -0.39039227, -0.33519983, 0.6268824, -0.5591974854469299, -8.71359634399414, 4.766332626342773, -6.700133800506592, 22.31697654724121, 22.72197914123535, 0.387451171875, 0.762939453125, -0.51220703125, 0, 
337, 277030687, 0.58390945, -0.3936543, -0.33247933, 0.6273311, -0.5823559761047363, -8.56317138671875, 4.766334056854248, -4.424679756164551, 21.693069458007812, 22.223960876464844, 0.391845703125, 0.759765625, -0.511474609375, 0, 
338, 277047354, 0.5828269, -0.39673093, -0.32990277, 0.62775975, -0.5778289437294006, -8.404946327209473, 4.688382148742676, -4.257734775543213, 20.450986862182617, 21.192873001098633, 0.398681640625, 0.755126953125, -0.5068359375, 0, 
339, 277064021, 0.58176243, -0.399711, -0.32750422, 0.62811255, -0.668222963809967, -8.345829963684082, 4.653750419616699, -4.763406276702881, 19.575550079345703, 20.113828659057617, 0.40576171875, 0.75439453125, -0.50537109375, 0, 
340, 277080688, 0.58070993, -0.40273014, -0.3252929, 0.628307, -0.7920557856559753, -8.415165901184082, 4.673304557800293, -6.052803993225098, 19.462350845336914, 19.008251190185547, 0.414794921875, 0.7529296875, -0.502685546875, 0, 
341, 277097355, 0.5795838, -0.40599295, -0.3233856, 0.6282315, -0.8405227661132812, -8.38182258605957, 4.7331061363220215, -9.147286415100098, 19.88937759399414, 17.95751953125, 0.418701171875, 0.75244140625, -0.497802734375, 0, 
342, 277114022, 0.5783744, -0.40948883, -0.32166967, 0.6279583, -0.937552809715271, -8.448664665222168, 4.787124156951904, -11.578658103942871, 20.505908966064453, 17.51995849609375, 0.4287109375, 0.748779296875, -0.494384765625, 0, 
343, 277130689, 0.5772408, -0.41287032, -0.31993648, 0.6276725, -1.0793836116790771, -8.637125015258789, 4.739681720733643, -10.8684663772583, 20.290014266967773, 16.942258834838867, 0.434326171875, 0.74853515625, -0.491943359375, 0, 
344, 277147356, 0.57639515, -0.41568327, -0.31795168, 0.62760156, -1.1639165878295898, -8.592310905456543, 4.590073108673096, -6.2386088371276855, 18.860734939575195, 16.02007484436035, 0.440673828125, 0.75, -0.48828125, 0, 
345, 277164023, 0.5759458, -0.4177492, -0.31559256, 0.62783307, -1.2717411518096924, -8.551440238952637, 4.492708683013916, 0.13185440003871918, 17.1263484954834, 14.948277473449707, 0.4453125, 0.74560546875, -0.48095703125, 0, 
346, 277180690, 0.57578695, -0.41919866, -0.3130284, 0.6282962, -1.3408032655715942, -8.348501205444336, 4.404958724975586, 4.796088218688965, 15.245994567871094, 13.864468574523926, 0.45166015625, 0.7431640625, -0.481689453125, 0, 
347, 277197357, 0.57571995, -0.4204769, -0.31037125, 0.6288215, -1.4656028747558594, -8.225593566894531, 4.4411139488220215, 6.275543689727783, 14.89590835571289, 13.61269760131836, 0.457275390625, 0.740234375, -0.4853515625, 0, 
348, 277214024, 0.57549584, -0.42196345, -0.3079925, 0.6292003, -1.4637387990951538, -8.147795677185059, 4.455993175506592, 3.4807322025299072, 14.784502983093262, 13.349894523620605, 0.461669921875, 0.736328125, -0.4794921875, 0, 
349, 277230691, 0.57520944, -0.42359877, -0.30585477, 0.6294063, -1.421645998954773, -8.302939414978027, 4.476866722106934, 1.3001278638839722, 14.846944808959961, 12.549457550048828, 0.4638671875, 0.733154296875, -0.479736328125, 0, 
350, 277247358, 0.5749495, -0.4252271, -0.30392826, 0.629479, -1.5140546560287476, -8.440160751342773, 4.522489547729492, 0.21218867599964142, 14.427511215209961, 11.279974937438965, 0.470703125, 0.736083984375, -0.478271484375, 0, 
351, 277264025, 0.57465416, -0.4268447, -0.3022957, 0.6294402, -1.5816622972488403, -8.36190414428711, 4.563470363616943, -1.3537797927856445, 13.472640037536621, 10.11185359954834, 0.4755859375, 0.731201171875, -0.475830078125, 0, 
352, 277280692, 0.57432127, -0.42847237, -0.30090895, 0.6293024, -1.6259305477142334, -8.333182334899902, 4.491984844207764, -2.774146556854248, 12.761796951293945, 9.183353424072266, 0.4755859375, 0.73046875, -0.472900390625, 0, 
353, 277297359, 0.5739709, -0.43002534, -0.29978105, 0.62910104, -1.709639549255371, -8.338531494140625, 4.431171417236328, -3.7827107906341553, 11.57031536102295, 8.090250015258789, 0.4794921875, 0.728271484375, -0.475341796875, 0, 
354, 277314026, 0.5736681, -0.43138948, -0.2987773, 0.62892085, -1.806979775428772, -8.38632583618164, 4.415548801422119, -3.3876595497131348, 10.299141883850098, 7.2118611335754395, 0.480712890625, 0.73046875, -0.469970703125, 0, 
355, 277330693, 0.57340527, -0.43260032, -0.29785454, 0.6287665, -1.9140052795410156, -8.467496871948242, 4.409219741821289, -2.960874557495117, 9.322501182556152, 6.584118366241455, 0.4833984375, 0.728271484375, -0.47216796875, 0, 
356, 277347360, 0.5731763, -0.433663, -0.29711974, 0.6285909, -1.9266291856765747, -8.50539779663086, 4.440876483917236, -3.129828453063965, 8.072139739990234, 5.487714767456055, 0.4853515625, 0.728515625, -0.4658203125, 0, 
357, 277364027, 0.5729999, -0.4345651, -0.2965043, 0.6284196, -1.949469804763794, -8.436776161193848, 4.48486328125, -2.845257520675659, 7.000309467315674, 4.5922417640686035, 0.4873046875, 0.725830078125, -0.466552734375, 0, 
358, 277380694, 0.5727365, -0.43554562, -0.2960202, 0.628209, -2.0055062770843506, -8.473052978515625, 4.47733211517334, -4.06128454208374, 6.760254859924316, 4.578603744506836, 0.488525390625, 0.725830078125, -0.463134765625, 0, 
359, 277397361, 0.57243574, -0.4365104, -0.29564863, 0.62798834, -2.02866530418396, -8.570907592773438, 4.518713474273682, -4.618142604827881, 6.200733184814453, 4.328277587890625, 0.490966796875, 0.727783203125, -0.462646484375, 0, 
360, 277414028, 0.5721708, -0.43737796, -0.29532143, 0.62778026, -1.971450924873352, -8.560510635375977, 4.498370170593262, -4.293233394622803, 5.641992092132568, 3.8886871337890625, 0.4931640625, 0.724609375, -0.461181640625, 0, 
361, 277430695, 0.57201236, -0.4379641, -0.294986, 0.6276734, -1.9480935335159302, -8.512659072875977, 4.363976001739502, -2.624258041381836, 4.371742248535156, 3.2797064781188965, 0.496337890625, 0.7265625, -0.462890625, 0, 
362, 277447362, 0.57199335, -0.4381723, -0.294626, 0.62771463, -1.8841438293457031, -8.446101188659668, 4.30070686340332, -0.30834490060806274, 2.674452543258667, 2.5662007331848145, 0.49267578125, 0.7294921875, -0.461181640625, 0, 
363, 277464029, 0.57206947, -0.43816656, -0.29430872, 0.6277982, -1.8354182243347168, -8.41942310333252, 4.340734004974365, 0.7238789200782776, 1.6507898569107056, 1.7594133615493774, 0.494873046875, 0.7265625, -0.460693359375, 0, 
364, 277480696, 0.5721786, -0.4381196, -0.2941139, 0.6278228, -1.833182454109192, -8.380285263061523, 4.424319744110107, 0.3404824137687683, 1.2343016862869263, 0.9348507523536682, 0.495849609375, 0.7255859375, -0.460205078125, 0, 
365, 277497363, 0.5722588, -0.43817535, -0.29404372, 0.6277439, -1.8671998977661133, -8.4671630859375, 4.494146823883057, -0.8991274833679199, 1.4441848993301392, 0.48628273606300354, 0.498291015625, 0.72705078125, -0.459716796875, 0, 
366, 277514030, 0.5722902, -0.4383902, -0.29412812, 0.6275255, -1.8961011171340942, -8.513483047485352, 4.540808200836182, -2.621338129043579, 1.8442168235778809, 0.00509692681953311, 0.494873046875, 0.727294921875, -0.461669921875, 0, 
367, 277530697, 0.5722907, -0.43869606, -0.2943439, 0.62721014, -1.9257289171218872, -8.575533866882324, 4.61113166809082, -3.8364691734313965, 1.955747365951538, -0.454811155796051, 0.494873046875, 0.726806640625, -0.461669921875, 0, 
368, 277547364, 0.57227886, -0.43895084, -0.29465306, 0.62689763, -1.9405068159103394, -8.574864387512207, 4.570474147796631, -4.071132183074951, 1.3338323831558228, -0.7744319438934326, 0.494873046875, 0.7255859375, -0.458984375, 0, 
369, 277564031, 0.5723755, -0.43905255, -0.29487103, 0.6266355, -1.9243756532669067, -8.613626480102539, 4.565670967102051, -2.64811635017395, 1.0998094081878662, -1.0773918628692627, 0.4970703125, 0.724365234375, -0.459228515625, 0, 
370, 277580698, 0.5725289, -0.4390167, -0.29505405, 0.62643445, -1.9678223133087158, -8.65519905090332, 4.564681529998779, -1.6621681451797485, 0.5744800567626953, -1.252954125404358, 0.494873046875, 0.727294921875, -0.45947265625, 0, 
371, 277597365, 0.5727013, -0.43886575, -0.29522553, 0.62630194, -1.9701265096664429, -8.581758499145508, 4.563780307769775, -0.9641581773757935, -0.044610921293497086, -1.2633272409439087, 0.495361328125, 0.728759765625, -0.460205078125, 0, 
372, 277614032, 0.5728559, -0.43868297, -0.29547223, 0.6261723, -1.9528305530548096, -8.542204856872559, 4.556997776031494, -1.2111157178878784, -0.5179463624954224, -1.4698679447174072, 0.49267578125, 0.72900390625, -0.458251953125, 0, 
373, 277630699, 0.572999, -0.4384639, -0.2957887, 0.6260452, -1.9592095613479614, -8.54024887084961, 4.557191371917725, -1.4003679752349854, -0.9766314625740051, -1.6956952810287476, 0.494384765625, 0.7265625, -0.455810546875, 0, 
374, 277647366, 0.5731222, -0.4382045, -0.29614845, 0.6259441, -1.9741840362548828, -8.593839645385742, 4.56870174407959, -1.4361873865127563, -1.4424751996994019, -1.7196816205978394, 0.490966796875, 0.72998046875, -0.45947265625, 0, 
375, 277664033, 0.5732618, -0.43788463, -0.29653537, 0.625857, -1.9367516040802002, -8.600092887878418, 4.5520339012146, -1.239917278289795, -1.8631895780563354, -1.9195630550384521, 0.4931640625, 0.726806640625, -0.460693359375, 0, 
376, 277680700, 0.5733405, -0.43758535, -0.29701346, 0.6257675, -1.9089289903640747, -8.570435523986816, 4.57838249206543, -1.900635004043579, -2.1990742683410645, -1.9239680767059326, 0.49267578125, 0.73095703125, -0.45947265625, 0, 
377, 277697367, 0.5733631, -0.43738148, -0.297585, 0.6256177, -1.8831597566604614, -8.582403182983398, 4.561829090118408, -2.9727699756622314, -2.0626609325408936, -2.0192859172821045, 0.48974609375, 0.7294921875, -0.46142578125, 0, 
378, 277714034, 0.5733333, -0.43726316, -0.29821897, 0.625426, -1.8716901540756226, -8.614241600036621, 4.551085948944092, -3.8235983848571777, -1.9402070045471191, -1.9619519710540771, 0.48876953125, 0.7294921875, -0.458251953125, 0, 
379, 277730701, 0.573327, -0.43710864, -0.29878086, 0.62527156, -1.8906193971633911, -8.716127395629883, 4.577645778656006, -3.2240943908691406, -1.897958517074585, -1.7626979351043701, 0.48876953125, 0.731689453125, -0.4609375, 0, 
380, 277747368, 0.57333934, -0.43689352, -0.2993103, 0.6251576, -1.865095853805542, -8.705351829528809, 4.562527656555176, -2.707653522491455, -2.124720811843872, -1.704890251159668, 0.48779296875, 0.731689453125, -0.4580078125, 0, 
381, 277764035, 0.5734082, -0.43655723, -0.29977614, 0.6251062, -1.7612286806106567, -8.601166725158691, 4.5294013023376465, -1.6587488651275635, -2.4535109996795654, -1.764426827430725, 0.48828125, 0.73388671875, -0.46142578125, 0, 
382, 277780702, 0.5734593, -0.43630025, -0.30029005, 0.6249921, -1.7261966466903687, -8.58218002319336, 4.602186679840088, -2.362227439880371, -2.1257708072662354, -1.9249930381774902, 0.486328125, 0.735107421875, -0.455810546875, 0, 
383, 277797369, 0.5734567, -0.43611726, -0.300918, 0.6248202, -1.6813244819641113, -8.565831184387207, 4.536027431488037, -3.429547071456909, -2.099095344543457, -2.152420997619629, 0.485595703125, 0.73388671875, -0.460205078125, 0, 
384, 277814036, 0.57348824, -0.43590915, -0.3015873, 0.6246136, -1.6604466438293457, -8.58117961883545, 4.513859748840332, -3.4769301414489746, -2.1975245475769043, -2.6059062480926514, 0.485107421875, 0.7373046875, -0.458984375, 0, 
385, 277830703, 0.5735353, -0.4356885, -0.3022676, 0.6243957, -1.7070327997207642, -8.640643119812012, 4.520796298980713, -3.4528286457061768, -2.310925006866455, -2.7344565391540527, 0.482177734375, 0.735107421875, -0.461181640625, 0, 
386, 277847370, 0.57357824, -0.43551546, -0.30295864, 0.62414193, -1.7307963371276855, -8.626801490783691, 4.553720474243164, -3.7735254764556885, -2.048740863800049, -2.7890634536743164, 0.48291015625, 0.736328125, -0.457763671875, 0, 
387, 277864037, 0.573639, -0.43535998, -0.30354246, 0.62391096, -1.6837787628173828, -8.60303783416748, 4.589512825012207, -3.285590887069702, -1.574393391609192, -2.4199838638305664, 0.4833984375, 0.7333984375, -0.4580078125, 0, 
388, 277880704, 0.57369953, -0.43526462, -0.3040627, 0.6236684, -1.7242740392684937, -8.717264175415039, 4.603104114532471, -3.276754379272461, -1.010862946510315, -2.1547133922576904, 0.481201171875, 0.7373046875, -0.458984375, 0, 
389, 277897371, 0.5737807, -0.43505177, -0.30452743, 0.62351555, -1.7752131223678589, -8.789277076721191, 4.565759181976318, -2.331082344055176, -1.4637465476989746, -1.9931869506835938, 0.480224609375, 0.739990234375, -0.457763671875, 0, 
390, 277914038, 0.5739316, -0.4347248, -0.30486876, 0.6234381, -1.771039605140686, -8.745211601257324, 4.562453746795654, -0.9788726568222046, -1.7855702638626099, -1.7541050910949707, 0.480224609375, 0.739990234375, -0.458740234375, 0, 
391, 277930705, 0.57405066, -0.43438974, -0.30519885, 0.6234004, -1.6814301013946533, -8.632430076599121, 4.593903064727783, -0.9159421324729919, -1.8052150011062622, -1.5150487422943115, 0.478515625, 0.736328125, -0.458740234375, 0, 
392, 277947372, 0.57413894, -0.4340907, -0.3055141, 0.6233729, -1.6473443508148193, -8.667831420898438, 4.539047718048096, -1.0667496919631958, -1.7235873937606812, -1.2042900323867798, 0.47802734375, 0.738525390625, -0.45703125, 0, 
393, 277964039, 0.5742583, -0.43375158, -0.30576915, 0.6233739, -1.646599531173706, -8.708592414855957, 4.484737873077393, -0.5020152926445007, -1.6288331747055054, -1.149914264678955, 0.477783203125, 0.738037109375, -0.458740234375, 0, 
394, 277980706, 0.57430923, -0.43352613, -0.3060733, 0.6233344, -1.635526418685913, -8.672314643859863, 4.533559322357178, -1.4471880197525024, -1.410062313079834, -0.89765465259552, 0.47509765625, 0.74072265625, -0.45849609375, 0, 
395, 277997373, 0.57429075, -0.43345863, -0.30644745, 0.62321466, -1.593088150024414, -8.666084289550781, 4.529049396514893, -2.7433056831359863, -0.991973340511322, -0.7570409774780273, 0.477294921875, 0.738525390625, -0.458740234375, 0, 
396, 278014040, 0.5742529, -0.43340704, -0.30679023, 0.6231169, -1.5953699350357056, -8.762908935546875, 4.54164457321167, -2.6878161430358887, -0.8361330628395081, -0.48867112398147583, 0.4755859375, 0.7412109375, -0.459228515625, 0, 
397, 278030707, 0.57421565, -0.43327826, -0.30709627, 0.62308985, -1.6279326677322388, -8.81689453125, 4.558276653289795, -2.0807950496673584, -1.1348923444747925, -0.3064367473125458, 0.47509765625, 0.73974609375, -0.462890625, 0, 
398, 278047374, 0.5741981, -0.4331635, -0.30727425, 0.62309813, -1.6176105737686157, -8.755013465881348, 4.545368194580078, -1.441860318183899, -0.8129662275314331, 0.24572822451591492, 0.474609375, 0.73974609375, -0.45703125, 0, 
399, 278064041, 0.5741442, -0.43301126, -0.3074114, 0.6231858, -1.6109262704849243, -8.74112319946289, 4.51549768447876, -1.0846272706985474, -0.8097391128540039, 0.61374431848526, 0.476318359375, 0.741943359375, -0.460205078125, 0, 
400, 278080708, 0.5741305, -0.43281, -0.30747193, 0.62330836, -1.6161754131317139, -8.73645305633545, 4.479159832000732, -0.35977521538734436, -0.8545229434967041, 0.7613503336906433, 0.4755859375, 0.738037109375, -0.459228515625, 0, 
401, 278097375, 0.57414263, -0.43255422, -0.30744994, 0.6234855, -1.6268798112869263, -8.733381271362305, 4.477980136871338, 0.40405312180519104, -0.895784854888916, 1.0087690353393555, 0.475830078125, 0.740234375, -0.456298828125, 0, 
402, 278114042, 0.574154, -0.43238056, -0.30743343, 0.62360364, -1.6469396352767944, -8.675336837768555, 4.501698970794678, -0.05153915658593178, -0.743760883808136, 1.0970944166183472, 0.47607421875, 0.740234375, -0.4609375, 0, 
403, 278130709, 0.57406706, -0.43231568, -0.3075026, 0.6236944, -1.6497509479522705, -8.685827255249023, 4.511041164398193, -1.2127165794372559, -0.44104433059692383, 1.252691626548767, 0.473388671875, 0.740234375, -0.460205078125, 0, 
404, 278147376, 0.57393724, -0.43231443, -0.30758885, 0.62377226, -1.714393138885498, -8.760542869567871, 4.509757995605469, -1.6964634656906128, -0.25277814269065857, 1.454378604888916, 0.472900390625, 0.742431640625, -0.461181640625, 0, 
405, 278164043, 0.57382476, -0.43224, -0.3076356, 0.623904, -1.7561074495315552, -8.717735290527344, 4.516711711883545, -1.0789669752120972, -0.44573137164115906, 1.5134928226470947, 0.474609375, 0.738525390625, -0.45751953125, 0, 
406, 278180710, 0.57374966, -0.43219063, -0.30764621, 0.62400204, -1.7501684427261353, -8.717401504516602, 4.4989542961120605, -0.9812033176422119, -0.10938543826341629, 1.4207364320755005, 0.4716796875, 0.741943359375, -0.462890625, 0, 
407, 278197377, 0.57359177, -0.4321848, -0.30779776, 0.6240766, -1.7914799451828003, -8.714031219482422, 4.479033946990967, -2.064582109451294, -0.35394832491874695, 1.2537930011749268, 0.476806640625, 0.740234375, -0.4619140625, 0, 
408, 278214044, 0.5734653, -0.43213743, -0.30794325, 0.62415373, -1.8005952835083008, -8.701789855957031, 4.492286205291748, -1.7666937112808228, -0.617464542388916, 1.1311591863632202, 0.474609375, 0.74072265625, -0.459716796875, 0, 
409, 278230711, 0.5733028, -0.4321177, -0.30815384, 0.6242128, -1.8026714324951172, -8.645030975341797, 4.5257415771484375, -2.3293275833129883, -0.46948713064193726, 0.937834620475769, 0.4755859375, 0.74072265625, -0.460693359375, 0, 
410, 278247378, 0.5731209, -0.4322053, -0.30841973, 0.6241876, -1.805936574935913, -8.700898170471191, 4.49626350402832, -3.190798044204712, -0.4571162462234497, 0.9484125375747681, 0.472900390625, 0.740234375, -0.458984375, 0, 
411, 278264045, 0.5729821, -0.43224627, -0.30866152, 0.6241674, -1.8306140899658203, -8.748827934265137, 4.473330974578857, -2.76362943649292, -0.5062798857688904, 0.7636810541152954, 0.47607421875, 0.73974609375, -0.46142578125, 0, 
412, 278280712, 0.5728449, -0.43217012, -0.30890003, 0.624228, -1.8126652240753174, -8.701628684997559, 4.466738224029541, -2.140165328979492, -0.8711327910423279, 0.6711936593055725, 0.476806640625, 0.740234375, -0.459716796875, 0, 
413, 278297379, 0.5727884, -0.4320272, -0.30903283, 0.6243129, -1.7797439098358154, -8.665675163269043, 4.448347091674805, -1.1143893003463745, -0.9095901846885681, 0.7087801694869995, 0.4755859375, 0.741943359375, -0.46142578125, 0, 
414, 278314046, 0.5727448, -0.43190533, -0.30914286, 0.62438273, -1.7619091272354126, -8.641655921936035, 4.475286483764648, -1.090364694595337, -0.6763225793838501, 0.7146968245506287, 0.473388671875, 0.73974609375, -0.45751953125, 0, 
415, 278330713, 0.5727103, -0.43181768, -0.30922714, 0.62443316, -1.7441296577453613, -8.641883850097656, 4.420490741729736, -1.1228288412094116, -0.4856872260570526, 0.8043412566184998, 0.474609375, 0.744140625, -0.460205078125, 0, 
416, 278347380, 0.5726704, -0.43174168, -0.3093451, 0.62446386, -1.7350152730941772, -8.626214981079102, 4.424227237701416, -1.363472819328308, -0.5802493095397949, 0.7002896070480347, 0.472900390625, 0.74072265625, -0.461181640625, 0, 
417, 278364047, 0.5726639, -0.43164814, -0.3094847, 0.6244653, -1.7046048641204834, -8.619161605834961, 4.414210319519043, -1.3406776189804077, -0.5970000624656677, 0.3487169146537781, 0.474609375, 0.73974609375, -0.45703125, 0, 
418, 278380714, 0.57262075, -0.43144324, -0.30973554, 0.6245221, -1.747877597808838, -8.7081937789917, 4.440256118774414, -1.4330495595932007, -1.2378679513931274, -0.08279943466186523, 0.472412109375, 0.742431640625, -0.460693359375, 0, 
419, 278397381, 0.5725642, -0.43127793, -0.31012392, 0.6244954, -1.7450189590454102, -8.733969688415527, 4.4442524909973145, -2.3647758960723877, -1.6338533163070679, -0.5642157196998596, 0.474609375, 0.742919921875, -0.46240234375, 0, 
420, 278414048, 0.57252, -0.43106216, -0.31055045, 0.6244727, -1.7336618900299072, -8.750640869140625, 4.473715782165527, -2.279972553253174, -2.015226364135742, -0.8094830513000488, 0.4716796875, 0.7431640625, -0.462890625, 0, 
421, 278430715, 0.5725843, -0.43067914, -0.31082243, 0.62454265, -1.685310959815979, -8.744853973388672, 4.458639621734619, -0.4437592625617981, -2.094011068344116, -0.8427667617797852, 0.471923828125, 0.742431640625, -0.45947265625, 0, 
422, 278447382, 0.57270396, -0.43033695, -0.31097785, 0.6245916, -1.672725796699524, -8.730405807495117, 4.486056327819824, 0.03158045560121536, -1.5706923007965088, -0.6061437129974365, 0.47119140625, 0.741943359375, -0.460693359375, 0, 
423, 278464049, 0.57277554, -0.43000764, -0.31120983, 0.62463707, -1.66481351852417, -8.743221282958984, 4.4989399909973145, -0.5248746275901794, -1.6178196668624878, -0.7424928545951843, 0.470458984375, 0.73974609375, -0.46435546875, 0, 
424, 278480716, 0.5730092, -0.42965183, -0.31129655, 0.6246246, -1.6552995443344116, -8.755349159240723, 4.47316312789917, 0.6916324496269226, -1.7211538553237915, -0.8018118143081665, 0.470703125, 0.740478515625, -0.462158203125, 0, 
425, 278497383, 0.57319754, -0.4291086, -0.3113918, 0.6247776, -1.6496317386627197, -8.746623039245605, 4.4875969886779785, 1.4629716873168945, -1.8901082277297974, -0.9518126845359802, 0.4716796875, 0.74365234375, -0.461669921875, 0, 
426, 278514050, 0.5733622, -0.428622, -0.31152487, 0.6248942, -1.6483018398284912, -8.669041633605957, 4.492783069610596, 0.9085209369659424, -1.6850788593292236, -1.0143333673477173, 0.469482421875, 0.741455078125, -0.462646484375, 0, 
427, 278530717, 0.57349336, -0.42826733, -0.31168622, 0.6249364, -1.6445355415344238, -8.631314277648926, 4.4869842529296875, 0.03183658421039581, -1.2190684080123901, -0.9002159833908081, 0.46826171875, 0.7431640625, -0.46484375, 0, 
428, 278547384, 0.57359546, -0.42797267, -0.31188527, 0.6249452, -1.6171445846557617, -8.622446060180664, 4.450786113739014, -0.5190862417221069, -1.0901213884353638, -0.8799819946289062, 0.46923828125, 0.740966796875, -0.467041015625, 0, 
429, 278564051, 0.5736844, -0.42767447, -0.31207725, 0.6249718, -1.653396487236023, -8.728496551513672, 4.448159217834473, -0.49524080753326416, -0.9215769171714783, -0.844175398349762, 0.465087890625, 0.74267578125, -0.46533203125, 0, 
430, 278580718, 0.57380944, -0.427471, -0.31231076, 0.6248795, -1.6486588716506958, -8.684596061706543, 4.485419750213623, -1.110368013381958, -1.0376791954040527, -1.035630226135254, 0.466064453125, 0.7431640625, -0.46484375, 0, 
431, 278597385, 0.57387835, -0.42729366, -0.31256458, 0.6248104, -1.611865520477295, -8.652320861816406, 4.506625652313232, -1.4580988883972168, -0.8866924047470093, -0.8500662446022034, 0.466064453125, 0.74365234375, -0.464111328125, 0, 
432, 278614052, 0.5739443, -0.4271362, -0.31283095, 0.62472427, -1.6676942110061646, -8.721539497375488, 4.522212505340576, -1.630638837814331, -0.8855270743370056, -0.8648318648338318, 0.46728515625, 0.746337890625, -0.46533203125, 0, 
433, 278630719, 0.5740176, -0.42685914, -0.3131566, 0.6246831, -1.674606442451477, -8.807990074157715, 4.502131938934326, -1.28804349899292, -1.812834620475769, -1.123853325843811, 0.46728515625, 0.74267578125, -0.466552734375, 0, 
434, 278647386, 0.5741265, -0.42637357, -0.3134845, 0.62475026, -1.6887030601501465, -8.785524368286133, 4.496510982513428, -0.18103696405887604, -2.527339458465576, -1.4949939250946045, 0.464599609375, 0.74658203125, -0.46630859375, 0, 
435, 278664053, 0.57421315, -0.4258567, -0.31383932, 0.6248451, -1.639254093170166, -8.70178508758545, 4.497752666473389, -0.17083027958869934, -3.044370174407959, -1.3762022256851196, 0.46337890625, 0.743896484375, -0.466796875, 0, 
436, 278680720, 0.57419574, -0.4253405, -0.31443453, 0.6249133, -1.5858979225158691, -8.712984085083008, 4.516290664672852, -1.552494764328003, -4.200246334075928, -1.706862449645996, 0.461181640625, 0.74560546875, -0.464599609375, 0, 
437, 278697387, 0.57403105, -0.42468274, -0.31556258, 0.6249434, -1.5898325443267822, -8.902202606201172, 4.428015232086182, -3.839991331100464, -6.937182426452637, -3.1781461238861084, 0.46044921875, 0.74560546875, -0.46728515625, 0, 
438, 278714054, 0.57392573, -0.42384765, -0.3167959, 0.6249831, -1.5888234376907349, -8.825521469116211, 4.447210788726807, -3.3494317531585693, -8.242151260375977, -3.979799270629883, 0.458251953125, 0.747314453125, -0.46875, 0, 
439, 278730721, 0.57384044, -0.42299247, -0.31783864, 0.62511116, -1.4883053302764893, -8.602653503417969, 4.5782599449157715, -2.202033281326294, -7.753933906555176, -3.2199463844299316, 0.4560546875, 0.746826171875, -0.4697265625, 0, 
440, 278747388, 0.57346594, -0.42228624, -0.31936383, 0.6251551, -1.52178955078125, -8.70418643951416, 4.516113758087158, -5.916069030761719, -9.207801818847656, -3.472616672515869, 0.454345703125, 0.747314453125, -0.47021484375, 0, 
441, 278764055, 0.57286805, -0.4215382, -0.32166937, 0.6250258, -1.560362696647644, -9.055773735046387, 4.376147747039795, -10.154093742370605, -12.32800006866455, -5.605312824249268, 0.45263671875, 0.74853515625, -0.470703125, 0, 
442, 278780722, 0.57249516, -0.42024657, -0.3237849, 0.625145, -1.4370572566986084, -8.85138988494873, 4.397866725921631, -6.0187530517578125, -13.964587211608887, -6.320982933044434, 0.4462890625, 0.750732421875, -0.46923828125, 0, 
443, 278797389, 0.5722944, -0.41845256, -0.32549283, 0.62564534, -1.3813557624816895, -8.583173751831055, 4.438582420349121, -0.883811891078949, -15.670100212097168, -5.315005302429199, 0.445068359375, 0.753662109375, -0.470947265625, 0, 
444, 278814056, 0.5720151, -0.41675675, -0.32749656, 0.6259867, -1.3403236865997314, -8.743826866149902, 4.390660762786865, -3.0484201908111572, -16.66908836364746, -6.001862049102783, 0.441162109375, 0.753173828125, -0.473388671875, 0, 
445, 278830723, 0.57182723, -0.41501227, -0.32948422, 0.6262742, -1.2843316793441772, -8.7422513961792, 4.342397689819336, -2.6649210453033447, -16.26333236694336, -6.749561309814453, 0.440673828125, 0.753173828125, -0.472412109375, 0, 
446, 278847390, 0.5717711, -0.41318178, -0.3309488, 0.6267633, -1.2144280672073364, -8.433013916015625, 4.499205112457275, 0.5811654329299927, -14.001405715942383, -5.6123552322387695, 0.43505859375, 0.75341796875, -0.475341796875, 0, 
447, 278864057, 0.5716965, -0.41199744, -0.3322241, 0.62693626, -1.2011656761169434, -8.427331924438477, 4.580812454223633, -1.652282476425171, -10.973695755004883, -4.164069652557373, 0.4326171875, 0.756103515625, -0.47802734375, 0, 
448, 278880724, 0.5713261, -0.41143194, -0.33370182, 0.6268606, -1.2243809700012207, -8.70026683807373, 4.598548889160156, -6.530145645141602, -8.193116188049316, -3.4098522663116455, 0.430419921875, 0.7568359375, -0.476806640625, 0, 
449, 278897391, 0.5709356, -0.41118327, -0.33524713, 0.62655485, -1.200880527496338, -8.930312156677246, 4.590725898742676, -8.540334701538086, -7.098620414733887, -3.427640199661255, 0.42724609375, 0.758544921875, -0.478271484375, 0, 
450, 278914058, 0.5706885, -0.4106858, -0.33660835, 0.6263763, -1.1904057264328003, -8.914468765258789, 4.508377552032471, -6.114131927490234, -7.16320276260376, -3.7247605323791504, 0.428955078125, 0.759033203125, -0.476806640625, 0, 
451, 278930725, 0.5705707, -0.40975255, -0.33773, 0.62649083, -1.1445709466934204, -8.807570457458496, 4.471043586730957, -2.57768177986145, -7.4824628829956055, -3.968208074569702, 0.425048828125, 0.759521484375, -0.47607421875, 0, 
452, 278947392, 0.57059693, -0.4087601, -0.33867595, 0.62660474, -1.1280897855758667, -8.659899711608887, 4.423588752746582, -1.0956284999847412, -7.199098110198975, -4.025223255157471, 0.423828125, 0.7607421875, -0.4775390625, 0, 
453, 278964059, 0.5707109, -0.4078773, -0.33958885, 0.6265821, -1.1045347452163696, -8.53666877746582, 4.322289943695068, -1.3031039237976074, -6.74562406539917, -4.273139953613281, 0.41943359375, 0.76025390625, -0.47802734375, 0, 
454, 278980726, 0.57081014, -0.40715224, -0.3405811, 0.6264247, -1.0634225606918335, -8.563400268554688, 4.285445213317871, -2.571457862854004, -6.215198040008545, -4.511812210083008, 0.416015625, 0.761962890625, -0.481201171875, 0, 
455, 278997393, 0.57073444, -0.40665415, -0.34186226, 0.62611914, -1.077182412147522, -8.590642929077148, 4.229141712188721, -5.618781566619873, -5.919128894805908, -4.798418998718262, 0.416748046875, 0.766845703125, -0.48046875, 0, 
456, 279014060, 0.57062507, -0.40626445, -0.34336972, 0.62564677, -1.0010193586349487, -8.554022789001465, 4.284854412078857, -7.437591075897217, -6.347898960113525, -5.530379772186279, 0.416748046875, 0.766845703125, -0.4794921875, 0, 
457, 279030727, 0.5704216, -0.40582934, -0.34513155, 0.625145, -0.9117891788482666, -8.55195426940918, 4.2714338302612305, -8.891460418701172, -6.7817277908325195, -6.444101810455322, 0.41357421875, 0.767578125, -0.478271484375, 0, 
458, 279047394, 0.5701379, -0.40554214, -0.34710214, 0.6244987, -0.8867486119270325, -8.72830867767334, 4.322112083435059, -10.94406509399414, -6.712945461273193, -6.909101486206055, 0.41015625, 0.767578125, -0.476318359375, 0, 
459, 279064061, 0.5697088, -0.40550095, -0.34923553, 0.6237272, -0.9059241414070129, -8.880578994750977, 4.387572765350342, -13.301718711853027, -6.327847003936768, -6.62172794342041, 0.40869140625, 0.769287109375, -0.474609375, 0, 
460, 279080728, 0.56926215, -0.40563592, -0.35144106, 0.62280774, -0.9280492663383484, -9.007607460021973, 4.373189926147461, -14.462167739868164, -6.52003288269043, -6.4706130027771, 0.406005859375, 0.77197265625, -0.47021484375, 0, 
461, 279097395, 0.5688605, -0.4055094, -0.35346624, 0.6221108, -0.9088333249092102, -9.138494491577148, 4.382229804992676, -12.130650520324707, -6.98017692565918, -6.123687267303467, 0.404296875, 0.778076171875, -0.47216796875, 0, 
462, 279114062, 0.5685887, -0.40509012, -0.35521948, 0.62163365, -0.8588538765907288, -9.083612442016602, 4.429201126098633, -8.92907428741455, -7.396574020385742, -5.791694641113281, 0.400634765625, 0.778564453125, -0.4697265625, 0, 
463, 279130729, 0.56833005, -0.40443978, -0.35673353, 0.6214265, -0.8100985884666443, -9.038762092590332, 4.4020795822143555, -6.525087833404541, -7.310693264007568, -5.039754867553711, 0.39794921875, 0.77978515625, -0.46533203125, 0, 
464, 279147396, 0.56813025, -0.40385702, -0.35800874, 0.621255, -0.820122480392456, -9.106328010559082, 4.426855564117432, -5.458778381347656, -6.427694320678711, -4.18359899520874, 0.392822265625, 0.780029296875, -0.46826171875, 0, 
465, 279164063, 0.56789595, -0.40335396, -0.35913822, 0.62114394, -0.8138634562492371, -9.110876083374023, 4.414962291717529, -5.018059730529785, -5.936543941497803, -3.1091322898864746, 0.395263671875, 0.781982421875, -0.46728515625, 0, 
466, 279180730, 0.56778485, -0.40305448, -0.36009717, 0.62088454, -0.7809256911277771, -9.025130271911621, 4.389206886291504, -4.69566011428833, -5.38209342956543, -2.5731611251831055, 0.39453125, 0.784912109375, -0.468994140625, 0, 
467, 279197397, 0.56770635, -0.40290326, -0.36099127, 0.62053525, -0.7693667411804199, -8.937170028686523, 4.410994052886963, -4.970215320587158, -4.73807430267334, -2.2851204872131348, 0.390869140625, 0.78271484375, -0.467041015625, 0, 
468, 279214064, 0.5674411, -0.4027078, -0.3620304, 0.6202991, -0.7610622048377991, -8.858906745910645, 4.344334125518799, -6.145788192749023, -4.348877429962158, -2.317610502243042, 0.38916015625, 0.78173828125, -0.466064453125, 0, 
469, 279230731, 0.5671005, -0.40260613, -0.36316544, 0.620013, -0.7353119254112244, -8.8838529586792, 4.291040420532227, -7.337625503540039, -4.056662559509277, -2.345310926437378, 0.3916015625, 0.787109375, -0.462646484375, 0, 
470, 279247398, 0.56690705, -0.40262303, -0.36428687, 0.61952096, -0.7091616988182068, -8.878180503845215, 4.239663600921631, -7.51166296005249, -3.988340377807617, -2.9086880683898926, 0.388671875, 0.790283203125, -0.46630859375, 0, 
471, 279264065, 0.5668212, -0.4024513, -0.36538187, 0.6190658, -0.7078861594200134, -8.820063591003418, 4.191595077514648, -6.314537048339844, -4.22445011138916, -3.715846300125122, 0.385986328125, 0.791015625, -0.464599609375, 0, 
472, 279280732, 0.5667614, -0.40219793, -0.36654526, 0.6185974, -0.774474561214447, -8.851119995117188, 4.128327369689941, -6.238057613372803, -4.7808356285095215, -4.259681224822998, 0.382568359375, 0.787841796875, -0.464599609375, 0, 
473, 279297399, 0.5666536, -0.40178615, -0.36770773, 0.6182738, -0.7561389803886414, -8.832245826721191, 4.1243696212768555, -5.676307678222656, -4.8275532722473145, -4.317425727844238, 0.38232421875, 0.789306640625, -0.4599609375, 0, 
474, 279314066, 0.5665599, -0.40153876, -0.36888665, 0.6178183, -0.7462397813796997, -8.76591968536377, 4.146023750305176, -6.457226276397705, -4.728970527648926, -4.187593936920166, 0.38134765625, 0.792724609375, -0.45556640625, 0, 
475, 279330733, 0.56605023, -0.4012717, -0.3704173, 0.6175428, -0.6975646018981934, -8.754985809326172, 4.163227558135986, -9.537487983703613, -4.419261932373047, -4.043856143951416, 0.376220703125, 0.791748046875, -0.459716796875, 0, 
476, 279347400, 0.5656737, -0.40153342, -0.37211323, 0.61669743, -0.7211334705352783, -8.847359657287598, 4.077796459197998, -12.421622276306152, -4.110962390899658, -4.664120197296143, 0.379150390625, 0.797607421875, -0.45751953125, 0, 
477, 279364067, 0.5653726, -0.40194938, -0.37386522, 0.61564225, -0.6860325932502747, -8.918889999389648, 4.046225547790527, -13.383932113647461, -3.688673257827759, -5.285613059997559, 0.376953125, 0.796630859375, -0.45703125, 0, 
478, 279380734, 0.5649593, -0.402194, -0.37567437, 0.61476, -0.641248345375061, -8.923074722290039, 4.101192951202393, -13.34537410736084, -3.5177724361419678, -5.425241947174072, 0.376953125, 0.79931640625, -0.4521484375, 0, 
479, 279397401, 0.5644887, -0.40256807, -0.37758318, 0.61377704, -0.6325156092643738, -8.979628562927246, 4.105628490447998, -14.643515586853027, -3.4761009216308594, -5.443273067474365, 0.372802734375, 0.8037109375, -0.451904296875, 0, 
480, 279414068, 0.56399876, -0.4030851, -0.37964, 0.6126183, -0.6840952634811401, -9.011609077453613, 3.9869747161865234, -16.045570373535156, -3.929267406463623, -5.732492446899414, 0.373291015625, 0.8046875, -0.447509765625, 0, 
481, 279430735, 0.56352836, -0.40348923, -0.38183096, 0.61142224, -0.7088353037834167, -9.081757545471191, 3.9925923347473145, -16.145849227905273, -5.034060478210449, -6.5470685958862305, 0.368408203125, 0.804443359375, -0.446044921875, 0, 
482, 279447402, 0.5631965, -0.40346515, -0.38375425, 0.61053926, -0.5948441624641418, -9.001866340637207, 3.9778623580932617, -12.468649864196777, -5.181779384613037, -6.675795555114746, 0.36474609375, 0.809814453125, -0.44140625, 0, 
483, 279464069, 0.5631455, -0.40329993, -0.38526538, 0.609743, -0.5130089521408081, -9.005870819091797, 3.942239999771118, -8.92893123626709, -4.589433193206787, -6.449735641479492, 0.3642578125, 0.810302734375, -0.438720703125, 0, 
484, 279480736, 0.56307316, -0.40291163, -0.386672, 0.60917604, -0.5344132781028748, -9.127910614013672, 3.874269723892212, -7.553630828857422, -4.3184638023376465, -6.310210227966309, 0.362060546875, 0.810546875, -0.44140625, 0, 
485, 279497403, 0.5631228, -0.40268776, -0.3879548, 0.6084621, -0.5423429012298584, -9.236743927001953, 3.8551552295684814, -7.219523906707764, -3.951918363571167, -6.045821666717529, 0.360107421875, 0.81591796875, -0.436767578125, 0, 
486, 279514070, 0.563169, -0.40256566, -0.38912052, 0.6077553, -0.4411793053150177, -9.132923126220703, 3.9435341358184814, -7.082623481750488, -3.28543758392334, -5.381478786468506, 0.35791015625, 0.81494140625, -0.436767578125, 0, 
487, 279530737, 0.5630247, -0.4025058, -0.3903126, 0.6071642, -0.34200018644332886, -9.139642715454102, 3.953148126602173, -8.173930168151855, -2.2855050563812256, -4.608257293701172, 0.35498046875, 0.816650390625, -0.43603515625, 0, 
488, 279547404, 0.56284845, -0.40296993, -0.39154086, 0.60622805, -0.35319268703460693, -9.237276077270508, 3.9333841800689697, -10.918808937072754, -0.754403293132782, -4.020805835723877, 0.3525390625, 0.8193359375, -0.43310546875, 0, 
489, 279564071, 0.5626467, -0.4037733, -0.39274597, 0.60510015, -0.39619171619415283, -9.328893661499023, 3.928539752960205, -12.483016967773438, 0.46634355187416077, -3.4293441772460938, 0.35302734375, 0.8193359375, -0.4326171875, 0, 
490, 279580738, 0.56223524, -0.40443218, -0.3938892, 0.60429895, -0.3654232621192932, -9.371216773986816, 3.97411847114563, -12.304264068603516, 1.546470046043396, -2.480764150619507, 0.353759765625, 0.8203125, -0.426025390625, 0, 
491, 279597405, 0.56192344, -0.40526673, -0.3948412, 0.6034077, -0.3674222230911255, -9.297767639160156, 3.8879013061523438, -11.535624504089355, 1.5677924156188965, -1.6031315326690674, 0.352783203125, 0.82373046875, -0.427001953125, 0, 
492, 279614072, 0.561659, -0.40615365, -0.39569488, 0.6024978, -0.37775081396102905, -9.324108123779297, 3.797374725341797, -11.14733600616455, 2.076575994491577, -1.3448657989501953, 0.3515625, 0.822021484375, -0.423828125, 0, 
493, 279630739, 0.56137145, -0.4070928, -0.39654663, 0.60157126, -0.3677971363067627, -9.268438339233398, 3.6922593116760254, -11.275053977966309, 1.765330195426941, -0.9910901188850403, 0.349609375, 0.825927734375, -0.419189453125, 0, 
494, 279647406, 0.561002, -0.40765262, -0.39718416, 0.60111594, -0.3663487434387207, -9.360238075256348, 3.6709976196289062, -8.40183162689209, 1.060365915298462, 0.19338871538639069, 0.35302734375, 0.826904296875, -0.416015625, 0, 
495, 279664073, 0.56079686, -0.40825987, -0.39761364, 0.6006113, -0.28480565547943115, -9.362485885620117, 3.702477216720581, -7.013058662414551, 1.448654294013977, 0.40867626667022705, 0.349853515625, 0.826416015625, -0.413818359375, 0, 
496, 279680740, 0.5607483, -0.40843076, -0.39785358, 0.6003817, -0.3057273328304291, -9.155370712280273, 3.7382895946502686, -3.6572697162628174, 0.9558020830154419, -0.13066960871219635, 0.350341796875, 0.82861328125, -0.416015625, 0, 
497, 279697407, 0.5607601, -0.4086262, -0.39799002, 0.6001468, -0.2550712525844574, -9.196053504943848, 3.729919910430908, -2.9945788383483887, 1.1310311555862427, 0.13792438805103302, 0.35205078125, 0.82958984375, -0.41650390625, 0, 
498, 279714074, 0.5608152, -0.4091456, -0.39809301, 0.5996729, -0.1935245841741562, -9.250724792480469, 3.8004491329193115, -4.3851318359375, 2.626966714859009, 0.2688181400299072, 0.353759765625, 0.827880859375, -0.41552734375, 0, 
499, 279730741, 0.5608184, -0.40959877, -0.39809662, 0.59935796, -0.22362124919891357, -9.226027488708496, 3.766043186187744, -3.792185068130493, 3.2263808250427246, 0.8486896753311157, 0.35205078125, 0.827880859375, -0.413330078125, 0, 
500, 279747408, 0.5609478, -0.40999427, -0.39783487, 0.5991405, -0.2849465012550354, -9.322457313537598, 3.7206966876983643, -1.7566535472869873, 3.778424024581909, 1.3897068500518799, 0.353759765625, 0.827392578125, -0.408935546875, 0, 
501, 279764075, 0.56098527, -0.4100005, -0.39752242, 0.59930855, -0.281322181224823, -9.488236427307129, 3.7326037883758545, -0.25487834215164185, 3.9980392456054688, 1.3369060754776, 0.352783203125, 0.82958984375, -0.4111328125, 0, 
502, 279780742, 0.56138897, -0.41001448, -0.39690936, 0.5993272, -0.2826429009437561, -9.525787353515625, 3.713682174682617, 2.6229970455169678, 3.499284505844116, 1.1460787057876587, 0.353271484375, 0.826171875, -0.41162109375, 0, 
503, 279797409, 0.56204903, -0.40970325, -0.39588055, 0.59960175, -0.28803062438964844, -9.507545471191406, 3.6429147720336914, 7.133842468261719, 3.390763521194458, 1.489109754562378, 0.353759765625, 0.827392578125, -0.41455078125, 0, 
504, 279814076, 0.56288165, -0.40917617, -0.3944944, 0.600094, -0.3602443039417267, -9.532645225524902, 3.671532392501831, 10.795987129211426, 2.929044008255005, 2.3154656887054443, 0.3564453125, 0.82568359375, -0.416259765625, 0, 
505, 279830743, 0.56344724, -0.40858477, -0.39324874, 0.6007834, -0.3944617807865143, -9.409712791442871, 3.7255046367645264, 9.650279998779297, 2.621896266937256, 3.00423002243042, 0.356201171875, 0.8251953125, -0.420654296875, 0, 
506, 279847410, 0.5639363, -0.40802434, -0.3920985, 0.60145676, -0.3559826910495758, -9.175320625305176, 3.664533853530884, 8.963768005371094, 1.9787224531173706, 3.1706738471984863, 0.355224609375, 0.82568359375, -0.421630859375, 0, 
507, 279864077, 0.5644555, -0.40742588, -0.39093283, 0.6021339, -0.32704997062683105, -9.096189498901367, 3.6791188716888428, 9.085670471191406, 2.4991466999053955, 2.803194999694824, 0.35498046875, 0.8193359375, -0.4228515625, 0, 
508, 279880744, 0.56495833, -0.40701884, -0.3899173, 0.6025957, -0.38810354471206665, -9.172455787658691, 3.676443099975586, 7.1718645095825195, 3.0469768047332764, 2.211272716522217, 0.35546875, 0.82080078125, -0.42724609375, 0, 
509, 279897411, 0.56515163, -0.4069994, -0.38925925, 0.60285324, -0.43100684881210327, -9.193015098571777, 3.6796162128448486, 2.939838409423828, 2.514078378677368, 2.9256999492645264, 0.359375, 0.82080078125, -0.428466796875, 0, 
510, 279914078, 0.56506777, -0.40719846, -0.38887233, 0.60304683, -0.4018210470676422, -9.127208709716797, 3.7807812690734863, -0.0856296569108963, 2.1215896606445312, 3.532926082611084, 0.360595703125, 0.82080078125, -0.424072265625, 0, 
511, 279930745, 0.56511205, -0.40756008, -0.38863555, 0.6029136, -0.3626194894313812, -8.983469009399414, 3.8553054332733154, -1.4865930080413818, 2.3614652156829834, 2.093197822570801, 0.3603515625, 0.819091796875, -0.427490234375, 0, 
