sep=,
DeviceTag:,Xsens_3,,,,,,,,,,,,,,,,,
FirmwareVersion:,2.4.0,,,,,,,,,,,,,,,,,
AppVersion:,2022.0.1,,,,,,,,,,,,,,,,,
SyncStatus:,Synced,,,,,,,,,,,,,,,,,
OutputRate:,60Hz,,,,,,,,,,,,,,,,,
FilterProfile:,General,,,,,,,,,,,,,,,,,
Measurement Mode:,Sensor fusion Mode - Extended (Quaternion),,,,,,,,,,,,,,,,,
StartTime:,2020-11-25 11:08:09.690 +0100,,,,,,,,,,,,,,,,,
© Xsens Technologies B. V. 2005-2020,,,,,,,,,,,,,,,,,,,

PacketCounter,SampleTimeFine,Quat_W,Quat_X,Quat_Y,Quat_Z,FreeAcc_X,FreeAcc_Y,FreeAcc_Z,Status
1, 2054157243, -0.4075718, 0.65485835, 0.28069025, 0.5712127, 0.022775726, -0.06155969, 0.06315231, 0
2, 2054173910, -0.4067551, 0.6558568, 0.28111023, 0.57044226, -0.05249116, 0.040510774, 0.11148262, 0
3, 2054190577, -0.40614876, 0.65669304, 0.2815392, 0.56970006, 0.029657032, 0.054042637, 0.14385319, 0
4, 2054207244, -0.40552747, 0.65751475, 0.2818073, 0.56906205, 0.0076250606, -0.06770864, 0.07939339, 0
5, 2054223911, -0.40469512, 0.6584358, 0.28176355, 0.568611, -8.550488E-4, -0.046617456, 0.08929157, 0
6, 2054240578, -0.40388763, 0.6593288, 0.28156692, 0.56824756, 0.038839057, 0.05681923, 0.11057949, 0
7, 2054257245, -0.4032692, 0.66001993, 0.28145486, 0.56794024, -0.006786049, 0.09502712, 0.12648964, 0
8, 2054273912, -0.40284297, 0.6605296, 0.28139833, 0.56767803, 0.01724992, 0.0038451771, 0.12020874, 0
9, 2054290579, -0.4024534, 0.6609303, 0.2813014, 0.5675362, 0.05159413, -0.006489978, 0.12083912, 0
10, 2054307246, -0.40198022, 0.6613771, 0.281176, 0.567413, 0.13001677, -0.0081838155, 0.09492493, 0
11, 2054323913, -0.40152016, 0.66181153, 0.28116536, 0.56723756, 0.1986515, 0.06851208, 0.1441307, 0
12, 2054340580, -0.40137708, 0.66199887, 0.2814052, 0.567001, 0.1997245, 0.09153169, 0.17086029, 0
13, 2054357247, -0.40136594, 0.6620319, 0.2817824, 0.566783, 0.16074602, 0.039451797, 0.1384449, 0
14, 2054373914, -0.4013011, 0.66207224, 0.2819987, 0.5666744, 0.14673209, -0.030574895, 0.18942642, 0
15, 2054390581, -0.40090334, 0.66237414, 0.28175998, 0.5667218, 0.037564315, -0.11656094, 0.25923347, 0
16, 2054407248, -0.40006942, 0.66300625, 0.28101933, 0.5669395, 0.072690144, -0.05904444, 0.2942133, 0
18, 2054440582, -0.39877704, 0.6640738, 0.27993917, 0.5671351, 0.17273237, 0.07925264, 0.20655441, 0
20, 2054473916, -0.39823654, 0.66455364, 0.27964512, 0.5670978, 0.12210035, 0.033049267, 0.06395149, 0
23, 2054523917, -0.39778373, 0.664787, 0.2793753, 0.5672751, 0.09634669, -0.004146305, 0.12781811, 0
27, 2054590585, -0.3971065, 0.6652612, 0.2791127, 0.56732285, 0.18983513, 0.031419132, 0.021097183, 0
30, 2054640586, -0.3968436, 0.6654787, 0.27871838, 0.5674456, 0.015199154, 0.00906387, 0.13427639, 0
33, 2054690587, -0.3969046, 0.6653237, 0.27795982, 0.5679567, -0.012996789, 0.043635234, 0.059972763, 0
35, 2054723921, -0.39699042, 0.66517454, 0.2774341, 0.56832814, 0.0054206573, 0.08694897, 0.18346691, 0
38, 2054773922, -0.39788675, 0.66437244, 0.2768524, 0.56892294, -0.009510735, 0.095332995, 0.11371708, 0
41, 2054823923, -0.39887145, 0.66358674, 0.27632958, 0.56940454, 0.029332073, 0.026656462, 0.09850979, 0
43, 2054857257, -0.39932594, 0.66325784, 0.27549317, 0.5698743, 0.052542545, 0.036178533, 0.010859489, 0
46, 2054907258, -0.39977515, 0.66306734, 0.27456498, 0.5702289, -0.025044026, 0.08198483, 0.20474434, 0
49, 2054957259, -0.400307, 0.6626805, 0.2740639, 0.5705462, -0.053271756, 0.080859944, 0.10624313, 0
51, 2054990593, -0.40087688, 0.6622844, 0.2740414, 0.57061684, -0.053219683, 0.07693227, 0.07913494, 0
56, 2055073928, -0.40093383, 0.6624297, 0.2728175, 0.57099456, -0.0029523268, 0.10767949, 0.053297997, 0
58, 2055107262, -0.4013167, 0.6622156, 0.2731269, 0.57082593, 0.00444584, 0.19432853, 0.085541725, 0
61, 2055157263, -0.40274554, 0.6611174, 0.27457696, 0.5703968, 0.018585298, 0.14641836, 0.16753006, 0
64, 2055207264, -0.40485877, 0.6597686, 0.2762516, 0.5696533, -0.07236081, 0.08757852, 0.19630718, 0
66, 2055240598, -0.40613723, 0.65925014, 0.27675658, 0.5690981, 0.002267043, 0.05173688, 0.1688261, 0
69, 2055290599, -0.4078009, 0.6590486, 0.27663597, 0.56819993, 0.03235748, 0.00420087, 0.12537289, 0
72, 2055340600, -0.4088412, 0.65955085, 0.27582806, 0.5672616, 0.19709647, -0.097834244, 0.052931786, 0
74, 2055373934, -0.4092304, 0.66021085, 0.27599204, 0.56613225, 0.20177789, -0.0939195, 0.11068249, 0
77, 2055423935, -0.4100777, 0.66072685, 0.2773238, 0.5642632, 0.09789933, -0.19600639, 0.06705284, 0
80, 2055473936, -0.41028446, 0.6611414, 0.27785844, 0.56336373, 0.20488591, -0.16050896, 0.07634735, 0
84, 2055540604, -0.41058525, 0.6610408, 0.27861023, 0.562891, 0.09845782, -0.03068316, 0.15732479, 0
87, 2055590605, -0.41126624, 0.66057724, 0.27931, 0.56259125, 0.059167366, -0.025049042, 0.13173294, 0
89, 2055623939, -0.41147655, 0.6605155, 0.27918208, 0.5625735, 0.10193245, 0.18187423, 0.10308075, 0
92, 2055673940, -0.41274792, 0.6599622, 0.27975887, 0.56200475, 0.09960877, 0.0882929, 0.13183308, 0
95, 2055723941, -0.41464388, 0.6592057, 0.28106308, 0.56084514, 0.09394993, 0.092772625, 0.120453835, 0
97, 2055757275, -0.41619247, 0.6584531, 0.2822475, 0.55998653, 0.08860223, 0.056153078, 0.03623581, 0
100, 2055807276, -0.41828674, 0.657534, 0.2835197, 0.5588623, 0.025042161, 0.0030824952, 0.11001301, 0
103, 2055857277, -0.41956636, 0.6572748, 0.28368056, 0.5581258, 0.08366252, 0.0032525605, 0.07821369, 0
106, 2055907278, -0.42100132, 0.65670305, 0.28465658, 0.5572206, 0.082284525, -0.04819723, 0.094885826, 0
108, 2055940612, -0.42186087, 0.6562374, 0.28525004, 0.55681545, 0.018912563, -0.06666806, 0.072229385, 0
111, 2055990613, -0.42397004, 0.6545071, 0.28704095, 0.5563297, 0.091641515, 0.0954266, 0.086833, 0
114, 2056040614, -0.4264504, 0.65258294, 0.28956294, 0.5553864, 0.04717383, 0.05544778, 0.1125021, 0
116, 2056073948, -0.4279879, 0.6516308, 0.29099998, 0.5545701, -0.017964795, -0.014801461, 0.1251049, 0
119, 2056123949, -0.4295766, 0.6510004, 0.29250693, 0.5532878, 0.047117747, -0.012003163, 0.1299038, 0
122, 2056173950, -0.4305025, 0.65117276, 0.2932005, 0.5519965, 0.041321073, -0.027725454, 0.0402174, 0
124, 2056207284, -0.43058348, 0.6516735, 0.29303133, 0.5514322, 0.075097896, -0.057738468, 0.08032608, 0
127, 2056257285, -0.43038628, 0.65246844, 0.29278415, 0.550777, 0.10375992, -0.09151406, 0.17894363, 0
130, 2056307286, -0.4299605, 0.6531374, 0.29300302, 0.55019987, 0.120566495, -0.115521654, 0.22469807, 0
132, 2056340620, -0.42975873, 0.6532886, 0.2932878, 0.5500261, 0.13079584, -0.06248721, 0.1927681, 0
135, 2056390621, -0.42954987, 0.6531668, 0.29380608, 0.55005753, 0.1848913, -0.018059567, 0.13486195, 0
138, 2056440622, -0.42909276, 0.6531226, 0.29375836, 0.550492, 0.09963375, 0.06873119, 0.13191509, 0
141, 2056490623, -0.42846563, 0.6531577, 0.29302835, 0.55132735, 0.07774596, 0.06940755, 0.121053696, 0
143, 2056523957, -0.42798355, 0.65335864, 0.2922067, 0.5518996, 0.068820074, 0.10038436, 0.088685036, 0
146, 2056573958, -0.4275697, 0.6536634, 0.29135752, 0.5523082, -0.019395452, 0.11472975, 0.12160206, 0
149, 2056623959, -0.42749226, 0.6539165, 0.29050696, 0.55251664, 0.06221956, 0.081966735, 0.076031685, 0
151, 2056657293, -0.42747974, 0.65407276, 0.29021707, 0.55249345, 0.057256702, 0.12632522, 0.14082909, 0
154, 2056707294, -0.42779854, 0.65402305, 0.29013, 0.55235136, 0.06418224, -0.054948803, 0.15141964, 0
157, 2056757295, -0.42833984, 0.6536192, 0.2902109, 0.5523675, 0.030960113, -0.09237948, 0.13596725, 0
159, 2056790629, -0.42884487, 0.6530456, 0.29028124, 0.5526167, 0.03426855, -0.03603361, 0.15958595, 0
164, 2056873964, -0.42982218, 0.6512952, 0.29072386, 0.5536898, -0.068942055, 0.00904325, 0.18378735, 0
166, 2056907298, -0.43032712, 0.6504437, 0.291018, 0.55414385, -0.0449311, -0.021378875, 0.099196434, 0
169, 2056957299, -0.43058285, 0.6496656, 0.29098994, 0.55487216, 0.019463228, 0.15028134, 0.0015773773, 0
172, 2057007300, -0.43083176, 0.64913917, 0.29145443, 0.5550512, -0.022359692, 0.08156385, 0.07838917, 0
174, 2057040634, -0.43106857, 0.6487648, 0.29176944, 0.5551394, -0.041995764, 0.03993007, 0.0485487, 0
177, 2057090635, -0.4313229, 0.6483005, 0.29217422, 0.5552715, 0.04364639, 0.04263622, 0.14087105, 0
180, 2057140636, -0.43131632, 0.64801687, 0.29245475, 0.55545986, 0.11557523, 0.04800373, 0.12382889, 0
182, 2057173970, -0.43141603, 0.6477656, 0.29291594, 0.5554327, 0.09584072, -0.023271415, 0.1383543, 0
185, 2057223971, -0.4316679, 0.64731413, 0.29363614, 0.55538297, 0.0459906, 0.019087182, 0.13209915, 0
188, 2057273972, -0.43193564, 0.646896, 0.29371566, 0.5556201, 0.11133186, -0.0037875387, 0.13059711, 0
192, 2057340640, -0.43212953, 0.6464883, 0.29334933, 0.5561369, 0.0990843, -0.016551526, 0.08149719, 0
195, 2057390641, -0.4319689, 0.64648587, 0.29264593, 0.5566348, 0.07927822, -0.026618578, 0.105101585, 0
197, 2057423975, -0.4317901, 0.64650035, 0.2923052, 0.5569357, 0.09165378, -0.019685904, 0.09728432, 0
200, 2057473976, -0.43172187, 0.64627427, 0.29224616, 0.557282, -0.022786831, -0.07232389, 0.090189934, 0
203, 2057523977, -0.431473, 0.6461899, 0.29204172, 0.5576795, -0.053060994, 0.05153682, 0.1395998, 0
205, 2057557311, -0.43119764, 0.6462674, 0.29168212, 0.5579908, -0.06818163, -0.020034682, 0.116449356, 0
208, 2057607312, -0.43044335, 0.6468421, 0.2905417, 0.55850214, 0.0036815796, 0.07294691, 0.058944702, 0
211, 2057657313, -0.43010208, 0.6472935, 0.29030713, 0.55836385, -0.033847775, 0.053290155, 0.099814415, 0
214, 2057707314, -0.4296362, 0.64808154, 0.28973207, 0.55810696, 0.028253075, -0.006533577, 0.09896374, 0
216, 2057740648, -0.42882654, 0.64907837, 0.28868726, 0.5581129, 0.014591757, -0.007174724, 0.13715458, 0
220, 2057807316, -0.42769676, 0.6508293, 0.2877424, 0.5574281, 0.13978463, -0.0638914, 0.12088966, 0
223, 2057857317, -0.42639267, 0.6524169, 0.28717282, 0.5568649, 0.13577388, -0.070404656, 0.06528854, 0
226, 2057907318, -0.42576334, 0.6531361, 0.28736502, 0.55640376, 0.0641048, -0.051885124, 0.1324091, 0
228, 2057940652, -0.42563742, 0.6531829, 0.28754508, 0.556352, 0.05859506, -0.11184543, 0.16404152, 0
231, 2057990653, -0.42566505, 0.6528332, 0.28801095, 0.5565007, 0.043609954, -0.043486193, 0.20322418, 0
234, 2058040654, -0.4256852, 0.65220606, 0.28823727, 0.55710316, 0.06172153, 0.031220024, 0.14003277, 0
236, 2058073988, -0.4260946, 0.6513566, 0.28859887, 0.55759656, 0.05988651, -0.03300159, 0.08378315, 0
239, 2058123989, -0.42598814, 0.6506564, 0.28826052, 0.55866945, 0.12145757, 0.062408004, 0.11025715, 0
242, 2058173990, -0.42588294, 0.6503334, 0.28822294, 0.55914456, 0.11466979, 0.028185822, 0.14713001, 0
245, 2058223991, -0.42542833, 0.6505704, 0.28760022, 0.5595356, 0.06595982, 0.070455946, 0.14475346, 0
247, 2058257325, -0.4253288, 0.6506418, 0.2871521, 0.5597584, 0.13029708, 0.066524245, 0.11632061, 0
250, 2058307326, -0.4253129, 0.6506571, 0.2865092, 0.5600821, 0.08512504, 0.096697964, 0.09855747, 0
253, 2058357327, -0.425557, 0.65045184, 0.28586525, 0.5604641, 0.076880924, 0.021790557, 0.06034088, 0
255, 2058390661, -0.42575184, 0.6503099, 0.28527495, 0.56078136, 0.048511185, 0.008875979, 0.056415558, 0
258, 2058440662, -0.42581028, 0.65024865, 0.28433132, 0.56128705, 0.084887035, 0.013441105, 0.1069746, 0
261, 2058490663, -0.42619407, 0.6499233, 0.28422856, 0.56142473, 0.021235509, 0.07817598, 0.1696701, 0
263, 2058523997, -0.42667538, 0.64940584, 0.2843367, 0.56160307, -0.07661755, -0.02966978, 0.07557678, 0
266, 2058573998, -0.42695415, 0.6487818, 0.2840951, 0.5622343, -0.022408636, 0.06629158, 0.09339619, 0
269, 2058623999, -0.42753974, 0.6481305, 0.284509, 0.5623314, -0.00913018, 0.056999, 0.085329056, 0
272, 2058674000, -0.4276355, 0.64814293, 0.28431833, 0.5623406, -0.0015678211, -0.009644304, 0.10970497, 0
274, 2058707334, -0.42767406, 0.64832634, 0.28423786, 0.56214046, 0.030976873, 0.03620861, 0.115094185, 0
277, 2058757335, -0.4278563, 0.64856195, 0.28473088, 0.56148016, 0.026412355, 0.040366832, 0.1071825, 0
280, 2058807336, -0.42779756, 0.6487855, 0.28494537, 0.56115776, 0.10741751, 0.0019379272, 0.07017326, 0
282, 2058840670, -0.42792135, 0.64878917, 0.2853515, 0.5608527, 0.07716192, 0.040859774, 0.11977768, 0
285, 2058890671, -0.42805266, 0.64880806, 0.28619507, 0.56030047, 0.13466524, 0.007478031, 0.12653351, 0
288, 2058940672, -0.42758733, 0.6492759, 0.2868584, 0.5597744, 0.13645416, 0.052978788, 0.18299103, 0
290, 2058974006, -0.42790186, 0.6491467, 0.2880193, 0.5590874, 0.017826125, -0.022645103, 0.10360527, 0
293, 2059024007, -0.42780033, 0.64920676, 0.28832787, 0.5589362, 0.09046748, -0.016293243, 0.08195877, 0
296, 2059074008, -0.4281189, 0.6489154, 0.28864914, 0.55886483, 0.08604108, 0.003778277, 0.14459038, 0
300, 2059140676, -0.42864725, 0.64844495, 0.28876776, 0.5589444, 0.06182302, 0.042538986, 0.13286686, 0
303, 2059190677, -0.42936668, 0.6479454, 0.2889483, 0.55887854, 0.0514794, 0.04033202, 0.13401604, 0
305, 2059224011, -0.42983234, 0.64758414, 0.2888862, 0.5589713, 0.051676773, -0.009557609, 0.09475517, 0
308, 2059274012, -0.43036744, 0.64723116, 0.28886607, 0.5589789, 0.054521337, 0.0012929386, 0.11915493, 0
311, 2059324013, -0.43077078, 0.6469542, 0.2888309, 0.55900705, 0.017546315, -2.3048377E-4, 0.110256195, 0
313, 2059357347, -0.43076757, 0.6470022, 0.2884619, 0.5591444, 0.047884822, -0.010471401, 0.12443924, 0
316, 2059407348, -0.43082932, 0.64697874, 0.28830236, 0.5592061, 0.047591813, -0.043814126, 0.07362747, 0
319, 2059457349, -0.43101802, 0.646799, 0.28816122, 0.5593414, 0.06950778, 0.014067444, 0.121180534, 0
322, 2059507350, -0.43060547, 0.6469057, 0.2873672, 0.55994403, 0.06903733, 0.04884589, 0.15321064, 0
324, 2059540684, -0.43068188, 0.646709, 0.28749588, 0.5600464, 0.024384066, -0.011690747, 0.09433365, 0
328, 2059607352, -0.42996335, 0.64700127, 0.28662384, 0.5607074, 0.11395741, 0.026865056, 0.16632652, 0
331, 2059657353, -0.42971817, 0.6468626, 0.28665692, 0.5610382, 0.041829456, 0.017697839, 0.117702484, 0
334, 2059707354, -0.42979378, 0.64628106, 0.28646165, 0.56175, 0.060476754, 0.122191764, 0.08957672, 0
336, 2059740688, -0.43014508, 0.645601, 0.28648907, 0.5622489, 0.027853444, 0.048892118, 0.10236263, 0
339, 2059790689, -0.43050992, 0.6449165, 0.28646743, 0.5627661, -0.010187857, 0.09788311, 0.09180069, 0
342, 2059840690, -0.4309077, 0.64439195, 0.28646317, 0.56306463, -0.0020622178, 0.06909582, 0.071647644, 0
344, 2059874024, -0.43083924, 0.6443369, 0.286058, 0.5633856, 0.023640392, 0.11073816, 0.043777466, 0
347, 2059924025, -0.43121666, 0.6441424, 0.28610933, 0.5632933, -0.013508432, 0.017185645, 0.07024193, 0
350, 2059974026, -0.43122202, 0.64438194, 0.2859841, 0.56307876, -0.03244903, -2.4502608E-4, 0.06862354, 0
353, 2060024027, -0.4310895, 0.6448235, 0.28593916, 0.5626976, 0.03868516, 0.016474707, 0.10184288, 0
357, 2060090695, -0.43083844, 0.6453918, 0.28633827, 0.56203485, 0.0027772568, -0.038789373, 0.1871748, 0
359, 2060124029, -0.43062118, 0.64559394, 0.28654793, 0.56186223, 0.06250451, -0.024058111, 0.13314152, 0
362, 2060174030, -0.43041602, 0.6456659, 0.28714347, 0.56163293, 0.10933751, 0.01000884, 0.11770153, 0
365, 2060224031, -0.4302637, 0.645613, 0.28752154, 0.56161696, 0.13496716, -0.0014191397, 0.1102438, 0
367, 2060257365, -0.4301111, 0.6455663, 0.28762817, 0.56173265, 0.09943874, 0.012268431, 0.124863625, 0
370, 2060307366, -0.43009382, 0.6453409, 0.28770226, 0.56196713, 0.08292813, 0.003738338, 0.17722225, 0
373, 2060357367, -0.4300456, 0.6451243, 0.2874707, 0.5623711, 0.0740353, 0.012341379, 0.12103081, 0
375, 2060390701, -0.43015915, 0.64481926, 0.28728232, 0.5627302, 0.08641259, -0.008622124, 0.12965775, 0
378, 2060440702, -0.43032023, 0.64428234, 0.2869385, 0.56339705, 0.049016457, 0.018769877, 0.14379787, 0
381, 2060490703, -0.4305147, 0.64364874, 0.28647316, 0.56420875, 0.035890993, 0.025553608, 0.12280464, 0
384, 2060540704, -0.43064272, 0.6430501, 0.2859902, 0.56503814, 0.022064725, 0.016705176, 0.1270771, 0
386, 2060574038, -0.4306521, 0.64281046, 0.28584766, 0.5653758, 0.03676782, 0.026182419, 0.12348175, 0
389, 2060624039, -0.43071917, 0.6425757, 0.28617877, 0.56542397, -0.021000108, 0.013759374, 0.083911896, 0
392, 2060674040, -0.43047082, 0.6426358, 0.28603855, 0.5656158, 0.07826473, 0.0313929, 0.1033535, 0
394, 2060707374, -0.43030483, 0.6426964, 0.28601897, 0.5656832, 0.037207108, 0.022681214, 0.11563587, 0
397, 2060757375, -0.4303724, 0.6425472, 0.28612316, 0.5657485, 0.06959658, -0.010393031, 0.11734772, 0
400, 2060807376, -0.43029934, 0.6425515, 0.28600305, 0.5658599, 0.08056269, -0.01124442, 0.09379959, 0
402, 2060840710, -0.43020055, 0.64263004, 0.28590816, 0.5658937, 0.060185265, 0.043538354, 0.11034489, 0
405, 2060890711, -0.43021864, 0.6426474, 0.28577834, 0.56592584, 0.054903023, -0.016341563, 0.087332726, 0
408, 2060940712, -0.42992398, 0.6429158, 0.28544044, 0.5660156, 0.06607711, 0.048285533, 0.14250183, 0
411, 2060990713, -0.42973703, 0.6430496, 0.28525877, 0.56609714, 0.070602335, 0.01793971, 0.093315125, 0
413, 2061024047, -0.42967212, 0.6430804, 0.28522232, 0.5661297, 0.053514007, -0.011180481, 0.06819725, 0
416, 2061074048, -0.42947084, 0.64325035, 0.28489855, 0.5662524, 0.07805962, 0.028042369, 0.10331631, 0
419, 2061124049, -0.4290512, 0.6435555, 0.28431058, 0.5665192, 0.05716037, -0.010034069, 0.18352985, 0
421, 2061157383, -0.42885387, 0.6436725, 0.28401864, 0.5666821, 0.0445412, -0.042316742, 0.12297821, 0
424, 2061207384, -0.42836952, 0.6439544, 0.28333175, 0.5670721, 0.024308793, -0.036988307, 0.110217094, 0
427, 2061257385, -0.42803803, 0.64399797, 0.28283316, 0.5675215, 0.05216537, -0.010698825, 0.10415459, 0
430, 2061307386, -0.42777178, 0.643941, 0.2826159, 0.56789494, 0.061912753, -0.007880815, 0.14038754, 0
432, 2061340720, -0.42752337, 0.64392793, 0.2825591, 0.5681251, 0.030129973, 0.020186042, 0.14172935, 0
436, 2061407388, -0.42693487, 0.6439823, 0.28242904, 0.5685705, 0.026896715, 0.06736948, 0.14159584, 0
439, 2061457389, -0.42647943, 0.64413005, 0.28209245, 0.5689121, 0.055504594, 0.041270185, 0.12699509, 0
442, 2061507390, -0.4260828, 0.64434826, 0.28153932, 0.569236, 0.041643776, 0.060545973, 0.11291027, 0
444, 2061540724, -0.42587957, 0.64451337, 0.281219, 0.56935936, 0.070164196, 0.034988634, 0.11484146, 0
447, 2061590725, -0.42577997, 0.64470613, 0.2807238, 0.56946, 0.044519633, 0.002834689, 0.1168232, 0
450, 2061640726, -0.42571864, 0.644931, 0.28018928, 0.56951445, 0.06523191, 0.0046576466, 0.119895935, 0
452, 2061674060, -0.42574212, 0.64504856, 0.27992493, 0.5694938, 0.035565425, -0.0055192052, 0.1257143, 0
455, 2061724061, -0.42577735, 0.64523315, 0.2796394, 0.5693986, 0.042178318, -0.0023851765, 0.096998215, 0
458, 2061774062, -0.42586637, 0.6454305, 0.27953315, 0.56916046, 0.052801464, 0.018423796, 0.09870243, 0
461, 2061824063, -0.42610815, 0.64561594, 0.28022718, 0.5684274, 0.08718117, -0.06800941, 0.090447426, 0
465, 2061890731, -0.42547655, 0.64673966, 0.2821766, 0.5666562, 0.14969896, -0.035060145, 0.035313606, 0
467, 2061924065, -0.4247156, 0.64771724, 0.28422028, 0.5650867, 0.10125899, -0.002446922, 0.045116425, 0
470, 2061974066, -0.42348894, 0.64924836, 0.28863895, 0.5620022, -0.065821186, -0.03753685, 0.13966179, 0
473, 2062024067, -0.4223583, 0.65059924, 0.29107183, 0.56003255, -0.2687466, -0.02185321, 0.18970776, 0
475, 2062057401, -0.4222359, 0.65057415, 0.29066846, 0.5603635, -0.118058555, -0.03265291, 0.041749, 0
478, 2062107402, -0.42238602, 0.65002525, 0.28942144, 0.56153154, 0.24700484, -0.065644555, 0.13862419, 0
481, 2062157403, -0.42184904, 0.650119, 0.2895163, 0.5617778, 0.23560853, 0.015215477, 0.2277937, 0
483, 2062190737, -0.42163864, 0.6500138, 0.290618, 0.56148833, 0.055789504, -0.1618269, 0.13948345, 0
486, 2062240738, -0.42116106, 0.64996076, 0.29198, 0.5612014, 0.074292466, -0.18277773, -0.013110161, 0
489, 2062290739, -0.41988793, 0.6506249, 0.29259714, 0.56106466, 0.05478639, -0.09388093, 0.018862724, 0
493, 2062357407, -0.41814858, 0.6515585, 0.292473, 0.5613447, -0.022682793, -0.07592784, 0.1345377, 0
496, 2062407408, -0.41691178, 0.65199244, 0.29195005, 0.5620327, 0.0540023, 0.05975943, 0.14529133, 0
498, 2062440742, -0.41653442, 0.65190774, 0.29207313, 0.5623466, 0.039219, 0.09790567, 0.12624359, 0
501, 2062490743, -0.41552788, 0.6521721, 0.2917804, 0.56293654, 0.06744065, 0.11503682, 0.116604805, 0
504, 2062540744, -0.4146985, 0.65246755, 0.29228902, 0.5629419, -0.08395546, 0.09835291, 0.1625557, 0
506, 2062574078, -0.41422775, 0.65264475, 0.2924003, 0.5630253, -0.13755858, 0.082462005, 0.13035488, 0
509, 2062624079, -0.41378272, 0.65286493, 0.29270378, 0.5629397, -0.07975342, 0.03904366, 0.052693367, 0
512, 2062674080, -0.41300032, 0.65366083, 0.29303432, 0.56241834, -0.08580574, 0.11756119, 0.040305138, 0
515, 2062724081, -0.41236007, 0.6545816, 0.29371047, 0.5614636, -0.05728538, 0.06300266, 0.09093094, 0
517, 2062757415, -0.41171685, 0.6553919, 0.29414755, 0.56076115, -0.014702193, 0.02270847, 0.10417366, 0
520, 2062807416, -0.41114256, 0.6562564, 0.29489374, 0.55977863, -0.031217601, 0.020615326, 0.13133717, 0
523, 2062857417, -0.4103671, 0.65719736, 0.29495984, 0.55920863, 0.18449603, 0.040665373, 0.19170856, 0
525, 2062890751, -0.4099329, 0.6577693, 0.29530525, 0.55867213, 0.14672564, 0.03164105, 0.18249512, 0
528, 2062940752, -0.4089468, 0.6589561, 0.29600766, 0.5576235, 0.18145908, 0.022773037, 0.20638275, 0
531, 2062990753, -0.4078162, 0.6603357, 0.296242, 0.5566944, 0.20795488, 0.13325818, 0.19316292, 0
533, 2063024087, -0.40794754, 0.660614, 0.29682037, 0.5559594, 0.15128782, 0.0013898315, 0.03534603, 0
536, 2063074088, -0.40838078, 0.6607411, 0.29730868, 0.5552289, 0.11198987, 0.039350614, 0.058268547, 0
539, 2063124089, -0.4090566, 0.6606234, 0.29729584, 0.5548783, 0.054982737, 0.09888815, 0.10611153, 0
542, 2063174090, -0.4097645, 0.66030514, 0.2972809, 0.5547427, -0.012051246, 0.01867515, 0.10808563, 0
544, 2063207424, -0.41006988, 0.66015136, 0.29720348, 0.55474144, -0.11529766, -0.10610001, 0.07823658, 0
547, 2063257425, -0.41004574, 0.6601993, 0.29689875, 0.5548653, -0.08772458, -0.13343069, 0.10954666, 0
550, 2063307426, -0.40911105, 0.66083765, 0.2965758, 0.55496824, -0.0626361, -0.0070587904, 0.1144228, 0
552, 2063340760, -0.40836084, 0.6612829, 0.29656532, 0.554996, -0.0062978966, 0.02199957, 0.10874939, 0
555, 2063390761, -0.40778166, 0.6615582, 0.29679295, 0.554972, 0.061490532, 0.05730868, 0.14212894, 0
558, 2063440762, -0.40777808, 0.66154677, 0.29718864, 0.5547766, 0.1379518, 0.05822855, 0.11508942, 0
560, 2063474096, -0.40767285, 0.6616114, 0.29724866, 0.5547446, 0.06397758, 0.06487082, 0.13245106, 0
563, 2063524097, -0.4070186, 0.66213447, 0.29652905, 0.554986, 0.21800414, 0.10785354, 0.13942814, 0
566, 2063574098, -0.40722874, 0.66202295, 0.29621208, 0.5551343, 0.15091623, 0.019500695, 0.13603783, 0
569, 2063624099, -0.40746453, 0.66180015, 0.29584602, 0.5554218, 0.14979643, -0.020460041, 0.15839195, 0
573, 2063690767, -0.40840498, 0.6603468, 0.29575932, 0.5565064, 0.13291319, 0.07509355, -0.15241623, 0
575, 2063724101, -0.40920573, 0.65834403, 0.29698163, 0.55763865, 0.082368545, 0.047226638, -0.12546158, 0
578, 2063774102, -0.41084534, 0.653531, 0.30001277, 0.5604648, -0.06640615, -0.17669544, 0.07539463, 0
581, 2063824103, -0.4108056, 0.64942837, 0.30082053, 0.5648129, -0.08937305, -0.22496238, 0.1664238, 0
583, 2063857437, -0.40927243, 0.64831245, 0.29992887, 0.56767493, 0.042607058, -0.09172061, 0.2308178, 0
586, 2063907438, -0.4057219, 0.6487339, 0.29733247, 0.5710978, -0.19180384, -0.023238614, 0.31453896, 0
589, 2063957439, -0.40268168, 0.6492554, 0.29549187, 0.5736066, -0.1373004, 0.03842886, 0.26417637, 0
591, 2063990773, -0.40101612, 0.6498109, 0.2941314, 0.5748423, -0.096676245, 0.04119073, 0.2214098, 0
594, 2064040774, -0.399114, 0.6507638, 0.2922296, 0.57605714, -0.005976576, 0.15437225, 0.19024658, 0
597, 2064090775, -0.39762497, 0.6523105, 0.28950912, 0.5767105, 0.1739358, 0.19893748, 0.1592207, 0
601, 2064157443, -0.39688754, 0.6548539, 0.2856748, 0.57624805, 0.14292012, 0.115144126, 0.116960526, 0
604, 2064207444, -0.39728093, 0.65680724, 0.28223246, 0.5754495, 0.11424693, 0.19195086, 0.11562252, 0
606, 2064240778, -0.3982203, 0.65779793, 0.2801835, 0.57466924, 0.060546853, 0.07283957, 0.13876629, 0
609, 2064290779, -0.40018287, 0.6589419, 0.27766466, 0.573216, 0.074377425, 0.030885132, 0.13629627, 0
612, 2064340780, -0.40222228, 0.66001004, 0.27564192, 0.5715335, 0.06402956, -0.08362156, 0.035164833, 0
614, 2064374114, -0.40352923, 0.6606582, 0.2747659, 0.5702839, 0.022003481, -0.16675036, -0.013645172, 0
617, 2064424115, -0.404796, 0.66173464, 0.27334243, 0.5688203, -0.039472766, -0.27003062, 0.085100174, 0
620, 2064474116, -0.40543243, 0.66267073, 0.27256602, 0.5676487, -0.074255444, -0.34765825, 0.12425518, 0
623, 2064524117, -0.40610448, 0.66282403, 0.27345556, 0.5665605, -0.067567885, -0.19261794, -0.019489288, 0
625, 2064557451, -0.4066742, 0.66234654, 0.27402124, 0.566437, -0.039694645, -0.20273128, 0.0603199, 0
629, 2064624119, -0.40745977, 0.6608634, 0.2740658, 0.5675821, 0.09675838, -0.05637642, 0.2198391, 0
632, 2064674120, -0.4079313, 0.659278, 0.27386284, 0.5691827, 0.12397143, 0.01300091, 0.18070793, 0
635, 2064724121, -0.40956116, 0.65670115, 0.27466598, 0.57060224, 0.010517102, 0.014471291, 0.021017075, 0
637, 2064757455, -0.41059056, 0.65496945, 0.27485317, 0.5717616, -0.028424555, 0.05959741, 0.042427063, 0
640, 2064807456, -0.4123722, 0.65227354, 0.2762394, 0.5728922, 0.050716102, -0.038475715, 0.07723713, 0
643, 2064857457, -0.41361672, 0.6501206, 0.27803004, 0.5735756, -0.020846138, 0.009494774, 0.060476303, 0
645, 2064890791, -0.41417408, 0.6488941, 0.27881786, 0.5741796, 0.023797732, 0.059186287, 0.0848608, 0
648, 2064940792, -0.414604, 0.6475335, 0.27967918, 0.57498586, 0.022229355, 0.19933516, 0.12827396, 0
651, 2064990793, -0.41570905, 0.6460549, 0.28122896, 0.57509506, -0.0053139436, 0.056670006, 0.07797146, 0
654, 2065040794, -0.41624767, 0.64550865, 0.28248262, 0.5747045, -0.042509943, 0.03681926, 0.03480816, 0
656, 2065074128, -0.4165548, 0.64556503, 0.28331804, 0.57400703, -0.074615285, 0.03846792, 0.021327019, 0
659, 2065124129, -0.41600043, 0.64706755, 0.28412068, 0.57231796, 0.06518335, -0.018757682, 0.087329865, 0
662, 2065174130, -0.41440624, 0.6501401, 0.2854912, 0.5693025, -0.0059861797, 0.07932332, 0.21987343, 0
664, 2065207464, -0.41399747, 0.6516484, 0.28694102, 0.5671425, -0.0061954646, 0.09851188, 0.10928917, 0
667, 2065257465, -0.4147173, 0.6527737, 0.2891866, 0.56417406, -0.009650884, -0.06718785, 0.06924915, 0
670, 2065307466, -0.41577166, 0.65376604, 0.2900567, 0.5617974, 0.1331674, 0.02865619, 0.1696825, 0
673, 2065357467, -0.41667864, 0.6546806, 0.28998673, 0.5600938, 0.32373852, 0.030641908, 0.18804455, 0
675, 2065390801, -0.41723567, 0.655339, 0.2902124, 0.55879074, 0.22152226, -0.04490293, 0.23212051, 0
678, 2065440802, -0.4169041, 0.65708154, 0.28894296, 0.5576487, 0.2778662, 0.010254439, 0.19324303, 0
681, 2065490803, -0.4176909, 0.65752983, 0.2889375, 0.5565332, 0.15179363, -0.153029, 0.12138462, 0
683, 2065524137, -0.41828218, 0.6573851, 0.28887653, 0.5562916, 0.09848037, -0.07971402, 0.077254295, 0
686, 2065574138, -0.41934243, 0.6565221, 0.2892927, 0.55629635, 0.04421376, -0.26692957, 0.13393497, 0
689, 2065624139, -0.41947737, 0.65583885, 0.28916442, 0.5570667, -0.07476268, -0.17644437, 0.05283165, 0
691, 2065657473, -0.41921148, 0.65535843, 0.28900957, 0.55791193, -0.042085364, -0.16425589, 0.09357929, 0
694, 2065707474, -0.4179424, 0.6551681, 0.28840023, 0.5594008, -0.051115025, -0.05264328, 0.14310741, 0
697, 2065757475, -0.41615152, 0.6554913, 0.2873612, 0.56089, 0.043749448, 0.046002068, 0.15296364, 0
699, 2065790809, -0.4151212, 0.6557396, 0.2867564, 0.5616724, 0.020884698, 0.09283106, 0.12542057, 0
702, 2065840810, -0.414169, 0.6559626, 0.28591698, 0.5625423, 0.100030586, 0.20496607, 0.09832573, 0
705, 2065890811, -0.41415742, 0.65562737, 0.2854705, 0.5631681, 0.028995657, 0.0835277, 0.11522198, 0
709, 2065957479, -0.41406736, 0.65545535, 0.28327167, 0.56454283, -0.0043319254, 0.10285245, 0.121785164, 0
712, 2066007480, -0.41405666, 0.65560013, 0.28149405, 0.56527156, -0.042096186, 0.08104893, 0.17085934, 0
714, 2066040814, -0.41419268, 0.65572083, 0.280801, 0.5653766, -0.032568004, 0.13172755, 0.14798164, 0
717, 2066090815, -0.4146593, 0.65579677, 0.28007662, 0.56530565, -0.06466088, 0.034762803, 0.053678513, 0
720, 2066140816, -0.414714, 0.6563101, 0.27906665, 0.5651692, -0.06292243, 0.013691063, 0.044237137, 0
722, 2066174150, -0.41466683, 0.65680695, 0.278535, 0.5648889, -0.02180698, -0.011607391, 0.0935936, 0
725, 2066224151, -0.41444594, 0.6577665, 0.27802807, 0.56418365, 0.016280817, 0.03321855, 0.12315941, 0
728, 2066274152, -0.41442838, 0.65857506, 0.27790606, 0.5633129, 0.010135914, 0.013528625, 0.121414185, 0
731, 2066324153, -0.41448584, 0.65923977, 0.2778774, 0.5625066, 0.10958995, 0.0042521665, 0.102622986, 0
733, 2066357487, -0.41477546, 0.6595131, 0.27806813, 0.5618784, 0.090053305, -0.047400698, 0.11562729, 0
737, 2066424155, -0.4152867, 0.6600133, 0.2774542, 0.56121624, 0.09213651, -0.055298977, 0.14873505, 0
740, 2066474156, -0.41578895, 0.6602926, 0.2772254, 0.56062883, 0.09673984, -0.016082484, 0.15717506, 0
743, 2066524157, -0.41659725, 0.66032135, 0.27709347, 0.5600597, 0.057166427, -0.030488927, 0.13910294, 0
745, 2066557491, -0.41711634, 0.6602894, 0.2766568, 0.5599268, 0.058670256, -0.020966116, 0.09638691, 0
748, 2066607492, -0.41766047, 0.66039455, 0.27596393, 0.55973923, 0.09092257, -0.0226964, 0.07274532, 0
751, 2066657493, -0.41817114, 0.6604447, 0.27563316, 0.55946165, 0.08081193, -0.031083947, 0.05842495, 0
753, 2066690827, -0.41833726, 0.6604959, 0.27546215, 0.5593611, 0.079916686, -0.0546856, 0.042419434, 0
756, 2066740828, -0.4186436, 0.66036904, 0.27537018, 0.55932707, 0.011664848, -0.048076604, 0.1273365, 0
759, 2066790829, -0.41849023, 0.6603753, 0.27474648, 0.559741, 0.042635046, -0.025030056, 0.116724014, 0
762, 2066840830, -0.41847917, 0.6601297, 0.27471346, 0.56005496, 0.05506882, -0.050954275, 0.06781769, 0
766, 2066907498, -0.41817668, 0.6598906, 0.27451152, 0.56066155, 0.04207825, -0.044167195, 0.13584328, 0
768, 2066940832, -0.41791928, 0.65982044, 0.2742194, 0.56107867, 0.1267625, -0.0059998003, 0.11799812, 0
771, 2066990833, -0.41760996, 0.65962994, 0.27414936, 0.5615671, 0.040972173, -0.0087286, 0.097932816, 0
774, 2067040834, -0.41703355, 0.6596067, 0.27343047, 0.5623726, 0.07047161, 0.0899282, 0.099731445, 0
776, 2067074168, -0.41697335, 0.6593077, 0.2734002, 0.5627825, 0.06379234, 0.10152819, 0.12899971, 0
779, 2067124169, -0.4171385, 0.6587486, 0.27334976, 0.563339, 0.004948734, 0.116287306, 0.14071083, 0
782, 2067174170, -0.4171838, 0.65834427, 0.27249163, 0.5641933, 0.049238794, 0.081949376, 0.10060501, 0
785, 2067224171, -0.41718036, 0.6582381, 0.27168503, 0.56470835, 0.013483503, 0.0454679, 0.14976215, 0
787, 2067257505, -0.41719133, 0.65826666, 0.2711841, 0.5649078, 0.0069505475, 0.049116373, 0.13444519, 0
790, 2067307506, -0.41719347, 0.65836924, 0.2706206, 0.5650567, 0.020191127, 0.04966342, 0.06596184, 0
793, 2067357507, -0.41726992, 0.6584635, 0.27037624, 0.5650074, -0.0134996865, 0.010984964, 0.12526703, 0
795, 2067390841, -0.41721803, 0.6585938, 0.27016163, 0.5649966, 0.02818066, -0.0048330207, 0.104141235, 0
798, 2067440842, -0.4171807, 0.6588587, 0.27022463, 0.5646852, 0.023306513, 0.028450238, 0.062394142, 0
801, 2067490843, -0.41700572, 0.65925336, 0.27012104, 0.56440336, -0.04108062, 0.020505078, 0.05834198, 0
803, 2067524177, -0.4170179, 0.65933454, 0.2700799, 0.56431913, 0.019649792, 0.0026009365, 0.07893276, 0
806, 2067574178, -0.4169982, 0.65941393, 0.27018082, 0.5641926, -0.05863125, 0.005235931, 0.20013142, 0
809, 2067624179, -0.41703445, 0.659397, 0.27020425, 0.5641743, -0.046281584, 0.010805231, 0.10281277, 0
812, 2067674180, -0.41667494, 0.65971965, 0.26976556, 0.5642728, 0.03767871, 0.027450688, 0.09119606, 0
814, 2067707514, -0.4167747, 0.65975654, 0.26998758, 0.5640497, -0.014693979, -0.040345933, 0.09411526, 0
817, 2067757515, -0.41657203, 0.6601435, 0.2699967, 0.56374204, -0.0066519063, 0.0050877137, 0.15604305, 0
820, 2067807516, -0.41652116, 0.6603519, 0.27016848, 0.56345326, 0.035195425, -0.031235768, 0.08490181, 0
822, 2067840850, -0.41645607, 0.6605272, 0.27039933, 0.5631851, 0.044342637, -0.01221082, 0.1285677, 0
825, 2067890851, -0.41611657, 0.6608859, 0.27034888, 0.5630397, 0.06031062, -0.030083029, 0.123752594, 0
828, 2067940852, -0.41597775, 0.660984, 0.27050495, 0.5629518, 0.07213282, -0.039057437, 0.1298542, 0
830, 2067974186, -0.4161616, 0.6608411, 0.27089655, 0.5627954, 0.112316705, -0.0519032, 0.13812733, 0
833, 2068024187, -0.41637728, 0.6605704, 0.27125788, 0.56277984, 0.08447416, -0.04038505, 0.1498394, 0
836, 2068074188, -0.4163637, 0.6603569, 0.27092522, 0.5632006, 0.07965096, -0.02554468, 0.13242245, 0
839, 2068124189, -0.4163794, 0.6601206, 0.27049226, 0.56367356, 0.08823196, -0.026240896, 0.18505764, 0
841, 2068157523, -0.41664615, 0.65977067, 0.27064466, 0.5638131, 0.035185404, -0.043974526, 0.1160326, 0
845, 2068224191, -0.41648513, 0.6594629, 0.26997042, 0.56461483, 8.496007E-4, -0.013412118, 0.075595856, 0
848, 2068274192, -0.41656616, 0.65904737, 0.26949513, 0.56526697, -0.004625398, 0.026419623, 0.0860939, 0
851, 2068324193, -0.4167009, 0.6585507, 0.2691602, 0.5659055, -0.03312619, 0.030510636, 0.149683, 0
853, 2068357527, -0.4166659, 0.65832347, 0.26886928, 0.56633395, -0.048306815, 0.021582859, 0.13619614, 0
857, 2068424195, -0.4164206, 0.65817964, 0.2685755, 0.5668205, -0.07839216, 0.030689, 0.09001446, 0
860, 2068474196, -0.41629365, 0.6581034, 0.2684768, 0.567049, -0.0014263269, 0.08237725, 0.095915794, 0
863, 2068524197, -0.41632152, 0.65794635, 0.26845878, 0.56721926, -0.0023627554, 0.087666824, 0.12442207, 0
866, 2068574198, -0.41655663, 0.6577581, 0.26877114, 0.56711704, 0.0134424325, 0.020067412, 0.09153271, 0
868, 2068607532, -0.41672835, 0.6576566, 0.26894122, 0.5670279, 0.0053439084, 0.061100256, 0.100631714, 0
871, 2068657533, -0.41700676, 0.65753424, 0.2689326, 0.5669694, 0.006048051, 0.019050289, 0.123147964, 0
875, 2068724201, -0.41752213, 0.6573101, 0.26894432, 0.56684417, 0.002294612, -0.02017685, 0.11149311, 0
878, 2068774202, -0.4178537, 0.65726143, 0.26893222, 0.56666195, -0.06572557, -0.0074537657, 0.14183903, 0
880, 2068807536, -0.41807106, 0.65719014, 0.26888937, 0.5666049, -0.03686288, -0.02155098, 0.10569286, 0
883, 2068857537, -0.41832063, 0.6570817, 0.26881713, 0.5665805, 0.031663727, -0.03985194, 0.08675575, 0
886, 2068907538, -0.41852826, 0.65700436, 0.26903605, 0.566413, -0.021924881, -0.08243999, 0.11471367, 0
888, 2068940872, -0.41843352, 0.6570663, 0.26882648, 0.5665106, 0.022210043, -0.011553831, 0.13769817, 0
891, 2068990873, -0.41832578, 0.6570697, 0.26867446, 0.5666585, 0.05299069, -0.07380624, 0.092350006, 0
894, 2069040874, -0.41816473, 0.65718913, 0.26872993, 0.5666124, 0.052981623, -0.028848259, 0.061239243, 0
897, 2069090875, -0.41796187, 0.65725285, 0.2685001, 0.56679714, 0.053613145, -0.009939146, 0.10664272, 0
899, 2069124209, -0.4179068, 0.6571775, 0.268387, 0.5669786, 0.040875852, -0.051167816, 0.12381172, 0
903, 2069190877, -0.41755417, 0.6572095, 0.26800352, 0.5673825, 0.028481033, -0.042103723, 0.122496605, 0
906, 2069240878, -0.41708094, 0.6574114, 0.26753694, 0.56771684, 0.032836527, -0.04616713, 0.12406635, 0
909, 2069290879, -0.41681054, 0.65741205, 0.26742572, 0.567967, 0.030078731, -0.011725294, 0.09389973, 0
911, 2069324213, -0.41675752, 0.65726537, 0.26745597, 0.5681615, -0.023103626, -6.9875736E-5, 0.13399887, 0
914, 2069374214, -0.41697073, 0.65676636, 0.26791617, 0.56836534, 0.022413118, 0.02657541, 0.12950802, 0
917, 2069424215, -0.4170693, 0.6563983, 0.26824751, 0.56856185, -0.0024322749, 0.00436627, 0.12386799, 0
921, 2069490883, -0.4170873, 0.6561574, 0.2679878, 0.568949, 0.0064014043, 0.011867868, 0.14334583, 0
924, 2069540884, -0.4171988, 0.65607196, 0.26785725, 0.5690273, 0.020049902, 0.012046566, 0.12908936, 0
926, 2069574218, -0.41731256, 0.656084, 0.2678203, 0.568947, 0.047042005, 0.0037895783, 0.10126495, 0
929, 2069624219, -0.4173394, 0.65622747, 0.26745793, 0.5689327, -0.018654594, 0.011661565, 0.122400284, 0
932, 2069674220, -0.41770095, 0.6560977, 0.26745346, 0.5688188, -0.017299965, -0.0094254855, 0.13105679, 0
934, 2069707554, -0.41795248, 0.65599704, 0.26754865, 0.5687057, 0.056263182, -0.013545919, 0.10862446, 0
937, 2069757555, -0.41823876, 0.6559496, 0.26772904, 0.5684649, -0.030712796, -0.038642205, 0.086821556, 0
940, 2069807556, -0.4184168, 0.6560423, 0.26765966, 0.56825954, 0.02775072, -0.051767807, 0.052649498, 0
942, 2069840890, -0.41827393, 0.6562433, 0.2675589, 0.56818, 0.037685275, -0.034927614, 0.13887691, 0
945, 2069890891, -0.41817015, 0.656374, 0.2677117, 0.5680336, 0.0036030358, -0.09780611, 0.09576607, 0
948, 2069940892, -0.41804186, 0.65626884, 0.26758188, 0.56831056, 0.048534065, -0.09375513, 0.08391762, 0
951, 2069990893, -0.4179509, 0.65589285, 0.26797217, 0.5686276, 0.08428347, -0.06459893, 0.11259365, 0
953, 2070024227, -0.41806135, 0.6553586, 0.26868373, 0.5688266, 0.043351643, -0.0053556776, 0.2679224, 0
956, 2070074228, -0.41976684, 0.6537688, 0.2728143, 0.5674321, 1.8293868, 0.87212473, 1.2846146, 0
959, 2070124229, -0.4292019, 0.64902914, 0.2869072, 0.5587987, 4.0618067, 2.387405, 1.7185526, 0
961, 2070157563, -0.4450352, 0.6393657, 0.29502255, 0.5533006, 3.9092274, 2.6992145, 2.164731, 0
964, 2070207564, -0.48116928, 0.6161554, 0.29005897, 0.5520137, 3.880613, 2.332688, 2.581479, 0
967, 2070257565, -0.5285245, 0.583346, 0.27253407, 0.55328065, 2.041698, 1.4795188, 3.196847, 0
969, 2070290899, -0.561832, 0.55865335, 0.25657392, 0.55357575, 0.39019498, 0.9301147, 3.8105106, 0
972, 2070340900, -0.60951865, 0.52232516, 0.22459328, 0.5524908, -1.1891528, 0.4300639, 2.7528257, 0
976, 2070407568, -0.668176, 0.47572893, 0.16969062, 0.5463085, -1.8132521, -0.031581488, 1.37395, 0
979, 2070457569, -0.70812297, 0.442021, 0.12732399, 0.53571707, -2.7141438, -0.6632638, 0.77242184, 0
982, 2070507570, -0.7446523, 0.40661162, 0.08848184, 0.5218771, -2.5987744, -1.3003569, -0.2901926, 0
986, 2070574238, -0.78514487, 0.35881218, 0.04134941, 0.50310683, -2.2736573, -1.4113541, -1.1445255, 0
988, 2070607572, -0.8020503, 0.3349693, 0.021478057, 0.49403867, -1.6448983, -1.2336395, -1.6927452, 0
991, 2070657573, -0.8238336, 0.29917634, -0.0024705678, 0.48146707, -1.3121477, -1.0094236, -2.0718207, 0
994, 2070707574, -0.84177804, 0.26519555, -0.018722408, 0.46984607, -0.33653316, -0.8044078, -2.3903174, 0
996, 2070740908, -0.85141987, 0.24527858, -0.025641523, 0.46291465, -0.39775723, -0.9354642, -1.8517652, 0
999, 2070790909, -0.86288404, 0.21967864, -0.030246645, 0.45418334, 0.12327131, -0.5769467, -1.5764503, 0
1002, 2070840910, -0.8711388, 0.19855626, -0.032367878, 0.44796163, 0.060400184, -0.6309254, -1.4208183, 0
1005, 2070890911, -0.87661827, 0.18398154, -0.039129913, 0.44292745, 0.2385318, -0.39365372, -1.355834, 0
1007, 2070924245, -0.8791699, 0.17815158, -0.04602138, 0.43957838, 0.4333327, -0.5236744, -1.113514, 0
1010, 2070974246, -0.8818907, 0.17260194, -0.055041656, 0.43528467, 0.31425527, -0.17483574, -0.48482323, 0
1014, 2071040914, -0.885193, 0.16256672, -0.06301767, 0.43134552, 0.3520126, -0.18456028, -0.36016273, 0
1017, 2071090915, -0.8872857, 0.1550393, -0.069949955, 0.42874107, 0.38221917, -0.32272077, -0.30038452, 0
1019, 2071124249, -0.88821673, 0.1504359, -0.07455808, 0.42767498, 0.3894883, -0.40667698, -0.51633835, 0
1022, 2071174250, -0.88866806, 0.14534709, -0.08038206, 0.42744198, 0.35437286, -0.31725875, -0.78167534, 0
1025, 2071224251, -0.88827294, 0.14200802, -0.084185675, 0.42865193, 0.2791209, -0.21922848, -1.1202917, 0
1028, 2071274252, -0.8871796, 0.1415978, -0.086000815, 0.43068677, 0.23759092, 0.0041657505, -0.8857851, 0
1030, 2071307586, -0.88643515, 0.14110427, -0.0853052, 0.4325161, 0.013330424, 0.14000694, -0.5894356, 0
1033, 2071357587, -0.885465, 0.14051133, -0.08295232, 0.43514603, -0.07879798, 0.20843679, -0.28920174, 0
1036, 2071407588, -0.8849156, 0.14005204, -0.0797808, 0.43700063, -0.09151162, 0.30204356, 0.1597166, 0
1038, 2071440922, -0.8848322, 0.13977073, -0.07774907, 0.4376254, 0.035094384, 0.2465285, 0.01088047, 0
1042, 2071507590, -0.88489383, 0.14360593, -0.07702301, 0.43638587, 0.045405094, 0.1337485, 0.18184185, 0
1045, 2071557591, -0.88531375, 0.14718674, -0.07798618, 0.43416417, 0.029166093, -0.055710994, 0.08211136, 0
1048, 2071607592, -0.8853515, 0.15148455, -0.08038105, 0.4321677, 0.19764797, -0.14002754, 0.038083076, 0
1050, 2071640926, -0.8852447, 0.15332058, -0.08148693, 0.43153146, 0.18158203, -0.22919792, -0.12951183, 0
1053, 2071690927, -0.8849045, 0.15572974, -0.08240167, 0.43119276, 0.1644097, -0.14213388, 0.07422829, 0
1056, 2071740928, -0.88470787, 0.15653631, -0.08192271, 0.4313953, 0.17974538, -0.1251273, 0.06257248, 0
1059, 2071790929, -0.88442814, 0.15719809, -0.0813247, 0.43184128, 0.16127521, -0.098372385, -0.08886814, 0
1061, 2071824263, -0.8841898, 0.15816486, -0.08160256, 0.43192363, 0.13029034, -0.035764616, -0.092577934, 0
1064, 2071874264, -0.8837652, 0.16077527, -0.08238651, 0.4316801, 0.033009455, 0.07836311, -0.017489433, 0
1067, 2071924265, -0.8836055, 0.16227674, -0.08217823, 0.43148488, 0.10507176, 0.0333699, 0.02704525, 0
1069, 2071957599, -0.88346887, 0.16376081, -0.08211155, 0.43121633, 0.023930639, 0.09178428, 0.12379646, 0
1072, 2072007600, -0.8835052, 0.16454124, -0.08187799, 0.43088916, 0.046655256, 0.042186476, 0.06979656, 0
1075, 2072057601, -0.8836578, 0.16500694, -0.08216914, 0.43034253, 0.11167076, -0.010848927, 0.05498314, 0
1077, 2072090935, -0.88382125, 0.16530296, -0.08240424, 0.4298481, 0.08811339, 0.023292145, 0.11827755, 0
1080, 2072140936, -0.8840371, 0.16568461, -0.08280788, 0.42917937, 0.10871832, -0.026877992, -0.010580063, 0
1083, 2072190937, -0.8842172, 0.16546972, -0.08316338, 0.42882216, 0.28817594, -0.054705467, 0.057186127, 0
1086, 2072240938, -0.8843467, 0.16579613, -0.08380018, 0.4283045, 0.15324876, -0.016537026, -0.03032589, 0
1088, 2072274272, -0.8843526, 0.16579822, -0.084050685, 0.4282425, 0.10319492, -0.0067366525, 0.045920372, 0
1091, 2072324273, -0.88429654, 0.16593444, -0.08459522, 0.42819825, 0.15461598, -0.047972307, -0.028689384, 0
1094, 2072374274, -0.8840806, 0.16631487, -0.08540295, 0.4283366, 0.13604686, -0.044370983, -0.027693748, 0
1096, 2072407608, -0.8839247, 0.16626054, -0.085615315, 0.42863673, 0.119794175, -0.03420075, 0.004102707, 0
1099, 2072457609, -0.88364786, 0.16594821, -0.085809484, 0.42928922, 0.092592366, -0.030357502, -0.06922722, 0
1102, 2072507610, -0.88322175, 0.16627213, -0.08626993, 0.42994785, 0.11660721, -0.037164617, -0.060601234, 0
1104, 2072540944, -0.8829097, 0.16660449, -0.08650544, 0.4304128, 0.076057434, -0.008199712, -0.13057995, 0
1107, 2072590945, -0.8824538, 0.1672168, -0.08658818, 0.4310928, 0.10778784, -0.0016940046, -0.111735344, 0
1110, 2072640946, -0.88199055, 0.1683116, -0.086837694, 0.43156424, 0.059702042, -0.025763752, -0.00839138, 0
1113, 2072690947, -0.88165283, 0.16898593, -0.08636762, 0.43208507, 0.057454955, -0.039715264, 0.024234772, 0
1115, 2072724281, -0.8814829, 0.16931295, -0.08608807, 0.4323593, 0.11497339, -0.061205752, 0.064525604, 0
1118, 2072774282, -0.8813837, 0.16873285, -0.08529624, 0.43294504, 0.18311858, -0.094522566, 0.111914635, 0
1122, 2072840950, -0.8811729, 0.1684468, -0.08468251, 0.4336057, 0.17097758, -0.10846025, 0.06565952, 0
1125, 2072890951, -0.88084024, 0.16907798, -0.08487876, 0.43399706, 0.105993085, -0.13025807, 0.0367918, 0
1129, 2072957619, -0.88005054, 0.17106755, -0.086733505, 0.43445256, 0.007789147, -0.010116643, 0.11804676, 0
1133, 2073024287, -0.8795549, 0.17136924, -0.08746596, 0.4351899, 0.0364762, -0.037166405, -0.19473267, 0
1136, 2073074288, -0.879249, 0.1721082, -0.08737302, 0.43553498, 0.26043317, 0.017622404, -0.16811562, 0
1140, 2073140956, -0.87896854, 0.17539828, -0.08588591, 0.43508413, 0.008277412, 0.12613475, -0.11549473, 0
1142, 2073174290, -0.87892157, 0.17717503, -0.08507084, 0.43461883, 0.11859268, 0.05466884, -0.0059509277, 0
1145, 2073224291, -0.8789414, 0.17976117, -0.08416863, 0.43369183, 0.056213286, 0.05441311, 0.14207363, 0
1148, 2073274292, -0.8790293, 0.18148185, -0.0836243, 0.43290138, 0.21996899, -0.13835073, 0.10865593, 0
1150, 2073307626, -0.8787538, 0.18367043, -0.084512636, 0.43236506, 0.25375247, -0.2178604, 0.032981873, 0
1154, 2073374294, -0.87756467, 0.18801996, -0.08699832, 0.43241727, 0.19746068, -0.1624333, 0.026740074, 0
1157, 2073424295, -0.8768125, 0.18911168, -0.087544605, 0.4333562, 0.048910335, 2.0144106E-4, 0.11451626, 0
1160, 2073474296, -0.8767203, 0.18741302, -0.08617899, 0.43455273, 0.06419493, 0.010279724, 0.12661076, 0
1163, 2073524297, -0.87681025, 0.18560675, -0.084739655, 0.4354285, 0.1626401, -0.034905795, 0.064453125, 0
1165, 2073557631, -0.87669325, 0.18581674, -0.085133895, 0.43549752, 0.08495895, -0.0957125, 9.651184E-4, 0
1168, 2073607632, -0.87611306, 0.18856683, -0.08759648, 0.43499455, -0.009838314, -0.026956417, 0.09755421, 0
1171, 2073657633, -0.8760828, 0.18890941, -0.0885799, 0.4347076, 0.03994417, 0.02817216, 0.019394875, 0
1173, 2073690967, -0.876159, 0.18876034, -0.08879971, 0.43457362, 0.07812873, 2.4594806E-4, -0.028448105, 0
1176, 2073740968, -0.8764179, 0.18776031, -0.088325396, 0.43458164, 0.07941449, -0.07832852, -0.05510521, 0
1179, 2073790969, -0.8766006, 0.18702838, -0.08784112, 0.4346267, 0.10198343, -0.09000956, 0.011100769, 0
1183, 2073857637, -0.87696564, 0.18544108, -0.08668125, 0.4348034, 0.08288279, -0.097627215, 0.059785843, 0
1185, 2073890971, -0.87711275, 0.18459612, -0.086223885, 0.4349571, 0.15801512, -0.07961936, -0.040060043, 0
1188, 2073940972, -0.8771509, 0.18438265, -0.08607162, 0.4350011, 0.106610484, -0.08337891, -0.01621914, 0
1191, 2073990973, -0.8771149, 0.18431851, -0.08614996, 0.43508527, 0.08248019, -0.07673831, 0.025738716, 0
1194, 2074040974, -0.8770026, 0.18490097, -0.086514205, 0.4349921, 0.011819365, 0.010753655, 0.024680138, 0
1196, 2074074308, -0.87703216, 0.18553814, -0.08689916, 0.4345844, 0.019483121, -0.0024650686, 0.025064468, 0
1199, 2074124309, -0.87726665, 0.1862692, -0.08745046, 0.4336868, 0.082635425, -0.04709555, -0.011265755, 0
1202, 2074174310, -0.8776337, 0.1863263, -0.08749447, 0.43291005, 0.13100815, -0.1454992, 0.046917915, 0
1204, 2074207644, -0.877755, 0.18667406, -0.08772673, 0.43246734, 0.1376162, -0.16541679, 0.06377697, 0
1207, 2074257645, -0.8777193, 0.18741992, -0.08866222, 0.43202633, 0.17998101, -0.18043405, 0.01966381, 0
1210, 2074307646, -0.8775312, 0.18793592, -0.08972586, 0.43196404, 0.24890296, -0.18420166, 0.0139427185, 0
1212, 2074340980, -0.8772587, 0.18836957, -0.09044014, 0.4321798, 0.17854589, -0.13160862, -0.057315826, 0
1215, 2074390981, -0.876772, 0.18841124, -0.09131737, 0.43296394, 0.10938724, -0.11502223, -0.06064129, 0
1218, 2074440982, -0.8760911, 0.18859364, -0.09214582, 0.43408626, 0.09246826, -0.10029074, -0.018011093, 0
1221, 2074490983, -0.87546396, 0.18878292, -0.09288592, 0.43511036, 0.09020195, -0.0729736, -0.018090248, 0
1223, 2074524317, -0.87511086, 0.18912756, -0.09345783, 0.4355481, 0.05785169, 0.0037125782, -0.016619682, 0
1226, 2074574318, -0.87460864, 0.18980446, -0.094132185, 0.4361167, 0.23429444, -0.1434341, -0.09803009, 0
1229, 2074624319, -0.8739557, 0.19113693, -0.095239416, 0.43660316, 0.16303483, -0.115533985, 0.004398346, 0
1231, 2074657653, -0.873459, 0.19215551, -0.09589279, 0.43700665, 0.15196322, -0.11139157, 0.06899738, 0
1234, 2074707654, -0.8726388, 0.19410303, -0.09738684, 0.43745404, 0.11229682, -0.010110301, -0.01301384, 0
1237, 2074757655, -0.87202626, 0.1946106, -0.098643005, 0.4381683, 0.19928204, -0.11280037, -0.053809166, 0
1239, 2074790989, -0.87145495, 0.19572783, -0.099844635, 0.43853495, 0.034147304, -0.055648245, -0.028680801, 0
1242, 2074840990, -0.8707943, 0.1960465, -0.10087779, 0.43946728, 0.12801006, -0.03976896, -0.17061234, 0
1245, 2074890991, -0.8699935, 0.19767174, -0.10225101, 0.44000763, 0.14148538, 0.0073470664, -0.118712425, 0
1248, 2074940992, -0.8695432, 0.19838724, -0.10212221, 0.44060534, 0.08492626, 0.0021974957, -0.16351509, 0
1250, 2074974326, -0.8693317, 0.19883993, -0.10128446, 0.44101185, 0.13192081, -0.027207281, -0.08747387, 0
1253, 2075024327, -0.86908054, 0.1993911, -0.09959926, 0.44164094, 0.026672862, -0.019559395, -0.04445076, 0
1256, 2075074328, -0.86879283, 0.20025498, -0.09821494, 0.44212627, 0.07820193, -0.033624955, 0.08773041, 0
1258, 2075107662, -0.8685213, 0.20140839, -0.09779507, 0.44222897, 0.0940918, -0.0053938706, 0.1503048, 0
1262, 2075174330, -0.8681824, 0.20255361, -0.09729035, 0.4424826, 0.116881296, -0.06367641, 0.12121487, 0
1265, 2075224331, -0.8680308, 0.20353378, -0.097706236, 0.44223842, 0.038082696, 0.020519942, 0.16435051, 0
1268, 2075274332, -0.8680612, 0.2041599, -0.09830023, 0.44175845, -0.0042574746, -0.06496591, 0.13977814, 0
1271, 2075324333, -0.8681319, 0.20475924, -0.09925108, 0.4411289, 0.027756678, 0.023636077, 0.1263876, 0
1273, 2075357667, -0.8683319, 0.20483962, -0.09984693, 0.4405632, 0.021485575, 0.0046319985, 0.06415272, 0
1276, 2075407668, -0.8688171, 0.20456186, -0.10061416, 0.43955982, 0.053932782, 0.002061013, -0.027910233, 0
1279, 2075457669, -0.86930656, 0.20417714, -0.10129848, 0.438613, 0.13726898, -0.07549505, -0.13194656, 0
1281, 2075491003, -0.86950994, 0.2044232, -0.10162585, 0.43801907, 0.08786362, -0.107646465, -0.090177536, 0
1284, 2075541004, -0.8696989, 0.20504372, -0.10186054, 0.43729895, 0.15770398, -0.12970443, -0.054953575, 0
1287, 2075591005, -0.8695922, 0.20660822, -0.10158656, 0.43683815, 0.057343815, -0.028872259, 0.08757496, 0
1291, 2075657673, -0.8697914, 0.20562609, -0.10083768, 0.4370783, 0.1383894, -0.08891507, 0.017773628, 0
1295, 2075724341, -0.8698591, 0.20480034, -0.101545334, 0.43716732, 0.08051473, -0.008024897, 0.007849693, 0
1299, 2075791009, -0.8700402, 0.20404473, -0.10193448, 0.4370697, 0.044105645, -0.05611533, -0.04150486, 0
1302, 2075841010, -0.8702259, 0.20263255, -0.101648174, 0.43742365, 0.085766785, -0.047104992, -0.027604103, 0
1304, 2075874344, -0.8703226, 0.2017856, -0.10147433, 0.43766284, 0.15103056, -0.1315013, 3.0708313E-4, 0
1307, 2075924345, -0.87036, 0.20153593, -0.10159646, 0.4376753, 0.015165857, -0.038222086, 0.015414238, 0
1310, 2075974346, -0.8705355, 0.20112616, -0.10126598, 0.43759122, 0.063739076, -0.062535435, 0.023914337, 0
1312, 2076007680, -0.8705977, 0.20133743, -0.101196885, 0.43738642, 0.037735023, -0.036553897, 0.023123741, 0
1315, 2076057681, -0.8706982, 0.20145392, -0.10138047, 0.43709025, 0.083356194, -0.059670247, 0.027403831, 0
1318, 2076107682, -0.87077975, 0.20145503, -0.101766795, 0.4368374, 0.08864574, -0.077329114, 0.029371262, 0
1322, 2076174350, -0.87098646, 0.20092005, -0.10201874, 0.4366129, 0.09211706, -0.07962772, 0.038957596, 0
1324, 2076207684, -0.8711003, 0.20048758, -0.10215208, 0.43655336, 0.060871128, -0.07794984, 0.007818222, 0
1327, 2076257685, -0.87124515, 0.20004994, -0.10247466, 0.4363893, 0.06751544, -0.06687966, 0.07341766, 0
1330, 2076307686, -0.8714347, 0.19942915, -0.102889664, 0.4361975, 0.15770733, -0.06933726, 0.01576233, 0
1333, 2076357687, -0.8716023, 0.19921751, -0.10368043, 0.4357718, 0.08505758, -0.07894587, -0.01236248, 0
1335, 2076391021, -0.87167907, 0.19905403, -0.10415161, 0.4355803, 0.1083811, -0.08687054, -0.051888466, 0
1339, 2076457689, -0.8716825, 0.19900462, -0.105039075, 0.435383, 0.16249867, -0.08573482, -0.1033411, 0
1343, 2076524357, -0.8713738, 0.20023713, -0.10611102, 0.43517593, 0.13148105, -0.093907155, -0.062016487, 0
1346, 2076574358, -0.8711436, 0.20103455, -0.10636631, 0.4352069, 0.12919094, -0.0890185, -0.06221485, 0
1349, 2076624359, -0.8709488, 0.20163637, -0.10642141, 0.4353046, 0.12205584, -0.086227216, -0.056117058, 0
1352, 2076674360, -0.8706304, 0.20275234, -0.10679498, 0.43533203, 0.115652926, -0.062927894, 0.022141457, 0
1354, 2076707694, -0.87044346, 0.20332244, -0.106970064, 0.43539658, 0.087907866, -0.0064113014, 0.05575943, 0
1357, 2076757695, -0.8701481, 0.20404434, -0.10740276, 0.43554288, 0.072652385, 0.005462573, 0.03346157, 0
1360, 2076807696, -0.8700053, 0.20417854, -0.10758115, 0.4357213, 0.11681804, -0.039040282, -0.008472443, 0
1362, 2076841030, -0.8699126, 0.20437184, -0.107768126, 0.43576935, 0.08447622, -0.023134233, -0.014369011, 0
1365, 2076891031, -0.8697776, 0.20464537, -0.10793706, 0.43586874, 0.07808414, -0.042769846, -0.04613304, 0
1368, 2076941032, -0.86961985, 0.20473969, -0.10784787, 0.436161, 0.10797475, -0.07194452, -0.042524338, 0
1370, 2076974366, -0.8694439, 0.20522153, -0.1080721, 0.43623006, 0.064486116, -0.03271288, -0.05629635, 0
1373, 2077024367, -0.86920166, 0.20586178, -0.10833305, 0.43634617, 0.09893393, -0.06684272, -0.12501812, 0
1376, 2077074368, -0.86873156, 0.20785305, -0.108850665, 0.43621, 0.11020217, -0.08171089, -0.21578407, 0
1379, 2077124369, -0.8682797, 0.2096189, -0.1083789, 0.43638182, 0.050566006, -0.049097385, -0.14750099, 0
1381, 2077157703, -0.86805165, 0.21035066, -0.107231066, 0.4367668, 0.0688625, -0.07160277, 0.028320312, 0
1384, 2077207704, -0.867836, 0.21096647, -0.105037495, 0.43743086, 0.013146082, -0.05774611, 0.12697506, 0
1387, 2077257705, -0.8676651, 0.2114828, -0.10362916, 0.43785614, 0.0036573983, -0.064625755, 0.26764393, 0
1389, 2077291039, -0.8675874, 0.2118444, -0.10336484, 0.43789804, 0.0021301901, -0.04260808, 0.31391335, 0
1392, 2077341040, -0.86769545, 0.21176282, -0.10355291, 0.437679, 0.010666038, -0.026501093, 0.22711086, 0
1395, 2077391041, -0.8678733, 0.21171698, -0.10451138, 0.43712005, 0.0913389, -0.08086056, 0.06363678, 0
1397, 2077424375, -0.86802924, 0.21170837, -0.105342, 0.43661547, 0.13763504, -0.08579511, -0.024333, 0
1400, 2077474376, -0.86819994, 0.2118307, -0.1062382, 0.43599892, 0.17689252, -0.12984219, -0.08120155, 0
1404, 2077541044, -0.86827517, 0.21218543, -0.10638436, 0.43564063, 0.13017082, -0.13075355, -0.10019779, 0
1407, 2077591045, -0.8681732, 0.21268153, -0.10628286, 0.4356267, 0.06466794, -0.09657391, 0.05482006, 0
1410, 2077641046, -0.8683836, 0.21131684, -0.105407186, 0.4360842, 0.040950816, -0.104616106, 0.1926527, 0
1412, 2077674380, -0.8688942, 0.20765193, -0.104592934, 0.43702254, 0.17155804, -0.24476066, 0.31079006, 0
1415, 2077724381, -0.86926883, 0.2028009, -0.106335774, 0.43813357, -0.12577431, 0.04695884, 0.32009697, 0
1418, 2077774382, -0.8692625, 0.19821545, -0.11155899, 0.438945, 0.09525379, -0.16595982, 0.22436047, 0
1420, 2077807716, -0.86933184, 0.1934029, -0.11570905, 0.43987876, 0.051026892, -0.15574707, 0.019008636, 0
1423, 2077857717, -0.8692585, 0.1855587, -0.12171914, 0.4417768, 0.1695481, -0.20496494, -0.010835648, 0
1426, 2077907718, -0.8689109, 0.17948943, -0.12730762, 0.4433904, 0.032351043, -0.032889374, -0.1835823, 0
1428, 2077941052, -0.86889946, 0.17471054, -0.12970352, 0.44462526, 0.19772649, -0.045455158, -0.32389164, 0
1432, 2078007720, -0.8685955, 0.16912328, -0.13376643, 0.44617313, -0.1477518, 0.21404588, -0.19132233, 0
1435, 2078057721, -0.86902535, 0.1616214, -0.13500543, 0.44774076, 0.027446553, 0.010580922, -0.17328167, 0
1438, 2078107722, -0.8690964, 0.1549536, -0.13869579, 0.44883072, -0.16770367, 0.07861483, 0.0014533997, 0
1441, 2078157723, -0.8693495, 0.14410675, -0.14387359, 0.45032215, -0.25432774, -0.17648405, 0.121943474, 0
1443, 2078191057, -0.86913526, 0.13432415, -0.15072636, 0.451517, -0.24299389, -0.19918886, 0.3062725, 0
1446, 2078241058, -0.86816263, 0.11510861, -0.166531, 0.4531399, -0.56060356, -0.28580135, 0.7033739, 0
1449, 2078291059, -0.86526823, 0.091171525, -0.1903781, 0.45473063, -0.43301177, -0.54557884, 0.77697086, 0
1451, 2078324393, -0.86183715, 0.07517913, -0.21123764, 0.45495963, -0.32324287, -0.5748019, 0.33937454, 0
1454, 2078374394, -0.8539283, 0.050238438, -0.24676874, 0.45542547, -0.39158285, -0.6223793, -0.13104439, 0
1457, 2078424395, -0.84308726, 0.020744815, -0.28225598, 0.4573071, -0.1783121, -0.44831747, -0.26160622, 0
1461, 2078491063, -0.8258629, -0.019809216, -0.3266823, 0.4591967, -0.062052336, -0.19806701, -0.3480301, 0
1464, 2078541064, -0.81143546, -0.047013447, -0.3592133, 0.45864242, -0.15578361, -0.13615169, -0.49651432, 0
1466, 2078574398, -0.8010832, -0.06575413, -0.3800123, 0.45777458, -0.2949041, -0.23693435, -0.62827396, 0
1469, 2078624399, -0.7839543, -0.095798224, -0.41012165, 0.45613974, -0.18210003, -0.12071337, -0.4136877, 0
1472, 2078674400, -0.76582, -0.12453312, -0.4396522, 0.4524842, 0.012509126, 0.11524607, -0.09710312, 0
1474, 2078707734, -0.75257057, -0.14275046, -0.45937407, 0.44973335, 0.06145064, 0.14865008, -0.202034, 0
1477, 2078757735, -0.7321479, -0.1676448, -0.4877778, 0.44491816, 0.19234726, 0.08185123, -0.54477024, 0
1480, 2078807736, -0.71064985, -0.19274263, -0.51319444, 0.4410028, 0.44019023, -0.09420557, -1.0531836, 0
1482, 2078841070, -0.6972581, -0.20713837, -0.5286108, 0.43763033, 0.5738646, 0.036804985, -1.0442924, 0
1485, 2078891071, -0.6796653, -0.22344176, -0.55029273, 0.43050152, 0.61849755, 0.26125154, -0.6852827, 0
1488, 2078941072, -0.66320485, -0.23727924, -0.5692321, 0.4240961, 0.32086286, 0.55830574, -0.11636925, 0
1492, 2079007740, -0.6427789, -0.25288126, -0.59062886, 0.4172156, 0.2491609, 0.4472796, 0.44931412, 0
1495, 2079057741, -0.62645835, -0.2652988, -0.6036712, 0.41565925, 0.36518374, 0.26776728, 0.39475632, 0
1499, 2079124409, -0.60984933, -0.27856857, -0.6185812, 0.4097138, 0.064468235, 0.36683115, 0.15910721, 0
1501, 2079157743, -0.6022019, -0.28654134, -0.62352127, 0.40803558, 0.4063025, 0.25585562, 0.09175491, 0
1505, 2079224411, -0.59183955, -0.30125344, -0.6289864, 0.40419465, 0.4283153, 0.36256784, 0.020363808, 0
1511, 2079324413, -0.58565986, -0.31754357, -0.627325, 0.40330732, 0.4905344, 0.30019376, -0.18645763, 0
1516, 2079407748, -0.58515644, -0.32109934, -0.6248826, 0.40501094, 0.22525032, 0.13279945, -0.28086758, 0
1519, 2079457749, -0.5858625, -0.3204349, -0.6242383, 0.4055095, 0.07745752, 0.16047572, -0.28645992, 0
1522, 2079507750, -0.5857318, -0.32030642, -0.62363565, 0.40672535, 0.17962752, 0.015711397, -0.17735386, 0
1524, 2079541084, -0.5856042, -0.32021248, -0.62354136, 0.40712735, 0.06643928, 0.07846601, -0.15219116, 0
1527, 2079591085, -0.5849617, -0.32048124, -0.62314165, 0.40844935, 0.21296728, -0.09650876, -0.18452644, 0
1530, 2079641086, -0.58465564, -0.32012004, -0.6234229, 0.40874153, 0.14607784, -0.009059092, -0.20672417, 0
1532, 2079674420, -0.58398443, -0.32026073, -0.6235462, 0.4094024, 0.17734675, -0.042914487, -0.16497135, 0
1536, 2079741088, -0.58327, -0.32006586, -0.6240038, 0.40987548, 0.1371514, 0.051181562, -0.1557188, 0
1539, 2079791089, -0.5832981, -0.31923276, -0.62454, 0.4096688, 0.066101916, 0.31078863, -0.15845585, 0
1543, 2079857757, -0.58311534, -0.3179124, -0.6247042, 0.4107039, 0.17379221, 0.14557153, -0.18642712, 0
1547, 2079924425, -0.58562917, -0.31513774, -0.62416613, 0.41008338, 0.21665764, 0.14775269, -0.1537981, 0
1550, 2079974426, -0.5872137, -0.31467077, -0.6225569, 0.41062158, 0.040074755, 0.20210443, -0.10921669, 0
1555, 2080057761, -0.5904777, -0.3148648, -0.61946374, 0.41047037, 0.08438028, 0.05337981, -0.2007246, 0
1559, 2080124429, -0.5931455, -0.3147899, -0.61755383, 0.40955824, 0.028371058, -0.028538022, -0.35525322, 0
1563, 2080191097, -0.59422445, -0.31457648, -0.6170247, 0.40895516, -0.10874961, 0.08734618, -0.4200306, 0
1566, 2080241098, -0.5935652, -0.315385, -0.616936, 0.40942302, 0.0712447, -0.05010881, -0.3217392, 0
1570, 2080307766, -0.59275585, -0.31649262, -0.61735183, 0.40911424, 0.17984417, -0.005952597, -0.16219616, 0
1576, 2080407768, -0.5930069, -0.3149274, -0.61816823, 0.4087255, 0.24262919, -0.02192975, -0.0833292, 0
1581, 2080491103, -0.5953499, -0.31280383, -0.6163193, 0.40974075, 0.16776614, 0.013967213, -0.22352886, 0
1585, 2080557771, -0.5984002, -0.3118171, -0.6137338, 0.40993023, 0.08615257, 0.17676735, -0.043803215, 0
1588, 2080607772, -0.60024047, -0.31180823, -0.6119724, 0.40988028, 0.1356804, -0.07076699, -0.10986519, 0
1590, 2080641106, -0.60173494, -0.31174982, -0.6109392, 0.40927407, -0.01625878, 0.023329165, -0.18470383, 0
1595, 2080724441, -0.60445696, -0.31188583, -0.6085574, 0.40870756, -0.081411466, -0.033456314, -0.33700848, 0
1597, 2080757775, -0.6050169, -0.31116262, -0.6082276, 0.40892088, -0.038905617, -0.025911521, -0.30293846, 0
1600, 2080807776, -0.6052911, -0.30963746, -0.6082814, 0.4095924, -0.02888497, 0.113569506, -0.21169949, 0
1603, 2080857777, -0.6048311, -0.30852145, -0.6089114, 0.4101774, 0.11844667, -0.057925843, -0.072110176, 0
1605, 2080891111, -0.60454285, -0.30787706, -0.60961163, 0.4100464, 0.13592236, 0.0035936413, 0.02799511, 0
1608, 2080941112, -0.6041601, -0.30773187, -0.61016816, 0.40989155, 0.16181102, -0.021974899, -0.040460587, 0
1611, 2080991113, -0.6041274, -0.30838495, -0.6099971, 0.40970373, 0.12129288, -0.07596948, -0.101392746, 0
1613, 2081024447, -0.6045798, -0.30864903, -0.60966694, 0.40932897, 0.096642144, -0.042551614, -0.1879425, 0
1616, 2081074448, -0.6052368, -0.308791, -0.6090991, 0.40909597, 0.02231598, 0.05661047, -0.31907463, 0
1619, 2081124449, -0.6058039, -0.30875915, -0.60854447, 0.40910625, 0.012710009, 0.09419373, -0.3657322, 0
1623, 2081191117, -0.6068448, -0.3084082, -0.60834146, 0.40812895, 0.0967002, 0.07302123, -0.31538677, 0
1627, 2081257785, -0.60810614, -0.30867228, -0.6080812, 0.40643618, 0.1257484, 0.005979754, -0.121626854, 0
1630, 2081307786, -0.609055, -0.30891418, -0.6079409, 0.40503922, 0.12047175, 0.08891927, 0.06322861, 0
1632, 2081341120, -0.60923326, -0.3091275, -0.6079507, 0.40459314, 0.17826901, 0.0241204, 0.16006756, 0
1636, 2081407788, -0.6090793, -0.3090284, -0.6085839, 0.40394843, 0.13347472, -0.05573195, -0.18109035, 0
1639, 2081457789, -0.60870194, -0.30903745, -0.6092972, 0.40343457, 0.06898867, -0.0018415232, -0.40254688, 0
1642, 2081507790, -0.6082424, -0.30945325, -0.6099199, 0.40286767, 0.15136153, -0.03661243, -0.28720474, 0
1644, 2081541124, -0.6081456, -0.3095888, -0.61030567, 0.402325, 0.23375912, -0.025106428, -0.16493893, 0
1647, 2081591125, -0.6082234, -0.3097512, -0.6104649, 0.40184063, 0.21089078, -0.013149938, -0.10104942, 0
1651, 2081657793, -0.60843974, -0.31030965, -0.6096438, 0.4023283, 0.17410721, 0.030347584, -0.22971153, 0
1654, 2081707794, -0.6089428, -0.31066775, -0.60860294, 0.40286645, 0.13780937, 0.12805605, -0.23584843, 0
1657, 2081757795, -0.60921675, -0.31052893, -0.60789585, 0.40362638, 0.11922148, 0.04973532, -0.19462776, 0
1659, 2081791129, -0.60916626, -0.31001008, -0.6079152, 0.4040719, 0.03427923, 0.08203283, -0.19815254, 0
1662, 2081841130, -0.60885525, -0.30896297, -0.6082591, 0.40482467, 0.08576192, -0.041630965, -0.2519045, 0
1665, 2081891131, -0.6083731, -0.308464, -0.6085398, 0.4055075, 0.08659311, -0.012076517, -0.24168491, 0
1667, 2081924465, -0.60820925, -0.30858985, -0.60842955, 0.40582275, 0.08324935, 0.061922364, -0.28132057, 0
1670, 2081974466, -0.6081275, -0.30938208, -0.6080276, 0.40594453, 0.11940867, 0.09095994, -0.2041874, 0
1673, 2082024467, -0.6078648, -0.31036186, -0.6075642, 0.40628362, 0.14628533, 0.06928801, -0.08872223, 0
1675, 2082057801, -0.6078707, -0.31042546, -0.6074848, 0.4063449, 0.14509204, 0.13297914, -0.1152792, 0
1678, 2082107802, -0.6078341, -0.3099653, -0.6076251, 0.40654108, 0.12597832, 0.11245451, -0.1938858, 0
1681, 2082157803, -0.6078936, -0.30887324, -0.6081407, 0.40651247, -0.056208815, 0.07692612, -0.40273476, 0
1684, 2082207804, -0.60780054, -0.30811232, -0.60836756, 0.40688932, 0.04770297, -0.06311928, -0.32837296, 0
1686, 2082241138, -0.6080351, -0.30788335, -0.60811377, 0.4070916, 0.01914774, 0.01204869, -0.15843296, 0
1690, 2082307806, -0.608922, -0.30722544, -0.6072084, 0.40761435, 0.04027603, 0.044630732, 0.041000366, 0
1693, 2082357807, -0.6093555, -0.30612075, -0.60709214, 0.4079705, 0.051003087, -0.010762707, -0.055680275, 0
1696, 2082407808, -0.6097057, -0.30530787, -0.6071854, 0.4079175, 0.012297459, -0.012567463, -0.1590538, 0
1698, 2082441142, -0.6098919, -0.30530608, -0.6070075, 0.40790522, 0.03078863, -0.0044647832, -0.20174408, 0
1701, 2082491143, -0.6102414, -0.30578977, -0.60654503, 0.40770835, 0.043300215, 0.021460708, -0.27532768, 0
1707, 2082591145, -0.6101699, -0.30606133, -0.6060637, 0.40832654, 0.12350438, 0.048749294, -0.17180347, 0
1711, 2082657813, -0.6099261, -0.30533785, -0.60631466, 0.4088597, 0.08131072, 0.034503248, -0.14495277, 0
1713, 2082691147, -0.6097438, -0.30510873, -0.6064263, 0.40913695, 0.09843941, 0.028952975, -0.10518074, 0
1716, 2082741148, -0.6097012, -0.30489278, -0.6065277, 0.409211, 0.05557063, 0.052753862, -0.050637245, 0
1719, 2082791149, -0.60973895, -0.30482548, -0.6067929, 0.4088118, 0.0904738, 0.047774106, -0.016105652, 0
1721, 2082824483, -0.60968566, -0.3047823, -0.60701984, 0.40858638, 0.04464582, 0.032211903, -0.09445572, 0
1724, 2082874484, -0.60907316, -0.30436626, -0.60788417, 0.4085251, 0.041044634, -0.011185147, -0.18352127, 0
1727, 2082924485, -0.6081412, -0.30333954, -0.60933846, 0.40851068, 0.12095817, -0.009200129, -0.21060658, 0
1730, 2082974486, -0.6073033, -0.30271572, -0.6104375, 0.40857875, 0.14152114, 0.031028738, -0.23529339, 0
1732, 2083007820, -0.60697925, -0.3026716, -0.6107632, 0.40860635, 0.11296619, 0.0076405667, -0.21093178, 0
1735, 2083057821, -0.6068674, -0.30294752, -0.6107522, 0.40858433, 0.20078047, 0.06743017, -0.16759014, 0
1739, 2083124489, -0.6067835, -0.30351877, -0.610479, 0.40869343, 0.13941073, 0.056941155, -0.18658352, 0
1742, 2083174490, -0.6067849, -0.30339235, -0.61068225, 0.40848157, 0.05223492, 0.05711717, -0.24645615, 0
1744, 2083207824, -0.60677963, -0.30313545, -0.6109011, 0.40835294, 0.05548497, 0.036092203, -0.247612, 0
1747, 2083257825, -0.606897, -0.30265546, -0.6110981, 0.40823963, 0.025449967, 0.050969448, -0.2594986, 0
1751, 2083324493, -0.60714495, -0.30197623, -0.61117697, 0.40825564, 0.037292074, 0.07269647, -0.196208, 0
1754, 2083374494, -0.60757303, -0.3011481, -0.61112237, 0.40831256, 0.043502104, 0.092455685, -0.21793175, 0
1759, 2083457829, -0.6080517, -0.29942602, -0.61121106, 0.40873367, 0.072368525, 0.050772533, -0.15220928, 0
1763, 2083524497, -0.6081658, -0.29830214, -0.6111802, 0.40943095, 0.08218091, 0.017928086, -0.18575954, 0
1766, 2083574498, -0.60827386, -0.29785743, -0.61093086, 0.4099658, 0.10353355, 0.020710375, -0.2080698, 0
1769, 2083624499, -0.6085937, -0.29745826, -0.6105731, 0.41031396, 0.04205251, -0.009270311, -0.19284248, 0
1773, 2083691167, -0.6090558, -0.29708028, -0.6101147, 0.41058367, 0.018069737, 0.022750378, -0.0986948, 0
1775, 2083724501, -0.6092524, -0.29708672, -0.6098374, 0.41069955, 0.062212095, 0.029900223, -0.098223686, 0
1778, 2083774502, -0.6096965, -0.29709798, -0.6094359, 0.4106283, 0.037441548, 0.04829936, -0.15032291, 0
1781, 2083824503, -0.6098658, -0.2969579, -0.6091921, 0.41083983, 0.040848836, 0.048640665, -0.14881134, 0
1783, 2083857837, -0.6097393, -0.29646674, -0.6096118, 0.41075975, 0.0998776, -0.0056402376, -0.22561073, 0
1786, 2083907838, -0.60944074, -0.29562476, -0.61031115, 0.4107712, 0.032793485, 0.051547788, -0.28249073, 0
1789, 2083957839, -0.6093762, -0.2949003, -0.61066586, 0.41086072, 0.03409444, 0.024008868, -0.24779606, 0
1792, 2084007840, -0.60953486, -0.29479533, -0.6102903, 0.41125834, 0.086940564, 0.05621809, -0.16060543, 0
1794, 2084041174, -0.6100788, -0.294668, -0.6098115, 0.4112534, 0.051963802, 0.09786984, -0.1165266, 0
1797, 2084091175, -0.61101437, -0.29445773, -0.60902876, 0.41117495, 0.02178525, 0.12581153, -0.06116581, 0
1800, 2084141176, -0.6117313, -0.29434377, -0.6084063, 0.4111122, 0.061522778, 0.022725902, -0.15544987, 0
1802, 2084174510, -0.61227727, -0.29397368, -0.60827917, 0.41075194, 0.007983883, 0.07150984, -0.20185852, 0
1805, 2084224511, -0.612953, -0.29341903, -0.60807705, 0.41043985, 0.023929242, 0.0067483033, -0.25265694, 0
1808, 2084274512, -0.61343896, -0.29317826, -0.60773045, 0.41039944, 0.026588878, -0.019882707, -0.24833202, 0
1812, 2084341180, -0.6141136, -0.29305845, -0.60721064, 0.41024542, 0.047799308, 0.050428323, -0.21354008, 0
1817, 2084424515, -0.6159601, -0.29255882, -0.6057983, 0.40992165, 0.058585707, 0.08403126, -0.1321783, 0
1820, 2084474516, -0.61747277, -0.2919647, -0.60463643, 0.40978467, 0.03737718, 0.052616403, -0.118429184, 0
1824, 2084541184, -0.619032, -0.29114842, -0.6033194, 0.4099542, 0.0058354205, 1.8484521E-4, -0.14662933, 0
1827, 2084591185, -0.62004906, -0.29050177, -0.6027098, 0.40977252, -0.051837347, 0.03687662, -0.18293, 0
1829, 2084624519, -0.62059814, -0.29028213, -0.60232246, 0.40966654, -0.009971974, -0.061530657, -0.2665863, 0
1832, 2084674520, -0.6213126, -0.2900493, -0.6020438, 0.40915787, -0.019354379, 0.06609446, -0.12436199, 0
1835, 2084724521, -0.62176204, -0.28985703, -0.6020062, 0.40866637, 0.047753375, -0.009134751, -0.081305504, 0
1838, 2084774522, -0.62200963, -0.28957787, -0.60190904, 0.40863055, 0.09068586, -0.082741365, -0.12362671, 0
1840, 2084807856, -0.6218015, -0.28947496, -0.6018902, 0.40904784, 0.06912954, -0.15276854, -0.24113369, 0
1843, 2084857857, -0.6212142, -0.28886878, -0.6025899, 0.40933853, 0.08739334, -0.07403498, -0.32339287, 0
1846, 2084907858, -0.62040055, -0.28842545, -0.6030282, 0.41023886, 0.14770195, -0.005938292, -0.20382786, 0
1848, 2084941192, -0.6201487, -0.28811347, -0.60292685, 0.41098684, 0.17342544, 0.052711174, -0.17779636, 0
1851, 2084991193, -0.62086576, -0.2872495, -0.6023572, 0.41134405, 0.026437057, 0.081429124, -0.2149849, 0
1854, 2085041194, -0.6203594, -0.28658667, -0.6023457, 0.41258568, 0.0836704, 0.047209177, -0.008569717, 0
1858, 2085107862, -0.62047786, -0.2842934, -0.60262114, 0.4135905, -0.051159825, -0.06306988, -0.10385513, 0
1860, 2085141196, -0.6204927, -0.2836086, -0.6032756, 0.4130841, -0.13442656, -0.04221344, -0.10452938, 0
1863, 2085191197, -0.6205205, -0.28419828, -0.6036678, 0.41206288, -0.0066326354, -0.19618648, -0.004342079, 0
1866, 2085241198, -0.6200131, -0.28519195, -0.6042671, 0.4112609, 0.26655596, -0.28237388, -0.04492855, 0
1869, 2085291199, -0.61906946, -0.28699684, -0.60450125, 0.41108257, -0.027142128, -0.15140723, -0.14015007, 0
1871, 2085324533, -0.61949337, -0.28947628, -0.6028238, 0.41116875, 0.24686967, 0.17402317, 0.10688019, 0
1874, 2085374534, -0.6191412, -0.29656404, -0.59631324, 0.41611215, 0.342261, -0.60941714, 0.026201248, 0
1878, 2085441202, -0.6181493, -0.30272755, -0.5901952, 0.42183185, -0.22965106, 0.0069332602, -0.38523865, 0
1881, 2085491203, -0.61411655, -0.30591846, -0.588598, 0.42761174, 0.15536849, 0.0042568045, -0.42214012, 0
1883, 2085524537, -0.6111238, -0.30652046, -0.588874, 0.4310745, -0.26626801, 0.08973129, -0.22097969, 0
1887, 2085591205, -0.6029833, -0.31080884, -0.5885937, 0.43976265, 0.23951598, -0.6253234, -0.50025654, 0
1890, 2085641206, -0.597612, -0.31997836, -0.58565915, 0.44441178, 0.10173455, -1.4103161, 0.02451992, 0
1893, 2085691207, -0.5897599, -0.33816957, -0.5764653, 0.4533618, -0.28590217, -0.94862276, 0.079538345, 0
1896, 2085741208, -0.5771568, -0.36366645, -0.5626981, 0.46693948, -0.907609, -1.119828, 0.35367584, 0
1901, 2085824543, -0.54730034, -0.4071579, -0.5377394, 0.4955261, -0.26735127, -0.542077, -0.32206345, 0
1904, 2085874544, -0.52685624, -0.43061915, -0.5241695, 0.512114, -0.7686736, -0.40879425, -0.22763348, 0
1906, 2085907878, -0.5110605, -0.44636846, -0.5132973, 0.52547425, -0.1467706, -0.72954106, 0.118112564, 0
1909, 2085957879, -0.48684952, -0.47020808, -0.49293822, 0.54673445, -0.654592, -0.9849631, -0.2788086, 0
1912, 2086007880, -0.46265826, -0.49403694, -0.46707097, 0.5689854, -0.8551087, -0.6123359, -0.32548237, 0
1914, 2086041214, -0.4440752, -0.5104487, -0.44670305, 0.58542347, -1.1518595, -0.8068052, -0.113199234, 0
1920, 2086141216, -0.38865334, -0.54560655, -0.38898367, 0.6324386, -0.39244008, 0.73404413, 0.3897419, 0
1924, 2086207884, -0.3552884, -0.56685126, -0.3509468, 0.6552183, -1.0706991, 0.55131626, 0.0602417, 0
1927, 2086257885, -0.32774374, -0.5867391, -0.31606922, 0.66966116, -0.30913904, 1.1101944, -0.28241348, 0
1929, 2086291219, -0.3084884, -0.5992161, -0.29581702, 0.6769728, -0.020373095, 1.1323603, -0.24437237, 0
1932, 2086341220, -0.2819224, -0.61280215, -0.2721628, 0.68625444, 0.90139383, 0.7849346, -0.1726017, 0
1935, 2086391221, -0.26047525, -0.6217139, -0.25740254, 0.69238216, 1.8386201, 1.3832738, -0.53436565, 0
1937, 2086424555, -0.24793099, -0.6264621, -0.25204113, 0.6946766, 1.4674982, 1.3323715, -0.56279945, 0
1941, 2086491223, -0.23140758, -0.63286877, -0.249014, 0.6956611, 1.4374238, 1.1142184, -0.98067665, 0
1947, 2086591225, -0.22360596, -0.6399753, -0.25339735, 0.6901063, 0.5928271, -0.012389323, -0.38962364, 0
1952, 2086674560, -0.22879596, -0.64063835, -0.25605327, 0.6868016, 0.024340896, -0.06806439, -0.16605663, 0
1955, 2086724561, -0.23174307, -0.63855004, -0.25720084, 0.6873293, -0.12450286, 0.0021526532, -0.024586678, 0
1959, 2086791229, -0.23706785, -0.6361217, -0.25665253, 0.6879697, -0.029204538, 0.06867335, 0.19527245, 0
1962, 2086841230, -0.24082716, -0.63629586, -0.25458372, 0.68727124, 0.12595308, 0.014530801, 0.22051239, 0
1964, 2086874564, -0.2436045, -0.63668704, -0.25443733, 0.6859832, -0.047907487, -0.014541306, 0.14768982, 0
1967, 2086924565, -0.24642153, -0.63745606, -0.25369686, 0.68453556, -0.15303655, -0.34344074, -0.015081406, 0
1970, 2086974566, -0.2503641, -0.63760984, -0.25387433, 0.68289405, -0.095770106, -0.08929689, -0.26902103, 0
1973, 2087024567, -0.25343293, -0.63813674, -0.25259656, 0.6817425, -0.032486293, -0.17458887, -0.30745888, 0
1975, 2087057901, -0.25542805, -0.63866395, -0.25130704, 0.68098056, 0.0052928985, 0.08122159, -0.30829144, 0
1978, 2087107902, -0.25812557, -0.6394504, -0.24949412, 0.67989105, -0.12689099, 0.14109501, -0.26347828, 0
1982, 2087174570, -0.2612325, -0.6400653, -0.24731201, 0.6789223, -0.082625926, 0.07712739, -0.15147972, 0
1985, 2087224571, -0.2635004, -0.6403769, -0.24663557, 0.67799747, -0.10314173, -0.013385856, -0.2239399, 0
1987, 2087257905, -0.26457757, -0.6406743, -0.24619314, 0.67745775, -0.021716882, -0.06107514, -0.21573353, 0
1991, 2087324573, -0.2670221, -0.64029425, -0.24643797, 0.6767684, 0.022060813, -0.061795633, -0.4027319, 0
1994, 2087374574, -0.26818207, -0.6391939, -0.24827789, 0.67667747, 0.05570926, -0.051673513, -0.42011642, 0
1998, 2087441242, -0.26954016, -0.63679993, -0.25186715, 0.6770685, 0.011695762, -0.11771098, -0.29813004, 0
2002, 2087507910, -0.27204978, -0.6342165, -0.2538975, 0.6777308, 0.0046559423, -0.06685664, -0.0971899, 0
2005, 2087557911, -0.27350408, -0.6328683, -0.25306344, 0.6787172, -0.014115178, -0.07253577, 2.1266937E-4, 0
2009, 2087624579, -0.2755559, -0.63163185, -0.25109768, 0.6797682, 0.018664785, 0.0331482, -0.003965378, 0
2012, 2087674580, -0.27726156, -0.6305944, -0.25077552, 0.68015677, 0.06559158, 0.022572014, -0.064014435, 0
2016, 2087741248, -0.279602, -0.6291568, -0.25138655, 0.6803044, -0.03417731, -0.07483973, -0.15984344, 0
2018, 2087774582, -0.28103578, -0.6285117, -0.25178143, 0.6801637, -0.05545454, -0.021596158, -0.18381786, 0
2021, 2087824583, -0.28279424, -0.6277173, -0.25164658, 0.68021846, -0.08080041, -0.06443364, -0.15586472, 0
2024, 2087874584, -0.2846765, -0.6269183, -0.2516827, 0.6801569, -0.0530748, 0.08680226, -0.15851688, 0
2026, 2087907918, -0.28572237, -0.62632984, -0.2517161, 0.68024796, -0.0038086327, -0.018620305, -0.1053915, 0
2029, 2087957919, -0.28709167, -0.6258552, -0.25208384, 0.67997205, 0.06465453, -0.0463643, -0.095009804, 0
2032, 2088007920, -0.2884987, -0.625813, -0.25243086, 0.67928654, -0.024536526, -0.18211232, -0.17188835, 0
2035, 2088057921, -0.28906924, -0.62606645, -0.25237265, 0.6788318, -0.13513245, -0.30697784, -0.2477026, 0
2037, 2088091255, -0.28873873, -0.62612957, -0.25212008, 0.6790081, -0.10486736, -0.26131904, -0.24070454, 0
2040, 2088141256, -0.28784472, -0.6257951, -0.25203234, 0.6797282, -0.086897425, -0.2051831, -0.2308197, 0
2044, 2088207924, -0.28663668, -0.62493384, -0.2515116, 0.6812224, -0.07028337, -0.08214973, -0.1447115, 0
2048, 2088274592, -0.2862195, -0.62424695, -0.24986331, 0.6826327, 0.010854571, 0.11649104, -0.1395731, 0
2051, 2088324593, -0.28652465, -0.6236259, -0.24894534, 0.6834072, 0.027575212, 0.1360919, -0.09842682, 0
2054, 2088374594, -0.2869981, -0.6228397, -0.2490657, 0.68388146, 0.027359411, 0.13702841, -0.10275078, 0
2058, 2088441262, -0.28776652, -0.6220718, -0.25033873, 0.6837927, -0.06851195, 0.04871353, -0.20371628, 0
2060, 2088474596, -0.28820807, -0.6219832, -0.25077063, 0.683529, -0.02693331, 5.8158074E-4, -0.21274662, 0
2063, 2088524597, -0.28880924, -0.6219935, -0.251216, 0.6831023, -0.06763857, -0.050059192, -0.22631836, 0
2066, 2088574598, -0.2890241, -0.6218208, -0.25201052, 0.68287605, -0.115023956, -0.11665856, -0.2177887, 0
2070, 2088641266, -0.28865856, -0.6213022, -0.25341997, 0.6829809, -0.057682157, -0.15934664, -0.12935448, 0
2072, 2088674600, -0.2886926, -0.6207627, -0.25409192, 0.68320745, 0.03137714, -0.044443652, -0.15423489, 0
2076, 2088741268, -0.28867885, -0.6201298, -0.25337714, 0.6840528, 0.03246235, -0.027178282, -0.13768578, 0
2079, 2088791269, -0.2891029, -0.6197133, -0.25247192, 0.6845858, 0.07578243, 0.004202267, -0.17877674, 0
2082, 2088841270, -0.28946376, -0.61916125, -0.25205845, 0.68508494, -0.033234477, -0.052113052, -0.096102715, 0
2085, 2088891271, -0.28956425, -0.61862445, -0.25185785, 0.68560106, -0.09210748, -0.0013718108, -0.07000446, 0
2087, 2088924605, -0.289266, -0.6184386, -0.25156045, 0.6860037, -0.15267387, -0.059998475, -0.08802891, 0
2090, 2088974606, -0.28914234, -0.6179565, -0.25199455, 0.6863308, -0.022626132, 0.03391608, -0.20708561, 0
2093, 2089024607, -0.288813, -0.61729854, -0.25368786, 0.6864378, 0.053671326, 0.04961127, -0.26208496, 0
2095, 2089057941, -0.2886456, -0.61672294, -0.25535953, 0.6864057, 0.034218855, 0.07580643, -0.30492687, 0
2098, 2089107942, -0.28899473, -0.61570174, -0.2578852, 0.6862314, 0.076366946, 0.052809965, -0.18299866, 0
2101, 2089157943, -0.28964722, -0.61462593, -0.25910103, 0.6864625, -0.04130268, -0.12011407, -0.10040951, 0
2105, 2089224611, -0.2912939, -0.61291623, -0.2598313, 0.6870183, 0.005021135, -0.045883074, -0.075237274, 0
2107, 2089257945, -0.29212818, -0.61177945, -0.2611947, 0.68716025, 0.031866886, 0.12848362, -0.11817932, 0
2110, 2089307946, -0.292864, -0.6098162, -0.26455033, 0.68730843, -0.016619837, 0.0402881, -0.14271164, 0
2114, 2089374614, -0.2941269, -0.60797197, -0.2697479, 0.68638206, -0.06971034, -0.15713911, -0.040590286, 0
2117, 2089424615, -0.29497445, -0.60821205, -0.27126428, 0.68520695, -0.117857344, -0.17451243, -0.08574772, 0
2120, 2089474616, -0.29559642, -0.60889196, -0.271126, 0.68438935, -0.070938595, -0.12540641, -0.17779636, 0
2122, 2089507950, -0.29578063, -0.6092112, -0.27096963, 0.6840874, -0.13027786, -0.08983075, -0.24796295, 0
2125, 2089557951, -0.29561722, -0.6090899, -0.2715031, 0.68405473, -0.04296506, 5.7509885E-4, -0.34188366, 0
2128, 2089607952, -0.29530552, -0.60861826, -0.27256727, 0.68418586, 0.008355445, -0.023698743, -0.38062096, 0
2130, 2089641286, -0.29532182, -0.60821944, -0.27305913, 0.6843373, -9.960575E-4, -0.0025193263, -0.39292812, 0
2133, 2089691287, -0.2955902, -0.60761404, -0.27262133, 0.68493366, 0.032024182, -0.010904973, -0.23989964, 0
2136, 2089741288, -0.2962887, -0.60666, -0.27201748, 0.68571717, 0.025798647, -0.033730786, -0.12296772, 0
2139, 2089791289, -0.2969265, -0.6053576, -0.27193776, 0.68662333, -0.018276123, -0.03160451, -0.098750114, 0
2141, 2089824623, -0.29748, -0.60439086, -0.27220362, 0.68713, -0.056598175, 0.012331322, -0.11228657, 0
2144, 2089874624, -0.29793504, -0.6033478, -0.27227044, 0.68782264, -0.09719704, 0.011960067, -0.06890297, 0
2147, 2089924625, -0.29840028, -0.6025554, -0.27229807, 0.6883043, -0.01426035, 0.0073443004, -0.037359238, 0
2149, 2089957959, -0.29878575, -0.60231376, -0.2722175, 0.6883805, -0.08384952, 0.014309187, -0.103105545, 0
2152, 2090007960, -0.29939598, -0.6021372, -0.27182493, 0.6884248, -0.040504236, -0.013046339, -0.13791943, 0
2155, 2090057961, -0.299914, -0.6020104, -0.27196229, 0.688256, -0.018851753, 0.042154096, -0.1674757, 0
2160, 2090141296, -0.30015785, -0.6019262, -0.27331007, 0.6876892, -0.018789785, 0.018735638, -0.1081028, 0
2163, 2090191297, -0.30020648, -0.60208255, -0.27446753, 0.68707, -0.060090367, -0.057958025, -0.027523994, 0
2166, 2090241298, -0.30040482, -0.6024635, -0.2754336, 0.6862622, -0.0729313, -0.016623441, -0.094511986, 0
2168, 2090274632, -0.3003605, -0.602592, -0.27599442, 0.68594337, -0.050608084, -0.023163207, -0.12385845, 0
2171, 2090324633, -0.3005982, -0.60243815, -0.27734327, 0.68543005, -0.030902678, 0.033529066, -0.24331474, 0
2174, 2090374634, -0.30045772, -0.6025308, -0.27857152, 0.68491197, -0.0057756025, -0.032897197, -0.24560452, 0
2176, 2090407968, -0.300392, -0.60265076, -0.27926362, 0.6845534, -0.0067055286, -0.014997496, -0.24378967, 0
2179, 2090457969, -0.3003029, -0.60275203, -0.28009695, 0.6841628, 0.056704957, -0.06962115, -0.27296257, 0
2182, 2090507970, -0.30018687, -0.6022467, -0.2814389, 0.6841079, 0.13519992, 0.039273463, -0.23260784, 0
2184, 2090541304, -0.30022472, -0.60156953, -0.28283837, 0.68411005, -0.020844763, -0.035962675, -0.20319653, 0
2189, 2090624639, -0.3004083, -0.6002405, -0.28593063, 0.6839113, -0.054412942, -0.02676847, -0.1105299, 0
2191, 2090657973, -0.30073223, -0.60018754, -0.28623426, 0.68368834, -0.06421935, -0.06134816, -0.14661121, 0
2195, 2090724641, -0.30139777, -0.6005355, -0.2854643, 0.6834117, -0.0058467356, -0.071990505, -0.16933823, 0
2198, 2090774642, -0.30148548, -0.6007757, -0.28510505, 0.68331176, -0.0029699842, -0.070534095, -0.21310616, 0
2201, 2090824643, -0.30144453, -0.60074395, -0.28556135, 0.6831671, 0.012543966, -0.02338426, -0.25069332, 0
2203, 2090857977, -0.30134973, -0.6007241, -0.2858595, 0.68310165, -0.025348715, -0.0066771144, -0.20938873, 0
2207, 2090924645, -0.30131036, -0.6008954, -0.28569227, 0.6830385, -0.03263996, 0.007876373, -0.14411545, 0
2210, 2090974646, -0.30124712, -0.6011339, -0.28556198, 0.6829109, 0.009575994, -0.07062071, -0.06999779, 0
2214, 2091041314, -0.30159324, -0.60141504, -0.28568426, 0.68245935, 0.01033021, -0.006741598, -0.10664749, 0
2217, 2091091315, -0.30200785, -0.6016139, -0.28542185, 0.68221045, -0.061195474, 0.009374692, -0.2287159, 0
2221, 2091157983, -0.30219933, -0.60209835, -0.28428376, 0.6821735, -0.0063526575, 0.0077298605, -0.24651909, 0
2225, 2091224651, -0.30247903, -0.60226333, -0.2836807, 0.682155, -8.756679E-4, -0.04669711, -0.14892769, 0
2228, 2091274652, -0.30300808, -0.6018547, -0.28374332, 0.6822549, -0.06332155, -0.004769655, -0.11340904, 0
2230, 2091307986, -0.30323583, -0.60162854, -0.28335607, 0.68251395, -0.06565744, -0.052331313, -0.17327118, 0
2234, 2091374654, -0.30374336, -0.6016661, -0.28225195, 0.6827127, -0.087865405, -0.056952108, -0.17931366, 0
2237, 2091424655, -0.3033399, -0.601973, -0.2815051, 0.6829298, -0.07837225, -0.04930774, -0.1328659, 0
2241, 2091491323, -0.3023162, -0.6020511, -0.28199977, 0.68311083, -0.042898897, -0.0019500388, -0.10714817, 0
2245, 2091557991, -0.3019513, -0.6022087, -0.2824664, 0.68294036, 0.025185356, 0.060834974, -0.07598591, 0
2248, 2091607992, -0.30200833, -0.6024641, -0.28262156, 0.6826258, -0.061336983, 0.07215412, -0.07065678, 0
2251, 2091657993, -0.30222434, -0.60292786, -0.283145, 0.68190324, -0.097961344, 0.058656283, -0.07450676, 0
2253, 2091691327, -0.3022864, -0.6033127, -0.28395444, 0.6811985, -0.06342041, 0.012782482, -0.07065487, 0
2257, 2091757995, -0.302054, -0.60448337, -0.28553814, 0.6796, -0.10066817, -0.06011638, -0.21394253, 0
2260, 2091807996, -0.30185276, -0.60578215, -0.28560904, 0.6785022, -0.06527948, -0.049487557, -0.30440712, 0
2263, 2091857997, -0.3013441, -0.60702676, -0.2847796, 0.6779643, 0.014813516, -0.09588773, -0.31515026, 0
2265, 2091891331, -0.30098176, -0.6074385, -0.2843886, 0.6779207, 0.07877454, -0.036050517, -0.25143528, 0
2268, 2091941332, -0.30029422, -0.607413, -0.2848202, 0.6780672, 0.0073905396, 0.013513146, -0.20335007, 0
2271, 2091991333, -0.29937875, -0.60704505, -0.28579473, 0.67839134, -0.0035585498, -0.032789014, -0.11055088, 0
2274, 2092041334, -0.29891968, -0.60677224, -0.2862177, 0.67865944, -0.036480136, -0.035499223, -0.07752323, 0
2276, 2092074668, -0.29861355, -0.6070166, -0.28564376, 0.6788175, -0.04940642, -0.02750394, -0.10579777, 0
2279, 2092124669, -0.29846168, -0.6074196, -0.28475612, 0.6788969, -0.015166053, 0.061626546, -0.1486826, 0
2282, 2092174670, -0.29786885, -0.6079351, -0.2843101, 0.6788826, -0.03548461, 0.043662585, -0.19356728, 0
2284, 2092208004, -0.29736772, -0.6081869, -0.2845096, 0.6787932, 0.016965779, 0.053433903, -0.15769768, 0
2287, 2092258005, -0.29668313, -0.60858494, -0.28487295, 0.67858356, 0.003909325, 0.037116673, -0.17062855, 0
2290, 2092308006, -0.2962016, -0.6091476, -0.28454292, 0.6784275, 0.015900824, 0.026808256, -0.2784214, 0
2292, 2092341340, -0.29622793, -0.60937756, -0.28410923, 0.6783912, 0.047621865, 0.059290387, -0.345891, 0
2295, 2092391341, -0.29606313, -0.6097879, -0.28245488, 0.6787853, -0.015445388, 0.016448542, -0.29700947, 0
2298, 2092441342, -0.29618865, -0.61001974, -0.2805121, 0.6793276, 0.021839395, 0.0046903077, -0.2914381, 0
2301, 2092491343, -0.29593807, -0.61023635, -0.2791937, 0.67978513, -0.020954143, -0.04393516, 0.035577774, 0
2303, 2092524677, -0.29607406, -0.61023563, -0.27898872, 0.67981076, -0.024655156, 0.047342613, 0.02006054, 0
2307, 2092591345, -0.2961625, -0.6106206, -0.27856332, 0.67960113, -0.028105386, 0.0045289313, 0.21573067, 0
2311, 2092658013, -0.2962824, -0.611638, -0.27812105, 0.6788144, -0.11673249, 0.04218103, 0.60380936, 0
2314, 2092708014, -0.2958693, -0.61294043, -0.2800882, 0.67700875, -0.16030815, 0.044088267, 1.5522795, 0
2317, 2092758015, -0.2958129, -0.61334383, -0.2853781, 0.67445415, -0.14653699, 0.122812435, 1.024785, 0
2322, 2092841350, -0.29646945, -0.61457574, -0.2989609, 0.66712046, -0.2755373, 0.27117854, 0.69615173, 0
2325, 2092891351, -0.29769722, -0.6136529, -0.31344268, 0.6607459, 0.024346903, -0.0457835, 2.0163736, 0
2328, 2092941352, -0.3015163, -0.60880303, -0.33386523, 0.6534567, -0.4840297, 0.15796778, 2.15096, 0
2330, 2092974686, -0.30737102, -0.60273904, -0.35010588, 0.6478266, -0.45664048, 0.3110404, 1.5831423, 0
2333, 2093024687, -0.31992018, -0.58944213, -0.37847838, 0.63795614, -0.46594566, 0.7983825, 0.6246729, 0
2337, 2093091355, -0.3489111, -0.56001973, -0.4234517, 0.62076753, -0.616791, 1.1110033, -0.22384167, 0
2341, 2093158023, -0.39199746, -0.51544166, -0.47398835, 0.5966721, -0.5840841, 0.40074375, -1.5355558, 0
2345, 2093224691, -0.44481814, -0.46655357, -0.5146162, 0.56538445, -0.11685238, -0.1956968, -1.916718, 0
2348, 2093274692, -0.4895604, -0.42256215, -0.5478381, 0.5307261, 0.19625081, 0.05583098, -2.2374072, 0
2350, 2093308026, -0.51649404, -0.3919913, -0.57014406, 0.50451684, 0.29009908, -0.37030384, -2.3274927, 0
2353, 2093358027, -0.55567473, -0.34782523, -0.60049975, 0.45789498, 0.021626946, -0.7620248, -1.9834466, 0
2356, 2093408028, -0.58911973, -0.3033391, -0.62769955, 0.40858454, 0.28605345, -0.36922374, -1.3328457, 0
2359, 2093458029, -0.6111604, -0.2689144, -0.64382195, 0.3737461, 0.43437296, -1.0849848, -0.6239548, 0
2361, 2093491363, -0.62344885, -0.24963935, -0.64915586, 0.35723013, 0.45861936, -0.4378507, -0.052279472, 0
2364, 2093541364, -0.6349784, -0.23258565, -0.6479142, 0.350626, 0.6270456, -0.3320667, -0.6547651, 0
2367, 2093591365, -0.64141774, -0.22462587, -0.64592314, 0.34775668, 1.4052168, -0.03834499, -0.8749399, 0
2371, 2093658033, -0.6465073, -0.21802224, -0.649144, 0.33635008, 0.4730075, -0.21180691, -0.32754993, 0
2373, 2093691367, -0.64963865, -0.21295792, -0.6507374, 0.33043036, 0.09794249, -0.17120098, 0.26306725, 0
2376, 2093741368, -0.65525335, -0.20562021, -0.64913285, 0.32713118, -0.29186478, 0.004246858, 0.12155914, 0
2379, 2093791369, -0.66106963, -0.20119944, -0.643968, 0.3283835, -0.30311954, -0.026658725, -0.04307556, 0
2382, 2093841370, -0.66675127, -0.19814302, -0.6363944, 0.3334803, -0.30529377, -0.7573409, -0.26113033, 0
2384, 2093874704, -0.6699276, -0.19465904, -0.6314893, 0.33845365, -0.17588559, -0.7419489, -0.31846046, 0
2387, 2093924705, -0.67452306, -0.18711948, -0.62315726, 0.34886193, 0.35735676, 0.008071165, -0.45718384, 0
2391, 2093991373, -0.6755315, -0.18433, -0.6164292, 0.36016583, 1.2730192, 0.561984, -1.0739346, 0
2394, 2094041374, -0.6729319, -0.18518123, -0.62310123, 0.3530442, 0.4657572, 0.110528275, -0.7092905, 0
2396, 2094074708, -0.6722201, -0.18252213, -0.6293701, 0.34456325, -0.5869235, 0.13597545, 0.009029388, 0
2399, 2094124709, -0.6713885, -0.17950088, -0.6347372, 0.3378616, -1.0734019, 0.042728636, 0.6169014, 0
2402, 2094174710, -0.6706556, -0.18062566, -0.63345516, 0.34110808, -0.19716614, -0.31116232, 0.12950897, 0
2405, 2094224711, -0.67031956, -0.18226321, -0.63083243, 0.34572685, 0.21873268, 0.17840233, -0.43288517, 0
2407, 2094258045, -0.66953933, -0.18225989, -0.6319598, 0.345181, 0.26535693, 0.016055606, -0.4654255, 0
2410, 2094308046, -0.66959167, -0.17849018, -0.6361427, 0.33931643, -0.1655812, 0.27321497, -0.0352726, 0
2413, 2094358047, -0.6689791, -0.17826147, -0.6385069, 0.33618972, 0.03334355, 4.925108E-4, 0.07934761, 0
2415, 2094391381, -0.6695385, -0.17792727, -0.63904524, 0.33422482, -0.14436077, 0.05699614, -0.020460129, 0
2418, 2094441382, -0.6697786, -0.18002672, -0.63833326, 0.33397993, 0.19422762, -0.011662347, -0.27876854, 0
2421, 2094491383, -0.6694504, -0.18213147, -0.638443, 0.33328635, 0.33772126, -0.08487156, -0.32619286, 0
2423, 2094524717, -0.6693108, -0.18256265, -0.6390073, 0.33224735, 0.21963859, -0.06764486, -0.355299, 0
2426, 2094574718, -0.66910803, -0.18147233, -0.64022857, 0.33089936, 0.16379286, -0.12581365, -0.10441208, 0
2429, 2094624719, -0.66919094, -0.17943639, -0.6408528, 0.33063346, 0.097915106, 0.027554343, -0.22557163, 0
2431, 2094658053, -0.66909873, -0.1783657, -0.64111435, 0.33089238, 0.072916746, 0.017884836, -0.14883995, 0
2434, 2094708054, -0.6688117, -0.17738928, -0.6414247, 0.3313958, -0.013603333, -0.045040656, -0.18875694, 0
2437, 2094758055, -0.66787267, -0.17748761, -0.6423183, 0.33150578, -0.0690113, -0.12617977, -0.13293552, 0
2440, 2094808056, -0.666923, -0.17708151, -0.64388615, 0.33059227, -0.20444854, -0.07940365, -0.019627571, 0
2442, 2094841390, -0.6662369, -0.1773349, -0.6442989, 0.33103544, -0.15646443, -0.08293806, -0.016360283, 0
2445, 2094891391, -0.66498405, -0.17856254, -0.644287, 0.33291224, 0.021014689, -0.02687274, -0.22712803, 0
2448, 2094941392, -0.66323715, -0.18035993, -0.6448831, 0.33427125, 0.114245296, 0.047785282, -0.35059166, 0
2452, 2095008060, -0.66062725, -0.18150097, -0.6477127, 0.33334965, -0.033877745, -0.009848428, -0.1569643, 0
2454, 2095041394, -0.6597817, -0.18068154, -0.6492674, 0.3324443, -0.1562483, 0.030661395, 0.014203072, 0
2457, 2095091395, -0.6588671, -0.17945191, -0.6500151, 0.33346108, -0.14701197, 0.13705982, -0.040017128, 0
2460, 2095141396, -0.6585254, -0.17813689, -0.6498455, 0.33516738, -0.03143084, 0.20760207, -0.23566246, 0
2463, 2095191397, -0.657971, -0.17767203, -0.6500535, 0.3360983, 0.060378112, 0.18339093, -0.2308693, 0
2465, 2095224731, -0.6578253, -0.17665455, -0.6508261, 0.33542398, -0.060651693, 0.17254004, -0.17606068, 0
2468, 2095274732, -0.6575688, -0.17548513, -0.6518519, 0.3345478, -0.054303702, 0.1392327, -0.17325974, 0
2471, 2095324733, -0.65741247, -0.17473745, -0.65265816, 0.33367312, -0.022872752, 0.11169747, -0.18206692, 0
2473, 2095358067, -0.65743625, -0.17409584, -0.65315497, 0.33298913, -0.018700548, 0.0834195, -0.16090107, 0
2476, 2095408068, -0.6575133, -0.1731163, -0.6537289, 0.33222008, -0.051834665, 0.07787549, -0.10569954, 0
2480, 2095474736, -0.6578732, -0.17183515, -0.6538255, 0.33198243, -0.06713223, 0.12247124, -0.14136887, 0
2483, 2095524737, -0.65803385, -0.17110673, -0.65404046, 0.33161715, 0.010250639, -0.030658266, -0.18855572, 0
2485, 2095558071, -0.65825766, -0.17043102, -0.65424305, 0.3311206, -0.09128906, 0.11090914, -0.16830444, 0
2488, 2095608072, -0.6580405, -0.17056319, -0.654519, 0.33093905, 0.073000446, -0.06384536, -0.16188431, 0
2491, 2095658073, -0.65822554, -0.1705544, -0.65462637, 0.3303624, -0.0975671, 0.14651789, -0.25553036, 0
2494, 2095708074, -0.65801156, -0.17100912, -0.654901, 0.33000934, 0.038284976, 0.014016163, -0.18422794, 0
2496, 2095741408, -0.65809476, -0.17084908, -0.65505475, 0.32962084, -0.092183, 0.083841495, -0.16762733, 0
2499, 2095791409, -0.6580419, -0.17075342, -0.6548757, 0.3301313, -0.019128574, 0.07289395, -0.09151459, 0
2502, 2095841410, -0.6583513, -0.17060062, -0.6540201, 0.33128762, -0.033907473, 0.1447813, -0.1513586, 0
2504, 2095874744, -0.658608, -0.17077309, -0.6532699, 0.33216748, 0.08767765, 0.08714982, -0.22629738, 0
2508, 2095941412, -0.65900785, -0.17144766, -0.65244216, 0.33265346, 0.10022868, 0.11049743, -0.25866508, 0
2511, 2095991413, -0.65918463, -0.17150411, -0.65242934, 0.33229893, 0.15484631, 0.049566343, -0.29224777, 0
2514, 2096041414, -0.6588919, -0.17173883, -0.6530446, 0.33154902, 0.089577064, 0.0019752958, -0.20398235, 0
2517, 2096091415, -0.6586114, -0.17126703, -0.6541182, 0.33023146, -0.10862897, 0.0048322384, -0.088377, 0
2519, 2096124749, -0.6584784, -0.1710056, -0.65447235, 0.32993034, -0.11009332, 0.057928413, -0.05846405, 0
2522, 2096174750, -0.65845084, -0.17110798, -0.6543137, 0.33024666, -0.061334636, 0.08045047, -0.11422825, 0
2525, 2096224751, -0.65876085, -0.17101139, -0.6538274, 0.3306417, -0.022884598, 0.12532237, -0.126297, 0
2527, 2096258085, -0.6589531, -0.17097339, -0.6535175, 0.33089072, 0.0017853098, 0.08544945, -0.16314888, 0
2531, 2096324753, -0.65955424, -0.17079377, -0.6529646, 0.330877, 0.025580946, 0.038823195, -0.20740604, 0
2534, 2096374754, -0.6604091, -0.16962668, -0.6526972, 0.33029968, -0.14088222, 0.0767691, -0.1597395, 0
2537, 2096424755, -0.6608979, -0.1693159, -0.6517508, 0.33134872, -0.013030694, 0.06568442, -0.21302128, 0
2539, 2096458089, -0.6612073, -0.1691387, -0.65121007, 0.33188444, 0.033011522, 0.0900232, -0.21483898, 0
2542, 2096508090, -0.6615796, -0.16882107, -0.65102136, 0.3316745, -0.05492954, 0.10708293, -0.12034607, 0
2545, 2096558091, -0.66219145, -0.16810536, -0.65088874, 0.33107635, -0.11033281, -0.018928865, -0.13127422, 0
2548, 2096608092, -0.66291416, -0.16776189, -0.6498778, 0.3317898, -0.07956648, 0.032521695, -0.13737011, 0
2550, 2096641426, -0.6633168, -0.16768831, -0.6490848, 0.33257335, -0.01934717, 0.009341389, -0.2632475, 0
2554, 2096708094, -0.6636132, -0.16760355, -0.6488515, 0.33248025, 0.046286404, 0.13287207, -0.3689642, 0
2557, 2096758095, -0.6628909, -0.16858172, -0.65023804, 0.33071297, 0.1663731, -0.0047816127, -0.40339184, 0
2560, 2096808096, -0.66095936, -0.16983455, -0.6535828, 0.32732734, 0.14629325, -0.27211618, -0.20784092, 0
2562, 2096841430, -0.66014904, -0.16920233, -0.65605974, 0.32432127, -0.1469211, -0.13234593, -0.01612854, 0
2565, 2096891431, -0.65930927, -0.16844097, -0.6575414, 0.32342374, -0.30327445, -0.047240917, 0.21285057, 0
2568, 2096941432, -0.6585239, -0.16979444, -0.65645087, 0.32651687, -0.156581, -0.0464337, -0.19244003, 0
2571, 2096991433, -0.65790987, -0.17058453, -0.6557589, 0.32872564, -0.11097173, 0.0071743187, -0.17185211, 0
2573, 2097024767, -0.657225, -0.17098573, -0.65601885, 0.32936805, 0.026841559, 0.008286072, -0.29084587, 0
2576, 2097074768, -0.6560034, -0.17170194, -0.6570817, 0.32931215, -0.0373888, 0.1609244, -0.14848042, 0
2579, 2097124769, -0.6545961, -0.17305881, -0.6583523, 0.32886434, 0.0018231951, 0.16717239, -0.18045712, 0
2581, 2097158103, -0.65368116, -0.17383099, -0.65932584, 0.3283261, 0.1359189, 0.1665063, -0.1599245, 0
2584, 2097208104, -0.6524852, -0.17513824, -0.66092277, 0.3267957, 0.073513076, 0.13310342, -0.20084858, 0
2587, 2097258105, -0.6514839, -0.176063, -0.66228426, 0.3255378, 0.09231812, 0.06207033, -0.05338478, 0
2591, 2097324773, -0.65108, -0.17720202, -0.6617416, 0.32682872, -0.003847999, 0.09880055, -0.17183208, 0
2593, 2097358107, -0.6510506, -0.17791939, -0.6607281, 0.32854378, 0.06446214, 0.016147694, -0.16518784, 0
2596, 2097408108, -0.65141964, -0.1777573, -0.659721, 0.3299207, 0.04676349, 0.14172196, -0.27208424, 0
2599, 2097458109, -0.6517045, -0.17731953, -0.65941364, 0.33020836, 0.0949359, 0.08177546, -0.25581932, 0
2603, 2097524777, -0.651926, -0.17649773, -0.66021454, 0.32860714, -0.044564348, 0.09734313, -0.16799736, 0
2606, 2097574778, -0.6519328, -0.17617911, -0.66088706, 0.32741082, -0.10717536, 0.07738332, -0.099508286, 0
2608, 2097608112, -0.65206766, -0.17600226, -0.6611488, 0.32670784, -0.1488688, 0.014491127, -0.120871544, 0
2611, 2097658113, -0.6523442, -0.17628339, -0.66088295, 0.3265422, -0.1030331, 0.077036425, -0.10574913, 0
2614, 2097708114, -0.65259755, -0.17694345, -0.6603862, 0.32668364, -0.023302231, 0.10185452, -0.11827946, 0
2616, 2097741448, -0.65289336, -0.17722511, -0.6601513, 0.32641467, 0.058650807, 0.094957806, -0.11755085, 0
2620, 2097808116, -0.6537527, -0.17776477, -0.65950704, 0.32570267, -0.008032162, 0.07766438, -0.113479614, 0
2623, 2097858117, -0.6545756, -0.17852256, -0.65847576, 0.32572228, 0.051083773, 0.013434917, -0.16951084, 0
2626, 2097908118, -0.6554816, -0.17887223, -0.65758693, 0.32550386, 0.049024884, -0.028330155, -0.23286724, 0
2629, 2097958119, -0.65613997, -0.17890853, -0.65731424, 0.32470733, -0.010225047, -0.057721104, -0.19238663, 0
2631, 2097991453, -0.6564404, -0.17902717, -0.6572632, 0.3241377, -0.08713742, 0.002112421, -0.065779686, 0
2634, 2098041454, -0.6570617, -0.17929567, -0.6568245, 0.3236192, -0.07428844, 0.027125644, -0.09884262, 0
2637, 2098091455, -0.6574967, -0.180548, -0.65597856, 0.3237552, 0.11026632, -0.014567234, -0.2528782, 0
2639, 2098124789, -0.6579335, -0.18100141, -0.65577406, 0.32302794, 0.056269832, 0.114929244, -0.19828796, 0
2642, 2098174790, -0.65829504, -0.18157859, -0.65595776, 0.32159144, 0.15251373, 0.011094512, -0.2824583, 0
2645, 2098224791, -0.6588518, -0.18135977, -0.6562355, 0.32000405, 0.077195674, 0.015911663, -0.17159939, 0
2649, 2098291459, -0.65978235, -0.18056652, -0.65551513, 0.32001215, 0.02571237, 0.053556163, -0.21644592, 0
2653, 2098358127, -0.66071343, -0.18017437, -0.6543286, 0.32073963, 0.057932325, 0.050522085, -0.2155323, 0
2656, 2098408128, -0.6614438, -0.17942458, -0.65416706, 0.3199832, -0.10478287, 0.029433304, -0.17299175, 0
2660, 2098474796, -0.6620048, -0.17921261, -0.6538073, 0.31967688, -0.013529239, -0.011118541, -0.12321186, 0
2662, 2098508130, -0.66241235, -0.17888403, -0.65372914, 0.31917593, -0.037471835, 0.027747793, -0.19073772, 0
2665, 2098558131, -0.662704, -0.17890035, -0.65366024, 0.31870234, 0.08607551, -0.011300592, -0.21238422, 0
2668, 2098608132, -0.6631112, -0.17837128, -0.65405333, 0.31734276, 0.002698919, 0.077919856, -0.19371319, 0
2670, 2098641466, -0.6633067, -0.17792842, -0.65443075, 0.31640297, 0.16375722, -0.009910677, -0.19437885, 0
2673, 2098691467, -0.66379565, -0.1763624, -0.6552402, 0.31457412, 0.010866865, 0.05648027, -0.10997772, 0
2676, 2098741468, -0.6641942, -0.17551878, -0.6554799, 0.31370366, -0.027913751, 0.04319142, -0.06830406, 0
2679, 2098791469, -0.66485244, -0.1754607, -0.6548554, 0.31364614, -0.08515106, 0.077270105, -0.11989498, 0
2681, 2098824803, -0.6652294, -0.1760279, -0.65414214, 0.3140176, -0.015668929, 0.012313105, -0.17279148, 0
2684, 2098874804, -0.665896, -0.1765774, -0.6532999, 0.31404948, -0.015636407, 0.041137226, -0.22361946, 0
2687, 2098924805, -0.6660638, -0.17729568, -0.65312177, 0.31365877, 0.14088793, -0.022938687, -0.29364395, 0
2689, 2098958139, -0.66609895, -0.17740087, -0.65343624, 0.31286907, 0.09888727, -0.039045814, -0.20766354, 0
2692, 2099008140, -0.6660818, -0.17733273, -0.65381825, 0.31214502, 0.11474496, -0.01696955, -0.20709896, 0
2695, 2099058141, -0.666268, -0.17694415, -0.6540596, 0.31146175, 0.0034849022, 0.0045139557, -0.119036674, 0
2697, 2099091475, -0.6664473, -0.17676875, -0.65390337, 0.31150627, 0.0012067464, -0.027218401, -0.16787434, 0
2700, 2099141476, -0.6667351, -0.17651683, -0.65380406, 0.3112414, -0.051807508, -0.025791943, -0.15433025, 0
2704, 2099208144, -0.6670224, -0.17602788, -0.65427375, 0.3099129, -0.06541666, 0.03177572, -0.10471058, 0
2708, 2099274812, -0.66712373, -0.17686138, -0.65408474, 0.309619, -0.06482948, -0.01823374, -0.26503944, 0
2711, 2099324813, -0.66685766, -0.1783269, -0.65379715, 0.3099587, 0.120323285, -0.022278877, -0.29335594, 0
2714, 2099374814, -0.66623956, -0.17940997, -0.6542945, 0.30961317, 0.068902224, 0.011972359, -0.24853706, 0
2716, 2099408148, -0.66584164, -0.17985125, -0.6547768, 0.3091935, 0.040014073, 0.11949584, -0.1582489, 0
2719, 2099458149, -0.66523075, -0.18045428, -0.65535873, 0.30892396, 0.12547603, 0.04385179, -0.1507883, 0
2722, 2099508150, -0.6649269, -0.18037492, -0.65571856, 0.308861, 0.02505446, 0.10999028, -0.27629185, 0
2724, 2099541484, -0.6645821, -0.18049148, -0.656, 0.30893707, 0.10065649, 0.052332096, -0.24605942, 0
2727, 2099591485, -0.6639819, -0.18080455, -0.65679425, 0.30835646, 4.2188072E-4, 0.11691818, -0.30717468, 0
2730, 2099641486, -0.6625162, -0.18280227, -0.65766144, 0.30848303, 0.06308843, 0.05195503, -0.23175621, 0
2734, 2099708154, -0.66086453, -0.18502988, -0.6589232, 0.3080048, -0.113025695, 0.14468609, -0.13226128, 0
2737, 2099758155, -0.6596215, -0.18757509, -0.65941906, 0.30806893, -0.010034279, 0.024702651, -0.10261917, 0
2739, 2099791489, -0.6591083, -0.18848242, -0.6601577, 0.3070299, -0.18536623, 0.014844948, 0.00906086, 0
2742, 2099841490, -0.6587409, -0.18949474, -0.66066194, 0.30610928, -0.16761303, 0.027324235, -0.18167591, 0
2745, 2099891491, -0.6576611, -0.19301468, -0.6600999, 0.30744135, -0.027766902, 0.18171649, -0.32005596, 0
2747, 2099924825, -0.656272, -0.19664814, -0.65990126, 0.30853155, 0.23500353, -0.07619333, -0.3071499, 0
2750, 2099974826, -0.6546325, -0.20057957, -0.6602814, 0.3086704, 0.21404025, 0.12747268, -0.32013702, 0
2753, 2100024827, -0.6521939, -0.20463158, -0.66177726, 0.30796883, 0.38735333, -0.037141595, -0.3044691, 0
2755, 2100058161, -0.65079737, -0.20608886, -0.66313195, 0.30703586, 0.39617303, 0.015293092, -0.32614994, 0
2758, 2100108162, -0.6486655, -0.2073534, -0.6653383, 0.30592075, 0.17335966, 0.12227298, -0.3415804, 0
2762, 2100174830, -0.6444649, -0.21265686, -0.6668295, 0.30790454, -0.07040993, -0.20788616, 0.14656734, 0
2765, 2100224831, -0.643144, -0.21308964, -0.6674048, 0.30911827, -0.32511613, -0.070095114, 0.17305946, 0
2768, 2100274832, -0.6421659, -0.21447772, -0.6664877, 0.31215578, -0.3399649, -0.10414005, 0.102583885, 0
2770, 2100308166, -0.64210004, -0.2149385, -0.66551685, 0.31403974, -0.21661188, -0.053840693, 0.09998703, 0
2773, 2100358167, -0.642977, -0.21353845, -0.6646912, 0.31494784, -0.21607915, -0.009091166, -0.1042099, 0
2776, 2100408168, -0.6440648, -0.21097635, -0.66470504, 0.31442258, -0.14075516, 0.01899536, -0.1819458, 0
2778, 2100441502, -0.6443238, -0.21051866, -0.6646117, 0.31439593, -0.1314378, 0.09021564, -0.3877039, 0
2781, 2100491503, -0.64466965, -0.21043819, -0.664672, 0.31361264, -0.093785815, 0.12841769, -0.2586918, 0
2784, 2100541504, -0.6432607, -0.21498322, -0.66328734, 0.3163424, 0.15006894, -0.03734108, -0.37018967, 0
2787, 2100591505, -0.6428009, -0.21836792, -0.66184485, 0.3179757, 0.17746225, 0.16085792, -0.0038366318, 0
2791, 2100658173, -0.6440295, -0.21527301, -0.6628695, 0.31545585, 0.14068487, 0.06771605, -0.31131744, 0
2795, 2100724841, -0.64561653, -0.20999993, -0.6649236, 0.3114171, -0.13028559, 0.14402772, -0.27843285, 0
2797, 2100758175, -0.6455753, -0.21016993, -0.66442394, 0.31245297, 0.22838219, 0.12071466, -0.53781223, 0
2801, 2100824843, -0.64299667, -0.21828261, -0.6614964, 0.3183635, 0.612008, 0.18997093, -0.540802, 0
2805, 2100891511, -0.6393905, -0.2264412, -0.66132075, 0.32028723, 0.38988325, 0.0043805186, -0.6142483, 0
2808, 2100941512, -0.63686144, -0.23143761, -0.66118264, 0.32203472, 0.101892516, -0.09492171, -0.31931305, 0
2811, 2100991513, -0.63338566, -0.24060217, -0.6578545, 0.32891557, 0.28969514, 0.25151467, -0.9746275, 0
2814, 2101041514, -0.62487805, -0.26257735, -0.6524968, 0.3389002, 0.31604904, 0.1595194, -1.5496778, 0
2818, 2101108182, -0.6102556, -0.29949638, -0.6486142, 0.34236592, -0.14622357, -0.038440317, -1.2466784, 0
2822, 2101174850, -0.5959641, -0.33173913, -0.64694643, 0.34097087, -0.007738745, -0.35423496, 0.9484644, 0
2824, 2101208184, -0.59304416, -0.34089726, -0.6466521, 0.33756983, -0.620067, 0.012756332, 0.7030668, 0
2827, 2101258185, -0.58747, -0.35467583, -0.643387, 0.33935535, -0.17979774, -0.3710381, 1.0275488, 0
2830, 2101308186, -0.5854735, -0.36215216, -0.64050925, 0.34035182, -0.5190037, 0.2592017, 0.05049324, 0
2832, 2101341520, -0.58244866, -0.36959547, -0.6376097, 0.3429742, -0.19500114, -0.12711997, -1.0004969, 0
2835, 2101391521, -0.5766545, -0.3802619, -0.6364129, 0.34332752, -0.29311013, -0.09447222, 0.5997095, 0
2838, 2101441522, -0.5722244, -0.38580236, -0.6378697, 0.34185207, 0.039833587, -0.29515758, 0.10885334, 0
2841, 2101491523, -0.56995434, -0.38786674, -0.64008784, 0.33915195, 0.006857042, 0.13023296, 0.13173008, 0
2843, 2101524857, -0.56827736, -0.38873607, -0.64103013, 0.33919036, 0.16103756, 0.031342775, 0.39053917, 0
2846, 2101574858, -0.5665399, -0.38844973, -0.64349055, 0.3377633, -0.2868426, 0.20569986, -0.1268549, 0
2849, 2101624859, -0.5645001, -0.39105725, -0.64413947, 0.33693188, 0.014666557, 0.17316142, -0.87177753, 0
2851, 2101658193, -0.5620793, -0.39562336, -0.6434941, 0.33688113, 0.26642096, 0.1741318, -1.2467117, 0
2854, 2101708194, -0.558276, -0.40465793, -0.64121413, 0.33682242, 0.66066283, 0.25375214, -1.279706, 0
2857, 2101758195, -0.5547036, -0.4149867, -0.6371629, 0.33784324, 0.948478, 0.32303792, -1.2335806, 0
2859, 2101791529, -0.5533195, -0.4207226, -0.6347142, 0.337628, 0.65985805, 0.5395841, -1.5533552, 0
2862, 2101841530, -0.55046225, -0.42977965, -0.6305208, 0.33874643, 0.59769565, 0.19158268, -2.4335556, 0
2865, 2101891531, -0.5474257, -0.43748754, -0.6270034, 0.3403252, 0.5770351, -0.071336396, -1.5811567, 0
2868, 2101941532, -0.5467367, -0.44070566, -0.62377346, 0.34320408, 0.014683208, 0.15873343, -1.9411321, 0
2872, 2102008200, -0.54473335, -0.44079602, -0.62023956, 0.35255113, -0.51787066, 0.2452041, -2.4888492, 0
2874, 2102041534, -0.5426488, -0.43988138, -0.6167416, 0.36289278, -0.87205017, 0.22816314, -2.930822, 0
2878, 2102108202, -0.5377914, -0.43321633, -0.6083608, 0.3911852, -1.933772, 0.07479562, -3.852015, 0
2881, 2102158203, -0.53013355, -0.4239936, -0.59418386, 0.4314605, -2.6060119, -0.01900863, -2.420713, 0
2884, 2102208204, -0.52270746, -0.4039054, -0.57086873, 0.48761755, -3.0776541, -0.08502603, -0.6754236, 0
2886, 2102241538, -0.51574653, -0.38215694, -0.55006176, 0.5342457, -2.13596, -1.2919887, 1.2986059, 0
2889, 2102291539, -0.51299655, -0.32559893, -0.5088045, 0.6098874, -1.3994381, -1.5126555, 2.8843203, 0
2893, 2102358207, -0.52635145, -0.20913617, -0.4246429, 0.7063424, 1.8390586, -0.622095, 3.3711128, 0
2896, 2102408208, -0.52321297, -0.13003638, -0.32073754, 0.7787754, 3.1196034, -0.16145556, 1.929575, 0
2899, 2102458209, -0.5225992, -0.024975665, -0.22934851, 0.8207864, 2.5549529, -1.520399, -1.2541552, 0
2901, 2102491543, -0.5158399, 0.06292127, -0.1917203, 0.8325973, 2.1900926, 2.5064785, -0.19335365, 0
2904, 2102541544, -0.48644757, 0.16571887, -0.11134579, 0.8506073, 0.19212696, -0.21456951, -0.5898037, 0
2908, 2102608212, -0.43779346, 0.28976035, -0.026619881, 0.850701, -0.83558464, 1.701327, 2.150629, 0
2911, 2102658213, -0.40498585, 0.3657968, 0.034954906, 0.83724684, -2.6452947, -2.8334231, 0.6374779, 0
2913, 2102691547, -0.36993825, 0.43330133, 0.035962537, 0.82105243, -1.481307, -0.26370236, 1.3216801, 0
2916, 2102741548, -0.32369214, 0.51737255, 0.042950243, 0.7910304, -0.23486875, 0.37699237, 2.0725374, 0
2919, 2102791549, -0.29459926, 0.5828728, 0.05824858, 0.75505126, -0.7659497, 0.11119222, 2.7500038, 0
2922, 2102841550, -0.2759719, 0.63082194, 0.07507253, 0.72131276, -0.5234085, 0.98132277, 2.7803383, 0
2924, 2102874884, -0.274114, 0.64993644, 0.092612594, 0.70277447, 0.41265565, 1.2395457, 2.537364, 0
2927, 2102924885, -0.28031805, 0.66500145, 0.12109232, 0.68158376, -0.09884581, 0.048549585, 0.77803326, 0
2930, 2102974886, -0.27251923, 0.6793888, 0.1259532, 0.6695707, 0.2693544, -0.18545586, 0.13834095, 0
2932, 2103008220, -0.2642385, 0.6879576, 0.12276682, 0.66471463, 0.61993635, -0.04239359, -0.07988739, 0
2936, 2103074888, -0.25717086, 0.6992879, 0.12313977, 0.6555311, 0.75662, -0.1748647, 0.10766697, 0
2939, 2103124889, -0.25705138, 0.7030002, 0.12373659, 0.6514825, 0.46018797, 0.23626806, 0.19388485, 0
2942, 2103174890, -0.25829297, 0.70377135, 0.12093985, 0.6506834, 0.294971, -0.11333805, 0.2255001, 0
2944, 2103208224, -0.2586574, 0.7037885, 0.11713573, 0.6512159, 0.24126956, -0.3422275, 0.30067348, 0
2947, 2103258225, -0.25787532, 0.7049141, 0.11150491, 0.6512971, 0.3933223, -0.32374287, 0.020431519, 0
2950, 2103308226, -0.2596435, 0.7065122, 0.11150053, 0.64885926, -0.009299145, -0.361094, -0.13681316, 0
2953, 2103358227, -0.26102373, 0.7090317, 0.11366603, 0.6451708, -0.10621017, -0.46349177, 0.07436371, 0
2955, 2103391561, -0.2614071, 0.7107688, 0.1154336, 0.6427862, -0.10053663, -0.32969132, 0.15609264, 0
2958, 2103441562, -0.26399308, 0.7110349, 0.12020224, 0.64055693, -0.2996398, -0.3371742, 0.10078716, 0
2961, 2103491563, -0.26567137, 0.7093221, 0.12301588, 0.64122766, -0.109384894, -0.09672691, 0.19338608, 0
2963, 2103524897, -0.26715103, 0.7070279, 0.12461531, 0.6428356, -0.23054741, -0.27176794, -0.011746407, 0
2966, 2103574898, -0.2671185, 0.70475286, 0.12503406, 0.6452615, 0.06757696, 0.22438544, 0.5088301, 0
2969, 2103624899, -0.2703613, 0.7013955, 0.12924144, 0.6467385, -0.21656857, 0.19330731, 0.7688341, 0
2971, 2103658233, -0.27199042, 0.69894093, 0.13092, 0.64837307, -0.354345, 0.31207806, 0.7830038, 0
2974, 2103708234, -0.27428585, 0.69499266, 0.13253978, 0.6513144, -0.102931015, 0.32717994, -0.034758568, 0
2977, 2103758235, -0.27573407, 0.69228077, 0.13242674, 0.65361017, -0.12406992, 0.177553, -0.81370735, 0
2980, 2103808236, -0.27263436, 0.6926744, 0.12659845, 0.655645, -0.104509905, 0.43967736, -0.5106783, 0
2982, 2103841570, -0.2720608, 0.6923917, 0.12382817, 0.65670997, -0.27755335, 0.32501188, -0.3911867, 0
2985, 2103891571, -0.27214682, 0.69106823, 0.12033266, 0.6587151, -0.3626518, 0.4070941, 0.06131935, 0
2988, 2103941572, -0.27393928, 0.6886794, 0.11954218, 0.66061515, -0.48543733, 0.16962399, 0.25926495, 0
2990, 2103974906, -0.27413905, 0.68757606, 0.1185672, 0.6618563, -0.5475868, 0.18367814, -0.07383442, 0
2993, 2104024907, -0.2726873, 0.6870272, 0.11578888, 0.6635157, -0.42528608, 0.1529593, 0.08777332, 0
2996, 2104074908, -0.26919782, 0.6880616, 0.11188418, 0.6645377, -0.3375805, 0.11171569, 0.91646576, 0
2998, 2104108242, -0.26564598, 0.68958753, 0.10875693, 0.6649046, -0.35729396, 0.18686521, 0.8430376, 0
3001, 2104158243, -0.26026642, 0.6918603, 0.104522794, 0.66534996, -0.012570201, 0.29682788, 0.18769455, 0
3004, 2104208244, -0.25542587, 0.69376004, 0.10076308, 0.6658275, -0.11165802, 0.16104555, 0.030978203, 0
3007, 2104258245, -0.24993548, 0.69588333, 0.09622675, 0.6663663, 0.04845906, 0.009094742, -0.04395199, 0
3009, 2104291579, -0.24626873, 0.6978086, 0.093476206, 0.66610944, 0.22285387, 0.06596046, -0.031778336, 0
3012, 2104341580, -0.24425755, 0.7003111, 0.09355882, 0.66420937, 0.0913807, -0.2141139, 0.053590775, 0
3016, 2104408248, -0.23907016, 0.70444053, 0.09126091, 0.6620463, 0.18446301, -0.12338306, 0.24689007, 0
3019, 2104458249, -0.2363635, 0.7066899, 0.09067032, 0.66070056, 0.1753895, -0.32142302, 0.093382835, 0
3021, 2104491583, -0.23427513, 0.70835215, 0.090034515, 0.6597507, 0.22756486, -0.14021213, 0.11252785, 0
3024, 2104541584, -0.23447484, 0.7094586, 0.09245691, 0.658154, 0.20485835, -0.15915978, 0.09099293, 0
3027, 2104591585, -0.23348173, 0.7122541, 0.09438574, 0.6552073, 0.4898659, 0.05008378, -0.2540493, 0
3030, 2104641586, -0.23178615, 0.71840143, 0.096960306, 0.6486895, 0.47185105, 0.18740924, -0.004834175, 0
3032, 2104674920, -0.23220535, 0.7216693, 0.09925991, 0.64455134, 0.2655963, 0.40765634, 0.3156891, 0
3035, 2104724921, -0.23327565, 0.72405493, 0.09885809, 0.6415441, 0.61722684, 0.29637605, 0.6578922, 0
3038, 2104774922, -0.23865864, 0.72054154, 0.095166504, 0.644073, 0.46258056, -0.067551985, 0.4906969, 0
3040, 2104808256, -0.24199595, 0.7173153, 0.09006593, 0.64715505, 0.9529797, -0.1238796, 0.38388443, 0
3044, 2104874924, -0.25955123, 0.709509, 0.09190658, 0.64869726, 0.7311454, -0.01944127, 0.13403893, 0
3047, 2104924925, -0.28549024, 0.6999829, 0.11043972, 0.6452496, -0.77626014, -0.6582816, 0.02858448, 0
3050, 2104974926, -0.29843226, 0.69082284, 0.114011675, 0.64863557, -1.2157435, -1.5567129, 0.73289776, 0
3052, 2105008260, -0.29028794, 0.6869771, 0.096633136, 0.65915287, -0.49016616, -3.0191011, 0.54483414, 0
3055, 2105058261, -0.25025558, 0.68123245, 0.031659484, 0.68725324, 1.140811, -2.211384, 0.7713833, 0
3058, 2105108262, -0.2050053, 0.6639172, -0.051007986, 0.7173631, 1.8975993, -1.5595925, 2.264781, 0
3061, 2105158263, -0.17190468, 0.6257738, -0.13804165, 0.7482147, 1.123908, -1.806014, 2.4523172, 0
3063, 2105191597, -0.15348965, 0.589681, -0.20348258, 0.7663789, 1.1684232, -2.349744, 2.8396482, 0
3066, 2105241598, -0.13515645, 0.52049863, -0.2972548, 0.788973, -0.67012674, -1.9255055, 3.2016144, 0
3069, 2105291599, -0.12192699, 0.44067413, -0.38035417, 0.8039251, -2.7867758, -0.27522454, 2.5991678, 0
3073, 2105358267, -0.10138744, 0.3173082, -0.49297535, 0.8037638, -3.396943, 1.3316588, 1.2853289, 0
3075, 2105391601, -0.09291533, 0.24787605, -0.54340655, 0.79665446, -3.344916, 1.5527374, 0.27305794, 0
3078, 2105441602, -0.083618134, 0.14079104, -0.6061136, 0.77835524, -2.6397321, 2.1762567, -0.70069885, 0
3082, 2105508270, -0.07315558, 0.008879423, -0.6604799, 0.7472352, -1.3706502, 2.3789914, -1.9990764, 0
3085, 2105558271, -0.064003795, -0.073793024, -0.6839144, 0.7230104, 0.16939265, 2.099, -1.7470236, 0
3088, 2105608272, -0.05343914, -0.14011103, -0.6975629, 0.700674, 0.53344786, 1.9671259, -1.5797396, 0
3090, 2105641606, -0.04557541, -0.17692563, -0.7052883, 0.6849916, 0.9230246, 1.9731934, -2.2838387, 0
3093, 2105691607, -0.036601007, -0.2249656, -0.7185744, 0.657059, 0.6481117, 1.5470445, -1.9635663, 0
3096, 2105741608, -0.02498898, -0.26311707, -0.7257139, 0.63522375, 0.016080081, 2.8354857, -2.8059707, 0
3098, 2105774942, -0.011824369, -0.2872017, -0.7250563, 0.6258544, 0.43294638, 1.5498939, -3.1466837, 0
3101, 2105824943, 0.012998074, -0.3189951, -0.72624195, 0.6088271, 1.0166951, 0.38712534, -2.2172475, 0
3104, 2105874944, 0.04101172, -0.3381943, -0.72923136, 0.593455, 1.3671327, -1.7432389, -0.40853977, 0
3106, 2105908278, 0.0579201, -0.333499, -0.7285604, 0.59552336, 2.075645, -3.6296175, 0.21369648, 0
3109, 2105958279, 0.054744184, -0.3105331, -0.74437714, 0.58864224, -0.16526884, -1.5201527, 0.6461649, 0
3112, 2106008280, 0.04296866, -0.28975198, -0.75830424, 0.5824063, -0.1835466, -0.013949444, 1.9007502, 0
3115, 2106058281, 0.027851045, -0.27325276, -0.76837593, 0.5780834, 0.078232326, 0.518194, 0.06900501, 0
3117, 2106091615, 0.019048005, -0.26382604, -0.7746306, 0.57446086, 0.17336805, 1.4490322, -0.014327049, 0
3120, 2106141616, 0.014995545, -0.25575233, -0.7786794, 0.57275575, -0.11267087, 3.7069323, -1.6118011, 0
3123, 2106191617, 0.025316775, -0.2725822, -0.7731206, 0.5721601, -1.7295882, 4.343082, -0.3209877, 0
3125, 2106224951, 0.04627198, -0.29321527, -0.7563827, 0.58291817, -1.2067425, 2.0381587, -1.1052122, 0
3128, 2106274952, 0.08169782, -0.33077592, -0.7323314, 0.5896001, -0.91709536, -1.7526728, 0.041137695, 0
3131, 2106324953, 0.11705163, -0.3502083, -0.70820975, 0.60176116, 1.6145804, -6.6418247, 0.3297434, 0
3133, 2106358287, 0.119726434, -0.34680098, -0.70675015, 0.60491633, 2.3316572, -5.876213, -0.03600502, 0
3138, 2106441622, 0.0709382, -0.30497283, -0.7442099, 0.5900302, 1.2509484, -1.807638, 1.4267521, 0
3140, 2106474956, 0.048820734, -0.27752295, -0.7618108, 0.5833236, 0.12413909, 1.0086297, 0.63275146, 0
3143, 2106524957, 0.024282724, -0.23573697, -0.7785083, 0.5811955, 1.6805528, 1.8051413, -2.6278734, 0
3147, 2106591625, 0.018216819, -0.227656, -0.785909, 0.57464147, -2.5781417, 5.313796, -2.9815855, 0
3150, 2106641626, 0.032388628, -0.26321322, -0.7825084, 0.5633608, -1.0148529, 2.2143807, -0.38842583, 0
3152, 2106674960, 0.05343306, -0.29136488, -0.7735232, 0.56030166, -1.1581647, 2.17719, -1.3364944, 0
3156, 2106741628, 0.106397346, -0.3502743, -0.7410266, 0.5629315, 0.78658926, -0.65652615, 0.0773592, 0
3159, 2106791629, 0.13630463, -0.38241023, -0.715803, 0.56818485, 1.8846604, -3.276315, 1.4040899, 0
3162, 2106841630, 0.1399682, -0.3900624, -0.70531, 0.5751721, 2.4025106, -6.4788337, 2.150714, 0
3164, 2106874964, 0.12509872, -0.37599882, -0.71567214, 0.5751637, 1.1565456, -3.2237818, -1.1764565, 0
3167, 2106924965, 0.08631131, -0.3488633, -0.7467241, 0.55970764, 0.1657324, -0.24130683, 0.5770426, 0
3170, 2106974966, 0.06439659, -0.30650797, -0.76557106, 0.56198895, 0.3254885, -0.13489856, -0.811883, 0
3173, 2107024967, 0.032057315, -0.27735364, -0.7914882, 0.543708, -1.8802321, 3.7728505, 1.9437332, 0
3175, 2107058301, 0.028772801, -0.26708698, -0.7916579, 0.5487613, -1.6715304, 4.453021, -0.93473244, 0
3178, 2107108302, 0.03863588, -0.27917898, -0.78565466, 0.550761, -2.058809, 4.698647, -0.95874405, 0
3181, 2107158303, 0.073662505, -0.31100893, -0.76455057, 0.5597627, 0.110584155, 1.6674162, -1.8947144, 0
3185, 2107224971, 0.13076122, -0.34310728, -0.7322855, 0.57355165, 1.0816656, -2.547615, 0.20252895, 0
3187, 2107258305, 0.15305658, -0.3409055, -0.7195394, 0.58535886, 1.2771297, -6.2071342, 0.66075516, 0
3190, 2107308306, 0.14502436, -0.32287696, -0.7300972, 0.5845521, 0.6656274, -4.57618, 0.98184204, 0
3194, 2107374974, 0.106137246, -0.29837358, -0.762498, 0.56420714, -0.28020456, -0.91873974, 2.7942343, 0
3197, 2107424975, 0.08283086, -0.27642977, -0.7817007, 0.55289626, 0.48075703, 0.46334684, -1.592598, 0
3200, 2107474976, 0.049085066, -0.2623574, -0.811705, 0.5195372, -0.5188259, 4.1373577, 0.9138565, 0
3202, 2107508310, 0.044184834, -0.25818384, -0.81896615, 0.51059574, -1.016198, 6.460088, -0.83880043, 0
3205, 2107558311, 0.06140423, -0.27808702, -0.8170774, 0.50130475, -0.9464388, 4.3758116, -1.0443325, 0
3208, 2107608312, 0.10171443, -0.31312075, -0.80649936, 0.49111408, -1.185142, 0.9293043, -0.87753487, 0
3210, 2107641646, 0.13453592, -0.33266824, -0.79570746, 0.4879614, -7.2183507E-4, -2.0220482, -0.37707615, 0
3214, 2107708314, 0.17043108, -0.34894037, -0.7794018, 0.49168226, 0.9950464, -4.7598295, -0.46692848, 0
3217, 2107758315, 0.15677544, -0.3379233, -0.783426, 0.49749154, 1.0930302, -3.2209961, -1.000061, 0
3220, 2107808316, 0.12965685, -0.31692052, -0.7983053, 0.4954632, -0.38067967, -0.9556768, -0.23180008, 0
3223, 2107858317, 0.11028549, -0.2871737, -0.8101628, 0.49902844, -0.07302414, 1.1340041, 0.010499954, 0
3225, 2107891651, 0.10071221, -0.26907307, -0.81533927, 0.50269616, 0.5680251, 2.162942, -1.3260574, 0
3228, 2107941652, 0.08686209, -0.25921154, -0.82691264, 0.49143124, -1.7108334, 5.663028, 1.482667, 0
3231, 2107991653, 0.10375178, -0.26958165, -0.8169223, 0.49922338, -0.1484582, 3.3682406, -1.0603218, 0
3233, 2108024987, 0.119100735, -0.2869937, -0.81089985, 0.49589902, -0.7409222, 2.2970421, 0.6471443, 0
3236, 2108074988, 0.14945418, -0.31387365, -0.793635, 0.49931452, 0.2656074, -0.6158131, -0.4802084, 0
3239, 2108124989, 0.17492966, -0.33688462, -0.77889234, 0.4992594, 0.37237135, -2.5630016, 0.69992733, 0
3241, 2108158323, 0.1864588, -0.3418472, -0.76943517, 0.506328, 1.1874223, -3.816377, -0.2161045, 0
3244, 2108208324, 0.17894013, -0.3377189, -0.7716007, 0.50851125, 0.9053779, -3.8406389, -0.1465826, 0
