sep=,
DeviceTag:,Xsens_3,,,,,,,,,,,,,,,,,
FirmwareVersion:,2.2.1,,,,,,,,,,,,,,,,,
AppVersion:,2023.0.0,,,,,,,,,,,,,,,,,
StartTime:,2023-07-06 01:04:08.000 +0200,,,,,,,,,,,,,,,,,
© Movella Technologies B. V. 2005-2023,,,,,,,,,,,,,,,,,,,

PacketCounter,SampleTimeFine,Quat_W,Quat_X,Quat_Y,Quat_Z,Acc_X,Acc_Y,Acc_Z,Gyr_X,Gyr_Y,Gyr_Z,Mag_X,Mag_Y,Mag_Z,Status,
0, 269925475, 0.6533684, -0.40214717, -0.4915175, -0.41206533, 0.0, 0.0, 0.0, 0.0, 0.0, 0.0, -0.88232421875, 0.25634765625, 0.20751953125, 0, 
1, 269942142, 0.65296793, -0.40168193, -0.492059, -0.4125076, 9.688366889953613, -1.1031467914581299, 1.869310736656189, -0.5451151132583618, 0.955744206905365, 2.49957537651062, -0.886474609375, 0.254150390625, 0.20849609375, 0, 
2, 269958809, 0.6525973, -0.40136826, -0.4925524, -0.41281056, 9.67573070526123, -1.1571000814437866, 1.8563129901885986, 1.096204400062561, 1.3397555351257324, 2.50935959815979, -0.885986328125, 0.255615234375, 0.21142578125, 0, 
3, 269975476, 0.6526553, -0.40106767, -0.4929747, -0.4125071, 9.641108512878418, -1.1883023977279663, 1.8700683116912842, 3.3520936965942383, 1.5566309690475464, 2.575913906097412, -0.8837890625, 0.25732421875, 0.20849609375, 0, 
4, 269992143, 0.65315616, -0.40058684, -0.49337536, -0.41170123, 9.613774299621582, -1.1785862445831299, 1.8631349802017212, 5.0880208015441895, 1.5532246828079224, 2.5927674770355225, -0.88330078125, 0.25634765625, 0.20654296875, 0, 
5, 270008810, 0.6536469, -0.40026376, -0.49360865, -0.41095644, 9.617669105529785, -1.1770727634429932, 1.812117338180542, 4.917747497558594, 1.3119401931762695, 2.7109313011169434, -0.88330078125, 0.25634765625, 0.20849609375, 0, 
6, 270025477, 0.65392274, -0.40030214, -0.49371538, -0.4103519, 9.642743110656738, -1.1721574068069458, 1.8345898389816284, 3.2740654945373535, 0.6670635938644409, 3.0829176902770996, -0.884033203125, 0.260009765625, 0.20556640625, 0, 
7, 270042144, 0.6542392, -0.400354, -0.4937777, -0.40972114, 9.675314903259277, -1.1449991464614868, 1.8604437112808228, 1.2882227897644043, 0.9685891270637512, 3.152071952819824, -0.886474609375, 0.256591796875, 0.20703125, 0, 
8, 270058811, 0.6542595, -0.40072998, -0.49355173, -0.4095938, 9.693318367004395, -1.1132222414016724, 1.8531739711761475, -0.661102294921875, 1.0398051738739014, 2.864915132522583, -0.883056640625, 0.259033203125, 0.208251953125, 0, 
9, 270075478, 0.6542935, -0.4010225, -0.49335772, -0.40948662, 9.690282821655273, -1.1039823293685913, 1.816428303718567, -1.455249547958374, 1.1958248615264893, 2.642430067062378, -0.88232421875, 0.260986328125, 0.212646484375, 0, 
10, 270092145, 0.654337, -0.40121138, -0.49322337, -0.40939385, 9.65859603881836, -1.216335415840149, 1.774283766746521, -0.8388414978981018, 1.3196494579315186, 2.3888771533966064, -0.881591796875, 0.257568359375, 0.207763671875, 0, 
11, 270108812, 0.6544567, -0.40127158, -0.49317163, -0.4092059, 9.60254955291748, -1.283385992050171, 1.7625516653060913, 1.3416764736175537, 1.3391920328140259, 2.2042994499206543, -0.88037109375, 0.263427734375, 0.20703125, 0, 
12, 270125479, 0.654845, -0.40100706, -0.49339616, -0.4085728, 9.54925537109375, -1.261116623878479, 1.7618368864059448, 3.608797550201416, 1.0268068313598633, 2.198779821395874, -0.881591796875, 0.26123046875, 0.21044921875, 0, 
13, 270142146, 0.65519094, -0.4007502, -0.49361247, -0.4080085, 9.538239479064941, -1.1444623470306396, 1.799170970916748, 4.938531875610352, 0.84188312292099, 1.9311401844024658, -0.88330078125, 0.260986328125, 0.207275390625, 0, 
14, 270158813, 0.65554196, -0.4004317, -0.49385262, -0.40746656, 9.58462905883789, -1.0647655725479126, 1.8495557308197021, 5.162650108337402, 0.8350381255149841, 1.7316491603851318, -0.8798828125, 0.2626953125, 0.205078125, 0, 
15, 270175480, 0.6558613, -0.40009853, -0.4940971, -0.40698293, 9.626473426818848, -1.073297381401062, 1.895586371421814, 4.396254062652588, 0.7576749324798584, 1.5295907258987427, -0.88232421875, 0.263916015625, 0.20654296875, 0, 
16, 270192147, 0.6560729, -0.3998415, -0.49430105, -0.40664694, 9.67715072631836, -1.1145116090774536, 1.9504942893981934, 3.0065340995788574, 0.5406200885772705, 1.1194671392440796, -0.87841796875, 0.261474609375, 0.2060546875, 0, 
17, 270208814, 0.6560715, -0.39978367, -0.49434757, -0.40664962, 9.720635414123535, -1.1104156970977783, 1.9607975482940674, 1.1037793159484863, 0.4950934648513794, 0.4228784739971161, -0.87939453125, 0.2607421875, 0.20751953125, 0, 
18, 270225481, 0.6559426, -0.3998651, -0.49424776, -0.40689832, 9.74360179901123, -1.105169653892517, 1.9096589088439941, -0.1613471955060959, 0.6924200654029846, 0.08862634003162384, -0.881103515625, 0.26318359375, 0.204833984375, 0, 
19, 270242148, 0.6558623, -0.3998481, -0.49428666, -0.40699756, 9.706620216369629, -1.1869215965270996, 1.8737859725952148, -0.43586409091949463, 0.24481898546218872, -0.11050598323345184, -0.881591796875, 0.26171875, 0.20654296875, 0, 
20, 270258815, 0.6557872, -0.39976817, -0.4944292, -0.40702403, 9.690824508666992, -1.2690671682357788, 1.873267412185669, 0.48521333932876587, -0.2556403577327728, -0.33356696367263794, -0.880615234375, 0.26123046875, 0.207275390625, 0, 
21, 270275482, 0.65572935, -0.39965674, -0.49461603, -0.40699938, 9.734328269958496, -1.2726486921310425, 1.8732548952102661, 0.7712815403938293, -0.439411461353302, -0.49094417691230774, -0.8828125, 0.258544921875, 0.207763671875, 0, 
22, 270292149, 0.65561426, -0.39962065, -0.49476254, -0.4070423, 9.682037353515625, -1.2649329900741577, 1.8249174356460571, 0.5101729035377502, -0.5580622553825378, -0.6097743511199951, -0.882568359375, 0.261474609375, 0.20751953125, 0, 
23, 270308816, 0.6555187, -0.39955014, -0.49500352, -0.40697244, 9.637845039367676, -1.1719970703125, 1.8358287811279297, 1.177294135093689, -1.0824567079544067, -0.5702027082443237, -0.88232421875, 0.259033203125, 0.21044921875, 0, 
24, 270325483, 0.6553944, -0.39950162, -0.49523425, -0.40693957, 9.650334358215332, -1.1704860925674438, 1.8681602478027344, 1.2729381322860718, -1.1514891386032104, -0.6433845162391663, -0.88330078125, 0.259033203125, 0.20947265625, 0, 
25, 270342150, 0.6551414, -0.39964265, -0.49531078, -0.40711534, 9.630245208740234, -1.2232829332351685, 1.9051098823547363, -0.027738552540540695, -1.011074185371399, -0.6794793605804443, -0.882080078125, 0.25732421875, 0.209716796875, 0, 
26, 270358817, 0.6550069, -0.39964342, -0.49544606, -0.4071664, 9.642910957336426, -1.2197164297103882, 1.8954441547393799, -0.6282667517662048, -0.6153323650360107, -0.8951126933097839, -0.885009765625, 0.257080078125, 0.208740234375, 0, 
27, 270375484, 0.6547015, -0.39986137, -0.4953333, -0.40758044, 9.625786781311035, -1.2469840049743652, 1.8696695566177368, -0.8866347670555115, -0.11948324739933014, -1.0204739570617676, -0.88427734375, 0.25732421875, 0.21435546875, 0, 
28, 270392151, 0.65447927, -0.40000486, -0.49525794, -0.40788803, 9.655089378356934, -1.2938923835754395, 1.8285765647888184, -0.8704732656478882, 0.016225647181272507, -0.9170883297920227, -0.88134765625, 0.2568359375, 0.208984375, 0, 
29, 270408818, 0.654366, -0.4000077, -0.49528348, -0.40803602, 9.67298698425293, -1.279990553855896, 1.8402642011642456, -0.2883349359035492, 0.040711384266614914, -0.952318549156189, -0.8828125, 0.254150390625, 0.211669921875, 0, 
30, 270425485, 0.6541753, -0.40012583, -0.49519566, -0.40833223, 9.677742958068848, -1.2615679502487183, 1.8721444606781006, 0.11516750603914261, 0.13276341557502747, -0.8054105043411255, -0.885498046875, 0.25390625, 0.21142578125, 0, 
31, 270442152, 0.6541164, -0.40012047, -0.49514627, -0.40849206, 9.694890975952148, -1.224183440208435, 1.8316186666488647, 0.21946881711483002, 0.534658670425415, -0.6500119566917419, -0.88720703125, 0.252685546875, 0.212646484375, 0, 
32, 270458819, 0.65404016, -0.4001644, -0.49504036, -0.40869936, 9.683615684509277, -1.2344989776611328, 1.837140440940857, -0.12983077764511108, 0.7000783085823059, -0.5556290745735168, -0.88525390625, 0.254638671875, 0.2109375, 0, 
33, 270475486, 0.6540335, -0.40016505, -0.49496955, -0.40879518, 9.694443702697754, -1.2556958198547363, 1.8156976699829102, -0.1639084815979004, 0.7065839767456055, -0.2909858524799347, -0.885498046875, 0.25341796875, 0.21142578125, 0, 
34, 270492153, 0.65392154, -0.40029895, -0.49479622, -0.40905276, 9.710424423217773, -1.2507896423339844, 1.8408730030059814, -0.619340717792511, 0.7364226579666138, -0.353532075881958, -0.882568359375, 0.254150390625, 0.21240234375, 0, 
35, 270508820, 0.65383095, -0.4004232, -0.4945935, -0.4093211, 9.67635440826416, -1.255753993988037, 1.8221319913864136, -0.9292799234390259, 1.0362449884414673, -0.3647632598876953, -0.888427734375, 0.25048828125, 0.210205078125, 0, 
36, 270525487, 0.65382385, -0.40048912, -0.49443433, -0.40946025, 9.65022087097168, -1.2609583139419556, 1.8058472871780396, -0.6235156059265137, 1.0298930406570435, -0.03127310797572136, -0.885986328125, 0.252197265625, 0.2109375, 0, 
37, 270542154, 0.6538428, -0.4005406, -0.49430442, -0.40953654, 9.669904708862305, -1.226692795753479, 1.8353337049484253, -0.33698633313179016, 0.8818644881248474, 0.15046821534633636, -0.885986328125, 0.252197265625, 0.212890625, 0, 
38, 270558821, 0.6538361, -0.40063834, -0.49411768, -0.409677, 9.685261726379395, -1.1935014724731445, 1.8473091125488281, -0.3242311477661133, 1.0158188343048096, 0.2342473417520523, -0.88330078125, 0.25, 0.212158203125, 0, 
39, 270575488, 0.6537016, -0.400901, -0.49376577, -0.41005874, 9.696892738342285, -1.1786925792694092, 1.7919657230377197, -0.6810801029205322, 1.2740205526351929, 0.21154169738292694, -0.885498046875, 0.2490234375, 0.210693359375, 0, 
40, 270592155, 0.653657, -0.4010714, -0.49343616, -0.4103597, 9.667503356933594, -1.2012884616851807, 1.7983068227767944, -0.9863450527191162, 1.6911232471466064, 0.21438468992710114, -0.885498046875, 0.250244140625, 0.21484375, 0, 
41, 270608822, 0.6536038, -0.40123665, -0.49307823, -0.41071326, 9.666400909423828, -1.1908081769943237, 1.8421398401260376, -0.7497605085372925, 1.898496150970459, 0.1182602196931839, -0.888916015625, 0.25, 0.2138671875, 0, 
42, 270625489, 0.6536376, -0.40133557, -0.4927406, -0.4109676, 9.657669067382812, -1.235896348953247, 1.8256947994232178, -0.24351273477077484, 2.067117691040039, 0.4560661017894745, -0.88671875, 0.246826171875, 0.212646484375, 0, 
43, 270642156, 0.6536033, -0.40150425, -0.49238977, -0.41127792, 9.68816089630127, -1.223344087600708, 1.7824490070343018, -0.05587410554289818, 1.7432708740234375, 0.4639677107334137, -0.888916015625, 0.24755859375, 0.2109375, 0, 
44, 270658823, 0.6536637, -0.40158218, -0.4922119, -0.41131884, 9.738077163696289, -1.1722124814987183, 1.7972075939178467, 0.474789023399353, 1.0037809610366821, 0.8538185954093933, -0.888427734375, 0.24853515625, 0.2119140625, 0, 
45, 270675490, 0.6536311, -0.4017078, -0.4920995, -0.4113823, 9.790645599365234, -1.0627347230911255, 1.9084093570709229, 0.5745057463645935, 0.2798956036567688, 0.5780658721923828, -0.8896484375, 0.24609375, 0.213134765625, 0, 
46, 270692157, 0.65353346, -0.40193638, -0.4918292, -0.41163749, 9.769765853881836, -1.0535022020339966, 1.9760462045669556, -0.7884357571601868, 0.9488799571990967, 0.43489721417427063, -0.885498046875, 0.248046875, 0.212646484375, 0, 
47, 270708824, 0.65348595, -0.4021761, -0.49148318, -0.4118919, 9.72594165802002, -1.1917580366134644, 1.89595627784729, -1.7062283754348755, 1.4961211681365967, 0.7112582921981812, -0.8876953125, 0.24658203125, 0.213623046875, 0, 
48, 270725491, 0.65339106, -0.40247503, -0.49114293, -0.41215628, 9.649219512939453, -1.2808330059051514, 1.773450493812561, -1.230062484741211, 1.0516636371612549, 0.8989095687866211, -0.8876953125, 0.251220703125, 0.209716796875, 0, 
49, 270742158, 0.6533193, -0.40273535, -0.49096164, -0.41223145, 9.655549049377441, -1.2996621131896973, 1.6863288879394531, -0.612604558467865, 0.1055179163813591, 1.0876497030258179, -0.888916015625, 0.248291015625, 0.213623046875, 0, 
50, 270758825, 0.6532392, -0.40306476, -0.49080294, -0.41222554, 9.678353309631348, -1.2719696760177612, 1.687502145767212, -0.30614858865737915, -0.4497333765029907, 1.6413065195083618, -0.889404296875, 0.247314453125, 0.212646484375, 0, 
51, 270775492, 0.65321106, -0.40334854, -0.49074012, -0.4120674, 9.691034317016602, -1.1644268035888672, 1.7177234888076782, -0.061303991824388504, -0.8568727374076843, 1.866160273551941, -0.888427734375, 0.24853515625, 0.21826171875, 0, 
52, 270792159, 0.65310496, -0.4037325, -0.49059385, -0.41203374, 9.695890426635742, -1.1599222421646118, 1.777673602104187, 0.2257695347070694, -0.8672332167625427, 1.9879746437072754, -0.889404296875, 0.248046875, 0.21533203125, 0, 
53, 270808826, 0.65311074, -0.4040209, -0.49051827, -0.41183177, 9.724980354309082, -1.2514448165893555, 1.8411022424697876, 0.5425026416778564, -0.8458722233772278, 2.3203954696655273, -0.891357421875, 0.246337890625, 0.21923828125, 0, 
54, 270825493, 0.65322554, -0.40414822, -0.49040657, -0.41165775, 9.755043029785156, -1.242843508720398, 1.8105823993682861, 1.94425368309021, 0.14037680625915527, 2.1722195148468018, -0.88818359375, 0.2470703125, 0.21484375, 0, 
55, 270842160, 0.6534077, -0.4041777, -0.49029887, -0.41146818, 9.754918098449707, -1.1825162172317505, 1.7229914665222168, 2.3876030445098877, 0.6160878539085388, 2.0457887649536133, -0.886474609375, 0.24755859375, 0.218017578125, 0, 
56, 270858827, 0.6535182, -0.40428165, -0.49016514, -0.41134962, 9.769679069519043, -1.1699007749557495, 1.6336750984191895, 1.4696118831634521, 0.504089891910553, 1.844850778579712, -0.885498046875, 0.246337890625, 0.21875, 0, 
57, 270875494, 0.65361154, -0.40440375, -0.4900446, -0.41122493, 9.685052871704102, -1.2101397514343262, 1.619518518447876, 1.3200913667678833, 0.35774537920951843, 1.8490192890167236, -0.88720703125, 0.248779296875, 0.216796875, 0, 
58, 270892161, 0.6537135, -0.40448964, -0.4900965, -0.41091645, 9.675566673278809, -1.2901699542999268, 1.6569279432296753, 2.680119037628174, -0.777332603931427, 2.114987850189209, -0.891357421875, 0.251220703125, 0.2158203125, 0, 
59, 270908828, 0.65382785, -0.40448713, -0.4903028, -0.4104908, 9.73342514038086, -1.2729294300079346, 1.7605235576629639, 3.7187397480010986, -1.457797884941101, 1.8978688716888428, -0.890625, 0.250244140625, 0.21533203125, 0, 
60, 270925495, 0.6538815, -0.40455168, -0.4904378, -0.41018015, 9.728981018066406, -1.2264620065689087, 1.8525254726409912, 2.9288763999938965, -1.2423568964004517, 1.6859688758850098, -0.88671875, 0.249755859375, 0.218994140625, 0, 
61, 270942162, 0.6539514, -0.40465432, -0.49041307, -0.4099971, 9.699212074279785, -1.132295846939087, 1.8735452890396118, 2.131636381149292, -0.2583553194999695, 1.7780656814575195, -0.886962890625, 0.251953125, 0.218505859375, 0, 
62, 270958829, 0.65407234, -0.40469548, -0.49035296, -0.40983537, 9.663302421569824, -1.1291509866714478, 1.8446540832519531, 2.0711004734039307, 0.3308328092098236, 1.6754611730575562, -0.887939453125, 0.247314453125, 0.21826171875, 0, 
63, 270975496, 0.6541861, -0.40475655, -0.49026522, -0.4096984, 9.641617774963379, -1.1955876350402832, 1.792209267616272, 1.94053316116333, 0.41610389947891235, 1.734184741973877, -0.88525390625, 0.250244140625, 0.220703125, 0, 
64, 270992163, 0.65434045, -0.40478957, -0.49017802, -0.409524, 9.630005836486816, -1.2865312099456787, 1.7798935174942017, 2.189399242401123, 0.5379050970077515, 1.9055975675582886, -0.885986328125, 0.25146484375, 0.219482421875, 0, 
65, 271008830, 0.6545611, -0.40476534, -0.49010068, -0.4092876, 9.748830795288086, -1.324158787727356, 1.8134886026382446, 2.8908798694610596, 0.7016471028327942, 2.1522865295410156, -0.882080078125, 0.25244140625, 0.219482421875, 0, 
66, 271025497, 0.6548596, -0.4046647, -0.48999012, -0.4090418, 9.80428695678711, -1.300347089767456, 1.7753945589065552, 3.360687017440796, 1.3048837184906006, 2.2362380027770996, -0.886474609375, 0.252685546875, 0.21875, 0, 
67, 271042164, 0.6552699, -0.4044125, -0.48981765, -0.40884095, 9.776727676391602, -1.2050179243087769, 1.7298805713653564, 4.002567291259766, 2.519847869873047, 2.003995180130005, -0.88671875, 0.25439453125, 0.2177734375, 0, 
68, 271058831, 0.6557529, -0.40404245, -0.48951024, -0.40880027, 9.67735481262207, -1.1691361665725708, 1.6465833187103271, 3.719137191772461, 4.172917366027832, 1.4579325914382935, -0.885009765625, 0.25439453125, 0.21875, 0, 
69, 271075498, 0.65620047, -0.40365657, -0.48905987, -0.40900236, 9.566679954528809, -1.2701594829559326, 1.5490533113479614, 2.4328930377960205, 5.441386699676514, 0.6132513880729675, -0.885986328125, 0.253662109375, 0.213134765625, 0, 
70, 271092165, 0.65661013, -0.40327328, -0.48862028, -0.40924808, 9.465816497802734, -1.3531169891357422, 1.4411925077438354, 2.3423714637756348, 5.387823581695557, 0.31821221113204956, -0.888427734375, 0.25244140625, 0.212890625, 0, 
71, 271108832, 0.6570263, -0.40287533, -0.48846322, -0.40915987, 9.502532958984375, -1.4189753532409668, 1.5194581747055054, 4.394281387329102, 3.282421112060547, 1.0102546215057373, -0.882568359375, 0.25244140625, 0.212158203125, 0, 
72, 271125499, 0.6574198, -0.40249455, -0.48864323, -0.4086874, 9.656174659729004, -1.3691093921661377, 1.765360951423645, 6.485104084014893, 0.6021609902381897, 1.7859034538269043, -0.88671875, 0.25390625, 0.211181640625, 0, 
73, 271142166, 0.6577235, -0.4022421, -0.48891386, -0.40812325, 9.809917449951172, -1.2009739875793457, 1.98921799659729, 6.1575822830200195, -0.7082552909851074, 2.105844736099243, -0.8857421875, 0.253662109375, 0.2099609375, 0, 
74, 271158833, 0.65785986, -0.40226436, -0.48905593, -0.40771088, 9.841461181640625, -1.044004201889038, 2.0194201469421387, 3.521247148513794, -1.0480140447616577, 2.2276132106781006, -0.8857421875, 0.253173828125, 0.212646484375, 0, 
75, 271175500, 0.6578053, -0.40257254, -0.48897824, -0.40758792, 9.807369232177734, -1.0372685194015503, 2.042344093322754, 0.08097456395626068, -0.7097983360290527, 1.9759302139282227, -0.885498046875, 0.252685546875, 0.2138671875, 0, 
76, 271192167, 0.6576331, -0.40307072, -0.4887014, -0.40770555, 9.71342945098877, -1.1735550165176392, 2.0173189640045166, -2.285248279571533, -0.11650576442480087, 1.8148901462554932, -0.882568359375, 0.25634765625, 0.213134765625, 0, 
77, 271208834, 0.6575059, -0.4035054, -0.48841554, -0.40782312, 9.625876426696777, -1.2854939699172974, 1.9487049579620361, -2.074032783508301, 0.25840651988983154, 1.7303555011749268, -0.884521484375, 0.25390625, 0.21240234375, 0, 
78, 271225501, 0.6574375, -0.40379488, -0.48824915, -0.40784624, 9.560325622558594, -1.278916597366333, 1.8933660984039307, -0.3715954124927521, 0.017352601513266563, 1.5497345924377441, -0.88427734375, 0.255126953125, 0.2138671875, 0, 
79, 271242168, 0.6574796, -0.40390742, -0.48820668, -0.4077176, 9.496767044067383, -1.2122156620025635, 1.8229882717132568, 1.3829960823059082, -0.07553824782371521, 1.5659730434417725, -0.884033203125, 0.255859375, 0.218017578125, 0, 
80, 271258835, 0.65753454, -0.40398192, -0.4882347, -0.40752167, 9.456915855407715, -1.1786353588104248, 1.7682185173034668, 1.9626563787460327, -0.42591360211372375, 1.5779664516448975, -0.88330078125, 0.255615234375, 0.215576171875, 0, 
81, 271275502, 0.65747267, -0.40416756, -0.4882649, -0.40740132, 9.496272087097168, -1.2350866794586182, 1.7213945388793945, 0.9019383192062378, -0.9274806976318359, 1.2876912355422974, -0.8837890625, 0.25537109375, 0.216796875, 0, 
82, 271292169, 0.65726286, -0.40452397, -0.48821098, -0.40745074, 9.585639953613281, -1.2583715915679932, 1.7130080461502075, -1.063797950744629, -1.0450749397277832, 0.9206229448318481, -0.88671875, 0.2548828125, 0.2138671875, 0, 
83, 271308836, 0.65700215, -0.40497524, -0.48804817, -0.4076179, 9.705482482910156, -1.230838656425476, 1.7244954109191895, -2.213404655456543, -0.6692919135093689, 0.8955351114273071, -0.88427734375, 0.254638671875, 0.216552734375, 0, 
84, 271325503, 0.65671873, -0.40543592, -0.487851, -0.40785277, 9.761507987976074, -1.2576937675476074, 1.7288901805877686, -2.6672041416168213, -0.41425982117652893, 0.6547502875328064, -0.88427734375, 0.251220703125, 0.216064453125, 0, 
85, 271342170, 0.6564391, -0.40585086, -0.48768178, -0.40809208, 9.79267692565918, -1.331598162651062, 1.7105753421783447, -2.2596933841705322, -0.3932190239429474, 0.4448990225791931, -0.885986328125, 0.252197265625, 0.217529296875, 0, 
86, 271358837, 0.65629023, -0.40601605, -0.48769817, -0.40814763, 9.761544227600098, -1.360771894454956, 1.6503660678863525, 0.26699957251548767, -0.5785844922065735, 0.2637596130371094, -0.88525390625, 0.253173828125, 0.21923828125, 0, 
87, 271375504, 0.6563131, -0.40585023, -0.48799434, -0.4079223, 9.728743553161621, -1.3357592821121216, 1.6506760120391846, 3.9690332412719727, -1.101915955543518, 0.11961130052804947, -0.88720703125, 0.253662109375, 0.219482421875, 0, 
88, 271392171, 0.65645707, -0.40544546, -0.48851773, -0.40746626, 9.677483558654785, -1.2984557151794434, 1.702227234840393, 6.661096096038818, -1.6600362062454224, 0.033219676464796066, -0.8837890625, 0.255126953125, 0.21875, 0, 
89, 271408838, 0.65661925, -0.4050193, -0.48909095, -0.4069407, 9.655399322509766, -1.2847027778625488, 1.7275831699371338, 7.16607666015625, -1.9439339637756348, 0.18380959331989288, -0.88330078125, 0.254150390625, 0.221923828125, 0, 
90, 271425505, 0.6567047, -0.4047332, -0.48960075, -0.4064743, 9.650700569152832, -1.2336968183517456, 1.7758699655532837, 6.1248040199279785, -2.161072015762329, 0.3868158459663391, -0.886962890625, 0.251220703125, 0.220458984375, 0, 
91, 271442172, 0.65669453, -0.40457764, -0.49003276, -0.4061248, 9.619528770446777, -1.1702371835708618, 1.7767672538757324, 4.59759521484375, -2.1600663661956787, 0.23903051018714905, -0.8857421875, 0.253173828125, 0.218994140625, 0, 
92, 271458839, 0.65658766, -0.40456462, -0.49042928, -0.40583158, 9.584619522094727, -1.1606961488723755, 1.822264313697815, 3.307034730911255, -2.552875280380249, 0.285491943359375, -0.8876953125, 0.2529296875, 0.21923828125, 0, 
93, 271475506, 0.65638536, -0.40469152, -0.49080923, -0.40557283, 9.654377937316895, -1.185181975364685, 1.8663305044174194, 2.244325876235962, -3.098003625869751, 0.3904016315937042, -0.886962890625, 0.251708984375, 0.220458984375, 0, 
94, 271492173, 0.6561184, -0.40492418, -0.49107412, -0.405452, 9.764444351196289, -1.1869990825653076, 1.9014716148376465, 0.8631735444068909, -2.7229819297790527, 0.2852102220058441, -0.8876953125, 0.251220703125, 0.220947265625, 0, 
95, 271508840, 0.65586364, -0.40518, -0.49119547, -0.40546164, 9.833292961120605, -1.1554876565933228, 1.791420340538025, -0.1605980396270752, -1.727378249168396, 0.19577068090438843, -0.88916015625, 0.252685546875, 0.221435546875, 0, 
96, 271525507, 0.6556526, -0.40534586, -0.49119776, -0.40563452, 9.78866195678711, -1.1641234159469604, 1.6696131229400635, -0.5036481618881226, -0.338561475276947, -0.37644264101982117, -0.885986328125, 0.25390625, 0.2236328125, 0, 
97, 271542174, 0.65547115, -0.40541065, -0.49122384, -0.4058315, 9.691325187683105, -1.2884430885314941, 1.6235837936401367, 0.02446012757718563, 0.012895993888378143, -0.7978419661521912, -0.889404296875, 0.251220703125, 0.224365234375, 0, 
98, 271558841, 0.65534014, -0.40535372, -0.4913629, -0.40593138, 9.710907936096191, -1.3858939409255981, 1.6244624853134155, 1.3903086185455322, -0.24875055253505707, -0.9390640258789062, -0.888916015625, 0.250244140625, 0.222412109375, 0, 
99, 271575508, 0.65529835, -0.4052062, -0.49160147, -0.4058576, 9.668586730957031, -1.38377845287323, 1.5899649858474731, 2.892774820327759, -0.6111509799957275, -0.5033087730407715, -0.88671875, 0.25048828125, 0.2216796875, 0, 
100, 271592175, 0.65535134, -0.40499794, -0.49198672, -0.40551254, 9.664118766784668, -1.2925993204116821, 1.6163665056228638, 4.844040870666504, -1.5341367721557617, 0.37622496485710144, -0.888671875, 0.248779296875, 0.22607421875, 0, 
101, 271608842, 0.655377, -0.40485677, -0.49237028, -0.40514663, 9.675708770751953, -1.1773632764816284, 1.69058358669281, 4.312929630279541, -1.8227407932281494, 0.5815044045448303, -0.887451171875, 0.249755859375, 0.22216796875, 0, 
102, 271625509, 0.6552701, -0.40495607, -0.49254513, -0.40500736, 9.725386619567871, -1.143701434135437, 1.7458429336547852, 1.603956937789917, -1.3772653341293335, 0.6111830472946167, -0.887939453125, 0.250732421875, 0.223876953125, 0, 
103, 271642176, 0.65512156, -0.40517467, -0.49251598, -0.40506473, 9.750626564025879, -1.1611875295639038, 1.7740635871887207, -0.2247002124786377, -0.3900302052497864, 0.6021225452423096, -0.89013671875, 0.251953125, 0.226806640625, 0, 
104, 271658843, 0.6550077, -0.40536994, -0.49244928, -0.40513426, 9.757894515991211, -1.2261632680892944, 1.7808794975280762, -0.1962893009185791, -0.0020810316782444715, 0.6741902232170105, -0.888427734375, 0.2490234375, 0.224853515625, 0, 
105, 271675510, 0.65502053, -0.40539116, -0.4924463, -0.40509602, 9.785497665405273, -1.2744262218475342, 1.764279842376709, 1.385903000831604, 0.33570563793182373, 0.7320621609687805, -0.888671875, 0.248291015625, 0.225341796875, 0, 
106, 271692177, 0.6551872, -0.40521365, -0.49249735, -0.40494198, 9.772232055664062, -1.2435306310653687, 1.7525681257247925, 3.3711178302764893, 0.8298898935317993, 0.8823574781417847, -0.887451171875, 0.25, 0.22607421875, 0, 
107, 271708844, 0.65541846, -0.40494362, -0.49258578, -0.40473047, 9.754956245422363, -1.2133599519729614, 1.7569884061813354, 4.268587112426758, 0.9785332679748535, 0.9083800315856934, -0.888916015625, 0.248291015625, 0.22412109375, 0, 
108, 271725511, 0.65568125, -0.40466803, -0.49264395, -0.40450957, 9.757967948913574, -1.2205750942230225, 1.6960134506225586, 4.2528862953186035, 1.2228399515151978, 1.0935214757919312, -0.890625, 0.248046875, 0.22607421875, 0, 
109, 271742178, 0.65590125, -0.4044769, -0.49263972, -0.4043494, 9.732698440551758, -1.2044384479522705, 1.7064871788024902, 3.455883502960205, 1.2893691062927246, 1.1829099655151367, -0.887939453125, 0.25048828125, 0.225830078125, 0, 
110, 271758845, 0.6560414, -0.40443298, -0.49256325, -0.40425888, 9.730795860290527, -1.2075753211975098, 1.706106185913086, 2.1467795372009277, 1.1312617063522339, 1.3546812534332275, -0.888916015625, 0.24951171875, 0.22412109375, 0, 
111, 271775512, 0.6561288, -0.40449548, -0.49243352, -0.40421265, 9.735650062561035, -1.2003480195999146, 1.6895228624343872, 1.2760887145996094, 1.0192444324493408, 1.5326639413833618, -0.89013671875, 0.2490234375, 0.223876953125, 0, 
112, 271792179, 0.65621334, -0.4045797, -0.4922762, -0.40418273, 9.71919059753418, -1.22340989112854, 1.7163424491882324, 0.8312346339225769, 1.1533654928207397, 1.5689443349838257, -0.889892578125, 0.25, 0.223388671875, 0, 
113, 271808846, 0.6563246, -0.40463594, -0.49211988, -0.4041363, 9.718062400817871, -1.2313554286956787, 1.6974934339523315, 1.140303134918213, 1.268776297569275, 1.6340261697769165, -0.890625, 0.251220703125, 0.223876953125, 0, 
114, 271825513, 0.65648496, -0.40461883, -0.49199528, -0.4040441, 9.686394691467285, -1.2045559883117676, 1.7304009199142456, 1.9051814079284668, 1.366661548614502, 1.6564052104949951, -0.8857421875, 0.249267578125, 0.224365234375, 0, 
115, 271842180, 0.65672344, -0.40451565, -0.49185878, -0.40392634, 9.686920166015625, -1.179858684539795, 1.73241126537323, 2.6073219776153564, 1.8507225513458252, 1.7460178136825562, -0.886474609375, 0.25146484375, 0.22314453125, 0, 
116, 271858847, 0.6570388, -0.40431106, -0.49171665, -0.4037914, 9.686349868774414, -1.2034752368927002, 1.7414430379867554, 3.297750234603882, 2.376269578933716, 1.7133232355117798, -0.89111328125, 0.250244140625, 0.22119140625, 0, 
117, 271875514, 0.6573124, -0.40413192, -0.49155748, -0.40371925, 9.667155265808105, -1.1925889253616333, 1.7941657304763794, 2.7800798416137695, 2.423947811126709, 1.4504987001419067, -0.886962890625, 0.251708984375, 0.222412109375, 0, 
118, 271892181, 0.65733933, -0.40425467, -0.49127224, -0.40389946, 9.637842178344727, -1.163752794265747, 1.7552083730697632, -0.4878386855125427, 2.0251195430755615, 0.9996637105941772, -0.8876953125, 0.2529296875, 0.22119140625, 0, 
119, 271908848, 0.6571697, -0.40472502, -0.49080685, -0.40427014, 9.548351287841797, -1.101431965827942, 1.742642879486084, -3.6949329376220703, 1.7337236404418945, 1.2885236740112305, -0.887451171875, 0.25244140625, 0.2197265625, 0, 
120, 271925515, 0.65681523, -0.4055337, -0.49018896, -0.40478528, 9.595603942871094, -1.080080270767212, 1.756298303604126, -6.708115577697754, 1.2707488536834717, 1.6915783882141113, -0.88623046875, 0.252685546875, 0.222900390625, 0, 
121, 271942182, 0.65620726, -0.4067503, -0.4893758, -0.40553406, 9.590571403503418, -1.1601022481918335, 1.7943617105484009, -10.58319091796875, 0.8143689036369324, 1.8670002222061157, -0.888671875, 0.251220703125, 0.225830078125, 0, 
122, 271958849, 0.6554706, -0.408214, -0.4884354, -0.40638733, 9.656375885009766, -1.1870054006576538, 1.7524669170379639, -12.688255310058594, 0.545102596282959, 2.2502944469451904, -0.886474609375, 0.25146484375, 0.22509765625, 0, 
123, 271975516, 0.6547608, -0.40964884, -0.48750412, -0.4072049, 9.72199821472168, -1.246534824371338, 1.7705309391021729, -12.393434524536133, 0.5829453468322754, 2.3625168800354004, -0.89013671875, 0.248779296875, 0.23095703125, 0, 
124, 271992183, 0.65414983, -0.4108741, -0.48666638, -0.40795416, 9.794779777526855, -1.3177345991134644, 1.757523536682129, -10.740056991577148, 0.8969315886497498, 1.9775575399398804, -0.889892578125, 0.247802734375, 0.2294921875, 0, 
125, 272008850, 0.65370226, -0.41179517, -0.4860255, -0.40850648, 9.857355117797852, -1.3237736225128174, 1.7287344932556152, -7.6941399574279785, 0.8572573065757751, 1.7527159452438354, -0.888916015625, 0.248046875, 0.233154296875, 0, 
126, 272025517, 0.65341336, -0.41241664, -0.4855177, -0.40894535, 9.895408630371094, -1.3455898761749268, 1.6377537250518799, -5.136800289154053, 1.3131117820739746, 1.336368203163147, -0.88818359375, 0.246337890625, 0.234375, 0, 
127, 272042184, 0.653229, -0.41279113, -0.4851703, -0.40927422, 9.848282814025879, -1.3462605476379395, 1.6036041975021362, -2.89084792137146, 1.3336660861968994, 0.8542218804359436, -0.890625, 0.24560546875, 0.233642578125, 0, 
128, 272058851, 0.65310013, -0.4129816, -0.48501426, -0.40947247, 9.744161605834961, -1.358397126197815, 1.5716121196746826, -0.942733108997345, 0.8222829103469849, 0.4399237036705017, -0.8935546875, 0.2431640625, 0.232421875, 0, 
129, 272075518, 0.65307456, -0.41299915, -0.48503733, -0.40946835, 9.645608901977539, -1.3584671020507812, 1.5793061256408691, 1.1732152700424194, 0.31011858582496643, 0.5295298099517822, -0.890869140625, 0.24609375, 0.23486328125, 0, 
130, 272092185, 0.653144, -0.41286817, -0.4851868, -0.40931246, 9.586523056030273, -1.396346092224121, 1.612162470817566, 3.07500958442688, 0.04592357203364372, 0.64396733045578, -0.890625, 0.244384765625, 0.2333984375, 0, 
131, 272108852, 0.653247, -0.41264558, -0.48544976, -0.40906078, 9.56633186340332, -1.3797894716262817, 1.6491068601608276, 4.202531337738037, -0.35283413529396057, 0.5336918234825134, -0.892822265625, 0.246337890625, 0.235107421875, 0, 
132, 272125519, 0.6533388, -0.4123699, -0.48574373, -0.408843, 9.600221633911133, -1.2872940301895142, 1.7145259380340576, 4.4170379638671875, -0.27999162673950195, 0.08815891295671463, -0.892333984375, 0.244873046875, 0.233154296875, 0, 
133, 272142186, 0.65336, -0.41212317, -0.48597553, -0.40878257, 9.659870147705078, -1.2473781108856201, 1.7575175762176514, 3.356595754623413, 0.13747616112232208, -0.5453521013259888, -0.88916015625, 0.2431640625, 0.235107421875, 0, 
134, 272158853, 0.6532848, -0.41201448, -0.48605996, -0.40891194, 9.70692253112793, -1.2440276145935059, 1.7417069673538208, 1.4102033376693726, 0.6292976140975952, -0.7847219109535217, -0.8916015625, 0.2451171875, 0.232666015625, 0, 
135, 272175520, 0.6531238, -0.41200274, -0.48605287, -0.40918916, 9.694713592529297, -1.2702829837799072, 1.6841249465942383, 0.03694632276892662, 0.8952919244766235, -1.0872464179992676, -0.890380859375, 0.243408203125, 0.232666015625, 0, 
136, 272192187, 0.6529451, -0.41198787, -0.48597744, -0.40957865, 9.614055633544922, -1.3308851718902588, 1.6372852325439453, -0.48141634464263916, 1.4648480415344238, -1.436219334602356, -0.892578125, 0.24267578125, 0.2314453125, 0, 
137, 272208854, 0.6527789, -0.4118682, -0.48596677, -0.40997645, 9.561073303222656, -1.3975653648376465, 1.5681695938110352, 0.08365106582641602, 1.5573800802230835, -1.9893511533737183, -0.891845703125, 0.24267578125, 0.23291015625, 0, 
138, 272225521, 0.65264636, -0.41165128, -0.4860235, -0.410338, 9.509754180908203, -1.408022403717041, 1.543861985206604, 0.9398707747459412, 1.5507336854934692, -2.249966859817505, -0.892578125, 0.242431640625, 0.2333984375, 0, 
139, 272242188, 0.6525591, -0.4113389, -0.48621374, -0.4105644, 9.5225248336792, -1.328596591949463, 1.5687311887741089, 2.3549723625183105, 0.9998556971549988, -2.2135965824127197, -0.889892578125, 0.23974609375, 0.23046875, 0, 
140, 272258855, 0.65239966, -0.41111535, -0.48655015, -0.4106434, 9.498270034790039, -1.1609115600585938, 1.7175837755203247, 2.6342790126800537, -0.5477851629257202, -1.87858247756958, -0.8955078125, 0.239990234375, 0.234130859375, 0, 
141, 272275522, 0.65217555, -0.41117558, -0.48694658, -0.41046917, 9.594625473022461, -1.0361536741256714, 1.816795825958252, 2.182157278060913, -2.5454158782958984, -0.14092107117176056, -0.89404296875, 0.239013671875, 0.233642578125, 0, 
142, 272292189, 0.6518137, -0.41149375, -0.48726025, -0.41035283, 9.835285186767578, -1.0520974397659302, 1.8847956657409668, 0.2389472872018814, -3.2077598571777344, 0.3311273753643036, -0.895263671875, 0.24169921875, 0.233642578125, 0, 
143, 272308856, 0.65132767, -0.41202632, -0.4873038, -0.4105385, 9.936873435974121, -1.0833245515823364, 1.9713624715805054, -2.8454558849334717, -2.170100212097168, 0.12664198875427246, -0.892822265625, 0.236572265625, 0.235595703125, 0, 
144, 272325523, 0.65080225, -0.4125988, -0.4871839, -0.41093886, 9.96095085144043, -1.1262476444244385, 1.910271406173706, -4.387321472167969, -1.076469898223877, -0.3456242084503174, -0.895263671875, 0.235595703125, 0.2373046875, 0, 
145, 272342190, 0.65027285, -0.41308787, -0.4871247, -0.41135556, 9.899717330932617, -1.2588032484054565, 1.8030849695205688, -3.9493050575256348, -1.0814769268035889, -0.8746672868728638, -0.89599609375, 0.23779296875, 0.237548828125, 0, 
146, 272358857, 0.6498708, -0.41334376, -0.48730963, -0.41151455, 9.847363471984863, -1.3640803098678589, 1.7340271472930908, -0.868456244468689, -1.835681438446045, -0.8077541589736938, -0.89794921875, 0.239013671875, 0.23974609375, 0, 
147, 272375524, 0.6498188, -0.41313902, -0.48785195, -0.41115966, 9.833087921142578, -1.3530206680297852, 1.7536654472351074, 4.934261798858643, -2.416961908340454, -0.08226160705089569, -0.89404296875, 0.23486328125, 0.239013671875, 0, 
148, 272392191, 0.6499547, -0.4126578, -0.48863345, -0.41049954, 9.785980224609375, -1.2812433242797852, 1.7164403200149536, 8.299899101257324, -2.924208402633667, 0.18274661898612976, -0.893798828125, 0.23486328125, 0.240478515625, 0, 
149, 272408858, 0.65004575, -0.41226262, -0.48939526, -0.4098443, 9.714235305786133, -1.1431547403335571, 1.6400902271270752, 7.757472991943359, -3.218312978744507, 0.3859066069126129, -0.897705078125, 0.237060546875, 0.23876953125, 0, 
150, 272425525, 0.64996576, -0.4121324, -0.48990297, -0.40949538, 9.633552551269531, -1.1275967359542847, 1.5456615686416626, 4.334219455718994, -2.530233860015869, 0.15366339683532715, -0.896728515625, 0.235595703125, 0.2421875, 0, 
151, 272442192, 0.6496804, -0.41234112, -0.49014267, -0.40945137, 9.526933670043945, -1.20824134349823, 1.4681459665298462, 0.345476895570755, -2.088517427444458, 0.10127262026071548, -0.8935546875, 0.2353515625, 0.23974609375, 0, 
152, 272458859, 0.64929706, -0.4126978, -0.49028236, -0.40953287, 9.4747314453125, -1.2721118927001953, 1.4063371419906616, -1.1539162397384644, -2.0397441387176514, 0.07493636012077332, -0.89599609375, 0.2353515625, 0.24365234375, 0, 
153, 272475526, 0.649062, -0.41287404, -0.49042523, -0.40955693, 9.440909385681152, -1.3179851770401, 1.379555583000183, 0.26322174072265625, -1.1928603649139404, 0.12697497010231018, -0.894775390625, 0.235595703125, 0.2421875, 0, 
154, 272492193, 0.6492093, -0.41255352, -0.49080968, -0.4091855, 9.428984642028809, -1.3632947206497192, 1.5418487787246704, 5.59570837020874, -0.69080650806427, 0.6055353879928589, -0.894287109375, 0.236328125, 0.242431640625, 0, 
155, 272508860, 0.6496694, -0.41170815, -0.49153757, -0.40843257, 9.521927833557129, -1.3064738512039185, 1.6359035968780518, 11.108999252319336, -0.7705903053283691, 0.43807974457740784, -0.89306640625, 0.236083984375, 0.24072265625, 0, 
156, 272525527, 0.6502302, -0.4106826, -0.49243227, -0.40749362, 9.62678050994873, -1.1767959594726562, 1.7327600717544556, 13.225497245788574, -1.1851388216018677, 0.45357558131217957, -0.89697265625, 0.234619140625, 0.24072265625, 0, 
157, 272542194, 0.65071404, -0.40975407, -0.49329215, -0.40661517, 9.743979454040527, -1.0198358297348022, 1.8111650943756104, 12.244285583496094, -1.3907766342163086, 0.3913622796535492, -0.892578125, 0.236572265625, 0.240966796875, 0, 
158, 272558861, 0.65102065, -0.4091987, -0.493908, -0.40593538, 9.789225578308105, -0.8589074611663818, 1.8693616390228271, 8.76167106628418, -1.3955787420272827, 0.9826186895370483, -0.894775390625, 0.2353515625, 0.239501953125, 0, 
159, 272575528, 0.65094966, -0.40913856, -0.4943106, -0.40561968, 9.8792724609375, -0.8719984889030457, 1.989096760749817, 3.6659200191497803, -2.0944082736968994, 0.6084040403366089, -0.893310546875, 0.2353515625, 0.2412109375, 0, 
160, 272592195, 0.6504599, -0.40959418, -0.49448323, -0.40573528, 9.952130317687988, -1.0372912883758545, 2.017307758331299, -1.9987061023712158, -2.721240282058716, -0.07926489412784576, -0.89697265625, 0.235107421875, 0.240234375, 0, 
161, 272608862, 0.6498064, -0.41025466, -0.4945276, -0.4060609, 9.964791297912598, -1.195904016494751, 1.953585147857666, -4.424075603485107, -2.707742929458618, -0.39814308285713196, -0.8974609375, 0.232421875, 0.24365234375, 0, 
162, 272625529, 0.6492578, -0.41072944, -0.49467716, -0.40627614, 9.922868728637695, -1.2698657512664795, 1.879474401473999, -2.617457866668701, -2.6322877407073975, -0.5331603288650513, -0.896484375, 0.232421875, 0.244384765625, 0, 
163, 272642196, 0.6488852, -0.41087148, -0.4950181, -0.4063124, 9.840657234191895, -1.2465075254440308, 1.737541913986206, 0.4531655013561249, -2.467533826828003, -0.9248170256614685, -0.89453125, 0.23388671875, 0.2431640625, 0, 
164, 272658863, 0.64867127, -0.41074127, -0.4954711, -0.40623355, 9.722248077392578, -1.175499439239502, 1.6152771711349487, 2.954681396484375, -2.013984441757202, -1.188051700592041, -0.895263671875, 0.23388671875, 0.2431640625, 0, 
165, 272675530, 0.64851475, -0.4104941, -0.49591616, -0.40619013, 9.632818222045898, -1.1753891706466675, 1.552159070968628, 3.4959933757781982, -1.353676199913025, -1.5589492321014404, -0.8974609375, 0.232421875, 0.24365234375, 0, 
166, 272692197, 0.6483299, -0.41026667, -0.49623957, -0.40632018, 9.545758247375488, -1.2317255735397339, 1.454919695854187, 2.3765389919281006, -0.46647775173187256, -2.0026509761810303, -0.898681640625, 0.232666015625, 0.245849609375, 0, 
167, 272708864, 0.64812547, -0.4100729, -0.4964424, -0.40659386, 9.524483680725098, -1.2887091636657715, 1.3488129377365112, 1.3328207731246948, 0.32503795623779297, -2.2479560375213623, -0.8994140625, 0.232666015625, 0.246337890625, 0, 
168, 272725531, 0.6479785, -0.40983972, -0.496642, -0.40681958, 9.506203651428223, -1.297587275505066, 1.3650439977645874, 1.8485324382781982, 0.5229728817939758, -2.0011136531829834, -0.8994140625, 0.23193359375, 0.24609375, 0, 
169, 272742198, 0.6479354, -0.4095119, -0.4969447, -0.40684852, 9.559514999389648, -1.2651963233947754, 1.4765959978103638, 3.4809319972991943, 0.1468632072210312, -1.4634519815444946, -0.899169921875, 0.229248046875, 0.2451171875, 0, 
170, 272758865, 0.6479714, -0.4091213, -0.49733645, -0.40670568, 9.663371086120605, -1.165586233139038, 1.6496918201446533, 4.880396842956543, -0.2873936891555786, -0.9372519254684448, -0.89892578125, 0.231201171875, 0.244140625, 0, 
171, 272775532, 0.64806813, -0.408705, -0.49773216, -0.4064858, 9.841229438781738, -1.019951581954956, 1.7490280866622925, 5.379538059234619, -0.23566889762878418, -0.5330706834793091, -0.897705078125, 0.226806640625, 0.243408203125, 0, 
172, 272792199, 0.6480901, -0.40845317, -0.49791944, -0.40647468, 9.921935081481934, -0.9535145163536072, 1.8168330192565918, 3.2315800189971924, 0.5454352498054504, -0.4975331425666809, -0.898681640625, 0.2255859375, 0.242919921875, 0, 
173, 272808866, 0.647919, -0.40852532, -0.49781007, -0.40680894, 10.00033950805664, -0.9235429167747498, 1.8364629745483398, -0.9451022744178772, 1.2835549116134644, -0.6504666209220886, -0.8994140625, 0.2265625, 0.242919921875, 0, 
174, 272825533, 0.64755094, -0.40889016, -0.4974004, -0.40752867, 9.954937934875488, -0.9220275282859802, 1.7948296070098877, -4.880878448486328, 2.1898860931396484, -1.0408682823181152, -0.90283203125, 0.226806640625, 0.243896484375, 0, 
175, 272842200, 0.64706606, -0.40944654, -0.49681783, -0.4084498, 9.877368927001953, -1.0086612701416016, 1.7186520099639893, -7.300652503967285, 2.5892913341522217, -1.1185646057128906, -0.900634765625, 0.22998046875, 0.24365234375, 0, 
176, 272858867, 0.6465875, -0.41000685, -0.4961995, -0.4093961, 9.838179588317871, -1.1551374197006226, 1.650577425956726, -7.3020734786987305, 2.801043748855591, -1.0546480417251587, -0.900634765625, 0.225341796875, 0.242919921875, 0, 
177, 272875534, 0.64621603, -0.41042393, -0.4956235, -0.41026166, 9.800938606262207, -1.240590214729309, 1.585191011428833, -6.136516094207764, 3.1727609634399414, -1.028190016746521, -0.8994140625, 0.224609375, 0.24462890625, 0, 
178, 272892201, 0.6459785, -0.41065508, -0.49515393, -0.4109706, 9.727205276489258, -1.2413581609725952, 1.490293264389038, -4.014554500579834, 3.230978488922119, -0.8777152299880981, -0.901611328125, 0.22265625, 0.24560546875, 0, 
179, 272908868, 0.6458832, -0.4106934, -0.4948131, -0.41149235, 9.701406478881836, -1.1971744298934937, 1.431675672531128, -1.6924936771392822, 3.1592369079589844, -0.6583424806594849, -0.9033203125, 0.2197265625, 0.245849609375, 0, 
180, 272925535, 0.64585984, -0.41069022, -0.49446476, -0.41195092, 9.685848236083984, -1.1849123239517212, 1.441049337387085, -1.315794825553894, 3.4141855239868164, -0.3312554657459259, -0.9033203125, 0.220947265625, 0.244140625, 0, 
181, 272942202, 0.6458244, -0.4107311, -0.4940435, -0.4124706, 9.663630485534668, -1.1526734828948975, 1.4365557432174683, -1.8259356021881104, 3.738787889480591, -0.25950145721435547, -0.90087890625, 0.221923828125, 0.242431640625, 0, 
182, 272958869, 0.6457973, -0.41078988, -0.49359512, -0.41299096, 9.623617172241211, -1.1377875804901123, 1.488736629486084, -1.8579899072647095, 3.8371660709381104, -0.08165968954563141, -0.904296875, 0.220703125, 0.2412109375, 0, 
183, 272975536, 0.64578533, -0.41084567, -0.49316806, -0.4134641, 9.595487594604492, -1.1272430419921875, 1.5251171588897705, -1.61203134059906, 3.680250644683838, 0.09490787237882614, -0.905517578125, 0.22021484375, 0.243408203125, 0, 
184, 272992203, 0.64578265, -0.41091257, -0.49274904, -0.4139011, 9.619831085205078, -1.0718787908554077, 1.5664597749710083, -1.5682464838027954, 3.5579116344451904, 0.2842881977558136, -0.905517578125, 0.22119140625, 0.240966796875, 0, 
185, 273008870, 0.64576477, -0.41104645, -0.49228093, -0.41435263, 9.708828926086426, -1.0171023607254028, 1.633690595626831, -2.0346405506134033, 3.5709352493286133, 0.5581902861595154, -0.906982421875, 0.21875, 0.24072265625, 0, 
186, 273025537, 0.6456997, -0.4112631, -0.49171054, -0.41491595, 9.807365417480469, -0.9911844730377197, 1.659247636795044, -3.269493818283081, 3.955305814743042, 0.49312135577201843, -0.90087890625, 0.2197265625, 0.24267578125, 0, 
187, 273042204, 0.6455794, -0.41157156, -0.49102786, -0.41560516, 9.893025398254395, -0.9877535104751587, 1.635179042816162, -4.510608196258545, 4.3530707359313965, 0.4287950396537781, -0.904541015625, 0.216796875, 0.2392578125, 0, 
188, 273058871, 0.6454518, -0.41189268, -0.49034575, -0.41629004, 9.89071273803711, -1.0296719074249268, 1.584686040878296, -4.6364312171936035, 4.289551734924316, 0.4670349061489105, -0.90673828125, 0.21728515625, 0.238037109375, 0, 
189, 273075538, 0.64531755, -0.4121846, -0.48973086, -0.4169328, 9.911815643310547, -1.0960912704467773, 1.5728451013565063, -4.1981201171875, 3.9407191276550293, 0.35471031069755554, -0.905029296875, 0.218505859375, 0.23876953125, 0, 
190, 273092205, 0.6451878, -0.41244352, -0.4892046, -0.41749498, 9.8530912399292, -1.1399211883544922, 1.5215373039245605, -3.4128990173339844, 3.4245970249176025, 0.3869438171386719, -0.90576171875, 0.21923828125, 0.2412109375, 0, 
191, 273108872, 0.6451011, -0.4126064, -0.4888531, -0.41787964, 9.792163848876953, -1.1589770317077637, 1.4544830322265625, -1.7605340480804443, 2.575165033340454, 0.48213350772857666, -0.906005859375, 0.216064453125, 0.239501953125, 0, 
192, 273125539, 0.64508, -0.41265297, -0.48870456, -0.41803974, 9.736652374267578, -1.1512001752853394, 1.4511557817459106, 0.3139733076095581, 1.6033039093017578, 0.7066416144371033, -0.906005859375, 0.21826171875, 0.240234375, 0, 
193, 273142206, 0.6450932, -0.41265807, -0.48870555, -0.41801336, 9.720987319946289, -1.1271121501922607, 1.5030555725097656, 1.623281478881836, 0.6627797484397888, 1.0625042915344238, -0.905517578125, 0.21728515625, 0.23828125, 0, 
194, 273158873, 0.64513844, -0.41265568, -0.48879445, -0.4178418, 9.721019744873047, -1.1008938550949097, 1.5630344152450562, 2.452300786972046, 0.005942145828157663, 1.5176931619644165, -0.90380859375, 0.218505859375, 0.240966796875, 0, 
195, 273175540, 0.6451964, -0.41265, -0.48897588, -0.4175456, 9.712000846862793, -1.116870641708374, 1.6045812368392944, 3.273303508758545, -0.7091069221496582, 1.8513119220733643, -0.90576171875, 0.21826171875, 0.2412109375, 0, 
196, 273192207, 0.6452684, -0.41261885, -0.4892818, -0.4171066, 9.748794555664062, -1.1393210887908936, 1.6472525596618652, 4.1853837966918945, -1.530646800994873, 2.072835683822632, -0.90478515625, 0.216796875, 0.23974609375, 0, 
197, 273208874, 0.64531934, -0.4126138, -0.48967817, -0.41656703, 9.790447235107422, -1.1173980236053467, 1.7647387981414795, 4.682820796966553, -2.370436191558838, 2.302389621734619, -0.904052734375, 0.215087890625, 0.2392578125, 0, 
198, 273225541, 0.6453055, -0.4126949, -0.49012697, -0.4159801, 9.836644172668457, -1.0804028511047363, 1.7992266416549683, 4.289231300354004, -3.1876354217529297, 2.4436309337615967, -0.90771484375, 0.217529296875, 0.2412109375, 0, 
199, 273242208, 0.64516914, -0.41295624, -0.49054208, -0.41544235, 9.82998275756836, -1.060690999031067, 1.807486653327942, 2.9429638385772705, -3.841463565826416, 2.5925307273864746, -0.906494140625, 0.21923828125, 0.24169921875, 0, 
200, 273258875, 0.6449589, -0.41336563, -0.4908412, -0.41500828, 9.821228981018066, -1.0887144804000854, 1.7448832988739014, 1.4399333000183105, -3.716473340988159, 2.7634437084198, -0.905517578125, 0.21875, 0.242431640625, 0, 
201, 273275542, 0.64469147, -0.41387182, -0.49102977, -0.41469628, 9.763166427612305, -1.1036133766174316, 1.6833285093307495, 0.10252764075994492, -3.3503270149230957, 2.69939923286438, -0.904541015625, 0.22021484375, 0.244384765625, 0, 
202, 273292209, 0.6444314, -0.41437176, -0.4911718, -0.4144328, 9.699868202209473, -1.1368861198425293, 1.6032118797302246, -0.1102178692817688, -2.9700427055358887, 2.625455856323242, -0.90478515625, 0.22021484375, 0.244873046875, 0, 
203, 273308876, 0.6442507, -0.4147742, -0.49134833, -0.41410175, 9.654190063476562, -1.1829030513763428, 1.515907883644104, 0.9097120761871338, -2.7740092277526855, 2.730646848678589, -0.902587890625, 0.220458984375, 0.250244140625, 0, 
204, 273325543, 0.6442295, -0.41500133, -0.4916028, -0.4136052, 9.672253608703613, -1.2293622493743896, 1.4955381155014038, 3.0040879249572754, -2.559976577758789, 3.114581346511841, -0.90478515625, 0.21875, 0.24853515625, 0, 
205, 273342210, 0.6443471, -0.4150425, -0.4919603, -0.41295496, 9.711936950683594, -1.2676668167114258, 1.5075141191482544, 4.877395153045654, -2.429941177368164, 3.235095500946045, -0.903076171875, 0.221435546875, 0.250244140625, 0, 
206, 273358877, 0.6445857, -0.41496226, -0.49234933, -0.4121985, 9.749762535095215, -1.224066972732544, 1.4844759702682495, 6.308742046356201, -2.1272311210632324, 3.5602171421051025, -0.905517578125, 0.222900390625, 0.245849609375, 0, 
207, 273375544, 0.64492804, -0.41476822, -0.4927213, -0.4114135, 9.759029388427734, -1.1741225719451904, 1.4805986881256104, 7.184569358825684, -1.4578688144683838, 3.6453664302825928, -0.902099609375, 0.2236328125, 0.25341796875, 0, 
208, 273392211, 0.64531076, -0.41453132, -0.49306655, -0.41063768, 9.772497177124023, -1.1661947965621948, 1.4980945587158203, 7.23688268661499, -1.0289584398269653, 3.624222993850708, -0.90087890625, 0.223876953125, 0.251708984375, 0, 
209, 273408878, 0.64574474, -0.41425875, -0.49340114, -0.40982792, 9.755545616149902, -1.1730738878250122, 1.540945291519165, 7.725471019744873, -0.8127360343933105, 3.847323179244995, -0.90283203125, 0.226318359375, 0.248291015625, 0, 
210, 273425545, 0.6462272, -0.4139113, -0.49376628, -0.4089777, 9.757997512817383, -1.1587978601455688, 1.5668985843658447, 8.491303443908691, -0.695929229259491, 3.8359251022338867, -0.90087890625, 0.2275390625, 0.250244140625, 0, 
211, 273442212, 0.6467493, -0.41352105, -0.49413052, -0.4081063, 9.731559753417969, -1.1550601720809937, 1.588327169418335, 8.751580238342285, -0.4807184934616089, 3.8809781074523926, -0.89990234375, 0.228271484375, 0.24951171875, 0, 
212, 273458879, 0.6472987, -0.41311088, -0.49442703, -0.40729088, 9.73110580444336, -1.1066060066223145, 1.5953444242477417, 8.698010444641113, 0.10576765984296799, 3.8637664318084717, -0.900390625, 0.22998046875, 0.248779296875, 0, 
213, 273475546, 0.6479185, -0.41264164, -0.49468237, -0.40647003, 9.699106216430664, -1.119397521018982, 1.6003737449645996, 8.980262756347656, 0.6889561414718628, 3.9920475482940674, -0.8974609375, 0.233154296875, 0.248291015625, 0, 
214, 273492213, 0.64864373, -0.41203153, -0.4949828, -0.40556568, 9.69146728515625, -1.1854585409164429, 1.6220247745513916, 10.367972373962402, 0.9957196116447449, 4.064685821533203, -0.897216796875, 0.23388671875, 0.247802734375, 0, 
215, 273508880, 0.64946365, -0.41127196, -0.49536666, -0.40455458, 9.714920997619629, -1.2060463428497314, 1.73749577999115, 11.94044303894043, 1.0517477989196777, 4.068579196929932, -0.9013671875, 0.23388671875, 0.24853515625, 0, 
216, 273525547, 0.6502818, -0.4104794, -0.49577144, -0.40354794, 9.705155372619629, -1.1737889051437378, 1.7233316898345947, 11.904812812805176, 1.079972743988037, 3.833249092102051, -0.89404296875, 0.234375, 0.243408203125, 0, 
217, 273542214, 0.65106434, -0.40972486, -0.4961734, -0.40255782, 9.676233291625977, -1.1162689924240112, 1.7440905570983887, 11.724129676818848, 0.8853034377098083, 3.827397346496582, -0.897216796875, 0.23974609375, 0.24462890625, 0, 
218, 273558881, 0.6517557, -0.40910777, -0.49648094, -0.40168676, 9.638460159301758, -1.0594213008880615, 1.751926064491272, 10.377630233764648, 0.9184717535972595, 3.8176255226135254, -0.8974609375, 0.236572265625, 0.23828125, 0, 
219, 273575548, 0.652265, -0.40876076, -0.4966191, -0.40104175, 9.637669563293457, -1.0885448455810547, 1.798828363418579, 7.412649631500244, 0.9380140900611877, 3.7069525718688965, -0.89404296875, 0.24072265625, 0.23974609375, 0, 
220, 273592215, 0.65260535, -0.40865213, -0.49657008, -0.40065965, 9.716333389282227, -1.0882139205932617, 1.7920430898666382, 4.267024517059326, 1.2974880933761597, 3.3759329319000244, -0.8916015625, 0.239990234375, 0.242431640625, 0, 
221, 273608882, 0.65284723, -0.4086979, -0.49637777, -0.40045688, 9.723862648010254, -1.1050513982772827, 1.7522577047348022, 2.2673003673553467, 1.6764024496078491, 3.2344741821289062, -0.89501953125, 0.24169921875, 0.239013671875, 0, 
222, 273625549, 0.65309805, -0.4087342, -0.49611965, -0.40033084, 9.708483695983887, -1.1613781452178955, 1.672686219215393, 1.884415864944458, 2.23769211769104, 3.0728836059570312, -0.892333984375, 0.245361328125, 0.23974609375, 0, 
223, 273642216, 0.6533884, -0.40865856, -0.49590462, -0.40020066, 9.613831520080566, -1.2452020645141602, 1.6234138011932373, 3.049243450164795, 2.413766622543335, 2.7785427570343018, -0.89208984375, 0.241455078125, 0.238525390625, 0, 
224, 273658883, 0.65375733, -0.40842217, -0.4958178, -0.39994693, 9.585578918457031, -1.2584425210952759, 1.63262939453125, 4.546562194824219, 2.2308151721954346, 2.602749824523926, -0.8896484375, 0.243896484375, 0.239013671875, 0, 
225, 273675550, 0.6542137, -0.40807527, -0.4957886, -0.39959052, 9.60733699798584, -1.2069971561431885, 1.6303030252456665, 5.897030353546143, 2.2709760665893555, 2.783895969390869, -0.890869140625, 0.24609375, 0.239013671875, 0, 
226, 273692217, 0.6546932, -0.4076832, -0.49578866, -0.3992053, 9.633649826049805, -1.1605134010314941, 1.6158796548843384, 6.2411112785339355, 2.2747793197631836, 2.724320411682129, -0.8896484375, 0.24462890625, 0.239013671875, 0, 
227, 273708884, 0.65510666, -0.4073693, -0.49569514, -0.39896366, 9.67033576965332, -1.1515733003616333, 1.6570489406585693, 5.211801528930664, 2.622920274734497, 2.4782724380493164, -0.89208984375, 0.246337890625, 0.236572265625, 0, 
228, 273725551, 0.65550363, -0.40705183, -0.49561062, -0.39874065, 9.709087371826172, -1.1808944940567017, 1.700506567955017, 5.030821323394775, 2.604222536087036, 2.2963192462921143, -0.890380859375, 0.2470703125, 0.23583984375, 0, 
229, 273742218, 0.6558649, -0.40670744, -0.49559832, -0.39851302, 9.70710563659668, -1.2483723163604736, 1.7780249118804932, 5.1678876876831055, 2.2303028106689453, 1.9139859676361084, -0.892822265625, 0.24609375, 0.233154296875, 0, 
230, 273758885, 0.65621066, -0.40633473, -0.49568933, -0.39821085, 9.725598335266113, -1.2337539196014404, 1.7941226959228516, 5.781682968139648, 1.5751298666000366, 1.8208199739456177, -0.890380859375, 0.248779296875, 0.236083984375, 0, 
231, 273775552, 0.6565402, -0.40595487, -0.4958404, -0.39786693, 9.729961395263672, -1.1797000169754028, 1.8284136056900024, 5.797345161437988, 1.1870332956314087, 1.7235809564590454, -0.888427734375, 0.24951171875, 0.2314453125, 0, 
232, 273792219, 0.6567563, -0.4057063, -0.49592617, -0.3976567, 9.701860427856445, -1.14017653465271, 1.8055589199066162, 4.653469562530518, 1.0457665920257568, 1.5185002088546753, -0.888671875, 0.250732421875, 0.23486328125, 0, 
233, 273808886, 0.6568543, -0.40560147, -0.49593535, -0.3975904, 9.642361640930176, -1.1595619916915894, 1.7903586626052856, 3.3038718700408936, 0.9452879428863525, 1.3172739744186401, -0.88720703125, 0.249755859375, 0.23388671875, 0, 
234, 273825553, 0.6568922, -0.40554354, -0.49590686, -0.3976225, 9.615285873413086, -1.2095595598220825, 1.7575435638427734, 2.1021108627319336, 1.1048678159713745, 0.9072273373603821, -0.886962890625, 0.24951171875, 0.232666015625, 0, 
235, 273842220, 0.65685344, -0.40556073, -0.4958224, -0.39777407, 9.585617065429688, -1.286611795425415, 1.723694086074829, 1.0325120687484741, 1.2144134044647217, 0.5806271433830261, -0.88427734375, 0.25390625, 0.2353515625, 0, 
236, 273858887, 0.6568156, -0.40556523, -0.49572542, -0.3979528, 9.615442276000977, -1.2701314687728882, 1.6857218742370605, 0.9517679810523987, 1.3841487169265747, 0.4482990503311157, -0.887939453125, 0.24951171875, 0.231689453125, 0, 
237, 273875554, 0.65681136, -0.40551478, -0.4956443, -0.39811227, 9.625468254089355, -1.287460207939148, 1.6875938177108765, 1.4560307264328003, 1.515132188796997, 0.404821515083313, -0.89013671875, 0.249755859375, 0.231201171875, 0, 
238, 273892221, 0.6568127, -0.40545827, -0.49555242, -0.39828208, 9.663225173950195, -1.318853497505188, 1.6783043146133423, 1.772373080253601, 1.5797656774520874, 0.4459042549133301, -0.889404296875, 0.248779296875, 0.23046875, 0, 
239, 273908888, 0.656857, -0.4053316, -0.4954982, -0.3984053, 9.684925079345703, -1.322269320487976, 1.6855597496032715, 1.9288283586502075, 1.696034550666809, 0.3247690200805664, -0.88623046875, 0.250732421875, 0.23095703125, 0, 
240, 273925555, 0.6568554, -0.40525383, -0.49539644, -0.39861366, 9.749401092529297, -1.2631303071975708, 1.6897917985916138, 1.2993196249008179, 1.8386205434799194, 0.1381164789199829, -0.887451171875, 0.251953125, 0.23095703125, 0, 
241, 273942222, 0.65681916, -0.40524557, -0.49523416, -0.39888322, 9.782354354858398, -1.2534123659133911, 1.6875247955322266, 0.3943459093570709, 1.991553783416748, 0.15032093226909637, -0.8896484375, 0.248291015625, 0.23095703125, 0, 
242, 273958889, 0.656803, -0.4052421, -0.49499127, -0.3992147, 9.792922019958496, -1.2981241941452026, 1.692873477935791, -0.13994139432907104, 2.604722023010254, 0.14153578877449036, -0.886962890625, 0.250244140625, 0.230712890625, 0, 
243, 273975556, 0.6567307, -0.40529445, -0.49467525, -0.3996722, 9.778440475463867, -1.3417271375656128, 1.675262212753296, -0.7157019972801208, 2.877227783203125, -0.09981907904148102, -0.88818359375, 0.247314453125, 0.230712890625, 0, 
244, 273992223, 0.6566573, -0.40533838, -0.4943774, -0.4001163, 9.739230155944824, -1.3201651573181152, 1.645153284072876, -0.5765738487243652, 2.7792723178863525, -0.12302419543266296, -0.887939453125, 0.248291015625, 0.2314453125, 0, 
245, 274008890, 0.6566542, -0.4053236, -0.4941078, -0.40046945, 9.746335983276367, -1.3124481439590454, 1.6634503602981567, 0.3931933641433716, 2.7841262817382812, 0.22473862767219543, -0.890380859375, 0.247314453125, 0.228759765625, 0, 
246, 274025557, 0.6567525, -0.40518537, -0.4938884, -0.40071833, 9.686356544494629, -1.326784610748291, 1.6333987712860107, 1.7948352098464966, 2.9461774826049805, 0.42648985981941223, -0.89013671875, 0.247802734375, 0.2236328125, 0, 
247, 274042224, 0.6570002, -0.40486497, -0.49387124, -0.4006577, 9.60120677947998, -1.2924420833587646, 1.661500096321106, 3.022324562072754, 2.4089131355285645, 0.7402711510658264, -0.8896484375, 0.246337890625, 0.22607421875, 0, 
248, 274058891, 0.6571786, -0.404624, -0.49384356, -0.40064254, 9.558780670166016, -1.2536673545837402, 1.7408673763275146, 3.628538131713867, 1.9443238973617554, 0.8988392353057861, -0.889892578125, 0.246337890625, 0.225341796875, 0, 
249, 274075558, 0.65724844, -0.40457267, -0.49370846, -0.40074646, 9.627907752990723, -1.2600160837173462, 1.7716819047927856, 1.9139859676361084, 1.8497620820999146, 1.0316540002822876, -0.888916015625, 0.246826171875, 0.228515625, 0, 
250, 274092225, 0.65727913, -0.40463346, -0.49346218, -0.40093789, 9.678592681884766, -1.196389079093933, 1.7555482387542725, 0.4155532717704773, 2.1900651454925537, 1.1658645868301392, -0.890625, 0.249267578125, 0.2255859375, 0, 
251, 274108892, 0.657356, -0.40466577, -0.49322963, -0.40106523, 9.692811012268066, -1.1580239534378052, 1.834690809249878, 0.9945924282073975, 2.1741983890533447, 1.461575984954834, -0.8876953125, 0.247802734375, 0.224365234375, 0, 
252, 274125559, 0.6574501, -0.40462822, -0.4931349, -0.40106565, 9.77920913696289, -1.3154598474502563, 1.8887802362442017, 2.280977487564087, 1.4308279752731323, 1.4890456199645996, -0.8916015625, 0.250244140625, 0.226806640625, 0, 
253, 274142226, 0.65751827, -0.40459144, -0.4930788, -0.4010598, 9.78352165222168, -1.4176700115203857, 1.8566850423812866, 2.1637096405029297, 1.1658259630203247, 1.305863380432129, -0.886962890625, 0.247802734375, 0.2265625, 0, 
254, 274158893, 0.6576064, -0.40454867, -0.49302724, -0.40102157, 9.74190902709961, -1.267693281173706, 1.7970389127731323, 2.863525390625, 1.06792151927948, 1.5650513172149658, -0.88916015625, 0.248779296875, 0.225341796875, 0, 
255, 274175560, 0.65773314, -0.40444443, -0.49305046, -0.4008907, 9.663110733032227, -1.1363033056259155, 1.7452398538589478, 3.575059652328491, 0.7985016107559204, 1.6356143951416016, -0.8876953125, 0.24853515625, 0.224365234375, 0, 
256, 274192227, 0.6578146, -0.40441883, -0.49301535, -0.4008259, 9.626084327697754, -1.2053645849227905, 1.729536533355713, 2.6099209785461426, 0.8893240690231323, 1.6262013912200928, -0.88720703125, 0.2509765625, 0.2236328125, 0, 
257, 274208894, 0.65783924, -0.40445736, -0.49289203, -0.40089834, 9.615530967712402, -1.298692226409912, 1.6683064699172974, 1.3238564729690552, 1.3195663690567017, 1.2883830070495605, -0.88818359375, 0.246826171875, 0.223388671875, 0, 
258, 274225561, 0.6578352, -0.40450397, -0.49267045, -0.4011303, 9.562301635742188, -1.3135687112808228, 1.6185332536697388, 1.1184042692184448, 1.9896072149276733, 0.9278967976570129, -0.887451171875, 0.251953125, 0.224365234375, 0, 
259, 274242228, 0.6579684, -0.40438426, -0.4925208, -0.4012161, 9.538885116577148, -1.3340137004852295, 1.541227102279663, 2.6950321197509766, 2.22217059135437, 1.1521872282028198, -0.888671875, 0.24951171875, 0.2255859375, 0, 
260, 274258895, 0.6581804, -0.40410376, -0.4924979, -0.4011792, 9.59646224975586, -1.3580316305160522, 1.5979565382003784, 4.249492645263672, 2.0482733249664307, 0.9937856197357178, -0.886474609375, 0.249755859375, 0.224853515625, 0, 
261, 274275562, 0.6583462, -0.40384582, -0.49256015, -0.4010904, 9.681928634643555, -1.3047186136245728, 1.6476781368255615, 4.751475811004639, 1.2610540390014648, 0.9994715452194214, -0.884765625, 0.248291015625, 0.22314453125, 0, 
262, 274292229, 0.658439, -0.40373808, -0.49262062, -0.40097237, 9.722420692443848, -1.2053043842315674, 1.7395254373550415, 3.968201160430908, 0.5319501757621765, 1.4429042339324951, -0.88818359375, 0.25, 0.219970703125, 0, 
263, 274308896, 0.6583442, -0.4039374, -0.4926686, -0.40086824, 9.841425895690918, -1.1779022216796875, 1.8850023746490479, 1.7950533628463745, -0.8278599977493286, 1.9035100936889648, -0.887939453125, 0.251708984375, 0.2255859375, 0, 
264, 274325563, 0.6580478, -0.40444767, -0.49263301, -0.40088397, 9.955245018005371, -1.2145627737045288, 1.9654762744903564, -1.4024426937103271, -1.5780689716339111, 1.9781713485717773, -0.889404296875, 0.251953125, 0.222412109375, 0, 
265, 274342230, 0.6576004, -0.40515664, -0.49243787, -0.40114197, 9.917296409606934, -1.1729307174682617, 1.9689730405807495, -4.244875907897949, -1.212691068649292, 1.5348924398422241, -0.885498046875, 0.251953125, 0.226318359375, 0, 
266, 274358897, 0.65699965, -0.40606207, -0.49205005, -0.40168622, 9.827024459838867, -1.1421757936477661, 1.8787600994110107, -6.097546100616455, -0.7477052211761475, 1.2104562520980835, -0.8876953125, 0.25048828125, 0.226806640625, 0, 
267, 274375564, 0.656386, -0.40697163, -0.49165675, -0.40225047, 9.701210975646973, -1.2114099264144897, 1.7768887281417847, -6.473282814025879, -0.6937519311904907, 1.0736843347549438, -0.886962890625, 0.2470703125, 0.226318359375, 0, 
268, 274392231, 0.65588695, -0.4076895, -0.49143064, -0.4026135, 9.653948783874512, -1.3216744661331177, 1.7252724170684814, -4.112548351287842, -1.1017367839813232, 1.191118597984314, -0.88916015625, 0.248779296875, 0.231201171875, 0, 
269, 274408898, 0.6555139, -0.40818116, -0.49144426, -0.4027062, 9.649121284484863, -1.388414740562439, 1.7312180995941162, -0.31812891364097595, -2.0080931186676025, 1.4814257621765137, -0.88818359375, 0.247802734375, 0.230712890625, 0, 
270, 274425565, 0.65534925, -0.4083839, -0.4917971, -0.40233788, 9.694948196411133, -1.3670216798782349, 1.7472270727157593, 2.881659507751465, -3.159883975982666, 1.9746369123458862, -0.88720703125, 0.24853515625, 0.229248046875, 0, 
271, 274442232, 0.65521, -0.40857995, -0.49217537, -0.4019026, 9.734128952026367, -1.3277653455734253, 1.7352416515350342, 3.6073946952819824, -3.4043567180633545, 2.309586763381958, -0.886962890625, 0.25048828125, 0.2333984375, 0, 
272, 274458899, 0.65496546, -0.40895367, -0.4924114, -0.40163195, 9.748056411743164, -1.2328269481658936, 1.754814624786377, 1.6012035608291626, -3.1555423736572266, 2.282078742980957, -0.890380859375, 0.248779296875, 0.2314453125, 0, 
273, 274475566, 0.6546611, -0.40948486, -0.4924112, -0.40158716, 9.715277671813965, -1.1831367015838623, 1.7182505130767822, -1.2979682683944702, -2.008925676345825, 2.183994770050049, -0.887451171875, 0.24951171875, 0.236328125, 0, 
274, 274492233, 0.6543215, -0.41007853, -0.49222207, -0.40176672, 9.688019752502441, -1.203326940536499, 1.6201726198196411, -2.947298288345337, -0.8237237334251404, 1.8261985778808594, -0.8876953125, 0.248779296875, 0.237548828125, 0, 
275, 274508900, 0.6539588, -0.41067, -0.49192533, -0.40211642, 9.618538856506348, -1.3075579404830933, 1.5586379766464233, -2.8132412433624268, -0.0825689360499382, 1.494808316230774, -0.8896484375, 0.248779296875, 0.235595703125, 0, 
276, 274525567, 0.6537887, -0.41096747, -0.4917454, -0.40230933, 9.580801010131836, -1.430275321006775, 1.5088847875595093, -0.36455193161964417, 0.4558164179325104, 1.3561410903930664, -0.8876953125, 0.24609375, 0.235107421875, 0, 
277, 274542234, 0.6538536, -0.4109297, -0.49175867, -0.40222597, 9.580775260925293, -1.494361162185669, 1.5096675157546997, 3.131779909133911, 0.5548094511032104, 1.536172866821289, -0.888427734375, 0.251220703125, 0.236328125, 0, 
278, 274558901, 0.6540909, -0.41066343, -0.49190888, -0.40192822, 9.601463317871094, -1.4238723516464233, 1.561215877532959, 5.463406562805176, 0.5952391624450684, 1.7562885284423828, -0.88623046875, 0.249755859375, 0.23681640625, 0, 
279, 274575568, 0.65435374, -0.41036457, -0.49206102, -0.40161934, 9.665376663208008, -1.2996389865875244, 1.6024280786514282, 6.051001071929932, 0.6890586018562317, 1.8163379430770874, -0.886962890625, 0.248291015625, 0.237060546875, 0, 
280, 274592235, 0.6545735, -0.41015193, -0.49211714, -0.40140966, 9.73001766204834, -1.2083295583724976, 1.6791131496429443, 4.786630153656006, 1.0418479442596436, 1.7855256795883179, -0.887939453125, 0.250732421875, 0.236328125, 0, 
281, 274608902, 0.65467304, -0.41010886, -0.491962, -0.40148175, 9.736740112304688, -1.1694051027297974, 1.683380365371704, 2.0235698223114014, 1.9304929971694946, 1.3357280492782593, -0.88525390625, 0.252197265625, 0.236083984375, 0, 
282, 274625569, 0.6546199, -0.4102445, -0.4916276, -0.4018389, 9.664216995239258, -1.194714069366455, 1.673202633857727, -0.5350685119628906, 2.5115044116973877, 0.7719795107841492, -0.88916015625, 0.2509765625, 0.23681640625, 0, 
283, 274642236, 0.6544812, -0.4104334, -0.49127123, -0.40230763, 9.608929634094238, -1.2796587944030762, 1.660298228263855, -1.360924243927002, 2.4752750396728516, 0.2993355989456177, -0.88818359375, 0.249267578125, 0.23291015625, 0, 
284, 274658903, 0.6543849, -0.41053843, -0.49106115, -0.40261352, 9.65402603149414, -1.3404263257980347, 1.7266842126846313, 0.23745529353618622, 1.7125290632247925, 0.4815443456172943, -0.888427734375, 0.25, 0.236083984375, 0, 
285, 274675570, 0.65441936, -0.41044807, -0.491053, -0.4026598, 9.701203346252441, -1.33717679977417, 1.7552911043167114, 2.361849546432495, 1.132094144821167, 0.6748049855232239, -0.888671875, 0.247802734375, 0.236328125, 0, 
286, 274692237, 0.6544736, -0.41036344, -0.49102458, -0.40269247, 9.805505752563477, -1.2757132053375244, 1.7622281312942505, 2.7150745391845703, 1.1854583024978638, 0.9297410249710083, -0.889404296875, 0.250732421875, 0.234619140625, 0, 
287, 274708904, 0.65450287, -0.41031402, -0.4908609, -0.40289465, 9.82071304321289, -1.1661474704742432, 1.723078966140747, 1.353285312652588, 2.116466999053955, 0.5645551085472107, -0.88818359375, 0.25048828125, 0.237060546875, 0, 
288, 274725571, 0.65440845, -0.4103838, -0.49058852, -0.40330845, 9.733797073364258, -1.1363234519958496, 1.6593248844146729, -0.3677407503128052, 2.4285707473754883, 0.019632136449217796, -0.887939453125, 0.2470703125, 0.23193359375, 0, 
289, 274742238, 0.6542846, -0.41043374, -0.49036023, -0.40373626, 9.711219787597656, -1.265729546546936, 1.612775444984436, -0.18727368116378784, 2.213526487350464, -0.29110753536224365, -0.888427734375, 0.249267578125, 0.2333984375, 0, 
290, 274758905, 0.65421784, -0.41035077, -0.4902707, -0.4040373, 9.657252311706543, -1.4313404560089111, 1.5936050415039062, 1.2516158819198608, 1.815543293952942, -0.4253181219100952, -0.888916015625, 0.25, 0.2314453125, 0, 
291, 274775572, 0.65425897, -0.41012594, -0.49035096, -0.40410143, 9.656659126281738, -1.4271119832992554, 1.6045520305633545, 3.5801050662994385, 1.1293281316757202, -8.003968978300691E-4, -0.889892578125, 0.249755859375, 0.23193359375, 0, 
292, 274792239, 0.6543643, -0.40980747, -0.4905879, -0.4039666, 9.690197944641113, -1.3109387159347534, 1.6817626953125, 5.224863529205322, 0.35422369837760925, 0.2977220416069031, -0.888916015625, 0.248291015625, 0.230712890625, 0, 
293, 274808906, 0.65439683, -0.40961134, -0.49083245, -0.4038156, 9.744029998779297, -1.225104808807373, 1.7021254301071167, 4.444277286529541, -0.295423299074173, 0.5392754077911377, -0.89111328125, 0.24755859375, 0.231201171875, 0, 
294, 274825573, 0.65421087, -0.40968436, -0.49097377, -0.4038708, 9.696001052856445, -1.139795184135437, 1.7677340507507324, 2.174121379852295, -0.8099567890167236, 0.308159202337265, -0.8876953125, 0.25, 0.233154296875, 0, 
295, 274842240, 0.6538485, -0.40996882, -0.49105963, -0.40406463, 9.632298469543457, -1.1183485984802246, 1.7801278829574585, -0.24697686731815338, -1.3048325777053833, 0.0027149461675435305, -0.889404296875, 0.247802734375, 0.234375, 0, 
296, 274858907, 0.6533719, -0.4104311, -0.49101004, -0.40442657, 9.586459159851074, -1.2210230827331543, 1.7423361539840698, -1.9511562585830688, -1.1556899547576904, -0.016693079844117165, -0.887939453125, 0.24658203125, 0.23193359375, 0, 
297, 274875574, 0.6528889, -0.41089705, -0.49095407, -0.4048014, 9.578509330749512, -1.2901407480239868, 1.7424145936965942, -2.5861079692840576, -1.0492819547653198, -0.16291597485542297, -0.88916015625, 0.246826171875, 0.233642578125, 0, 
298, 274892241, 0.65248984, -0.41122535, -0.49094072, -0.4051273, 9.599861145019531, -1.313976526260376, 1.6994069814682007, -1.3651121854782104, -0.7269973158836365, -0.280337393283844, -0.892333984375, 0.245849609375, 0.235107421875, 0, 
299, 274908908, 0.65226215, -0.4112902, -0.49107793, -0.40526143, 9.654707908630371, -1.3768540620803833, 1.6546604633331299, 1.2913923263549805, -0.6212296485900879, -0.2753557562828064, -0.886474609375, 0.243896484375, 0.237060546875, 0, 
300, 274925575, 0.6521622, -0.4111042, -0.4913913, -0.4052313, 9.70075511932373, -1.3914549350738525, 1.6048243045806885, 4.23581600189209, -0.8022474646568298, -0.45452940464019775, -0.891357421875, 0.2451171875, 0.236572265625, 0, 
301, 274942242, 0.65214276, -0.41076872, -0.49179742, -0.40511012, 9.757148742675781, -1.3496054410934448, 1.6206471920013428, 5.68153715133667, -0.7795289158821106, -0.5986392498016357, -0.89111328125, 0.245361328125, 0.2353515625, 0, 
302, 274958909, 0.6521623, -0.41037825, -0.49221608, -0.4049659, 9.789843559265137, -1.3193087577819824, 1.6055712699890137, 5.709506034851074, -0.5516143441200256, -0.6933037638664246, -0.892578125, 0.245361328125, 0.233642578125, 0, 
303, 274975576, 0.65211904, -0.41007748, -0.4925511, -0.40493298, 9.766732215881348, -1.35951828956604, 1.5533899068832397, 4.780507564544678, -0.3563430607318878, -0.781052827835083, -0.89013671875, 0.24560546875, 0.234375, 0, 
304, 274992243, 0.6520995, -0.40977934, -0.49287647, -0.40487075, 9.72093391418457, -1.4409993886947632, 1.5710694789886475, 4.8260602951049805, -0.30623185634613037, -0.5680575966835022, -0.891845703125, 0.24609375, 0.2333984375, 0, 
305, 275008910, 0.6521303, -0.40941012, -0.493285, -0.40469673, 9.66448974609375, -1.4679614305496216, 1.5755131244659424, 5.997790813446045, -0.6350221633911133, -0.39010071754455566, -0.8876953125, 0.24658203125, 0.230712890625, 0, 
306, 275025577, 0.65224123, -0.40894964, -0.49373493, -0.40443453, 9.63916301727295, -1.4229532480239868, 1.590531349182129, 7.213842868804932, -0.5615904927253723, -0.1750820279121399, -0.88818359375, 0.243896484375, 0.234130859375, 0, 
307, 275042244, 0.652437, -0.40841085, -0.4941992, -0.40409628, 9.641003608703613, -1.351042628288269, 1.6439234018325806, 8.276490211486816, -0.3533209264278412, 0.12093041092157364, -0.89306640625, 0.24267578125, 0.230712890625, 0, 
308, 275058911, 0.65272903, -0.40778783, -0.49465033, -0.40370184, 9.661375045776367, -1.3003827333450317, 1.6916431188583374, 8.9747314453125, 0.1236325353384018, 0.3670300841331482, -0.892333984375, 0.246337890625, 0.231201171875, 0, 
309, 275075578, 0.65304637, -0.40717503, -0.49505967, -0.40330532, 9.69211483001709, -1.2913354635238647, 1.7817835807800293, 8.724839210510254, 0.3861114978790283, 0.5649009943008423, -0.889892578125, 0.24609375, 0.229248046875, 0, 
310, 275092245, 0.6533761, -0.40661994, -0.49538168, -0.4029357, 9.723931312561035, -1.290703296661377, 1.8006714582443237, 7.977985382080078, 0.757290780544281, 0.8824729323387146, -0.890869140625, 0.245361328125, 0.230224609375, 0, 
311, 275108912, 0.65368074, -0.40616503, -0.49557996, -0.40265647, 9.731377601623535, -1.2277636528015137, 1.8147375583648682, 6.996378421783447, 1.17447030544281, 1.1269972324371338, -0.888427734375, 0.24658203125, 0.231201171875, 0, 
312, 275125579, 0.65397596, -0.4058089, -0.4956961, -0.40239316, 9.75156021118164, -1.2289814949035645, 1.8148053884506226, 6.289186000823975, 1.2721573114395142, 1.6036752462387085, -0.89013671875, 0.2451171875, 0.227783203125, 0, 
313, 275142246, 0.65424365, -0.40555462, -0.49574813, -0.40214986, 9.738101959228516, -1.2546062469482422, 1.822896957397461, 5.7839884757995605, 1.2005953788757324, 2.015117883682251, -0.890625, 0.247802734375, 0.22802734375, 0, 
314, 275158913, 0.6545254, -0.40532902, -0.49580523, -0.4018484, 9.719585418701172, -1.2753204107284546, 1.7645275592803955, 5.591623783111572, 1.022343635559082, 2.339937925338745, -0.889404296875, 0.25048828125, 0.22607421875, 0, 
315, 275175580, 0.6548467, -0.40507543, -0.49590874, -0.4014529, 9.746214866638184, -1.2625588178634644, 1.7915489673614502, 5.98121976852417, 0.7989115118980408, 2.59087872505188, -0.88818359375, 0.24853515625, 0.2236328125, 0, 
316, 275192247, 0.6551609, -0.40486073, -0.49597317, -0.40107703, 9.735367774963379, -1.2099075317382812, 1.7634246349334717, 6.157895565032959, 0.8230257630348206, 2.826220989227295, -0.886962890625, 0.248046875, 0.224609375, 0, 
317, 275208914, 0.6555179, -0.40462247, -0.49602285, -0.40067253, 9.748214721679688, -1.2308303117752075, 1.7879587411880493, 6.164031028747559, 1.0541934967041016, 2.9819722175598145, -0.88330078125, 0.251220703125, 0.223388671875, 0, 
318, 275225581, 0.6559072, -0.4043465, -0.49609292, -0.40022686, 9.72690200805664, -1.2372225522994995, 1.7575773000717163, 6.362349033355713, 1.0942258834838867, 3.023899793624878, -0.888916015625, 0.251953125, 0.22265625, 0, 
319, 275242248, 0.6562731, -0.4041014, -0.49611515, -0.39984697, 9.72674560546875, -1.1988236904144287, 1.7922372817993164, 6.283667087554932, 1.260746955871582, 2.991947889328003, -0.88671875, 0.2509765625, 0.2236328125, 0, 
320, 275258915, 0.6566607, -0.40381777, -0.49615842, -0.39944324, 9.711220741271973, -1.1827501058578491, 1.7374716997146606, 6.418632984161377, 1.309475064277649, 2.9257516860961914, -0.884765625, 0.252685546875, 0.223876953125, 0, 
321, 275275582, 0.65705764, -0.40350848, -0.49626085, -0.3989753, 9.690875053405762, -1.1809289455413818, 1.7839590311050415, 7.009428977966309, 0.9558789134025574, 3.0046520233154297, -0.88232421875, 0.2548828125, 0.222900390625, 0, 
322, 275292249, 0.6574411, -0.4032047, -0.49643978, -0.39842832, 9.702881813049316, -1.1860474348068237, 1.8165827989578247, 7.152052879333496, 0.36380285024642944, 3.0806446075439453, -0.8857421875, 0.25439453125, 0.22314453125, 0, 
323, 275308916, 0.6577217, -0.4030488, -0.4965158, -0.39802757, 9.776786804199219, -1.1504319906234741, 1.8449296951293945, 5.595773220062256, 0.4515903890132904, 2.9644527435302734, -0.885498046875, 0.257080078125, 0.220458984375, 0, 
324, 275325583, 0.65787566, -0.4031369, -0.49635807, -0.3978808, 9.803780555725098, -1.1158214807510376, 1.831119179725647, 2.778913974761963, 1.0877841711044312, 2.9798073768615723, -0.88427734375, 0.2587890625, 0.2216796875, 0, 
325, 275342250, 0.6579322, -0.4033559, -0.49609843, -0.39788902, 9.766489028930664, -1.1201279163360596, 1.7981590032577515, 0.862930417060852, 1.317901611328125, 2.7003087997436523, -0.885498046875, 0.256591796875, 0.220947265625, 0, 
326, 275358917, 0.65794075, -0.40359455, -0.49587625, -0.39790988, 9.722407341003418, -1.215332269668579, 1.8121390342712402, 1.0030827522277832, 0.9215193390846252, 2.5372579097747803, -0.882568359375, 0.2568359375, 0.22119140625, 0, 
327, 275375584, 0.65791893, -0.40377486, -0.49574026, -0.39793262, 9.712019920349121, -1.3088761568069458, 1.818677306175232, 1.3231520652770996, 0.6011172533035278, 1.992296814918518, -0.883056640625, 0.260009765625, 0.223388671875, 0, 
328, 275392251, 0.6578935, -0.40397376, -0.49562904, -0.39791116, 9.688628196716309, -1.2672761678695679, 1.800431489944458, 0.7831594944000244, 0.3923737406730652, 2.0491952896118164, -0.88232421875, 0.2607421875, 0.22119140625, 0, 
329, 275408918, 0.6578808, -0.40418768, -0.49553046, -0.39783767, 9.653167724609375, -1.104425072669983, 1.775266408920288, 0.8170579075813293, 0.2105364054441452, 2.3071024417877197, -0.8837890625, 0.25830078125, 0.2216796875, 0, 
330, 275425585, 0.6577717, -0.4045466, -0.4953543, -0.39787287, 9.647316932678223, -1.1160014867782593, 1.850937008857727, 0.07878467440605164, 0.03003089129924774, 2.4119863510131836, -0.883544921875, 0.259521484375, 0.22119140625, 0, 
331, 275442252, 0.6575793, -0.4050157, -0.49508682, -0.3980463, 9.701419830322266, -1.1899933815002441, 1.8590848445892334, -1.3127981424331665, 0.2278633862733841, 2.204049825668335, -0.8818359375, 0.260498046875, 0.224609375, 0, 
332, 275458919, 0.6573903, -0.40546843, -0.4947393, -0.3983297, 9.718144416809082, -1.2057294845581055, 1.8372511863708496, -1.7453069686889648, 0.936400294303894, 1.900744080543518, -0.88427734375, 0.26025390625, 0.223876953125, 0, 
333, 275475586, 0.6572659, -0.40581447, -0.4943898, -0.39861646, 9.699629783630371, -1.2227222919464111, 1.7738327980041504, -1.1649104356765747, 1.4721540212631226, 1.69538152217865, -0.880615234375, 0.260498046875, 0.224365234375, 0, 
334, 275492253, 0.65719366, -0.40607545, -0.49404964, -0.3988913, 9.703694343566895, -1.2679237127304077, 1.7572182416915894, -0.48846620321273804, 1.7928249835968018, 1.593955159187317, -0.8818359375, 0.258544921875, 0.226318359375, 0, 
335, 275508920, 0.6571873, -0.40623686, -0.49375916, -0.39909697, 9.695570945739746, -1.2945940494537354, 1.7594770193099976, 0.3336438238620758, 1.8966460227966309, 1.5770379304885864, -0.880859375, 0.260498046875, 0.225341796875, 0, 
336, 275525587, 0.6571991, -0.40636554, -0.49351308, -0.39925098, 9.68173599243164, -1.2994904518127441, 1.7151589393615723, 0.8890296816825867, 1.6932812929153442, 1.6366260051727295, -0.880859375, 0.259521484375, 0.22265625, 0, 
337, 275542254, 0.65719205, -0.406511, -0.4932961, -0.3993825, 9.660636901855469, -1.2768138647079468, 1.686837077140808, 0.8939472436904907, 1.3925752639770508, 1.6587169170379639, -0.88134765625, 0.260986328125, 0.224853515625, 0, 
338, 275558921, 0.6571384, -0.40673265, -0.49301705, -0.39958978, 9.667651176452637, -1.2517035007476807, 1.7282215356826782, 0.013613150455057621, 1.5144919157028198, 1.6238837242126465, -0.884033203125, 0.260498046875, 0.22314453125, 0, 
339, 275575588, 0.6570152, -0.40706232, -0.49266753, -0.39988762, 9.665771484375, -1.2380237579345703, 1.7435604333877563, -1.0624980926513672, 1.5388879776000977, 1.6096431016921997, -0.884033203125, 0.255859375, 0.223876953125, 0, 
340, 275592255, 0.6568147, -0.4074739, -0.49223557, -0.40032953, 9.674095153808594, -1.2617247104644775, 1.791298508644104, -1.6204195022583008, 1.7183561325073242, 1.3984534740447998, -0.87841796875, 0.26318359375, 0.223876953125, 0, 
341, 275608922, 0.6566828, -0.40778503, -0.49186003, -0.40069062, 9.674147605895996, -1.2894994020462036, 1.8103721141815186, -2.037163734436035, 1.9583982229232788, 1.170193076133728, -0.881103515625, 0.260009765625, 0.223388671875, 0, 
342, 275625589, 0.65654135, -0.40809044, -0.4914571, -0.40110552, 9.648616790771484, -1.283097267150879, 1.7847669124603271, -1.6167569160461426, 2.1158010959625244, 1.0892953872680664, -0.88525390625, 0.25732421875, 0.224365234375, 0, 
343, 275642256, 0.6563584, -0.40841365, -0.49103627, -0.40159088, 9.644084930419922, -1.2692821025848389, 1.7591707706451416, -1.206774353981018, 2.0758581161499023, 0.9404087662696838, -0.881103515625, 0.259765625, 0.221435546875, 0, 
344, 275658923, 0.6562282, -0.40867323, -0.49065477, -0.40200582, 9.637496948242188, -1.3037053346633911, 1.7518879175186157, -1.444473147392273, 2.1997082233428955, 0.8841375112533569, -0.886962890625, 0.25927734375, 0.22607421875, 0, 
345, 275675590, 0.65604603, -0.40899074, -0.49022532, -0.40250406, 9.624560356140137, -1.287405252456665, 1.7333791255950928, -1.754130482673645, 2.2395999431610107, 0.793801486492157, -0.882568359375, 0.260986328125, 0.224365234375, 0, 
346, 275692257, 0.65587074, -0.40928975, -0.48982733, -0.40296993, 9.63292121887207, -1.320044994354248, 1.7415611743927002, -1.8803499937057495, 2.14158034324646, 0.7251724004745483, -0.88525390625, 0.255126953125, 0.22412109375, 0, 
347, 275708924, 0.6556237, -0.40966362, -0.4893888, -0.40352473, 9.639571189880371, -1.3326834440231323, 1.7506762742996216, -1.8676077127456665, 1.9872251749038696, 0.680939257144928, -0.88427734375, 0.258544921875, 0.2236328125, 0, 
348, 275725591, 0.65543234, -0.4099407, -0.48905313, -0.4039605, 9.648726463317871, -1.3524682521820068, 1.7371294498443604, -1.4542571306228638, 1.7688257694244385, 0.588118851184845, -0.883544921875, 0.257080078125, 0.222900390625, 0, 
349, 275742258, 0.6552478, -0.41018564, -0.48875493, -0.40437225, 9.662073135375977, -1.3507068157196045, 1.7370128631591797, -0.8154891133308411, 1.6028810739517212, 0.5564103126525879, -0.8828125, 0.260986328125, 0.22509765625, 0, 
350, 275758925, 0.6551738, -0.4102786, -0.4885645, -0.40462783, 9.657755851745605, -1.3284486532211304, 1.73014235496521, -0.09424833953380585, 1.6305046081542969, 0.5377130508422852, -0.8828125, 0.257568359375, 0.224609375, 0, 
351, 275775592, 0.6550584, -0.41043547, -0.4883334, -0.40493423, 9.6743745803833, -1.3179597854614258, 1.7695165872573853, 0.2831099331378937, 1.486625075340271, 0.7312168478965759, -0.882080078125, 0.25732421875, 0.22021484375, 0, 
352, 275792259, 0.6550402, -0.41051814, -0.48815197, -0.40509865, 9.662740707397461, -1.3215978145599365, 1.7934399843215942, 0.6266786456108093, 1.5223034620285034, 1.0794216394424438, -0.88671875, 0.256591796875, 0.224609375, 0, 
353, 275808926, 0.65498996, -0.41063657, -0.4880235, -0.4052147, 9.615769386291504, -1.35920250415802, 1.8430254459381104, 1.2207012176513672, 0.8625844120979309, 1.284041404724121, -0.88232421875, 0.258056640625, 0.225341796875, 0, 
354, 275825593, 0.6547904, -0.41081578, -0.4879872, -0.40539923, 9.563383102416992, -1.36296808719635, 1.6724916696548462, 0.4826969504356384, -0.021815618500113487, 0.48842138051986694, -0.884521484375, 0.2578125, 0.22607421875, 0, 
355, 275842260, 0.6546256, -0.41093853, -0.48787907, -0.40567106, 9.584075927734375, -1.4422613382339478, 1.3025339841842651, 0.708703339099884, 0.7710830569267273, 0.274593710899353, -0.88232421875, 0.25537109375, 0.222900390625, 0, 
356, 275858927, 0.6549558, -0.4105205, -0.48785672, -0.40558824, 9.6815767288208, -1.3778183460235596, 1.3950384855270386, 5.710916042327881, 2.6009318828582764, 1.1413403749465942, -0.88330078125, 0.255126953125, 0.22412109375, 0, 
357, 275875594, 0.6558189, -0.40951747, -0.48796815, -0.40507302, 9.9212007522583, -1.603882074356079, 1.5389128923416138, 12.451160430908203, 4.095844745635986, 2.3870151042938232, -0.884521484375, 0.255859375, 0.22119140625, 0, 
358, 275892261, 0.65727144, -0.40775022, -0.48842192, -0.4039534, 10.073448181152344, -1.8086614608764648, 1.6071592569351196, 19.76263427734375, 5.076149940490723, 3.0688540935516357, -0.880615234375, 0.259033203125, 0.217529296875, 0, 
359, 275908928, 0.6591991, -0.40532348, -0.48940322, -0.40206215, 10.054238319396973, -1.712428331375122, 1.766323447227478, 27.995771408081055, 3.9854371547698975, 4.14400577545166, -0.881103515625, 0.26171875, 0.213134765625, 0, 
360, 275925595, 0.6611824, -0.4028201, -0.49059543, -0.39986256, 9.93896770477295, -1.5400919914245605, 1.97398042678833, 29.913848876953125, 2.603142738342285, 4.799553871154785, -0.878662109375, 0.265869140625, 0.2080078125, 0, 
361, 275942262, 0.6626841, -0.40106964, -0.4913518, -0.39820424, 9.70417594909668, -1.298255205154419, 1.9431132078170776, 21.91767120361328, 2.4200329780578613, 4.713116645812988, -0.878173828125, 0.26953125, 0.20654296875, 0, 
362, 275958929, 0.66372114, -0.40032107, -0.49128398, -0.39731282, 9.637681007385254, -1.102514624595642, 1.9506715536117554, 10.701478004455566, 4.049421310424805, 5.496616363525391, -0.876708984375, 0.270751953125, 0.201904296875, 0, 
363, 275975596, 0.664393, -0.40031683, -0.49050483, -0.39715672, 9.523804664611816, -1.0837067365646362, 1.991701602935791, 1.7896748781204224, 6.0623860359191895, 5.60523796081543, -0.873291015625, 0.276123046875, 0.202392578125, 0, 
364, 275992263, 0.6648582, -0.40059993, -0.48939732, -0.39745894, 9.377724647521973, -1.267335295677185, 1.9583667516708374, -2.5589075088500977, 7.342073440551758, 4.817852020263672, -0.87548828125, 0.272705078125, 0.20068359375, 0, 
365, 276008930, 0.6653695, -0.4007013, -0.4884291, -0.397692, 9.277402877807617, -1.5132027864456177, 1.9656721353530884, -1.0784804821014404, 7.174489498138428, 4.250146389007568, -0.8740234375, 0.275634765625, 0.20068359375, 0, 
366, 276025597, 0.6661835, -0.4003001, -0.48791006, -0.3973703, 9.347003936767578, -1.6280475854873657, 2.112515687942505, 4.960912227630615, 6.006282806396484, 4.64505672454834, -0.868408203125, 0.27685546875, 0.19873046875, 0, 
367, 276042264, 0.6672394, -0.39953735, -0.4878032, -0.39649665, 9.511290550231934, -1.50235116481781, 2.246565341949463, 10.649791717529297, 4.335361480712891, 5.561941146850586, -0.871337890625, 0.276611328125, 0.19775390625, 0, 
368, 276058931, 0.668311, -0.3987704, -0.48784095, -0.39541605, 9.678220748901367, -1.2305729389190674, 2.380758285522461, 12.277046203613281, 3.0889575481414795, 6.241856575012207, -0.87060546875, 0.2783203125, 0.193603515625, 0, 
369, 276075598, 0.6691764, -0.39834937, -0.48775285, -0.3944845, 9.811375617980957, -1.0655535459518433, 2.4474899768829346, 8.923377990722656, 2.485956907272339, 6.4300713539123535, -0.86962890625, 0.28076171875, 0.193115234375, 0, 
370, 276092265, 0.6696385, -0.39852926, -0.48726064, -0.39412686, 9.833625793457031, -1.029566764831543, 2.414405584335327, 2.2198400497436523, 2.8956573009490967, 5.8664870262146, -0.866455078125, 0.28466796875, 0.19189453125, 0, 
371, 276108932, 0.66983205, -0.39907575, -0.4864491, -0.39424726, 9.67441177368164, -1.0438780784606934, 2.1902875900268555, -3.6612396240234375, 3.9229562282562256, 4.834897041320801, -0.869140625, 0.283203125, 0.191650390625, 0, 
372, 276125599, 0.6697802, -0.3998403, -0.4854521, -0.39478958, 9.43525505065918, -1.1515909433364868, 2.0017812252044678, -6.173487186431885, 4.352340221405029, 3.7118821144104004, -0.864501953125, 0.28466796875, 0.193603515625, 0, 
373, 276142266, 0.66971064, -0.40048265, -0.48462105, -0.39527678, 9.297013282775879, -1.3141320943832397, 1.9404561519622803, -5.332340717315674, 3.7538869380950928, 2.992575168609619, -0.864013671875, 0.28466796875, 0.194580078125, 0, 
374, 276158933, 0.66972125, -0.40087858, -0.48405042, -0.3955566, 9.326440811157227, -1.4409270286560059, 1.9079012870788574, -2.343940019607544, 2.883772611618042, 2.682072401046753, -0.868896484375, 0.2861328125, 0.193359375, 0, 
375, 276175600, 0.66989326, -0.40092856, -0.48377645, -0.3955498, 9.405081748962402, -1.4914747476577759, 1.8989194631576538, 1.290969729423523, 2.231199026107788, 2.433859348297119, -0.865478515625, 0.285888671875, 0.19287109375, 0, 
376, 276192267, 0.67010623, -0.40076202, -0.48375693, -0.3953821, 9.43196964263916, -1.4022610187530518, 1.880257248878479, 3.8676326274871826, 1.3054794073104858, 1.9164832830429077, -0.864013671875, 0.286376953125, 0.19482421875, 0, 
377, 276208934, 0.6702011, -0.40058348, -0.48389608, -0.3952316, 9.50434398651123, -1.3392330408096313, 1.8798010349273682, 3.895256996154785, 0.2764635384082794, 1.022497534751892, -0.8642578125, 0.282958984375, 0.19287109375, 0, 
378, 276225601, 0.67003703, -0.4006141, -0.48398688, -0.39536765, 9.582352638244629, -1.2776848077774048, 1.8804478645324707, 1.649060845375061, -0.2202627956867218, -0.05816004052758217, -0.865234375, 0.285400390625, 0.191650390625, 0, 
379, 276242268, 0.6696408, -0.40088758, -0.48407856, -0.3956494, 9.62950325012207, -1.316063404083252, 1.9024187326431274, -1.0152299404144287, -1.1847347021102905, -0.6441658139228821, -0.867431640625, 0.285400390625, 0.19482421875, 0, 
380, 276258935, 0.66903335, -0.401363, -0.48420346, -0.39604205, 9.662576675415039, -1.4059849977493286, 1.8889051675796509, -2.4755637645721436, -2.3338232040405273, -1.0753556489944458, -0.8662109375, 0.2861328125, 0.1953125, 0, 
381, 276275602, 0.6683401, -0.40186226, -0.48452014, -0.3963187, 9.679828643798828, -1.5472385883331299, 1.913840651512146, -2.329148769378662, -3.818655490875244, -1.3164993524551392, -0.868408203125, 0.28173828125, 0.195556640625, 0, 
382, 276292269, 0.6675965, -0.40230972, -0.48501807, -0.39650893, 9.698368072509766, -1.5818508863449097, 1.946481466293335, -1.0633946657180786, -4.974671840667725, -1.6488239765167236, -0.866455078125, 0.2822265625, 0.197998046875, 0, 
383, 276308936, 0.66691935, -0.40260765, -0.48566473, -0.39655465, 9.72653865814209, -1.5012110471725464, 1.9632411003112793, 0.5634153485298157, -5.4054388999938965, -1.7492387294769287, -0.869873046875, 0.28173828125, 0.2001953125, 0, 
384, 276325603, 0.6662923, -0.4028063, -0.48635256, -0.396564, 9.709562301635742, -1.4214730262756348, 1.9535127878189087, 1.4295985698699951, -5.260906219482422, -1.8865481615066528, -0.869384765625, 0.281005859375, 0.202880859375, 0, 
385, 276342270, 0.66571164, -0.402957, -0.48704383, -0.39653784, 9.714853286743164, -1.4300209283828735, 1.9656476974487305, 1.6428627967834473, -5.049166679382324, -1.8248472213745117, -0.871826171875, 0.27783203125, 0.202392578125, 0, 
386, 276358937, 0.6651675, -0.40305558, -0.48767114, -0.3965797, 9.682327270507812, -1.4195441007614136, 1.9352028369903564, 1.9955883026123047, -4.3663835525512695, -1.9482498168945312, -0.872314453125, 0.2783203125, 0.20361328125, 0, 
387, 276375604, 0.66464025, -0.40311712, -0.4882308, -0.39671233, 9.629631996154785, -1.4186742305755615, 1.9307363033294678, 1.737053632736206, -3.6483561992645264, -2.2536938190460205, -0.87158203125, 0.276611328125, 0.204833984375, 0, 
388, 276392271, 0.66413957, -0.40317285, -0.48867753, -0.39694425, 9.585420608520508, -1.4299625158309937, 1.9145827293395996, 1.3463189601898193, -2.774656057357788, -2.3125264644622803, -0.874755859375, 0.276123046875, 0.205322265625, 0, 
389, 276408938, 0.66367316, -0.40320048, -0.48907876, -0.3972019, 9.589808464050293, -1.5059174299240112, 1.9314122200012207, 1.2464293241500854, -2.2857608795166016, -2.3304803371429443, -0.87255859375, 0.2763671875, 0.20654296875, 0, 
390, 276425605, 0.66324276, -0.4032193, -0.48941576, -0.39748675, 9.601555824279785, -1.5536015033721924, 1.9323346614837646, 1.06263267993927, -1.7640172243118286, -2.2241368293762207, -0.874267578125, 0.2744140625, 0.20703125, 0, 
391, 276442272, 0.6627804, -0.40330988, -0.48966968, -0.39785302, 9.631643295288086, -1.58487868309021, 1.9474611282348633, 0.5895530581474304, -1.5288667678833008, -2.1255273818969727, -0.874755859375, 0.2724609375, 0.208740234375, 0, 
392, 276458939, 0.6622342, -0.4035306, -0.48991343, -0.3982386, 9.667253494262695, -1.5288691520690918, 1.9555082321166992, -0.7124363780021667, -2.0118837356567383, -2.0604453086853027, -0.875244140625, 0.272216796875, 0.21044921875, 0, 
393, 276475606, 0.6616165, -0.40394333, -0.49006745, -0.39865708, 9.6856107711792, -1.430972933769226, 2.002889394760132, -2.3183655738830566, -2.253514289855957, -1.551277995109558, -0.87646484375, 0.271484375, 0.2119140625, 0, 
394, 276492273, 0.6609355, -0.40453798, -0.49013853, -0.399096, 9.689650535583496, -1.4114587306976318, 1.9947048425674438, -3.6486120223999023, -2.530489921569824, -0.982330322265625, -0.8779296875, 0.27197265625, 0.2109375, 0, 
395, 276508940, 0.6602518, -0.4052147, -0.49013847, -0.3995413, 9.698586463928223, -1.436178207397461, 2.012526273727417, -4.165809154510498, -2.4379258155822754, -0.532520055770874, -0.878173828125, 0.2705078125, 0.21337890625, 0, 
396, 276525607, 0.6596545, -0.40585458, -0.4901354, -0.39988184, 9.679411888122559, -1.4276174306869507, 2.0254600048065186, -3.35174822807312, -2.336909055709839, 0.0750708132982254, -0.875244140625, 0.270263671875, 0.212158203125, 0, 
397, 276542274, 0.65921366, -0.40635088, -0.49012595, -0.40011612, 9.657702445983887, -1.3778355121612549, 1.9968401193618774, -2.3117573261260986, -1.630088210105896, 0.4408457577228546, -0.875244140625, 0.268310546875, 0.2158203125, 0, 
398, 276558941, 0.6588409, -0.40684766, -0.48995924, -0.4004295, 9.641526222229004, -1.3331100940704346, 1.928163766860962, -2.331902027130127, -0.5438792705535889, 0.8072738647460938, -0.87939453125, 0.265380859375, 0.216796875, 0, 
399, 276575608, 0.6585983, -0.4072598, -0.4896558, -0.4007805, 9.600010871887207, -1.3149148225784302, 1.8527699708938599, -2.0589218139648438, 0.8454239368438721, 1.0983365774154663, -0.8759765625, 0.2705078125, 0.216552734375, 0, 
400, 276592275, 0.65855026, -0.40747228, -0.48937047, -0.40099213, 9.570272445678711, -1.3909517526626587, 1.7727463245391846, -0.39615803956985474, 1.6207205057144165, 1.4817973375320435, -0.8759765625, 0.268310546875, 0.21875, 0, 
401, 276608942, 0.6586142, -0.40751415, -0.48915926, -0.40110213, 9.619864463806152, -1.4878123998641968, 1.7745991945266724, 1.7996381521224976, 1.7674684524536133, 1.5792279243469238, -0.87548828125, 0.265869140625, 0.216552734375, 0, 
402, 276625609, 0.65868026, -0.40750208, -0.48898447, -0.40121892, 9.67113971710205, -1.5224794149398804, 1.7768628597259521, 2.4474728107452393, 1.7299072742462158, 1.3314121961593628, -0.87939453125, 0.26953125, 0.21533203125, 0, 
403, 276642276, 0.6588425, -0.40742692, -0.48887566, -0.40116155, 9.686161041259766, -1.455773115158081, 1.7342593669891357, 2.932385206222534, 1.5643340349197388, 1.8204227685928345, -0.880126953125, 0.264404296875, 0.216552734375, 0, 
404, 276658943, 0.65897334, -0.40739343, -0.48881638, -0.40105295, 9.693631172180176, -1.3860642910003662, 1.7891058921813965, 4.247058868408203, 0.7898827791213989, 2.217752456665039, -0.878173828125, 0.26708984375, 0.212890625, 0, 
405, 276675610, 0.6591089, -0.4073448, -0.48889208, -0.40078717, 9.731158256530762, -1.3656708002090454, 1.8604660034179688, 3.991253137588501, -0.021764393895864487, 2.270117998123169, -0.8759765625, 0.2685546875, 0.216796875, 0, 
406, 276692277, 0.6590804, -0.40746865, -0.48892453, -0.40066865, 9.737397193908691, -1.318197250366211, 1.8902486562728882, 2.4442074298858643, -0.4861226975917816, 1.9118858575820923, -0.873779296875, 0.269287109375, 0.21826171875, 0, 
407, 276708944, 0.65897864, -0.40766636, -0.48891518, -0.40064606, 9.70336627960205, -1.2831097841262817, 1.896245002746582, 1.13968825340271, -0.43111932277679443, 1.5776398181915283, -0.877685546875, 0.26806640625, 0.215576171875, 0, 
408, 276725611, 0.6588108, -0.40793145, -0.48883465, -0.40075052, 9.664263725280762, -1.2608250379562378, 1.8619368076324463, 0.22838842868804932, -0.19176869094371796, 1.2872045040130615, -0.878173828125, 0.26904296875, 0.215576171875, 0, 
409, 276742278, 0.65859413, -0.40821737, -0.48872948, -0.4009439, 9.614683151245117, -1.2978571653366089, 1.883396863937378, -0.20133502781391144, -0.07835564762353897, 0.9240549206733704, -0.876708984375, 0.268310546875, 0.214599609375, 0, 
410, 276758945, 0.65841657, -0.4083767, -0.4887056, -0.4011022, 9.603489875793457, -1.3637759685516357, 1.8494892120361328, 0.3050856292247772, 0.010744526982307434, 0.4352365732192993, -0.8759765625, 0.270263671875, 0.217041015625, 0, 
411, 276775612, 0.6582544, -0.40845716, -0.48874032, -0.40124425, 9.60295295715332, -1.3961817026138306, 1.82669997215271, 1.2586336135864258, -0.08098095655441284, 0.1876642405986786, -0.875244140625, 0.268310546875, 0.2158203125, 0, 
412, 276792279, 0.6581243, -0.40845776, -0.48883438, -0.4013425, 9.641515731811523, -1.3782093524932861, 1.8099453449249268, 2.280759811401367, -0.18257375061511993, 0.0887480080127716, -0.878173828125, 0.26953125, 0.2177734375, 0, 
413, 276808946, 0.6580059, -0.40842175, -0.48896366, -0.40141577, 9.64149284362793, -1.3505929708480835, 1.806191325187683, 2.475250005722046, -0.24399298429489136, -0.024364080280065536, -0.8779296875, 0.27001953125, 0.21923828125, 0, 
414, 276825613, 0.6578422, -0.40843296, -0.4890848, -0.40152487, 9.654909133911133, -1.3275822401046753, 1.8010027408599854, 2.0978851318359375, -0.4046870768070221, -0.1097056046128273, -0.87744140625, 0.268310546875, 0.218994140625, 0, 
415, 276842280, 0.6576569, -0.40850595, -0.48915374, -0.40167022, 9.69528579711914, -1.3540778160095215, 1.799347162246704, 1.1018198728561401, -0.25317513942718506, -0.05348571762442589, -0.8759765625, 0.267333984375, 0.21875, 0, 
416, 276858947, 0.65741, -0.40867367, -0.48915955, -0.40189666, 9.685038566589355, -1.3871285915374756, 1.7827965021133423, 0.21659381687641144, -0.231186643242836, -0.06405095756053925, -0.87841796875, 0.267822265625, 0.216064453125, 0, 
417, 276875614, 0.65716594, -0.40882188, -0.48917732, -0.40212363, 9.680818557739258, -1.3707923889160156, 1.8310145139694214, 0.16824981570243835, -0.1941506713628769, -0.1918967366218567, -0.87890625, 0.267578125, 0.2177734375, 0, 
418, 276892281, 0.65693647, -0.40895686, -0.4891663, -0.40237463, 9.68772029876709, -1.3348946571350098, 1.8360323905944824, 0.35337841510772705, 0.05158397555351257, -0.17787379026412964, -0.8779296875, 0.26171875, 0.219970703125, 0, 
419, 276908948, 0.65669817, -0.40914908, -0.48902142, -0.40274388, 9.693918228149414, -1.3642948865890503, 1.815207839012146, 0.39539602398872375, 0.6445691585540771, 0.044975899159908295, -0.879150390625, 0.264892578125, 0.218017578125, 0, 
420, 276925615, 0.6565549, -0.4092372, -0.488875, -0.40306565, 9.704862594604492, -1.3704936504364014, 1.8270384073257446, 0.7176038026809692, 1.2077412605285645, 0.06533800065517426, -0.87939453125, 0.266845703125, 0.220947265625, 0, 
421, 276942282, 0.65648633, -0.40923086, -0.48873454, -0.403354, 9.701855659484863, -1.3589105606079102, 1.8041595220565796, 1.0980675220489502, 1.6552460193634033, 0.015905484557151794, -0.878173828125, 0.264892578125, 0.217041015625, 0, 
422, 276958949, 0.65651315, -0.4091287, -0.48859102, -0.40358782, 9.683237075805664, -1.375195860862732, 1.782835841178894, 1.494104027748108, 2.170753002166748, 0.1198546290397644, -0.8798828125, 0.263427734375, 0.21826171875, 0, 
423, 276975616, 0.6564883, -0.40909073, -0.4883592, -0.40394706, 9.66010570526123, -1.367962121963501, 1.7723225355148315, 1.5759109258651733, 2.400921583175659, 0.10361617803573608, -0.87890625, 0.263671875, 0.21728515625, 0, 
424, 276992283, 0.65648794, -0.4090537, -0.48814392, -0.40424532, 9.643022537231445, -1.372946858406067, 1.7844041585922241, 1.3933818340301514, 2.3080883026123047, 0.3067248463630676, -0.8779296875, 0.265625, 0.216064453125, 0, 
425, 277008950, 0.6565341, -0.4089906, -0.4879539, -0.40446344, 9.66606330871582, -1.4085447788238525, 1.8147003650665283, 1.3833801746368408, 2.282270908355713, 0.5226527452468872, -0.879638671875, 0.26416015625, 0.21728515625, 0, 
426, 277025617, 0.65657264, -0.40897164, -0.4877308, -0.40468913, 9.666699409484863, -1.3919833898544312, 1.8467332124710083, 1.435924768447876, 2.249166488647461, 0.7835692763328552, -0.87939453125, 0.265625, 0.21484375, 0, 
427, 277042284, 0.65664697, -0.40894228, -0.48753652, -0.40483233, 9.66872501373291, -1.3703243732452393, 1.880267858505249, 1.4643933773040771, 2.1036734580993652, 1.0454847812652588, -0.88037109375, 0.26513671875, 0.2138671875, 0, 
428, 277058951, 0.6567267, -0.40891063, -0.4873569, -0.4049514, 9.667078971862793, -1.3841681480407715, 1.9159376621246338, 1.76251220703125, 1.9716527462005615, 1.1500998735427856, -0.88134765625, 0.265869140625, 0.217041015625, 0, 
429, 277075618, 0.65678775, -0.40889773, -0.48718324, -0.4050742, 9.67735767364502, -1.3526662588119507, 1.919507622718811, 1.9203505516052246, 1.7971664667129517, 1.183921456336975, -0.880615234375, 0.265380859375, 0.2119140625, 0, 
430, 277092285, 0.65686727, -0.4088801, -0.48700985, -0.40517166, 9.691813468933105, -1.3383257389068604, 1.9600396156311035, 2.083529233932495, 1.7982419729232788, 1.3339606523513794, -0.881591796875, 0.265625, 0.213623046875, 0, 
431, 277108952, 0.6569728, -0.40885833, -0.48682052, -0.4052499, 9.678723335266113, -1.3449115753173828, 1.941891074180603, 2.1940863132476807, 1.9116290807724, 1.5251208543777466, -0.881103515625, 0.267333984375, 0.214599609375, 0, 
432, 277125619, 0.657111, -0.40880996, -0.48665056, -0.40527895, 9.65558910369873, -1.3197569847106934, 1.8914226293563843, 2.2073023319244385, 1.9281494617462158, 1.6131131649017334, -0.88037109375, 0.2646484375, 0.213134765625, 0, 
433, 277142286, 0.6572453, -0.40878782, -0.48646075, -0.40531126, 9.658493995666504, -1.3122053146362305, 1.8698930740356445, 2.4128310680389404, 1.882136344909668, 1.8106255531311035, -0.87548828125, 0.2666015625, 0.214111328125, 0, 
434, 277158953, 0.65741664, -0.4087176, -0.4863468, -0.4052409, 9.634265899658203, -1.313440203666687, 1.8391155004501343, 3.0347979068756104, 1.5447660684585571, 1.9544283151626587, -0.879638671875, 0.267578125, 0.213623046875, 0, 
435, 277175620, 0.6576615, -0.40854302, -0.48637584, -0.40498483, 9.630220413208008, -1.3446489572525024, 1.822130560874939, 4.521999359130859, 0.9433925747871399, 2.2061374187469482, -0.878662109375, 0.265869140625, 0.21240234375, 0, 
436, 277192287, 0.65790594, -0.40836048, -0.48647606, -0.40465128, 9.6480131149292, -1.3402719497680664, 1.8654546737670898, 5.410555362701416, 0.368438720703125, 2.407747745513916, -0.87939453125, 0.267578125, 0.213134765625, 0, 
437, 277208954, 0.65804493, -0.4083245, -0.48652762, -0.40439945, 9.716348648071289, -1.3345098495483398, 1.906006932258606, 3.9170022010803223, 0.07656918466091156, 2.348172426223755, -0.876953125, 0.268310546875, 0.208740234375, 0, 
438, 277225621, 0.6581315, -0.40841523, -0.48650548, -0.40419382, 9.732978820800781, -1.2957146167755127, 1.8752429485321045, 2.3874621391296387, 0.07477626949548721, 2.5326731204986572, -0.87451171875, 0.26953125, 0.209716796875, 0, 
439, 277242288, 0.6581662, -0.40855578, -0.48652485, -0.40397152, 9.694134712219238, -1.3055509328842163, 1.8698172569274902, 1.9979057312011719, -0.44336220622062683, 2.477810859680176, -0.876953125, 0.268798828125, 0.21337890625, 0, 
440, 277258955, 0.6581008, -0.4088008, -0.4865811, -0.4037625, 9.703274726867676, -1.3881127834320068, 1.9217908382415771, 2.0145797729492188, -1.3016821146011353, 2.5288567543029785, -0.877197265625, 0.267578125, 0.21435546875, 0, 
441, 277275622, 0.6578757, -0.40921423, -0.48654434, -0.40375492, 9.681680679321289, -1.4214357137680054, 1.8767423629760742, 0.4257342517375946, -1.399753212928772, 2.108078718185425, -0.8779296875, 0.26806640625, 0.21044921875, 0, 
442, 277292289, 0.6576621, -0.40964514, -0.48652148, -0.40369332, 9.61307144165039, -1.3630019426345825, 1.8511073589324951, -0.1645679920911789, -1.5131661891937256, 2.2496020793914795, -0.87841796875, 0.269287109375, 0.213623046875, 0, 
443, 277308956, 0.6574677, -0.41004652, -0.4865727, -0.40354082, 9.59638500213623, -1.3402475118637085, 1.8598105907440186, 0.8000254034996033, -1.998360276222229, 2.4596128463745117, -0.878173828125, 0.270751953125, 0.2158203125, 0, 
444, 277325623, 0.657307, -0.41040367, -0.4866664, -0.4033264, 9.637913703918457, -1.39957857131958, 1.9193041324615479, 1.1528276205062866, -2.090745687484741, 2.5120809078216553, -0.875, 0.273681640625, 0.218505859375, 0, 
445, 277342290, 0.6572118, -0.41069096, -0.48676938, -0.40306467, 9.660849571228027, -1.4217361211776733, 1.9146716594696045, 1.1748417615890503, -1.7572039365768433, 2.5176515579223633, -0.874267578125, 0.26904296875, 0.219482421875, 0, 
446, 277358957, 0.6570438, -0.41105843, -0.4867499, -0.40298754, 9.675992965698242, -1.4063043594360352, 1.8950724601745605, 1.4060860872268677, -1.409947156906128, 2.4356911182403564, -0.875, 0.269287109375, 0.21728515625, 0, 
447, 277375624, 0.6569713, -0.41133106, -0.48677632, -0.4027956, 9.651004791259766, -1.410913109779358, 1.8904776573181152, 1.4931179285049438, -1.1952613592147827, 2.554047107696533, -0.874267578125, 0.2705078125, 0.2216796875, 0, 
448, 277392291, 0.6569212, -0.41159344, -0.48676533, -0.40262255, 9.651573181152344, -1.424195408821106, 1.8635125160217285, 1.6294031143188477, -0.8995115756988525, 2.6387228965759277, -0.871826171875, 0.27099609375, 0.220458984375, 0, 
449, 277408958, 0.65693545, -0.4117865, -0.4867559, -0.4024134, 9.660462379455566, -1.459956407546997, 1.854575753211975, 2.370877981185913, -0.6209351420402527, 2.7662487030029297, -0.875732421875, 0.272216796875, 0.220703125, 0, 
450, 277425625, 0.6569898, -0.41195703, -0.48677003, -0.4021327, 9.657462120056152, -1.5037291049957275, 1.8401563167572021, 2.7370498180389404, -0.7117192149162292, 3.0273056030273438, -0.876953125, 0.27392578125, 0.214111328125, 0, 
451, 277442292, 0.6571166, -0.41207394, -0.48681787, -0.4017477, 9.670236587524414, -1.4562218189239502, 1.8313308954238892, 2.7113733291625977, -0.6324352622032166, 3.245769500732422, -0.876953125, 0.272705078125, 0.222412109375, 0, 
452, 277458959, 0.6571525, -0.41233236, -0.48672903, -0.40153158, 9.666759490966797, -1.4082757234573364, 1.8877816200256348, 2.5508198738098145, -0.4845603108406067, 3.413661003112793, -0.876220703125, 0.271240234375, 0.2197265625, 0, 
453, 277475626, 0.6571625, -0.41265288, -0.48658735, -0.40135762, 9.663763046264648, -1.395126223564148, 1.9131815433502197, 1.7766507863998413, -0.367292582988739, 3.4846596717834473, -0.87353515625, 0.274658203125, 0.222412109375, 0, 
454, 277492293, 0.6571576, -0.41301385, -0.48638326, -0.4012418, 9.678241729736328, -1.4419759511947632, 1.9043887853622437, 0.48732006549835205, 0.021860437467694283, 3.358541965484619, -0.87646484375, 0.271484375, 0.22119140625, 0, 
455, 277508960, 0.6570764, -0.41350073, -0.48601055, -0.40132484, 9.61607837677002, -1.4624234437942505, 1.877867579460144, -0.5349788665771484, 0.6067520380020142, 3.3208014965057373, -0.8740234375, 0.2744140625, 0.2236328125, 0, 
456, 277525627, 0.657068, -0.41388282, -0.48571068, -0.4013078, 9.599648475646973, -1.4276556968688965, 1.8404935598373413, -0.4879283308982849, 0.7022233605384827, 3.1933276653289795, -0.876220703125, 0.276611328125, 0.22314453125, 0, 
457, 277542294, 0.6570044, -0.4143122, -0.48535427, -0.40139985, 9.580587387084961, -1.4463609457015991, 1.856316089630127, -0.6030701398849487, 0.8329121470451355, 3.0150883197784424, -0.87451171875, 0.278076171875, 0.225830078125, 0, 
458, 277558961, 0.6569832, -0.41468483, -0.48497245, -0.40151158, 9.593843460083008, -1.476943016052246, 1.8624193668365479, -0.9880290031433105, 1.396519660949707, 2.807023525238037, -0.874267578125, 0.275390625, 0.224853515625, 0, 
459, 277575628, 0.6568935, -0.41512388, -0.48449677, -0.40177903, 9.631109237670898, -1.4893726110458374, 1.8436291217803955, -1.0141156911849976, 1.6546188592910767, 2.6420397758483887, -0.87109375, 0.277099609375, 0.223388671875, 0, 
460, 277592295, 0.6568652, -0.41545358, -0.48409677, -0.4019664, 9.624207496643066, -1.482485055923462, 1.8318284749984741, -1.2016903162002563, 1.7999836206436157, 2.3371329307556152, -0.87060546875, 0.27685546875, 0.22607421875, 0, 
461, 277608962, 0.656785, -0.41583216, -0.48362443, -0.40227446, 9.645634651184082, -1.4908764362335205, 1.8314896821975708, -1.6002366542816162, 2.071887969970703, 2.127941370010376, -0.871337890625, 0.2763671875, 0.223876953125, 0, 
462, 277625629, 0.6566778, -0.41622004, -0.48312443, -0.40264896, 9.62995719909668, -1.4692180156707764, 1.8500221967697144, -1.9785104990005493, 2.2639191150665283, 1.8717759847640991, -0.8740234375, 0.27490234375, 0.224365234375, 0, 
463, 277642296, 0.65647227, -0.41668326, -0.4825907, -0.40314472, 9.63050365447998, -1.4986467361450195, 1.8507410287857056, -2.3288280963897705, 2.105274200439453, 1.5464050769805908, -0.872314453125, 0.279296875, 0.227294921875, 0, 
464, 277658963, 0.656255, -0.41711885, -0.48212153, -0.40360892, 9.628401756286621, -1.5126681327819824, 1.844956636428833, -2.597428560256958, 1.8625682592391968, 1.2558802366256714, -0.8740234375, 0.27392578125, 0.223388671875, 0, 
465, 277675630, 0.6559357, -0.4176424, -0.48159862, -0.40421054, 9.596778869628906, -1.48178231716156, 1.8614579439163208, -2.8795526027679443, 1.7545597553253174, 0.9944003224372864, -0.873779296875, 0.2783203125, 0.22607421875, 0, 
466, 277692297, 0.6556771, -0.4180842, -0.48118162, -0.40466964, 9.597161293029785, -1.4824607372283936, 1.8403409719467163, -3.7201099395751953, 1.6361521482467651, 0.8165456652641296, -0.871826171875, 0.27685546875, 0.22509765625, 0, 
467, 277708964, 0.6553048, -0.41866562, -0.48067853, -0.4052693, 9.575780868530273, -1.4683749675750732, 1.8507592678070068, -4.672184944152832, 1.5504006147384644, 0.7121482491493225, -0.87158203125, 0.276123046875, 0.2265625, 0, 
468, 277725631, 0.6548745, -0.4192948, -0.48014206, -0.40594977, 9.593948364257812, -1.4715486764907837, 1.8470593690872192, -5.471904754638672, 1.6168915033340454, 0.4310489594936371, -0.878173828125, 0.2744140625, 0.22705078125, 0, 
469, 277742298, 0.6543505, -0.42003065, -0.47950596, -0.40678468, 9.601463317871094, -1.5047519207000732, 1.8283611536026, -5.731604099273682, 1.6982372999191284, 0.3602554500102997, -0.872314453125, 0.275146484375, 0.228759765625, 0, 
470, 277758965, 0.6539245, -0.42061418, -0.47895682, -0.4075132, 9.60818862915039, -1.5445921421051025, 1.7740237712860107, -5.260457992553711, 1.9231040477752686, 0.14877136051654816, -0.872314453125, 0.275390625, 0.2314453125, 0, 
471, 277775632, 0.65349835, -0.4211545, -0.47842732, -0.4082602, 9.626754760742188, -1.549576997756958, 1.8154245615005493, -4.263983249664307, 1.8791143894195557, 0.02256479300558567, -0.875732421875, 0.27490234375, 0.227783203125, 0, 
472, 277792299, 0.6531794, -0.42152607, -0.47803265, -0.40884894, 9.625807762145996, -1.5743402242660522, 1.7895041704177856, -3.203374147415161, 1.787190318107605, -0.08680784702301025, -0.875732421875, 0.2724609375, 0.229248046875, 0, 
473, 277808966, 0.65286154, -0.42187276, -0.47763574, -0.4094623, 9.624282836914062, -1.5647605657577515, 1.7340377569198608, -2.4112117290496826, 1.8192830085754395, -0.12331876158714294, -0.875244140625, 0.2685546875, 0.22900390625, 0, 
474, 277825633, 0.65261906, -0.42211515, -0.47731787, -0.40996954, 9.607263565063477, -1.5888540744781494, 1.7445321083068848, -1.3310215473175049, 1.7275511026382446, -0.040500082075595856, -0.874267578125, 0.27099609375, 0.230224609375, 0, 
475, 277842300, 0.65240306, -0.42229173, -0.47707176, -0.41041788, 9.61701488494873, -1.5724314451217651, 1.794063687324524, -0.28132346272468567, 1.4639579057693481, -0.07169634103775024, -0.879150390625, 0.267578125, 0.2294921875, 0, 
476, 277858967, 0.6521389, -0.422527, -0.4768099, -0.4108995, 9.65268611907959, -1.5491031408309937, 1.8056480884552002, -1.2014083862304688, 1.3651185035705566, -0.19071856141090393, -0.87939453125, 0.269775390625, 0.23046875, 0, 
477, 277875634, 0.6517888, -0.42289954, -0.4763914, -0.41155663, 9.653770446777344, -1.5055912733078003, 1.7477996349334717, -2.9361565113067627, 1.8861192464828491, -0.28661251068115234, -0.8779296875, 0.27099609375, 0.23046875, 0, 
478, 277892301, 0.65149075, -0.42322284, -0.47599825, -0.4121506, 9.618342399597168, -1.546743392944336, 1.7272273302078247, -2.8122293949127197, 1.9843437671661377, -0.1936511993408203, -0.8779296875, 0.269287109375, 0.2314453125, 0, 
479, 277908968, 0.65125006, -0.42342082, -0.47574756, -0.41261658, 9.57835865020752, -1.6391979455947876, 1.796124815940857, -1.0434162616729736, 1.4828213453292847, -0.24052241444587708, -0.874267578125, 0.271484375, 0.22900390625, 0, 
480, 277925635, 0.65105784, -0.42348364, -0.4756269, -0.4129947, 9.614913940429688, -1.6794792413711548, 1.813818335533142, -0.3461492359638214, 1.301727056503296, -0.6694455742835999, -0.881103515625, 0.2685546875, 0.229736328125, 0, 
481, 277942302, 0.6508848, -0.42354134, -0.47551942, -0.41333175, 9.584721565246582, -1.6562997102737427, 1.77227783203125, 0.08014213293790817, 1.1707180738449097, -0.4547726809978485, -0.876953125, 0.268310546875, 0.23095703125, 0, 
482, 277958969, 0.65080625, -0.42350385, -0.4755356, -0.41347516, 9.578304290771484, -1.5474222898483276, 1.785143494606018, 1.9724596738815308, 0.6021417379379272, 0.04754997417330742, -0.880126953125, 0.26416015625, 0.2294921875, 0, 
483, 277975636, 0.6507067, -0.4234788, -0.47559103, -0.41359374, 9.56330394744873, -1.515015959739685, 1.8280342817306519, 2.7405076026916504, 0.14103631675243378, 0.15855541825294495, -0.8779296875, 0.2646484375, 0.2314453125, 0, 
484, 277992303, 0.65053517, -0.42355812, -0.475594, -0.41377887, 9.606520652770996, -1.532557487487793, 1.8744890689849854, 1.8148773908615112, 0.020182805135846138, 0.17204050719738007, -0.877197265625, 0.266357421875, 0.231201171875, 0, 
485, 278008970, 0.6503665, -0.42366117, -0.47555482, -0.41398343, 9.615034103393555, -1.5281026363372803, 1.858371376991272, 0.996513307094574, 0.29177987575531006, 0.18857349455356598, -0.880615234375, 0.269775390625, 0.230224609375, 0, 
486, 278025637, 0.65024763, -0.4237088, -0.47555614, -0.41411993, 9.621986389160156, -1.5327624082565308, 1.8442883491516113, 0.9707724452018738, 0.3525972068309784, 0.188278928399086, -0.8779296875, 0.2666015625, 0.229248046875, 0, 
487, 278042304, 0.6501446, -0.4237159, -0.47557655, -0.41425103, 9.623021125793457, -1.5404751300811768, 1.8493822813034058, 1.7158845663070679, 0.34738507866859436, 0.15511052310466766, -0.87939453125, 0.268798828125, 0.230224609375, 0, 
488, 278058971, 0.65011054, -0.42362726, -0.4756836, -0.4142723, 9.618453979492188, -1.5736610889434814, 1.8324990272521973, 2.857506275177002, 0.15439334511756897, 0.2579582929611206, -0.879638671875, 0.269287109375, 0.23095703125, 0, 
489, 278075638, 0.65018564, -0.4234171, -0.47590953, -0.41411, 9.644306182861328, -1.611397385597229, 1.8012522459030151, 4.124758720397949, -0.12590564787387848, 0.5411323308944702, -0.878173828125, 0.265380859375, 0.2294921875, 0, 
490, 278092305, 0.6502172, -0.42325494, -0.47613955, -0.41396156, 9.655691146850586, -1.5687729120254517, 1.786566972732544, 4.849611282348633, -0.5543420910835266, 0.7120330929756165, -0.880126953125, 0.267333984375, 0.23046875, 0, 
491, 278108972, 0.6502986, -0.42305136, -0.47642967, -0.41370803, 9.658903121948242, -1.5419633388519287, 1.805411458015442, 5.072147846221924, -0.7486658096313477, 0.8909892439842224, -0.879638671875, 0.2666015625, 0.228759765625, 0, 
492, 278125639, 0.6503708, -0.4228662, -0.47674292, -0.41342255, 9.646661758422852, -1.5168250799179077, 1.8183170557022095, 5.063323974609375, -1.0176758766174316, 0.9856792092323303, -0.880126953125, 0.265625, 0.230224609375, 0, 
493, 278142306, 0.6504183, -0.42273134, -0.47702703, -0.41315824, 9.633942604064941, -1.505083680152893, 1.814892053604126, 4.637012481689453, -1.0517534017562866, 1.0744400024414062, -0.876708984375, 0.265869140625, 0.2314453125, 0, 
494, 278158973, 0.6504054, -0.42266124, -0.4772285, -0.41301748, 9.616775512695312, -1.5282917022705078, 1.8225419521331787, 4.143904209136963, -0.7996990084648132, 0.920379638671875, -0.876953125, 0.265380859375, 0.22998046875, 0, 
495, 278175640, 0.6504247, -0.42253622, -0.47748408, -0.41281933, 9.618284225463867, -1.5101220607757568, 1.8365734815597534, 4.535356044769287, -0.9019320607185364, 0.8740206360816956, -0.87646484375, 0.2666015625, 0.23095703125, 0, 
496, 278192307, 0.65048724, -0.42235747, -0.47775227, -0.41259354, 9.615307807922363, -1.5027180910110474, 1.841018557548523, 5.034317493438721, -0.7450414896011353, 0.9072274565696716, -0.879150390625, 0.268310546875, 0.229736328125, 0, 
497, 278208974, 0.65057313, -0.42215005, -0.47803834, -0.41233885, 9.606485366821289, -1.4872218370437622, 1.8511178493499756, 4.963523864746094, -0.6864138841629028, 0.8772862553596497, -0.876953125, 0.265380859375, 0.23193359375, 0, 
498, 278225641, 0.65067893, -0.42195317, -0.47827995, -0.41209304, 9.624795913696289, -1.4801687002182007, 1.834855318069458, 4.938782215118408, -0.4454881548881531, 1.079972505569458, -0.875244140625, 0.269287109375, 0.22900390625, 0, 
499, 278242308, 0.6508367, -0.42172766, -0.47848746, -0.41183397, 9.624478340148926, -1.4800645112991333, 1.8673065900802612, 4.727579116821289, -0.012774333357810974, 1.2071136236190796, -0.87890625, 0.269287109375, 0.23046875, 0, 
500, 278258975, 0.65097535, -0.42153716, -0.47861844, -0.41165763, 9.659740447998047, -1.477839708328247, 1.869037389755249, 4.368208408355713, 0.3552737832069397, 1.1854839324951172, -0.87744140625, 0.267822265625, 0.22998046875, 0, 
501, 278275642, 0.6511019, -0.42136937, -0.47868702, -0.41154978, 9.679941177368164, -1.466668963432312, 1.8666006326675415, 4.201494216918945, 0.6698233485221863, 1.1721396446228027, -0.8779296875, 0.26953125, 0.2294921875, 0, 
502, 278292309, 0.65128905, -0.42113733, -0.4787501, -0.41141745, 9.694974899291992, -1.4651528596878052, 1.8729047775268555, 4.212007999420166, 1.084377646446228, 1.1586672067642212, -0.8798828125, 0.2685546875, 0.232177734375, 0, 
503, 278308976, 0.65145695, -0.42093465, -0.4787563, -0.41135198, 9.696212768554688, -1.496809959411621, 1.8719044923782349, 4.206899166107178, 1.2991019487380981, 1.174675464630127, -0.875732421875, 0.268310546875, 0.230712890625, 0, 
504, 278325643, 0.6516687, -0.4206902, -0.4787698, -0.41125062, 9.702103614807129, -1.5091291666030884, 1.852432370185852, 4.237762928009033, 1.4896093606948853, 1.2197537422180176, -0.8779296875, 0.267822265625, 0.229248046875, 0, 
505, 278342310, 0.65185994, -0.420495, -0.47873235, -0.41119093, 9.718754768371582, -1.5260931253433228, 1.858875036239624, 3.958942413330078, 1.5869501829147339, 1.338519811630249, -0.8759765625, 0.27001953125, 0.2255859375, 0, 
506, 278358977, 0.6520423, -0.4203265, -0.47868747, -0.41112623, 9.69794750213623, -1.5161982774734497, 1.8524916172027588, 3.252915620803833, 1.5885125398635864, 1.3377001285552979, -0.877197265625, 0.27099609375, 0.227294921875, 0, 
507, 278375644, 0.65218467, -0.42020467, -0.47860056, -0.41112632, 9.703987121582031, -1.4729565382003784, 1.833742618560791, 2.632063388824463, 1.6950355768203735, 1.2164878845214844, -0.87548828125, 0.270263671875, 0.223876953125, 0, 
508, 278392311, 0.6522597, -0.4201465, -0.4785003, -0.41118333, 9.689905166625977, -1.443963646888733, 1.827787160873413, 1.8291311264038086, 1.5309351682662964, 0.9992411136627197, -0.87744140625, 0.26904296875, 0.2236328125, 0, 
509, 278408978, 0.6523214, -0.42012143, -0.47834942, -0.41128665, 9.663469314575195, -1.4729984998703003, 1.847929835319519, 1.3473304510116577, 1.7562628984451294, 1.0098063945770264, -0.875, 0.273193359375, 0.22314453125, 0, 
