sep=,
DeviceTag:,Xsens_1,,,,,,,,,,,,,,,,,
FirmwareVersion:,2.4.0,,,,,,,,,,,,,,,,,
AppVersion:,2022.0.1,,,,,,,,,,,,,,,,,
SyncStatus:,Synced,,,,,,,,,,,,,,,,,
OutputRate:,60Hz,,,,,,,,,,,,,,,,,
FilterProfile:,General,,,,,,,,,,,,,,,,,
Measurement Mode:,Sensor fusion Mode - Extended (Quaternion),,,,,,,,,,,,,,,,,
StartTime:,2020-11-25 10:44:53.666 +0100,,,,,,,,,,,,,,,,,
© Xsens Technologies B. V. 2005-2020,,,,,,,,,,,,,,,,,,,

PacketCounter,SampleTimeFine,Quat_W,Quat_X,Quat_Y,Quat_Z,FreeAcc_X,FreeAcc_Y,FreeAcc_Z,Status
1, 658162657, 0.9481313, -0.003157462, -0.0040501677, -0.31783652, -0.010280772, -0.008893889, 0.11957455, 0
2, 658179324, 0.94811875, -0.0032405385, -0.0040869205, -0.31787252, -0.0011800122, -0.019195758, 0.11989403, 0
3, 658195991, 0.94811887, -0.0032365946, -0.0040824735, -0.3178722, 1.6590947E-4, 0.0023218247, 0.14081573, 0
4, 658212658, 0.94812024, -0.0032387571, -0.0040805466, -0.3178681, 0.0075854952, 0.0050315857, 0.140625, 0
5, 658229325, 0.94811994, -0.003236616, -0.004075392, -0.317869, 0.006296691, -0.012432204, 0.14927197, 0
6, 658245992, 0.94811934, -0.0032414184, -0.004072144, -0.31787106, -0.007576178, 7.132403E-4, 0.12323856, 0
7, 658262659, 0.94811827, -0.003237432, -0.0040732687, -0.31787407, 0.008973301, 0.0014403751, 0.12767315, 0
8, 658279326, 0.9481172, -0.0032393197, -0.0040778, -0.31787723, 0.0065840664, 0.0037897774, 0.12683582, 0
9, 658295993, 0.94811606, -0.0032378796, -0.0040748175, -0.3178806, -0.0065395175, -0.013643273, 0.13157177, 0
10, 658312660, 0.94811654, -0.003237612, -0.004078661, -0.31787932, 0.022319805, -0.003882867, 0.13580132, 0
11, 658329327, 0.9481159, -0.0032324567, -0.0040901764, -0.31788105, 0.0043009375, -0.0069930814, 0.14489079, 0
12, 658345994, 0.94811213, -0.0032253743, -0.004102105, -0.31789228, 0.010514745, 0.0100267455, 0.13445568, 0
13, 658362661, 0.9481135, -0.0032183307, -0.0041086054, -0.31788814, 1.6077566E-4, 0.0022484984, 0.16010952, 0
14, 658379328, 0.9481157, -0.0032196748, -0.004107741, -0.31788164, -0.0042774025, 8.6338865E-4, 0.14404774, 0
15, 658395995, 0.9481153, -0.0032132294, -0.004100013, -0.31788322, 0.0063723507, -6.273834E-4, 0.12215996, 0
16, 658412662, 0.9481129, -0.0032153288, -0.004102316, -0.31789032, -0.001402254, -0.009291256, 0.1446724, 0
17, 658429329, 0.9481091, -0.003212439, -0.0041008694, -0.31790128, 0.001651443, -0.0029042051, 0.12990856, 0
18, 658445996, 0.94810987, -0.0032160787, -0.00410973, -0.31789878, 0.007830343, 0.012574217, 0.11840725, 0
21, 658495997, 0.9481093, -0.0032108228, -0.0041019954, -0.31790075, 0.015317437, 0.0061774338, 0.1377697, 0
24, 658545998, 0.9476876, -0.0024005915, -0.0032407632, -0.31917295, 1.4501921, -2.1486785, 0.027359962, 0
27, 658595999, 0.94174117, -0.0027448428, -0.003781498, -0.33630532, -0.028596785, 0.44658035, 0.21081257, 0
29, 658629333, 0.9417438, -0.0035515835, -0.0044915336, -0.3362814, -0.0010482862, 0.021019308, 0.1712799, 0
32, 658679334, 0.9417442, -0.0035398428, -0.004480244, -0.33628023, 0.0019319168, -0.009122846, 0.12899876, 0
35, 658729335, 0.9417495, -0.003522062, -0.0044910824, -0.3362657, 0.011974612, -0.020587513, 0.1285963, 0
37, 658762669, 0.94174796, -0.0035277873, -0.0044987747, -0.33626944, -0.005630728, -0.0110688675, 0.13824749, 0
40, 658812670, 0.94175047, -0.003521986, -0.004500109, -0.33626252, 0.0028468182, -0.0029429044, 0.1449194, 0
43, 658862671, 0.9417546, -0.0035116284, -0.0045009465, -0.3362513, 0.004462315, -1.8142226E-4, 0.1262846, 0
47, 658929339, 0.9417517, -0.003477569, -0.004511302, -0.33625937, -0.004252767, 0.0042186743, 0.12924194, 0
50, 658979340, 0.9417559, -0.0034860647, -0.0045025027, -0.3362478, 0.001173209, -0.013303128, 0.13104248, 0
52, 659012674, 0.94175506, -0.0034838284, -0.004527215, -0.3362499, -0.0074890843, -0.011552554, 0.12514305, 0
55, 659062675, 0.9417565, -0.0034840072, -0.004549779, -0.33624566, 0.009265003, 3.9500327E-4, 0.13741875, 0
58, 659112676, 0.94176245, -0.003491953, -0.004563172, -0.3362285, 0.0057293423, 5.270505E-4, 0.1318922, 0
60, 659146010, 0.94176525, -0.003502924, -0.0045624403, -0.3362207, 0.0060541136, 0.004713576, 0.14063644, 0
63, 659196011, 0.94177085, -0.00348728, -0.004563378, -0.33620512, -0.0060682124, -0.01037946, 0.14891529, 0
66, 659246012, 0.9417657, -0.0034766947, -0.0045578373, -0.33621994, -0.0018080138, -0.015030293, 0.13257217, 0
68, 659279346, 0.9417692, -0.0034759021, -0.004544058, -0.33621016, 0.003665581, -0.010802224, 0.15363503, 0
71, 659329347, 0.9417779, -0.0034578373, -0.004543514, -0.33618605, 0.00415498, -0.009973529, 0.13861465, 0
75, 659396015, 0.94178605, -0.0034574806, -0.004547523, -0.336163, 0.008137705, -0.014284692, 0.13808346, 0
78, 659446016, 0.94178253, -0.003460918, -0.0045517473, -0.33617288, -0.0070530386, 0.0028754766, 0.13173294, 0
81, 659496017, 0.9417827, -0.003452348, -0.0045288815, -0.33617276, 4.2341737E-4, -0.0031986486, 0.12474537, 0
83, 659529351, 0.94178826, -0.0034526289, -0.0045286417, -0.33615753, -0.003038257, -0.011052478, 0.14243698, 0
86, 659579352, 0.94179034, -0.0034678772, -0.0045297258, -0.3361513, -0.010159817, -2.5650207E-4, 0.1492672, 0
89, 659629353, 0.9413977, -0.0028927673, -0.0039933133, -0.3372616, -0.008291336, -0.010910128, 0.13308334, 0
91, 659662687, 0.9412987, -0.002513154, -0.003622059, -0.33754504, -0.004450073, 0.009515335, 0.172019, 0
94, 659712688, 0.9402712, -0.002799669, -0.0039556534, -0.3403907, -0.01864634, 0.0078493105, 0.14000607, 0
97, 659762689, 0.93939286, -0.0020904208, -0.003277046, -0.3428192, 0.06642996, 0.01537716, 0.14298534, 0
99, 659796023, 0.9393282, -0.0018843501, -0.0030201962, -0.34300005, -0.026349913, 0.017710274, 0.14834118, 0
102, 659846024, 0.9394106, -0.0018556007, -0.003060593, -0.34277445, 0.17827234, -0.15819873, 0.10031605, 0
105, 659896025, 0.93958503, -0.0018180129, -0.0027540007, -0.34229863, -0.06802663, 0.009277741, 0.120993614, 0
108, 659946026, 0.93949145, -0.0019537767, -0.0014209489, -0.34256285, -0.16680439, 0.0021330295, 0.08075905, 0
110, 659979360, 0.9394858, -0.0020030176, -0.0012441052, -0.3425786, -0.033191055, 0.0016314926, 0.1277113, 0
113, 660029361, 0.93937093, -0.0017842134, -0.0029361425, -0.34288445, -0.10447262, 0.086525194, 0.17495918, 0
116, 660079362, 0.93936014, -0.0019340378, -0.0031352846, -0.3429114, -0.0116044665, -0.009395599, 0.12744999, 0
118, 660112696, 0.9393473, -0.001837312, -0.0030274645, -0.3429481, -0.004503722, -0.013620621, 0.108724594, 0
121, 660162697, 0.93928635, -0.0019604366, -0.0031701948, -0.3431131, 0.002241566, -0.0028411779, 0.11608982, 0
124, 660212698, 0.939197, -0.0018855814, -0.0030865606, -0.34335893, 0.0037761605, -0.006178719, 0.14715672, 0
126, 660246032, 0.93922544, -0.0020380581, -0.003242098, -0.34327903, -0.013199121, -0.004921579, 0.14029217, 0
129, 660296033, 0.93926513, -0.0024542077, -0.0036687923, -0.34316295, 0.0035426803, 0.004488446, 0.112680435, 0
132, 660346034, 0.9392925, -0.0028286846, -0.004017107, -0.34308136, -0.022213617, 0.006585175, 0.14804745, 0
135, 660396035, 0.93930113, -0.0031626236, -0.004334844, -0.343051, 0.007426298, -0.025437644, 0.11241436, 0
137, 660429369, 0.9393088, -0.002320939, -0.0035593642, -0.3430455, -0.011617394, 0.0022368794, 0.13562107, 0
140, 660479370, 0.93931603, -0.0023239553, -0.0035775602, -0.3430253, -0.014622207, 0.0042976774, 0.119895935, 0
143, 660529371, 0.9393181, -0.0023210011, -0.003562094, -0.34301993, -0.012322217, 9.161674E-4, 0.14297009, 0
145, 660562705, 0.9393184, -0.0023019663, -0.003545821, -0.34301916, -0.002546284, -0.008543743, 0.122094154, 0
148, 660612706, 0.9393183, -0.0023051489, -0.0035452144, -0.3430197, -0.008881113, -0.016639031, 0.13648224, 0
151, 660662707, 0.939318, -0.0022882265, -0.0035254967, -0.3430208, -0.0129536865, 0.005237062, 0.114889145, 0
155, 660729375, 0.9393223, -0.0022725847, -0.003514467, -0.34300914, 0.0016963935, -0.011134337, 0.14549255, 0
157, 660762709, 0.93932134, -0.0022639371, -0.0035212298, -0.34301177, -0.010763206, -0.005531717, 0.14900112, 0
160, 660812710, 0.9393216, -0.0022800053, -0.0035452396, -0.34301087, -0.0034409645, -0.0022069896, 0.15301514, 0
163, 660862711, 0.9393192, -0.0022641849, -0.0035485362, -0.34301767, -0.0020270494, -0.0034948853, 0.12493515, 0
166, 660912712, 0.9393185, -0.0022719607, -0.0035407888, -0.34301925, -0.02239316, -0.009450161, 0.1266346, 0
168, 660946046, 0.93931603, -0.002257332, -0.0035303119, -0.34302658, -0.009824246, -0.00959008, 0.12931919, 0
171, 660996047, 0.9393174, -0.0022427577, -0.0035235765, -0.3430228, 0.0051420764, 1.4581776E-4, 0.12742043, 0
174, 661046048, 0.9393175, -0.0022391393, -0.003504986, -0.34302264, -0.0045620305, 0.0025083304, 0.1268034, 0
176, 661079382, 0.939316, -0.0022415137, -0.0035100922, -0.3430268, 0.00439511, -0.01837434, 0.13175106, 0
179, 661129383, 0.9393207, -0.0022449824, -0.00351049, -0.34301367, -0.010034576, 0.0043711276, 0.1315155, 0
183, 661196051, 0.939326, -0.00194599, -0.0032115362, -0.3430041, -0.016860059, 0.01805318, 0.15496159, 0
186, 661246052, 0.93932897, -0.0019060697, -0.0031887603, -0.3429965, -0.02048705, -0.007904718, 0.12577152, 0
189, 661296053, 0.93933094, -0.0017983371, -0.0028460715, -0.34299457, -0.0047653294, -0.006604796, 0.13478184, 0
191, 661329387, 0.9393353, -0.0018069627, -0.0027819728, -0.34298298, -0.0055291867, -0.008719017, 0.13516712, 0
194, 661379388, 0.9393453, -0.0017883914, -0.002876234, -0.3429548, 0.006172193, -0.012474143, 0.13602734, 0
197, 661429389, 0.9396021, -0.001819826, -0.0026848726, -0.34225246, -0.01747082, 0.019563816, 0.12423611, 0
199, 661462723, 0.93959856, -0.0019065139, -0.0022859955, -0.34226465, -0.006398301, 0.002705061, 0.1317482, 0
202, 661512724, 0.93957883, -0.0020778792, -0.0013324573, -0.34232292, -0.036198754, -4.8341662E-5, 0.10481739, 0
205, 661562725, 0.93956375, -0.0020788158, -0.0013076524, -0.34236428, 0.0034668578, -1.0849458E-4, 0.14090157, 0
207, 661596059, 0.9395597, -0.0020779166, -0.0012838459, -0.34237537, -0.0025355406, -0.010182164, 0.13737488, 0
212, 661679394, 0.93957657, -0.0019881818, -0.0017919964, -0.34232762, -0.023035748, 0.0035094486, 0.1276102, 0
214, 661712728, 0.939568, -0.0019330601, -0.002142946, -0.34234944, 0.010805638, -0.009983164, 0.14077091, 0
217, 661762729, 0.9395639, -0.0019266242, -0.002243267, -0.34235972, -0.0018748441, 0.0013212811, 0.14445305, 0
220, 661812730, 0.93956107, -0.001900311, -0.0022853063, -0.34236747, -0.0033960175, -0.0027243015, 0.14931011, 0
222, 661846064, 0.93956155, -0.0018929667, -0.0023101615, -0.34236583, -0.00729254, -0.0019243907, 0.12656021, 0
225, 661896065, 0.9395613, -0.0018697531, -0.0023339875, -0.3423666, -0.0138866715, -0.013698765, 0.13744068, 0
228, 661946066, 0.93956316, -0.0018568119, -0.002365933, -0.34236163, 6.905869E-4, -0.0075474093, 0.14767551, 0
230, 661979400, 0.93956506, -0.0018446905, -0.0023896531, -0.3423563, -0.010084332, -0.0076835444, 0.112672806, 0
233, 662029401, 0.9395653, -0.0018334547, -0.0024071417, -0.34235537, -0.005678876, -0.015363365, 0.11991215, 0
236, 662079402, 0.93956465, -0.0018226278, -0.0024482876, -0.34235668, -0.012075663, -0.009271134, 0.13789654, 0
238, 662112736, 0.939563, -0.0018145753, -0.0024622963, -0.34236142, -0.012507115, -0.006989327, 0.122600555, 0
241, 662162737, 0.93956506, -0.0018169889, -0.0024746135, -0.34235585, 0.0023793215, -0.0031579202, 0.14029121, 0
244, 662212738, 0.939565, -0.001825909, -0.0024848322, -0.34235573, 0.011120281, -0.013162842, 0.12568092, 0
247, 662262739, 0.9395659, -0.001825651, -0.002503197, -0.34235317, -0.007854699, -0.006215263, 0.13942909, 0
249, 662296073, 0.9395605, -0.001815889, -0.0025139004, -0.3423683, -0.009410579, -0.004967317, 0.13580418, 0
252, 662346074, 0.93956643, -0.0017979341, -0.0025500352, -0.34235114, 0.01055423, 6.3705037E-4, 0.13050842, 0
255, 662396075, 0.93956786, -0.0017796927, -0.0025333816, -0.34234783, -7.507399E-4, -0.006532599, 0.11228943, 0
257, 662429409, 0.93956554, -0.0017813455, -0.0025449607, -0.34235403, -0.0061046295, -0.0048826477, 0.11308861, 0
260, 662479410, 0.939568, -0.0017841134, -0.0025669704, -0.34234726, -0.020204619, -0.0036558618, 0.121414185, 0
263, 662529411, 0.9395702, -0.0017872343, -0.002570862, -0.34234104, -0.006248993, -0.018612875, 0.12129688, 0
266, 662579412, 0.93957025, -0.0017803309, -0.0025748066, -0.34234092, -0.006357622, 0.001244735, 0.12670135, 0
268, 662612746, 0.93957263, -0.0017710171, -0.0025590623, -0.34233433, -0.013013207, 0.0048971428, 0.12913227, 0
271, 662662747, 0.93958074, -0.0017919247, -0.0026010866, -0.34231195, -0.011381361, -0.001022144, 0.11461353, 0
274, 662712748, 0.939583, -0.0017920589, -0.002605969, -0.34230566, -0.009760883, -0.015628055, 0.12875652, 0
276, 662746082, 0.9395806, -0.0017956722, -0.002617862, -0.3423122, -0.022119684, -0.013316221, 0.12675571, 0
279, 662796083, 0.93958116, -0.0018196183, -0.002635223, -0.3423103, -0.005867877, -0.010726963, 0.11805916, 0
282, 662846084, 0.93957984, -0.001843412, -0.002651214, -0.3423137, -0.01836234, -0.0072417865, 0.13708878, 0
284, 662879418, 0.9395774, -0.0018216848, -0.0026598473, -0.3423204, -0.0077449544, 0.011635999, 0.105187416, 0
287, 662929419, 0.9395723, -0.0018127218, -0.002653559, -0.3423345, -0.0022709894, -0.009333039, 0.13410854, 0
291, 662996087, 0.9395708, -0.0018083137, -0.0026864873, -0.34233847, -0.022490852, -0.008301798, 0.1511097, 0
294, 663046088, 0.9395707, -0.0018204032, -0.0026931495, -0.3423384, -0.015818013, -0.010296633, 0.12931824, 0
297, 663096089, 0.9395709, -0.0018133965, -0.0027059496, -0.3423378, -0.016673198, -0.012161345, 0.13137913, 0
299, 663129423, 0.93956983, -0.0018151035, -0.0027072274, -0.34234077, -0.0037276582, -0.008174725, 0.13123417, 0
302, 663179424, 0.9395696, -0.001807868, -0.002719203, -0.3423413, -0.0133495815, -0.0010066499, 0.1377716, 0
305, 663229425, 0.93957233, -0.0017992135, -0.0027283602, -0.34233406, -0.008376894, -0.012114322, 0.13155079, 0
307, 663262759, 0.9395729, -0.0018022544, -0.002749536, -0.3423322, -0.025238095, -0.007724983, 0.12781811, 0
310, 663312760, 0.9395783, -0.0017963487, -0.0027466482, -0.34231743, -0.01601352, 0.0017015814, 0.1333189, 0
313, 663362761, 0.9396349, -0.0018290736, -0.0028065008, -0.34216163, 0.21695806, 0.10895813, 0.10077953, 0
315, 663396095, 0.95039636, -0.0051084054, -0.0047126543, -0.31096265, 1.0270005, 0.26673996, 0.7728481, 0
320, 663479430, 0.9856704, -0.012353058, 0.0023618361, -0.16821079, -0.6229384, -0.19555031, -0.06686401, 0
322, 663512764, 0.99518055, -0.013201633, 0.0010994028, -0.097157106, -0.76667136, -0.53478706, -0.18469048, 0
325, 663562765, 0.9998231, -0.012904345, 0.0016737855, 0.013553679, -0.72975266, -1.0562001, -0.0957737, 0
328, 663612766, 0.99828106, -0.008385927, -0.0012231279, 0.05798705, -1.4485658, 1.1458358, 0.014103889, 0
330, 663646100, 0.99817747, -0.008422922, -0.0012830554, 0.05973658, 0.101641424, 0.05474778, 0.14176941, 0
333, 663696101, 0.99817836, -0.008417363, -0.0012763734, 0.059722766, 0.08589584, 0.046337765, 0.1479578, 0
336, 663746102, 0.99817884, -0.008408677, -0.001261741, 0.05971741, 0.083364695, 0.046162847, 0.15573311, 0
338, 663779436, 0.99651283, -0.01203951, 7.4879767E-4, 0.08255973, 0.52236366, 0.6924065, -0.15903378, 0
341, 663829437, 0.990206, -0.008675149, -9.3996385E-4, 0.13933988, -0.80050504, 0.4665373, -0.15289879, 0
344, 663879438, 0.97913843, -0.008781857, 7.038405E-5, 0.20300269, 0.34120718, -0.064710744, 0.15494251, 0
348, 663946106, 0.9663773, -0.009039537, 9.426934E-4, 0.25696674, 0.23264016, 0.05303053, 0.14808273, 0
351, 663996107, 0.95214045, -0.009211544, 0.0011195154, 0.3055191, 0.47165564, -0.2883777, 0.21967602, 0
353, 664029441, 0.9463331, -0.0095678065, 0.0014370271, 0.32304716, 0.3368735, 0.27681494, 0.1956234, 0
356, 664079442, 0.9374036, -0.010949793, 0.0019909125, 0.34806627, 0.14344782, -0.083325125, 0.23773575, 0
359, 664129443, 0.93459785, -0.013436343, 0.0033551585, 0.35543576, -0.03387942, 0.93684614, 0.14354706, 0
361, 664162777, 0.92881, -0.010209467, 0.0020011736, 0.37040922, 0.13513246, -0.2015762, 0.10928345, 0
364, 664212778, 0.92661196, -0.007678732, 0.0023412628, 0.37593237, 0.11807223, 0.13612741, 0.15882587, 0
367, 664262779, 0.9263345, -0.007299446, 0.003019035, 0.37661833, 0.15081777, 0.20606127, 0.1271677, 0
369, 664296113, 0.9190769, -0.008798, 0.002011128, 0.39397442, 0.22707298, -0.230917, 0.106604576, 0
372, 664346114, 0.91690433, -0.009433772, 0.0020334865, 0.3989894, 0.14000824, 0.1389161, 0.09443855, 0
375, 664396115, 0.9167781, -0.009557584, 0.002090163, 0.39927632, 0.14785941, 0.15825066, 0.12371731, 0
378, 664446116, 0.91630906, -0.00946167, 0.0021555673, 0.40035373, 0.086187325, 0.10125445, 0.1284523, 0
380, 664479450, 0.91191715, -0.010081297, 0.0024253677, 0.41024265, -0.016268788, -0.16148956, 0.19605637, 0
383, 664529451, 0.9104296, -0.011976989, 0.0026975616, 0.41348088, 0.122368135, 0.13491736, 0.08747578, 0
386, 664579452, 0.9103141, -0.01187029, 0.0026972345, 0.41373873, 0.118016236, 0.1378777, 0.13757706, 0
388, 664612786, 0.91033673, -0.012953729, 0.0028978274, 0.41365498, 0.14082909, 0.1811974, 0.16035366, 0
391, 664662787, 0.9100122, -0.013133858, 0.0024951145, 0.41436535, 0.24622788, 0.43239602, 0.14675331, 0
394, 664712788, 0.9097457, -0.011400057, 0.0023535467, 0.415002, 0.07554738, 0.27977037, 0.21800423, 0
396, 664746122, 0.90974844, -0.0117408205, 0.0024127539, 0.41498616, 0.10988177, 0.14290532, 0.13469315, 0
399, 664796123, 0.909749, -0.011719257, 0.0023945721, 0.4149857, 0.11510141, 0.1256207, 0.14505291, 0
402, 664846124, 0.9097467, -0.011714938, 0.0024240278, 0.41499063, 0.105898574, 0.1268763, 0.12569618, 0
405, 664896125, 0.90975195, -0.011711135, 0.0024260662, 0.41497925, 0.12844923, 0.11609703, 0.13319683, 0
407, 664929459, 0.90975654, -0.01169294, 0.0024253558, 0.41496962, 0.11976443, 0.13420455, 0.14706326, 0
410, 664979460, 0.9097648, -0.011670429, 0.0024288304, 0.41495198, 0.10708302, 0.14310448, 0.14961243, 0
413, 665029461, 0.9097694, -0.011647888, 0.0024239158, 0.4149428, 0.11644295, 0.13229997, 0.14927197, 0
415, 665062795, 0.9097708, -0.0116475215, 0.002434907, 0.41493967, 0.12478094, 0.14842694, 0.14225006, 0
418, 665112796, 0.9097709, -0.011655408, 0.002414761, 0.4149392, 0.11889811, 0.1321521, 0.12493706, 0
421, 665162797, 0.9097869, -0.011970062, 0.0024852087, 0.4148948, 0.11890017, 0.0909348, 0.09525013, 0
423, 665196131, 0.90976685, -0.0121475225, 0.002518023, 0.41493347, 0.12800895, 0.10948955, 0.11824417, 0
427, 665262799, 0.90976095, -0.01212418, 0.0025258535, 0.41494706, 0.11872078, 0.13777302, 0.12528038, 0
430, 665312800, 0.90976083, -0.01213264, 0.0025361734, 0.41494688, 0.11127507, 0.15680964, 0.12975693, 0
433, 665362801, 0.9097967, -0.010254695, 0.002206194, 0.4149208, 0.005905745, 0.46548823, 0.3170414, 0
436, 665412802, 0.90977764, -0.011480057, 0.0024131997, 0.41492927, 0.118071236, 0.14617881, 0.12365341, 0
438, 665446136, 0.90978014, -0.01148012, 0.0024156596, 0.41492364, 0.11098951, 0.14364189, 0.1354065, 0
441, 665496137, 0.9097832, -0.011487907, 0.0023916648, 0.4149171, 0.11359114, 0.13938642, 0.117507935, 0
444, 665546138, 0.9097811, -0.011494917, 0.0023880138, 0.41492158, 0.11030377, 0.13489307, 0.1124897, 0
446, 665579472, 0.90977955, -0.011485437, 0.0023972788, 0.41492534, 0.106865235, 0.11210977, 0.13168812, 0
449, 665629473, 0.9097453, -0.0120283235, 0.002530612, 0.41498417, 0.12483099, 0.12836407, 0.13397217, 0
452, 665679474, 0.90974456, -0.012064596, 0.0025233228, 0.4149849, 0.11124861, 0.1305379, 0.121995926, 0
456, 665746142, 0.9097488, -0.01207426, 0.0025386785, 0.41497508, 0.11710608, 0.13106507, 0.14471817, 0
459, 665796143, 0.90975195, -0.012079146, 0.0025470522, 0.41496792, 0.11886659, 0.13037103, 0.1471529, 0
461, 665829477, 0.9097516, -0.012079062, 0.0025399518, 0.41496873, 0.10409611, 0.1164789, 0.11941528, 0
464, 665879478, 0.9097431, -0.012079746, 0.002529052, 0.4149874, 0.104454845, 0.11843013, 0.13399506, 0
467, 665929479, 0.90974385, -0.012069614, 0.0025139702, 0.4149862, 0.11472238, 0.12369503, 0.12815952, 0
469, 665962813, 0.9097459, -0.012078495, 0.0025103225, 0.41498163, 0.112292364, 0.1436987, 0.1391201, 0
472, 666012814, 0.90975136, -0.012078333, 0.0025041895, 0.41496935, 0.11748531, 0.13185185, 0.14339638, 0
475, 666062815, 0.9096903, -0.012655264, 0.002917371, 0.41508365, 0.20498246, 0.81746477, 0.23331165, 0
477, 666096149, 0.90621483, -0.01395732, 0.0044437833, 0.42256314, -0.008391319, -0.003936482, 0.19855309, 0
480, 666146150, 0.90448093, -0.012895964, 0.0029615595, 0.42630807, 0.12327441, 0.11256722, 0.1191988, 0
484, 666212818, 0.90448266, -0.012844986, 0.0029437186, 0.42630616, 0.10589757, 0.14791375, 0.135149, 0
488, 666279486, 0.9044808, -0.012851365, 0.002954134, 0.42630965, 0.12316206, 0.12587138, 0.14048386, 0
491, 666329487, 0.9044831, -0.0128365485, 0.002942659, 0.42630547, 0.10935151, 0.14542773, 0.14512062, 0
494, 666379488, 0.90447825, -0.012820963, 0.0029448853, 0.4263162, 0.09040256, 0.1167762, 0.12830448, 0
496, 666412822, 0.9044838, -0.012833001, 0.0029395253, 0.42630428, 0.11209715, 0.12953131, 0.15291691, 0
499, 666462823, 0.9044852, -0.012830837, 0.002914191, 0.4263012, 0.12321909, 0.13804013, 0.1312828, 0
502, 666512824, 0.9044823, -0.012814941, 0.0028779411, 0.42630798, 0.114865705, 0.12847279, 0.13180828, 0
504, 666546158, 0.9044893, -0.012824718, 0.0028548536, 0.42629316, 0.09253264, 0.1366858, 0.11902523, 0
507, 666596159, 0.9044908, -0.01282311, 0.0028359708, 0.42629024, 0.11081488, 0.13001698, 0.12687683, 0
510, 666646160, 0.9044898, -0.012810798, 0.0028276097, 0.42629272, 0.11795657, 0.12745845, 0.12567043, 0
513, 666696161, 0.91611, -0.013732107, 0.005674524, 0.4006512, 0.62228084, 0.193328, 0.116104126, 0
515, 666729495, 0.9227797, -0.013928506, 0.0049321614, 0.38504374, -0.50913095, 0.079656675, 0.10059643, 0
518, 666779496, 0.92270285, -0.013625079, 0.0062479046, 0.38521966, 0.008265541, -0.02549189, 0.09038162, 0
521, 666829497, 0.9227008, -0.01348666, 0.006565772, 0.38522413, 0.108566, 0.12659194, 0.14278889, 0
523, 666862831, 0.9226987, -0.013492024, 0.0065230145, 0.38522974, 0.12376158, 0.10374569, 0.1469326, 0
526, 666912832, 0.9227011, -0.013488994, 0.006507352, 0.38522413, 0.1095922, 0.11989475, 0.13568497, 0
529, 666962833, 0.9227126, -0.013810723, 0.0057370206, 0.3851975, 0.17992857, 0.109737985, 0.08036995, 0
531, 666996167, 0.92271465, -0.013810024, 0.0056473073, 0.38519406, 0.10802828, 0.11664664, 0.12724686, 0
534, 667046168, 0.9226976, -0.013794454, 0.0056586177, 0.38523498, 0.098911494, 0.11714667, 0.12138367, 0
538, 667112836, 0.9226303, -0.012986845, 0.004185857, 0.38544348, 0.103322506, 0.112697795, 0.14173985, 0
541, 667162837, 0.922624, -0.012934662, 0.0041736513, 0.38546002, 0.120142, 0.11678109, 0.13151741, 0
544, 667212838, 0.92262644, -0.012880907, 0.004183703, 0.3854561, 0.09543175, 0.115001924, 0.13062859, 0
546, 667246172, 0.92261976, -0.012873438, 0.004177871, 0.38547242, 0.10596474, 0.11324265, 0.14353848, 0
549, 667296173, 0.92237335, -0.0140644545, 0.0033948857, 0.38602808, 0.07890118, 0.17551972, 0.16908646, 0
552, 667346174, 0.92235374, -0.014034489, 0.003357891, 0.38607585, 0.09822403, 0.12224938, 0.14830685, 0
554, 667379508, 0.92011213, -0.011657249, 0.0020971384, 0.39147523, 0.4928445, 3.2243433, -0.108239174, 0
557, 667429509, 0.909972, -0.008242288, 0.0015356297, 0.4145843, -0.12625115, -0.49306756, 0.05244732, 0
560, 667479510, 0.91196424, -0.004382973, 0.005414052, 0.4102098, -0.12208659, -0.38757995, 0.16668415, 0
562, 667512844, 0.91548306, -0.006821544, 0.002501253, 0.40229005, 0.3175921, 0.82825977, 0.14946747, 0
567, 667596179, 0.9157037, -0.010570569, 0.0015844007, 0.401711, 0.03746569, -0.4088483, 0.09915352, 0
569, 667629513, 0.91877514, -0.007859974, 0.0012157008, 0.39470044, 0.17109096, 0.40935582, 0.1528244, 0
572, 667679514, 0.9176309, -0.010132547, 0.0014707501, 0.3973011, 0.16116504, -0.03201585, 0.026061058, 0
575, 667729515, 0.91477156, -0.011314776, 0.0017804729, 0.40380841, 0.11480845, -0.100828595, 0.15529728, 0
577, 667762849, 0.9145385, -0.011551265, 0.0018307569, 0.40432882, 0.11048247, 0.12894352, 0.14707279, 0
580, 667812850, 0.914533, -0.0115468465, 0.0018139505, 0.4043415, 0.101922676, 0.11519557, 0.14560032, 0
583, 667862851, 0.91453475, -0.011547019, 0.0017911324, 0.40433773, 0.10458839, 0.11498965, 0.13295937, 0
585, 667896185, 0.9145354, -0.011533252, 0.0017745363, 0.40433678, 0.107129686, 0.1212496, 0.1423521, 0
588, 667946186, 0.91452754, -0.011544088, 0.001753377, 0.4043542, 0.10174137, 0.12317782, 0.13393402, 0
591, 667996187, 0.9145244, -0.011525058, 0.0017524716, 0.40436193, 0.10499262, 0.11577706, 0.14287567, 0
595, 668062855, 0.91451925, -0.011533784, 0.0017184898, 0.40437353, 0.1095366, 0.11101748, 0.13093185, 0
598, 668112856, 0.91451925, -0.01151567, 0.0017000531, 0.40437388, 0.10151068, 0.112340376, 0.14989471, 0
600, 668146190, 0.91451573, -0.011460809, 0.0016711709, 0.4043839, 0.10213547, 0.11789438, 0.12824917, 0
603, 668196191, 0.91450155, -0.011376408, 0.0016444862, 0.4044183, 0.100959025, 0.10838364, 0.12109566, 0
606, 668246192, 0.9143738, -0.01116001, 0.0015314305, 0.4047135, 0.10553025, 0.1685697, 0.11787033, 0
608, 668279526, 0.913585, -0.01026167, 0.0012571035, 0.4065156, 0.098234884, 0.19529836, 0.1178484, 0
611, 668329527, 0.9110649, -0.008801128, 0.0011008993, 0.41216695, 0.26616335, 0.24104436, 0.051299095, 0
614, 668379528, 0.9048998, -0.007846312, 0.0010828427, 0.42555022, 0.29569036, 0.039060447, 0.111343384, 0
617, 668429529, 0.90350324, -0.008282519, 9.84633E-4, 0.4284994, 0.1155823, 0.11934463, 0.15259838, 0
619, 668462863, 0.9034744, -0.00833318, 9.688804E-4, 0.4285592, 0.11288094, 0.1174603, 0.14752197, 0
623, 668529531, 0.90314853, -0.0115611395, 0.0015204005, 0.42916927, 0.14938317, -0.16438816, 0.09192848, 0
626, 668579532, 0.9029001, -0.012630561, 0.001852188, 0.42966032, 0.12160655, 0.07242378, 0.10672188, 0
629, 668629533, 0.90287954, -0.012686138, 0.0018617818, 0.42970178, 0.108558014, 0.11434448, 0.13200188, 0
631, 668662867, 0.90287155, -0.012680034, 0.0018416198, 0.42971864, 0.101435326, 0.11262475, 0.11832523, 0
634, 668712868, 0.9028638, -0.012678009, 0.0018000422, 0.42973506, 0.102314286, 0.118606, 0.14038086, 0
637, 668762869, 0.9028571, -0.012688488, 0.001778176, 0.42974892, 0.09987277, 0.10979697, 0.12493324, 0
639, 668796203, 0.90285915, -0.012688083, 0.0017648087, 0.42974502, 0.094360456, 0.09811921, 0.11204624, 0
642, 668846204, 0.90285796, -0.012692893, 0.0017519125, 0.42974734, 0.099937715, 0.11091944, 0.12642097, 0
645, 668896205, 0.90285474, -0.012688821, 0.0017071799, 0.42975447, 0.09749002, 0.123325646, 0.12324047, 0
648, 668946206, 0.9028536, -0.012690081, 0.0016763546, 0.42975685, 0.09350708, 0.11730622, 0.14857292, 0
650, 668979540, 0.9028534, -0.012684076, 0.0016552312, 0.42975745, 0.0939381, 0.11768238, 0.12556934, 0
653, 669029541, 0.90285075, -0.012695119, 0.0016104002, 0.42976314, 0.09585686, 0.11943803, 0.12086201, 0
656, 669079542, 0.9028442, -0.012696081, 0.0015896651, 0.42977685, 0.10878197, 0.11443953, 0.12721825, 0
658, 669112876, 0.90284544, -0.012694203, 0.0015778607, 0.4297741, 0.09854204, 0.11768486, 0.11983013, 0
661, 669162877, 0.9028446, -0.012688408, 0.0015348202, 0.42977625, 0.0943487, 0.10756743, 0.13404465, 0
664, 669212878, 0.9028465, -0.012689213, 0.0015187628, 0.4297722, 0.0946372, 0.12547335, 0.13160706, 0
666, 669246212, 0.90284455, -0.0126765575, 0.0015012947, 0.42977682, 0.106671885, 0.11341758, 0.13141346, 0
669, 669296213, 0.9028175, -0.012933496, 0.0016541588, 0.4298255, 0.08431937, 0.2967474, 0.15206814, 0
672, 669346214, 0.90532947, -0.013372688, 0.0025124468, 0.42449135, 0.15744263, 0.12453016, 0.11044216, 0
675, 669396215, 0.90761715, -0.01347536, 0.0035434323, 0.41956702, 0.09376874, 0.10926658, 0.14680195, 0
677, 669429549, 0.90762854, -0.013470559, 0.003549705, 0.41954225, 0.09956661, 0.087177455, 0.16321087, 0
680, 669479550, 0.9076568, -0.0134606445, 0.003505523, 0.41948187, 0.097935356, 0.09611537, 0.16382504, 0
683, 669529551, 0.90765214, -0.013485248, 0.0030497394, 0.41949463, 0.09748345, 0.107871756, 0.14087963, 0
685, 669562885, 0.90765333, -0.013482627, 0.003034512, 0.4194923, 0.10522765, 0.10620226, 0.13200855, 0
688, 669612886, 0.90765387, -0.0134769045, 0.0030094944, 0.41949135, 0.08376271, 0.11316442, 0.13306713, 0
691, 669662887, 0.9076574, -0.013450144, 0.0029574358, 0.41948485, 0.09262611, 0.11094391, 0.12361145, 0
693, 669696221, 0.9076559, -0.013443081, 0.0029306307, 0.41948864, 0.09833671, 0.11256249, 0.13716602, 0
696, 669746222, 0.90765154, -0.0134141985, 0.0029008726, 0.4194991, 0.09691843, 0.092597015, 0.13436222, 0
699, 669796223, 0.90764785, -0.013395146, 0.002854587, 0.41950825, 0.094077356, 0.097800285, 0.14176846, 0
703, 669862891, 0.9076474, -0.013373696, 0.002799976, 0.41951016, 0.08952046, 0.09541492, 0.13103199, 0
706, 669912892, 0.90764594, -0.013371957, 0.0027742817, 0.4195134, 0.08725529, 0.108540334, 0.12752533, 0
708, 669946226, 0.9076433, -0.013372185, 0.0027724153, 0.41951904, 0.092295915, 0.10491447, 0.15231991, 0
711, 669996227, 0.9076418, -0.013365678, 0.0027408672, 0.4195231, 0.102004945, 0.094030105, 0.118787766, 0
714, 670046228, 0.90764356, -0.013354723, 0.0027153813, 0.41951993, 0.101200394, 0.095636465, 0.13460732, 0
716, 670079562, 0.9076447, -0.013351286, 0.0027026718, 0.41951752, 0.10251715, 0.10031622, 0.1371727, 0
719, 670129563, 0.9076427, -0.013318341, 0.0026750562, 0.41952288, 0.09004695, 0.10705322, 0.14084053, 0
722, 670179564, 0.9076458, -0.013293121, 0.0026669032, 0.4195172, 0.08900843, 0.08696933, 0.14100838, 0
724, 670212898, 0.9076507, -0.01327807, 0.0026445086, 0.41950682, 0.09224329, 0.098978184, 0.13511276, 0
727, 670262899, 0.90765584, -0.013247462, 0.0026005153, 0.4194972, 0.08843985, 0.08683513, 0.11356163, 0
731, 670329567, 0.9076504, -0.013221213, 0.0025408356, 0.41950995, 0.08807311, 0.08647669, 0.13699818, 0
734, 670379568, 0.90765584, -0.013214862, 0.0025116925, 0.41949883, 0.08972584, 0.09021367, 0.131176, 0
737, 670429569, 0.9076481, -0.013207543, 0.002476596, 0.41951618, 0.08618742, 0.093571074, 0.1283617, 0
739, 670462903, 0.90764713, -0.0132058235, 0.0024543442, 0.4195181, 0.09745807, 0.097146235, 0.1295805, 0
742, 670512904, 0.907643, -0.013199293, 0.0024282131, 0.4195276, 0.094577536, 0.101138264, 0.14524746, 0
745, 670562905, 0.90764314, -0.013185667, 0.0023763909, 0.41952804, 0.089393616, 0.11246486, 0.14095497, 0
747, 670596239, 0.90764487, -0.013163926, 0.0023344893, 0.419525, 0.078125075, 0.09929904, 0.15592575, 0
750, 670646240, 0.9076465, -0.013147072, 0.0022947406, 0.41952246, 0.090222016, 0.08537019, 0.119856834, 0
753, 670696241, 0.90763843, -0.0131275, 0.0022533815, 0.41954073, 0.085891865, 0.09285249, 0.13611221, 0
756, 670746242, 0.90763986, -0.01310173, 0.0022219038, 0.4195385, 0.08357986, 0.10551021, 0.11835575, 0
760, 670812910, 0.9099757, -0.013053636, 0.002526979, 0.4144476, 0.2162868, 0.27191642, 0.10593891, 0
762, 670846244, 0.90981096, -0.0130691985, 0.0022863667, 0.41480994, -0.036521018, -0.090840034, 0.16110706, 0
765, 670896245, 0.9098081, -0.013042739, 0.0022403756, 0.4148176, 0.07156393, 0.068602905, 0.1335535, 0
768, 670946246, 0.9098114, -0.01301979, 0.0022165156, 0.41481087, 0.08120828, 0.1033323, 0.12639236, 0
770, 670979580, 0.90981203, -0.0130224265, 0.002215273, 0.4148096, 0.07249674, 0.094597906, 0.14063549, 0
773, 671029581, 0.9098121, -0.012992783, 0.002167108, 0.4148106, 0.086424984, 0.08850781, 0.13150597, 0
776, 671079582, 0.9098058, -0.013000186, 0.0021311701, 0.41482437, 0.069575295, 0.0869344, 0.10215187, 0
778, 671112916, 0.9098085, -0.012977251, 0.0021099104, 0.4148193, 0.07648576, 0.09667499, 0.14123058, 0
781, 671162917, 0.9098101, -0.01294829, 0.0020611517, 0.4148166, 0.09422092, 0.08825171, 0.13429356, 0
784, 671212918, 0.9098113, -0.012930218, 0.0020477083, 0.41481477, 0.07876308, 0.08569909, 0.12665367, 0
787, 671262919, 0.9098103, -0.012914189, 0.002004272, 0.41481772, 0.087859996, 0.08551811, 0.1203661, 0
789, 671296253, 0.90981215, -0.012911698, 0.0019622056, 0.41481373, 0.07802413, 0.08549566, 0.14288902, 0
792, 671346254, 0.90980977, -0.012890122, 0.0019310648, 0.41481996, 0.07582212, 0.08359186, 0.12882423, 0
795, 671396255, 0.9098053, -0.012859398, 0.0019220173, 0.41483077, 0.074407764, 0.07337462, 0.14928436, 0
797, 671429589, 0.9098058, -0.012837696, 0.0019130355, 0.4148305, 0.077732526, 0.088164486, 0.13010597, 0
800, 671479590, 0.9098039, -0.012807957, 0.0018745853, 0.4148354, 0.09157695, 0.057535864, 0.15844631, 0
803, 671529591, 0.9098078, -0.012792683, 0.0018364283, 0.41482776, 0.09365309, 0.088815026, 0.14210796, 0
805, 671562925, 0.9098052, -0.012778747, 0.0017965313, 0.41483402, 0.07569432, 0.06990512, 0.12751484, 0
808, 671612926, 0.9098112, -0.012761109, 0.0017619119, 0.41482142, 0.08234926, 0.07616764, 0.111587524, 0
811, 671662927, 0.9098156, -0.01273226, 0.0017508833, 0.414813, 0.07489404, 0.08854089, 0.13695431, 0
814, 671712928, 0.9098164, -0.012708937, 0.001699311, 0.4148121, 0.08483234, 0.08907924, 0.15007496, 0
816, 671746262, 0.9098172, -0.012714811, 0.0016850445, 0.41481027, 0.071981326, 0.08784935, 0.1381197, 0
819, 671796263, 0.9098203, -0.012694916, 0.0016408563, 0.41480416, 0.06372888, 0.0870577, 0.12168789, 0
822, 671846264, 0.90981567, -0.012668593, 0.0015975325, 0.41481525, 0.075687826, 0.07350632, 0.14690018, 0
824, 671879598, 0.90981567, -0.012664518, 0.0015748898, 0.41481566, 0.08471197, 0.07980488, 0.13614559, 0
827, 671929599, 0.90981376, -0.012654401, 0.001526305, 0.41482013, 0.059758946, 0.06508888, 0.138237, 0
830, 671979600, 0.90981185, -0.012660724, 0.00150009, 0.41482434, 0.08149161, 0.07102103, 0.15047264, 0
832, 672012934, 0.9098121, -0.012652504, 0.0014850639, 0.41482404, 0.0869055, 0.083038025, 0.13395786, 0
835, 672062935, 0.90981764, -0.012629712, 0.0014579091, 0.4148125, 0.07292614, 0.07833988, 0.13187218, 0
839, 672129603, 0.9098171, -0.012600979, 0.0014147743, 0.4148149, 0.07690671, 0.078670606, 0.12875462, 0
842, 672179604, 0.9098169, -0.012576623, 0.0013836684, 0.41481635, 0.07118637, 0.07086041, 0.1322403, 0
845, 672229605, 0.9098122, -0.0125503, 0.001364991, 0.4148272, 0.068113394, 0.07014608, 0.14979649, 0
847, 672262939, 0.9098125, -0.012527282, 0.0013482426, 0.4148275, 0.07245715, 0.06676544, 0.12209892, 0
850, 672312940, 0.9098158, -0.012494104, 0.0013287263, 0.41482145, 0.070112646, 0.07057022, 0.14914131, 0
853, 672362941, 0.9098159, -0.012464939, 0.001273147, 0.41482177, 0.076021135, 0.07346823, 0.1256609, 0
855, 672396275, 0.9098163, -0.012444046, 0.0012589939, 0.41482162, 0.06119436, 0.07100749, 0.13176823, 0
858, 672446276, 0.9098169, -0.012410059, 0.0012372123, 0.4148215, 0.0783395, 0.063290976, 0.12639523, 0
861, 672496277, 0.90981996, -0.012398376, 0.0012320688, 0.4148156, 0.07003227, 0.07072927, 0.1293068, 0
864, 672546278, 0.909822, -0.012378245, 0.0012052004, 0.4148113, 0.0929836, 0.07426627, 0.13316536, 0
868, 672612946, 0.9098251, -0.012357032, 0.0011628938, 0.41480532, 0.07470717, 0.06134137, 0.13104153, 0
870, 672646280, 0.90982974, -0.01235152, 0.0011367614, 0.4147954, 0.06414861, 0.056030266, 0.14374256, 0
873, 672696281, 0.90983784, -0.012315096, 0.0011116891, 0.4147791, 0.076627, 0.06600899, 0.13982868, 0
876, 672746282, 0.9098363, -0.012294661, 0.0010716736, 0.41478315, 0.07344304, 0.064578734, 0.13596725, 0
878, 672779616, 0.9098374, -0.012284367, 0.0010506909, 0.41478103, 0.06332788, 0.07463196, 0.1300621, 0
881, 672829617, 0.90983194, -0.012275791, 0.0010263283, 0.41479307, 0.05987632, 0.07034359, 0.12977886, 0
884, 672879618, 0.9098274, -0.012273227, 9.987314E-4, 0.41480333, 0.0685407, 0.07057605, 0.11044121, 0
886, 672912952, 0.90982693, -0.0122466255, 9.874962E-4, 0.41480535, 0.07175434, 0.051838428, 0.13012314, 0
889, 672962953, 0.90982527, -0.012226805, 9.505976E-4, 0.41480967, 0.056963027, 0.06488072, 0.15380383, 0
892, 673012954, 0.9098244, -0.012203998, 9.3662855E-4, 0.4148122, 0.056455974, 0.066406995, 0.13977432, 0
896, 673079622, 0.9098221, -0.012208276, 8.8245526E-4, 0.41481727, 0.061064586, 0.06521091, 0.14559174, 0
899, 673129623, 0.9098177, -0.012181256, 8.598007E-4, 0.4148276, 0.065792635, 0.06959586, 0.14550972, 0
901, 673162957, 0.90981853, -0.012171121, 8.392189E-4, 0.41482618, 0.05706969, 0.06429553, 0.13662338, 0
904, 673212958, 0.90981936, -0.012163575, 8.071165E-4, 0.41482472, 0.07699991, 0.061152942, 0.1369276, 0
907, 673262959, 0.90981925, -0.01216896, 7.6806755E-4, 0.4148246, 0.052017733, 0.051696423, 0.12129116, 0
909, 673296293, 0.9098159, -0.012171805, 7.6110935E-4, 0.41483197, 0.056121457, 0.07103573, 0.13354206, 0
912, 673346294, 0.90981776, -0.012158215, 7.4671285E-4, 0.41482854, 0.06899519, 0.060383562, 0.16551018, 0
915, 673396295, 0.9098194, -0.01215614, 7.1821525E-4, 0.41482475, 0.07175061, 0.044032827, 0.13911438, 0
918, 673446296, 0.9098265, -0.012143372, 6.835756E-4, 0.41480982, 0.07947706, 0.057006933, 0.14899349, 0
920, 673479630, 0.90982014, -0.012142888, 6.7966117E-4, 0.4148239, 0.06412334, 0.057390522, 0.1180954, 0
923, 673529631, 0.9098221, -0.012127573, 6.5682456E-4, 0.41481978, 0.064038195, 0.055323984, 0.13813972, 0
926, 673579632, 0.9098201, -0.012106883, 6.3645525E-4, 0.41482493, 0.0746412, 0.040215854, 0.12975693, 0
928, 673612966, 0.9098228, -0.01207768, 6.220324E-4, 0.41481975, 0.060524173, 0.064477175, 0.14402199, 0
931, 673662967, 0.90982217, -0.01207626, 6.0780434E-4, 0.4148214, 0.05473152, 0.05040974, 0.13125229, 0
934, 673712968, 0.90981954, -0.012046877, 5.811015E-4, 0.4148282, 0.07287324, 0.055473663, 0.13854218, 0
936, 673746302, 0.9098141, -0.01202567, 5.6049187E-4, 0.41484067, 0.060648795, 0.05586319, 0.13904381, 0
939, 673796303, 0.9098079, -0.01202195, 5.373481E-4, 0.41485432, 0.05757782, 0.060004275, 0.1351862, 0
942, 673846304, 0.9098014, -0.011999863, 5.1893503E-4, 0.4148691, 0.075007685, 0.05754914, 0.10964298, 0
945, 673896305, 0.909797, -0.011969101, 4.98388E-4, 0.41487983, 0.05346545, 0.060010582, 0.14328289, 0
947, 673929639, 0.90979135, -0.011979186, 4.907622E-4, 0.41489184, 0.07135958, 0.04308826, 0.09356594, 0
950, 673979640, 0.9097958, -0.011969739, 4.6799338E-4, 0.41488224, 0.060398515, 0.04414334, 0.11292076, 0
953, 674029641, 0.90980065, -0.011953946, 4.3368648E-4, 0.41487256, 0.054091208, 0.057748422, 0.14458084, 0
955, 674062975, 0.9098027, -0.011935562, 4.211447E-4, 0.41486818, 0.0615872, 0.05530236, 0.1271944, 0
958, 674112976, 0.90979546, -0.011933973, 3.9735893E-4, 0.4148842, 0.050080497, 0.04915133, 0.12511921, 0
961, 674162977, 0.90979457, -0.0119355945, 3.5525666E-4, 0.4148863, 0.07098988, 0.059121747, 0.10121822, 0
963, 674196311, 0.9098428, -0.01203095, 3.0688007E-4, 0.414778, 0.0664166, 0.0546732, 0.1443348, 0
966, 674246312, 0.90983623, -0.011993633, 2.8486107E-4, 0.41479298, 0.07407248, 0.055844087, 0.14443493, 0
969, 674296313, 0.90983146, -0.011954789, 2.859428E-4, 0.4148048, 0.07336747, 0.054089855, 0.12295532, 0
972, 674346314, 0.9098326, -0.011945231, 2.3655784E-4, 0.41480276, 0.05959413, 0.05280705, 0.15313339, 0
976, 674412982, 0.9098355, -0.011911554, 1.9651267E-4, 0.41479737, 0.06103015, 0.045812905, 0.11224365, 0
978, 674446316, 0.90983593, -0.011892381, 1.6368911E-4, 0.4147968, 0.06319976, 0.047749367, 0.13555431, 0
981, 674496317, 0.9098322, -0.011893594, 1.3097445E-4, 0.414805, 0.05587545, 0.042102087, 0.13495636, 0
984, 674546318, 0.90983295, -0.01187445, 7.9528865E-5, 0.4148039, 0.0611285, 0.045469247, 0.15966892, 0
986, 674579652, 0.9098358, -0.011862317, 6.135562E-5, 0.41479808, 0.052649293, 0.05480805, 0.13870716, 0
989, 674629653, 0.9098392, -0.011867776, 3.2915486E-5, 0.4147905, 0.05594962, 0.049227174, 0.1353817, 0
992, 674679654, 0.9098387, -0.011834598, -1.5450656E-5, 0.41479242, 0.059304494, 0.057247173, 0.14707565, 0
994, 674712988, 0.9098423, -0.0118161, -1.251715E-5, 0.41478494, 0.037607342, 0.04258876, 0.13309002, 0
997, 674762989, 0.9098483, -0.011796588, -2.6947455E-5, 0.41477257, 0.05683506, 0.050069887, 0.13605118, 0
1000, 674812990, 0.9098475, -0.011794189, -4.2287124E-5, 0.4147746, 0.057171024, 0.047380645, 0.14225006, 0
1004, 674879658, 0.9098446, -0.011783486, -8.4789746E-5, 0.4147808, 0.052468136, 0.037814382, 0.13398361, 0
1007, 674929659, 0.90984184, -0.011752357, -9.788426E-5, 0.41478795, 0.05785136, 0.040720623, 0.15545464, 0
1009, 674962993, 0.90984416, -0.01175268, -1.16358555E-4, 0.4147828, 0.057801563, 0.046723973, 0.13846016, 0
1012, 675012994, 0.90984464, -0.011730474, -1.1642506E-4, 0.41478246, 0.060850963, 0.05323413, 0.12964249, 0
1015, 675062995, 0.90984356, -0.011718063, -1.3610513E-4, 0.41478506, 0.047349796, 0.04895211, 0.13932037, 0
1017, 675096329, 0.9098404, -0.011707336, -1.5291072E-4, 0.4147923, 0.058661543, 0.041762188, 0.109339714, 0
1020, 675146330, 0.90984327, -0.011682247, -1.7711853E-4, 0.4147867, 0.059078168, 0.041097376, 0.14873695, 0
1023, 675196331, 0.90985096, -0.011687819, -2.0115844E-4, 0.41476992, 0.053643685, 0.04612783, 0.13854122, 0
1026, 675246332, 0.90985024, -0.011672869, -2.0798952E-4, 0.41477183, 0.057536118, 0.04545331, 0.12248707, 0
1028, 675279666, 0.90985525, -0.01166572, -2.3067639E-4, 0.414761, 0.050015643, 0.04115498, 0.12422562, 0
1032, 675346334, 0.9098527, -0.011667722, -2.52688E-4, 0.41476646, 0.057981666, 0.048156783, 0.13904476, 0
1035, 675396335, 0.9098554, -0.011656651, -3.0240853E-4, 0.41476062, 0.04532272, 0.049240828, 0.15823269, 0
1038, 675446336, 0.9098554, -0.011648559, -3.279572E-4, 0.41476095, 0.058770806, 0.04770928, 0.15057373, 0
1040, 675479670, 0.9098582, -0.011649794, -3.2454467E-4, 0.41475466, 0.053691, 0.049470678, 0.13932037, 0
1043, 675529671, 0.909855, -0.011630351, -3.479821E-4, 0.4147624, 0.04220454, 0.035244633, 0.124414444, 0
1046, 675579672, 0.9098578, -0.011618758, -3.7482782E-4, 0.41475645, 0.06681427, 0.035333753, 0.13591957, 0
1048, 675613006, 0.9098589, -0.011616677, -3.9561745E-4, 0.41475424, 0.06380848, 0.035666842, 0.15250301, 0
1051, 675663007, 0.90985435, -0.011604428, -4.0039278E-4, 0.41476458, 0.047019873, 0.031495623, 0.12238026, 0
1054, 675713008, 0.9098507, -0.011579371, -4.3698662E-4, 0.41477308, 0.062296394, 0.03257508, 0.13819885, 0
1057, 675763009, 0.9098502, -0.011578893, -4.669219E-4, 0.41477427, 0.048996527, 0.037545267, 0.1432209, 0
1059, 675796343, 0.90985096, -0.011566954, -4.8910506E-4, 0.4147727, 0.060308114, 0.033664342, 0.14514065, 0
1062, 675846344, 0.9098451, -0.0115491655, -5.0876895E-4, 0.41478625, 0.053563, 0.044222128, 0.14354134, 0
1065, 675896345, 0.9098427, -0.011538744, -5.438701E-4, 0.41479167, 0.05181732, 0.03155013, 0.14164639, 0
1067, 675929679, 0.9098429, -0.0115254335, -5.7794293E-4, 0.41479176, 0.046712074, 0.040932816, 0.124461174, 0
1070, 675979680, 0.9098425, -0.011503074, -6.254348E-4, 0.41479287, 0.0455415, 0.043743365, 0.117837906, 0
1073, 676029681, 0.909846, -0.011485876, -6.68503E-4, 0.41478586, 0.046456583, 0.038378432, 0.1296463, 0
1075, 676063015, 0.9098444, -0.0114720985, -6.7357457E-4, 0.4147895, 0.04786056, 0.019749878, 0.10673618, 0
1078, 676113016, 0.9098339, -0.011474412, -7.043904E-4, 0.41481277, 0.037888728, 0.037847463, 0.1204586, 0
1081, 676163017, 0.9098304, -0.011450714, -7.0658454E-4, 0.4148209, 0.047953665, 0.041192397, 0.11905193, 0
1084, 676213018, 0.9098702, -0.011578744, -6.652643E-4, 0.41473013, 0.043994933, 0.03911796, 0.13873672, 0
1086, 676246352, 0.90986365, -0.0115772635, -6.8084523E-4, 0.41474465, 0.04173476, 0.038196053, 0.11052799, 0
1089, 676296353, 0.90985894, -0.011568695, -6.856464E-4, 0.41475478, 0.046293758, 0.03582337, 0.13746929, 0
1092, 676346354, 0.9098567, -0.011553177, -7.1851665E-4, 0.4147602, 0.03740076, 0.026579253, 0.12670898, 0
1094, 676379688, 0.90985173, -0.011550364, -7.2555745E-4, 0.41477108, 0.05458726, 0.03330472, 0.14048195, 0
1097, 676429689, 0.90985537, -0.011525439, -7.711159E-4, 0.4147639, 0.049866248, 0.030545972, 0.12732601, 0
1100, 676479690, 0.90985554, -0.011509229, -7.959838E-4, 0.41476387, 0.035793148, 0.034793116, 0.12288952, 0
1103, 676529691, 0.90985024, -0.0114965, -8.192916E-4, 0.41477594, 0.04652455, 0.038779512, 0.13310719, 0
1105, 676563025, 0.909852, -0.011492477, -8.2774734E-4, 0.4147723, 0.05545402, 0.017127266, 0.117673874, 0
1108, 676613026, 0.9098547, -0.011482508, -8.5616665E-4, 0.41476655, 0.036968604, 0.03831856, 0.12779999, 0
1112, 676679694, 0.90984815, -0.011449955, -8.76257E-4, 0.41478172, 0.039980862, 0.03534421, 0.14710903, 0
1115, 676729695, 0.90984917, -0.011444185, -8.914096E-4, 0.4147796, 0.03935286, 0.050395466, 0.13816261, 0
1117, 676763029, 0.9098455, -0.011433953, -9.022818E-4, 0.41478777, 0.038202073, 0.03397132, 0.12777424, 0
1120, 676813030, 0.90983737, -0.011428368, -9.262267E-4, 0.41480556, 0.049243353, 0.02892187, 0.12782478, 0
1123, 676863031, 0.9098373, -0.011429035, -9.911895E-4, 0.4148059, 0.04859117, 0.043400403, 0.12912941, 0
1125, 676896365, 0.9098404, -0.011408854, -0.0010134527, 0.4147995, 0.038119264, 0.027774204, 0.12562275, 0
1128, 676946366, 0.9098443, -0.011404411, -0.0010226512, 0.4147911, 0.033000436, 0.0355841, 0.12039471, 0
1131, 676996367, 0.9098412, -0.011403245, -0.0010204386, 0.41479772, 0.037274655, 0.02912607, 0.12816048, 0
1134, 677046368, 0.90983737, -0.011393932, -0.0010307337, 0.41480666, 0.048747636, 0.038848188, 0.1440754, 0
1138, 677113036, 0.90983504, -0.011392799, -0.0010348583, 0.4148115, 0.03803948, 0.02507179, 0.13559246, 0
1142, 677179704, 0.9098366, -0.01138644, -0.0010690133, 0.4148082, 0.021844326, 0.04073749, 0.12169838, 0
1144, 677213038, 0.90983605, -0.011392733, -0.0010813039, 0.41480932, 0.03653459, 0.0208469, 0.11083889, 0
1147, 677263039, 0.9098365, -0.011395687, -0.0010900664, 0.41480806, 0.051230647, 0.034418035, 0.12595749, 0
1150, 677313040, 0.9098316, -0.011379815, -0.0011245781, 0.41481918, 0.033342205, 0.029651947, 0.122730255, 0
1152, 677346374, 0.90983063, -0.011390299, -0.0011405739, 0.4148211, 0.026014317, 0.031847145, 0.12716961, 0
1155, 677396375, 0.90983397, -0.011376237, -0.0011782735, 0.41481405, 0.033072304, 0.027727075, 0.14110184, 0
1158, 677446376, 0.90982926, -0.011384142, -0.0011915847, 0.41482416, 0.036845036, 0.02571979, 0.122353554, 0
1161, 677496377, 0.90981996, -0.011389204, -0.0012119804, 0.4148442, 0.033808716, 0.03420432, 0.12764835, 0
1163, 677529711, 0.90981823, -0.011378494, -0.0012372311, 0.4148484, 0.038534768, 0.023865057, 0.13089657, 0
1166, 677579712, 0.9098223, -0.011384182, -0.0012495084, 0.4148393, 0.040921424, 0.011009075, 0.1596508, 0
1170, 677646380, 0.90982246, -0.011366808, -0.0012780888, 0.41483924, 0.035571974, 0.019219948, 0.12719917, 0
1173, 677696381, 0.9098241, -0.011358784, -0.0013030062, 0.4148357, 0.031660404, 0.031558394, 0.14427567, 0
1175, 677729715, 0.90982974, -0.011340944, -0.0013226406, 0.41482383, 0.041927036, 0.023685716, 0.12292194, 0
1178, 677779716, 0.9098342, -0.011327206, -0.0013221334, 0.41481438, 0.027052248, 0.022503348, 0.12463474, 0
1181, 677829717, 0.909833, -0.011318794, -0.0013263675, 0.4148172, 0.03604781, 0.03344265, 0.1272726, 0
1183, 677863051, 0.90983206, -0.011304467, -0.0013246565, 0.41481957, 0.034683075, 0.03262645, 0.13849163, 0
1186, 677913052, 0.9098269, -0.011300127, -0.0013417949, 0.4148311, 0.037006356, 0.0138991745, 0.11817074, 0
1189, 677963053, 0.90982324, -0.011315287, -0.0013397519, 0.41483876, 0.029563563, 0.02539191, 0.13687325, 0
1192, 678013054, 0.90982395, -0.011316249, -0.0013527728, 0.414837, 0.042918984, 0.013709209, 0.13022327, 0
1194, 678046388, 0.90982157, -0.011309051, -0.0013630766, 0.41484246, 0.041978206, 0.021157464, 0.11460018, 0
1197, 678096389, 0.90981543, -0.011313825, -0.0013797223, 0.41485566, 0.027214004, 0.02537264, 0.12746048, 0
1200, 678146390, 0.90981513, -0.011311543, -0.0013708783, 0.41485652, 0.021930376, 0.02987171, 0.109140396, 0
1202, 678179724, 0.9099056, -0.011329495, -0.0013556344, 0.41465768, 0.04040953, 0.019460225, 0.15023327, 0
1205, 678229725, 0.90990746, -0.011319883, -0.0013541278, 0.4146537, 0.029784072, 0.030296141, 0.12104225, 0
1208, 678279726, 0.90991116, -0.0113077415, -0.0013562181, 0.41464615, 0.026691692, 0.035943035, 0.13142967, 0
1210, 678313060, 0.90991753, -0.011307069, -0.0013542682, 0.4146321, 0.04508345, 0.014930993, 0.1364994, 0
1213, 678363061, 0.9099153, -0.011289158, -0.001358554, 0.4146375, 0.03805399, 0.016673382, 0.11294651, 0
1216, 678413062, 0.9099183, -0.011283213, -0.0013625477, 0.41463086, 0.039524287, 0.04526455, 0.13925552, 0
1219, 678463063, 0.9099189, -0.011277721, -0.0013575444, 0.41462976, 0.029803224, 0.022361431, 0.13028717, 0
1221, 678496397, 0.90992063, -0.011270015, -0.0013769388, 0.4146262, 0.040527698, 0.012485175, 0.14911175, 0
1224, 678546398, 0.90992105, -0.011285883, -0.0013940898, 0.41462487, 0.04101226, 0.037153505, 0.13470364, 0
1227, 678596399, 0.9099184, -0.011288841, -0.0014131344, 0.41463038, 0.03850124, 0.020833168, 0.11880684, 0
1229, 678629733, 0.9099174, -0.0112904925, -0.0014181687, 0.41463256, 0.043296505, 0.023292894, 0.14543247, 0
1232, 678679734, 0.90991104, -0.011287716, -0.0014240856, 0.41464677, 0.036007017, 0.013108553, 0.12437916, 0
1235, 678729735, 0.9099092, -0.011273747, -0.0014157633, 0.41465092, 0.03617009, 0.033080533, 0.12695312, 0
1237, 678763069, 0.9099115, -0.01126162, -0.001425046, 0.41464642, 0.032642566, 0.025468227, 0.13508034, 0
1240, 678813070, 0.9099047, -0.011252594, -0.0014352087, 0.41466132, 0.038646463, 0.02973286, 0.15590858, 0
1243, 678863071, 0.9099027, -0.011250337, -0.0014398581, 0.41466603, 0.030276094, 0.023635538, 0.1466198, 0
1246, 678913072, 0.9098978, -0.01124478, -0.001455716, 0.41467664, 0.03888817, 0.02518736, 0.13020325, 0
1250, 678979740, 0.90988946, -0.0112123005, -0.0014723322, 0.41469586, 0.03420914, 0.03657633, 0.111676216, 0
1252, 679013074, 0.90988874, -0.011208171, -0.0014954141, 0.4146975, 0.04346988, 0.023486042, 0.13728619, 0
1255, 679063075, 0.909893, -0.0111946585, -0.0015137958, 0.41468835, 0.026929736, 0.02170333, 0.13072205, 0
1258, 679113076, 0.90988994, -0.011190401, -0.0015410851, 0.4146951, 0.03250374, 0.023587583, 0.1350832, 0
1260, 679146410, 0.90988976, -0.011181568, -0.0015493429, 0.4146957, 0.04472699, 0.026027065, 0.12976933, 0
1263, 679196411, 0.90988886, -0.011186709, -0.0015559469, 0.41469738, 0.0360847, 0.024860067, 0.14215374, 0
1266, 679246412, 0.9098919, -0.0111888, -0.0015603842, 0.41469076, 0.026041768, 0.034939237, 0.1376648, 0
1269, 679296413, 0.9098898, -0.011173604, -0.001581703, 0.4146956, 0.028052293, 0.021093601, 0.12251949, 0
1271, 679329747, 0.90989065, -0.011173787, -0.0015830767, 0.4146938, 0.032345176, 0.018608285, 0.13632965, 0
1274, 679379748, 0.90988874, -0.011153743, -0.0016166391, 0.4146984, 0.043784127, 0.013966591, 0.14165497, 0
1278, 679446416, 0.90989137, -0.011150136, -0.0016375064, 0.41469294, 0.036695343, 0.017137416, 0.120194435, 0
1281, 679496417, 0.9098963, -0.011151351, -0.0016355994, 0.41468182, 0.024275769, 0.02285559, 0.1350174, 0
1283, 679529751, 0.9099, -0.011152729, -0.0016364764, 0.4146734, 0.043170534, 0.015198623, 0.13718128, 0
1286, 679579752, 0.90990114, -0.011134864, -0.0016408125, 0.41467175, 0.0069262753, 0.02054404, 0.13464165, 0
1289, 679629753, 0.9099025, -0.01111234, -0.0016552766, 0.41466928, 0.034643546, 0.022734536, 0.14675808, 0
1291, 679663087, 0.90990335, -0.011112811, -0.0016449085, 0.41466743, 0.03884818, 0.013330096, 0.13385105, 0
1294, 679713088, 0.90990907, -0.011120979, -0.0016626634, 0.4146546, 0.043199573, 0.020665938, 0.119540215, 0
1297, 679763089, 0.90990996, -0.0111161275, -0.0016674814, 0.41465288, 0.03383088, 0.009706951, 0.1419878, 0
1300, 679813090, 0.91615653, -0.011268885, -0.0029580705, 0.40065038, 0.91263014, -0.23188548, 0.23543549, 0
1302, 679846424, 0.9197512, -0.011193216, -0.002895079, 0.39233047, 0.65165615, 0.3688647, 0.30198288, 0
1306, 679913092, 0.91392237, -0.011070301, -0.0029468636, 0.40572688, -0.69669265, 4.129215, 0.22258663, 0
1309, 679963093, 0.89329594, -0.011557403, -0.0027906853, 0.44931117, 0.67542917, -0.4311506, 0.048971176, 0
1312, 680013094, 0.83477867, -0.0045433305, 0.002138372, 0.55056226, -1.4777917, 1.8200617, 0.3585024, 0
1314, 680046428, 0.767877, -0.005463279, 0.0030942159, 0.6405661, -1.7602949, 0.49569508, 0.15461445, 0
1317, 680096429, 0.65472615, -0.0062187864, 0.0034731538, 0.7558322, 0.18470787, -0.3116454, 0.184865, 0
1320, 680146430, 0.6046413, -0.0066209733, 0.0037704662, 0.7964613, 0.31690222, -0.39597344, 0.13725281, 0
1323, 680196431, 0.59971446, -0.0065222224, 0.0036438326, 0.8001787, -0.038312063, 0.15173325, 0.11743355, 0
1325, 680229765, 0.5997129, -0.0065155933, 0.003632673, 0.8001801, -0.034690637, 0.12331749, 0.12682343, 0
1328, 680279766, 0.59972346, -0.0065275463, 0.003619667, 0.8001721, -0.047342926, 0.1300505, 0.13643646, 0
1331, 680329767, 0.5852636, -0.016688064, -0.0027239881, 0.8106664, 1.3545768, -0.5594803, -1.1574106, 0
1333, 680363101, 0.5659218, -0.016812421, -4.8177637E-4, 0.82428694, -3.831333, 0.22318645, 0.33646584, 0
1336, 680413102, 0.49687448, -0.016584633, -2.3896786E-4, 0.86766344, -0.07673567, 0.7543135, 0.04925537, 0
1339, 680463103, 0.4511192, -0.015580384, -0.0034448125, 0.8923207, -0.19928865, -0.45331356, -0.16327858, 0
1341, 680496437, 0.43212527, -0.015350903, -0.0014827775, 0.9016814, -0.76573354, 0.5128905, 0.114209175, 0
1344, 680546438, 0.40000108, -0.014677574, 9.499985E-4, 0.9163965, 0.17441551, 0.10607216, 0.2919836, 0
1347, 680596439, 0.36827365, -0.014382358, 4.11469E-4, 0.92960584, -0.38466406, -0.27527198, 0.05439949, 0
1350, 680646440, 0.3153257, -0.013749895, 9.1836526E-4, 0.9488831, 0.55624527, 0.91400605, -0.13960743, 0
1352, 680679774, 0.3030467, -0.014057976, 0.001213736, 0.95287097, 0.34883302, 0.12337943, 0.15240955, 0
1355, 680729775, 0.3155806, -0.014202414, 0.0011035571, 0.9487915, -0.23391356, 0.091367856, 0.12207794, 0
1358, 680779776, 0.34312665, -0.0141164325, 8.2353316E-4, 0.93918234, -0.10454948, 0.6455128, 0.14404869, 0
1360, 680813110, 0.35231158, -0.013645742, 7.429745E-5, 0.93578297, 0.20610216, -0.5766372, 0.13264179, 0
1363, 680863111, 0.35058233, -0.013772905, 2.8788665E-4, 0.93643034, 0.22514059, 0.24453902, 0.12734699, 0
1366, 680913112, 0.35045135, -0.013901992, 8.370953E-4, 0.9364771, -0.5065805, 0.4418446, 0.13361454, 0
1368, 680946446, 0.3532441, -0.013825515, 8.449472E-4, 0.93542844, -0.11182645, 0.17423986, 0.07083416, 0
1371, 680996447, 0.35387418, -0.013860369, 9.505302E-4, 0.93518955, -0.107683904, 0.14096616, 0.13181114, 0
1374, 681046448, 0.3518057, -0.014254843, 0.0016018716, 0.93596274, -0.12276098, 0.03668241, 0.1551857, 0
1377, 681096449, 0.35239306, -0.013812549, 8.6234254E-4, 0.9357495, -0.1090167, 0.12559989, 0.13363552, 0
1379, 681129783, 0.35238075, -0.013798369, 6.568545E-4, 0.9357544, -0.1046039, 0.14590313, 0.15080643, 0
1382, 681179784, 0.35833064, -0.013645104, 5.734601E-4, 0.93349457, -0.17247194, 0.8380576, -0.3009882, 0
1386, 681246452, 0.35793707, -0.01362735, 6.693014E-4, 0.9336457, -0.1178161, 0.14636666, 0.122733116, 0
1389, 681296453, 0.3579124, -0.013611897, 6.7275844E-4, 0.9336553, -0.10037338, 0.14672375, 0.11231136, 0
1391, 681329787, 0.35789642, -0.0135966, 6.7100255E-4, 0.93366176, -0.10763987, 0.13753295, 0.1343422, 0
1394, 681379788, 0.35790068, -0.0135979, 6.5534585E-4, 0.9336601, -0.11943252, 0.13067903, 0.12094498, 0
1397, 681429789, 0.3579077, -0.013584272, 6.5932E-4, 0.93365765, -0.10955974, 0.13468874, 0.13157177, 0
1399, 681463123, 0.35791272, -0.013596092, 6.4394926E-4, 0.93365544, -0.118648164, 0.15609023, 0.13260841, 0
1402, 681513124, 0.35790226, -0.01358346, 6.2676525E-4, 0.9336597, -0.115497485, 0.14465164, 0.12907982, 0
1405, 681563125, 0.35792133, -0.01357778, 6.6265673E-4, 0.93365246, -0.106138304, 0.1540301, 0.10816479, 0
1408, 681613126, 0.35783976, -0.013543434, 5.917545E-4, 0.93368435, -0.11651982, 0.13468179, 0.15438652, 0
1410, 681646460, 0.3578295, -0.013541859, 5.88698E-4, 0.9336882, -0.110134974, 0.14389065, 0.12979984, 0
1414, 681713128, 0.357828, -0.013552075, 5.4928137E-4, 0.93368876, -0.11145901, 0.1423962, 0.13711166, 0
1417, 681763129, 0.35782906, -0.013554409, 5.2690477E-4, 0.93368834, -0.10396466, 0.14712064, 0.12335682, 0
1420, 681813130, 0.3578361, -0.01353214, 5.1430194E-4, 0.93368596, -0.118765146, 0.13446547, 0.118263245, 0
1422, 681846464, 0.3578273, -0.013523501, 5.0383655E-4, 0.9336895, -0.11673131, 0.14332975, 0.11808777, 0
1425, 681896465, 0.3578188, -0.013514606, 4.9602834E-4, 0.9336928, -0.11108699, 0.13779037, 0.12904167, 0
1428, 681946466, 0.3578175, -0.0135173, 4.6236278E-4, 0.9336933, -0.10560561, 0.13462928, 0.1516819, 0
1430, 681979800, 0.35781503, -0.013501818, 4.529919E-4, 0.9336944, -0.11556098, 0.1463704, 0.1470766, 0
1433, 682029801, 0.3578147, -0.013504836, 4.4047105E-4, 0.9336945, -0.110248275, 0.1401704, 0.14099216, 0
1436, 682079802, 0.35782644, -0.013470801, 4.026384E-4, 0.93369055, -0.11061555, 0.14783867, 0.13304138, 0
1439, 682129803, 0.35783765, -0.013477585, 3.998151E-4, 0.93368614, -0.10786784, 0.14136903, 0.11702061, 0
1443, 682196471, 0.35783997, -0.013447702, 3.9519044E-4, 0.9336857, -0.12102905, 0.13951422, 0.13294983, 0
1445, 682229805, 0.35784024, -0.013453204, 3.963975E-4, 0.9336855, -0.117121905, 0.14690484, 0.10881996, 0
1448, 682279806, 0.3578314, -0.013448395, 3.7870236E-4, 0.933689, -0.10954118, 0.12915619, 0.14273453, 0
1451, 682329807, 0.35782975, -0.013422343, 3.7183287E-4, 0.9336901, -0.10829528, 0.12814164, 0.12868404, 0
1453, 682363141, 0.35783622, -0.013401387, 3.6273318E-4, 0.9336878, -0.099086516, 0.1311852, 0.13071918, 0
1456, 682413142, 0.35783693, -0.0133862225, 3.4196558E-4, 0.93368775, -0.100979365, 0.13794667, 0.1348753, 0
1459, 682463143, 0.35783875, -0.013361353, 3.1163357E-4, 0.93368745, -0.10839067, 0.13435106, 0.13733673, 0
1462, 682513144, 0.35786423, -0.013386058, 3.490011E-4, 0.93367726, -0.11233345, 0.12107696, 0.12792301, 0
1464, 682546478, 0.3578666, -0.013383734, 3.2330916E-4, 0.93367654, -0.09990278, 0.14660774, 0.12622452, 0
1467, 682596479, 0.35786653, -0.013369765, 3.1791738E-4, 0.93367666, -0.11195323, 0.11959789, 0.12627697, 0
1470, 682646480, 0.35782328, -0.013364722, 3.1437067E-4, 0.93369323, -0.12145361, 0.12695351, 0.15530396, 0
1472, 682679814, 0.35783887, -0.013370487, 2.8410947E-4, 0.93368727, -0.10950271, 0.12696731, 0.13037205, 0
1475, 682729815, 0.35369152, -0.009216844, 0.0031575449, 0.93531114, -0.13336103, 0.13898458, 0.039905548, 0
1478, 682779816, 0.34594294, -0.007673312, 0.0044977022, 0.9382131, -0.20650895, 0.064620875, 0.12462616, 0
1480, 682813150, 0.34586298, -0.007660985, 0.004450047, 0.9382428, -0.10766273, 0.14005941, 0.11380768, 0
1483, 682863151, 0.34578878, -0.007654675, 0.004386345, 0.9382706, -0.13003854, 0.1414081, 0.11515236, 0
1486, 682913152, 0.34563813, -0.007719973, 0.0042849025, 0.93832606, -0.10275792, 0.1464248, 0.146842, 0
1489, 682963153, 0.34548706, -0.0077830898, 0.0042044935, 0.93838143, -0.103155166, 0.13380142, 0.13885307, 0
1491, 682996487, 0.34547853, -0.007787578, 0.0041869595, 0.9383847, -0.11149412, 0.13811688, 0.13127041, 0
1494, 683046488, 0.34547758, -0.007758258, 0.004176594, 0.9383853, -0.11417679, 0.14314546, 0.12485123, 0
1497, 683096489, 0.3454753, -0.0077362778, 0.004147927, 0.9383864, -0.12351053, 0.13756764, 0.12933159, 0
1499, 683129823, 0.34547102, -0.0076953, 0.0041417982, 0.93838847, -0.08667328, 0.14274085, 0.1423006, 0
1502, 683179824, 0.34547704, -0.0076761586, 0.0041033044, 0.93838656, -0.10847415, 0.13452348, 0.13281918, 0
1505, 683229825, 0.3454754, -0.0076481467, 0.004065053, 0.9383875, -0.11888189, 0.13036428, 0.11267567, 0
1507, 683263159, 0.3454867, -0.0076341294, 0.004051329, 0.9383836, -0.109982386, 0.13404033, 0.13720703, 0
1510, 683313160, 0.34548745, -0.0075933435, 0.004010234, 0.93838376, -0.10904996, 0.13113788, 0.100206375, 0
1513, 683363161, 0.3454684, -0.0075851046, 0.0039629964, 0.9383911, -0.115775496, 0.12035212, 0.12642765, 0
1516, 683413162, 0.34564105, -0.007534582, 0.003933112, 0.93832797, -0.12688348, 0.12168425, 0.1487999, 0
1518, 683446496, 0.3456239, -0.0075305426, 0.0039169383, 0.9383343, -0.11659885, 0.13866137, 0.1179266, 0
1522, 683513164, 0.34553626, -0.007521241, 0.0038823548, 0.9383669, -0.10938157, 0.12262268, 0.116189, 0
1525, 683563165, 0.34549454, -0.0074959844, 0.003850726, 0.9383827, -0.12171307, 0.10593661, 0.124848366, 0
1528, 683613166, 0.34532344, -0.007522367, 0.0037695398, 0.93844575, -0.09636267, 0.12146661, 0.12633514, 0
1530, 683646500, 0.3453191, -0.0075155036, 0.0037560645, 0.9384474, -0.110979, 0.11921216, 0.1222744, 0
1533, 683696501, 0.34529927, -0.00749436, 0.003714762, 0.93845505, -0.12018272, 0.111598715, 0.1366682, 0
1536, 683746502, 0.34529802, -0.007462715, 0.0036883422, 0.9384558, -0.106416866, 0.117182046, 0.118904114, 0
1539, 683796503, 0.34530854, -0.0074563418, 0.0036739626, 0.93845206, -0.104906015, 0.11038009, 0.1266365, 0
1541, 683829837, 0.34530526, -0.0074226055, 0.0036617017, 0.9384537, -0.107902735, 0.12788986, 0.13422108, 0
1544, 683879838, 0.34541398, -0.0073901964, 0.0036592288, 0.93841386, -0.1291434, 0.12798327, 0.12740898, 0
1547, 683929839, 0.3452097, -0.0074200276, 0.0035894085, 0.93848896, -0.095842384, 0.12179035, 0.12260342, 0
1551, 683996507, 0.34519076, -0.007421808, 0.0035507027, 0.9384961, -0.11078998, 0.13141486, 0.10919666, 0
1553, 684029841, 0.34517622, -0.0074259206, 0.003523174, 0.9385016, -0.09437994, 0.12175131, 0.13400173, 0
1556, 684079842, 0.34518027, -0.007400115, 0.0034865031, 0.93850034, -0.097992964, 0.124259666, 0.1330471, 0
1559, 684129843, 0.345127, -0.0073756217, 0.0034844128, 0.9385202, -0.09996392, 0.1242033, 0.14006329, 0
1561, 684163177, 0.34511694, -0.0073492043, 0.00347727, 0.9385242, -0.102629274, 0.09525883, 0.1154747, 0
1564, 684213178, 0.34511486, -0.0073040826, 0.0034538456, 0.9385253, -0.11704358, 0.12533568, 0.13451195, 0
1567, 684263179, 0.3444014, -0.0070024673, 0.003577746, 0.93878925, -0.20903191, 0.13034266, 0.12594795, 0
1570, 684313180, 0.34282956, -0.0072695045, 0.0034525406, 0.9393628, -0.22460231, 0.17930105, 0.09817314, 0
1572, 684346514, 0.34033638, -0.0069568334, 0.0037894563, 0.94027007, -0.08326206, 0.06453793, 0.12965107, 0
1575, 684396515, 0.34033847, -0.0069182776, 0.003765716, 0.94026965, -0.10546432, 0.12160099, 0.14919853, 0
1579, 684463183, 0.34033498, -0.0068735485, 0.0037306694, 0.94027144, -0.104530595, 0.10764431, 0.13764095, 0
1582, 684513184, 0.33959267, -0.006834327, 0.0038768896, 0.9405394, -0.05195353, 0.1250676, 0.13636303, 0
1584, 684546518, 0.33855334, -0.006851293, 0.0040581776, 0.9409131, -0.021446675, 0.14353476, 0.1330719, 0
1587, 684596519, 0.33606005, -0.007042182, 0.0027401994, 0.94181, 0.14654076, 0.14744242, 0.07955742, 0
1590, 684646520, 0.33605537, -0.0066925283, 0.0028741274, 0.94181377, -0.102770254, 0.09027443, 0.12617207, 0
1593, 684696521, 0.33605367, -0.0066758962, 0.0028552876, 0.9418145, -0.10913234, 0.10293064, 0.15962124, 0
1595, 684729855, 0.33601835, -0.0066595166, 0.0028341883, 0.9418273, -0.09360813, 0.114665076, 0.13729477, 0
1598, 684779856, 0.3359921, -0.0066310945, 0.0028116475, 0.9418369, -0.10380001, 0.123632364, 0.12045765, 0
1601, 684829857, 0.33599207, -0.0066007455, 0.0027961738, 0.9418373, -0.094564736, 0.10787476, 0.12574005, 0
1603, 684863191, 0.33597133, -0.006588532, 0.0027842955, 0.9418447, -0.10422002, 0.103349835, 0.13603401, 0
1606, 684913192, 0.3359686, -0.0065600956, 0.002760071, 0.9418459, -0.10481009, 0.10466556, 0.12801647, 0
1609, 684963193, 0.33596596, -0.006519446, 0.0027295938, 0.9418473, -0.08947356, 0.11721714, 0.11717701, 0
1611, 684996527, 0.33596706, -0.006492374, 0.002699089, 0.9418472, -0.095692866, 0.10085116, 0.113446236, 0
1614, 685046528, 0.33595824, -0.0064529446, 0.0026777156, 0.9418507, -0.09968819, 0.11496032, 0.11610794, 0
1617, 685096529, 0.33594856, -0.006427274, 0.002662835, 0.9418544, -0.092329934, 0.12151821, 0.13322163, 0
1620, 685146530, 0.33595043, -0.006390138, 0.0026324189, 0.941854, -0.09778719, 0.123606086, 0.13926888, 0
1622, 685179864, 0.3359492, -0.0063720513, 0.0026078764, 0.94185454, -0.0855538, 0.09836118, 0.116633415, 0
1625, 685229865, 0.33595887, -0.006347573, 0.0025888893, 0.94185144, -0.09514006, 0.11213411, 0.13707256, 0
1628, 685279866, 0.3359574, -0.006312878, 0.0025632917, 0.9418522, -0.11420241, 0.115911685, 0.11855221, 0
1630, 685313200, 0.335952, -0.0062995213, 0.0025622428, 0.94185424, -0.100854404, 0.120188124, 0.118421555, 0
1633, 685363201, 0.33596534, -0.006268101, 0.0025529154, 0.94184977, -0.097348735, 0.10119353, 0.12136936, 0
1636, 685413202, 0.3359603, -0.0062394287, 0.002515974, 0.9418518, -0.09224294, 0.113724895, 0.11786842, 0
1638, 685446536, 0.33595943, -0.006220746, 0.0024986148, 0.9418523, -0.098136455, 0.10165716, 0.13975525, 0
1641, 685496537, 0.33596182, -0.006174522, 0.0024874844, 0.94185174, -0.08758337, 0.10064461, 0.13131428, 0
1644, 685546538, 0.3359857, -0.006170594, 0.0024715993, 0.94184333, -0.08914382, 0.11217636, 0.14465427, 0
1646, 685579872, 0.3359864, -0.006155319, 0.0024548464, 0.9418433, -0.08357012, 0.09627715, 0.14442348, 0
1649, 685629873, 0.33598885, -0.006127389, 0.0024301533, 0.94184256, -0.10097361, 0.10364985, 0.115605354, 0
1652, 685679874, 0.33598378, -0.0060960343, 0.002409347, 0.9418447, -0.090760194, 0.099373534, 0.1443491, 0
1655, 685729875, 0.33598435, -0.0060459585, 0.0023861725, 0.9418449, -0.08796993, 0.10605222, 0.15051842, 0
1659, 685796543, 0.33599213, -0.0059933397, 0.002358638, 0.9418425, -0.09274565, 0.11084805, 0.16023922, 0
1661, 685829877, 0.33598635, -0.00596895, 0.002338337, 0.94184476, -0.09776155, 0.08419456, 0.12646198, 0
1664, 685879878, 0.33598503, -0.0059468425, 0.0023235767, 0.9418454, -0.09612002, 0.10128158, 0.13680553, 0
1667, 685929879, 0.33598047, -0.0059243063, 0.0022989854, 0.9418472, -0.09455999, 0.10221388, 0.13129711, 0
1669, 685963213, 0.33596867, -0.0059011504, 0.0022847282, 0.9418516, -0.07679077, 0.096051216, 0.12519932, 0
1672, 686013214, 0.33595043, -0.0058600674, 0.0022629134, 0.9418585, -0.09720683, 0.10201345, 0.122816086, 0
1675, 686063215, 0.3359511, -0.005828958, 0.0022442508, 0.94185835, -0.07286581, 0.104646645, 0.13598156, 0
1678, 686113216, 0.3359387, -0.0057997527, 0.002223062, 0.9418632, -0.08744614, 0.11694718, 0.13401699, 0
1680, 686146550, 0.33592287, -0.00577494, 0.0022035774, 0.9418689, -0.10077435, 0.102764845, 0.14888096, 0
1683, 686196551, 0.33592245, -0.00571679, 0.002170835, 0.9418695, -0.10124558, 0.082410924, 0.13453674, 0
1687, 686263219, 0.33583674, -0.0057029556, 0.0021502038, 0.9419001, -0.09264559, 0.08786206, 0.13323593, 0
1690, 686313220, 0.33578685, -0.005681137, 0.002130743, 0.9419181, -0.09009715, 0.09626038, 0.13269901, 0
1692, 686346554, 0.33584374, -0.005661478, 0.0021085783, 0.941898, -0.06946317, 0.1077983, 0.1209631, 0
1695, 686396555, 0.33584985, -0.0056257653, 0.0020951524, 0.94189596, -0.0741191, 0.08457198, 0.13381672, 0
1698, 686446556, 0.33584777, -0.005592687, 0.0020694141, 0.9418971, -0.091540456, 0.09770765, 0.1241045, 0
1701, 686496557, 0.33587733, -0.0055766148, 0.0020640455, 0.9418866, -0.0856603, 0.100782275, 0.14376926, 0
1703, 686529891, 0.33586484, -0.005572781, 0.0020579763, 0.9418911, -0.09841517, 0.100033045, 0.15178776, 0
1706, 686579892, 0.3358028, -0.0055586747, 0.0020455818, 0.9419133, -0.07329707, 0.09485854, 0.13109684, 0
1709, 686629893, 0.336583, -0.005525584, 0.002105491, 0.94163483, -0.10743206, 0.08644232, 0.11232948, 0
1711, 686663227, 0.33664367, -0.0055016563, 0.0020911389, 0.9416134, -0.08554322, 0.099891126, 0.13201237, 0
1715, 686729895, 0.3366326, -0.0054829684, 0.0020489206, 0.9416175, -0.09727033, 0.09819963, 0.120672226, 0
1718, 686779896, 0.33661148, -0.005442476, 0.0020357359, 0.94162524, -0.090003714, 0.10454386, 0.12491703, 0
1721, 686829897, 0.33661005, -0.0054104906, 0.0020108712, 0.9416261, -0.07803258, 0.08786073, 0.12461281, 0
1723, 686863231, 0.33661216, -0.005403061, 0.001999596, 0.9416254, -0.061896738, 0.082669914, 0.13022041, 0
1726, 686913232, 0.33511657, -0.0055277357, 0.0021998044, 0.9421576, 0.028546099, 0.19402179, 0.14680767, 0
1729, 686963233, 0.33252734, -0.0055678682, 0.0025028125, 0.9430737, -0.44864368, 0.03518624, 0.08979225, 0
1732, 687013234, 0.33208823, -0.0058377385, 0.0022719507, 0.94322723, -0.081581384, 0.09832883, 0.13973331, 0
1734, 687046568, 0.33203495, -0.0060682604, 0.0020945314, 0.943245, -0.09012716, 0.074000776, 0.13113785, 0
1737, 687096569, 0.3320021, -0.0064239665, 0.0018608576, 0.9432546, -0.078041695, 0.073820755, 0.12903309, 0
1740, 687146570, 0.33200356, -0.0064226654, 0.0018338775, 0.9432541, -0.07594206, 0.085754685, 0.11988735, 0
1742, 687179904, 0.3320059, -0.006386462, 0.0018078957, 0.9432536, -0.0837966, 0.06603703, 0.12693691, 0
1745, 687229905, 0.3319784, -0.0063644326, 0.001781577, 0.9432634, -0.09103772, 0.098220944, 0.117126465, 0
1748, 687279906, 0.33194688, -0.006365211, 0.0017762537, 0.94327456, -0.08339637, 0.08997117, 0.1324606, 0
1750, 687313240, 0.33195412, -0.006333934, 0.001761368, 0.94327223, -0.08103153, 0.090513065, 0.12915897, 0
1753, 687363241, 0.33195353, -0.0063122567, 0.0017257723, 0.9432727, -0.069832616, 0.09137707, 0.1313839, 0
1756, 687413242, 0.33193046, -0.006303652, 0.0017124776, 0.9432808, -0.08587143, 0.08689527, 0.12496853, 0
1759, 687463243, 0.33191538, -0.006281938, 0.0017067309, 0.9432864, -0.06870626, 0.08357331, 0.1169548, 0
1761, 687496577, 0.33192354, -0.006248176, 0.0016833013, 0.94328374, -0.08592722, 0.08661022, 0.12480259, 0
1764, 687546578, 0.33191603, -0.006229662, 0.0016665183, 0.94328654, -0.0816302, 0.070167564, 0.12384987, 0
1767, 687596579, 0.33190614, -0.006200075, 0.001643432, 0.9432903, -0.076053455, 0.088727474, 0.12926102, 0
1769, 687629913, 0.33189845, -0.0061811, 0.0016384176, 0.9432931, -0.08948074, 0.09151343, 0.115213394, 0
1772, 687679914, 0.331902, -0.0061671403, 0.0016218196, 0.943292, -0.09194176, 0.08689783, 0.13314724, 0
1775, 687729915, 0.33190852, -0.006125745, 0.0016026322, 0.94329, -0.078327835, 0.07303373, 0.13640404, 0
1777, 687763249, 0.3319019, -0.0061145057, 0.001596512, 0.9432923, -0.0719468, 0.08161013, 0.11953354, 0
1780, 687813250, 0.3319005, -0.0060708052, 0.0015718442, 0.94329315, -0.091546714, 0.084949665, 0.1193943, 0
1783, 687863251, 0.3318926, -0.0060457354, 0.0015511318, 0.9432962, -0.066990286, 0.07622509, 0.11385536, 0
1786, 687913252, 0.33189046, -0.005997402, 0.0015133743, 0.9432973, -0.07286426, 0.07619305, 0.1436367, 0
1788, 687946586, 0.33187652, -0.005971447, 0.0014980669, 0.9433024, -0.07726777, 0.070695505, 0.13915253, 0
1791, 687996587, 0.33186433, -0.005972149, 0.0014678646, 0.9433068, -0.06256922, 0.08404999, 0.13951683, 0
1795, 688063255, 0.33186132, -0.005911489, 0.0014611351, 0.9433082, -0.07490328, 0.0822032, 0.10928917, 0
1798, 688113256, 0.3318464, -0.0058692233, 0.001435681, 0.9433138, -0.07085443, 0.08317709, 0.12321472, 0
1800, 688146590, 0.3318405, -0.0058545372, 0.0014245722, 0.9433159, -0.07495638, 0.088505656, 0.12627316, 0
1803, 688196591, 0.33184072, -0.005823117, 0.00138215, 0.9433161, -0.08025225, 0.069556266, 0.13101673, 0
1806, 688246592, 0.3318346, -0.005799666, 0.0013637887, 0.94331855, -0.06502804, 0.061774593, 0.124658585, 0
1809, 688296593, 0.3318156, -0.005754296, 0.0013431191, 0.9433255, -0.0736308, 0.06076815, 0.13357544, 0
1811, 688329927, 0.3318217, -0.005755152, 0.00132289, 0.94332325, -0.06991139, 0.06528232, 0.098864555, 0
1814, 688379928, 0.33181667, -0.0057153236, 0.0012990456, 0.9433254, -0.063850306, 0.049941164, 0.106580734, 0
1817, 688429929, 0.33175662, -0.0056876047, 0.0012914467, 0.94334674, -0.05894958, 0.06293136, 0.12911415, 0
1819, 688463263, 0.33173257, -0.005664106, 0.0012782163, 0.94335526, -0.07192824, 0.06814138, 0.15375614, 0
1823, 688529931, 0.331716, -0.0056455294, 0.0012742159, 0.9433612, -0.070399664, 0.07839016, 0.14041138, 0
1826, 688579932, 0.33172733, -0.005618286, 0.0012381554, 0.9433575, -0.0608203, 0.06658364, 0.12916374, 0
1829, 688629933, 0.3317222, -0.0056069274, 0.0012214886, 0.9433594, -0.07123193, 0.07366449, 0.14605427, 0
1831, 688663267, 0.3317258, -0.005580683, 0.0012135325, 0.94335824, -0.06872887, 0.078170314, 0.1399374, 0
1834, 688713268, 0.3317264, -0.0055456506, 0.0011844633, 0.94335824, -0.05507211, 0.07049337, 0.12240219, 0
1837, 688763269, 0.3317313, -0.005516624, 0.0011681585, 0.9433568, -0.065271035, 0.06772999, 0.13914871, 0
1840, 688813270, 0.33174378, -0.005486317, 0.0011446747, 0.9433526, -0.07406945, 0.0742469, 0.14501953, 0
1842, 688846604, 0.3317472, -0.0054643215, 0.0011299623, 0.9433516, -0.07276567, 0.060691394, 0.13742161, 0
1845, 688896605, 0.33173007, -0.0054503973, 0.0011201903, 0.9433577, -0.07159295, 0.07537976, 0.099944115, 0
1848, 688946606, 0.3317704, -0.0054584933, 0.0011183589, 0.9433436, -0.062839165, 0.06584275, 0.125144, 0
1852, 689013274, 0.33177552, -0.0054315724, 0.0010983294, 0.9433419, -0.054071482, 0.062005475, 0.12615299, 0
1854, 689046608, 0.3317673, -0.005422474, 0.0010815123, 0.94334495, -0.07655943, 0.07545962, 0.1360426, 0
1857, 689096609, 0.3317793, -0.0053905845, 0.0010720755, 0.94334084, -0.07120291, 0.05379084, 0.12129307, 0
1860, 689146610, 0.331794, -0.0053502717, 0.0010671243, 0.9433359, -0.060594775, 0.055341136, 0.14915276, 0
1862, 689179944, 0.33179438, -0.005350646, 0.0010694246, 0.9433357, -0.0624368, 0.06685144, 0.1430893, 0
1865, 689229945, 0.33178887, -0.0053538843, 0.0010510747, 0.9433377, -0.05634705, 0.074555956, 0.12294483, 0
1868, 689279946, 0.33179086, -0.005352792, 0.0010507287, 0.9433371, -0.0646103, 0.05640186, 0.12922478, 0
1871, 689329947, 0.33178288, -0.005322019, 0.0010244601, 0.9433402, -0.051365245, 0.07385893, 0.11824036, 0
1873, 689363281, 0.33179215, -0.005307349, 0.0010217518, 0.9433369, -0.061968777, 0.07579875, 0.128829, 0
1876, 689413282, 0.33178312, -0.0052878456, 0.0010059142, 0.94334024, -0.054896496, 0.053203706, 0.122208595, 0
1879, 689463283, 0.33177352, -0.005262029, 9.994821E-4, 0.94334376, -0.07294323, 0.06625895, 0.1241827, 0
1881, 689496617, 0.33177105, -0.0052601118, 9.886263E-4, 0.9433447, -0.06318047, 0.06753167, 0.12651348, 0
1884, 689546618, 0.3317687, -0.0052410397, 9.721477E-4, 0.94334555, -0.04849008, 0.07455241, 0.110975266, 0
1887, 689596619, 0.3317808, -0.005218237, 9.47588E-4, 0.94334155, -0.06712861, 0.06086875, 0.14492321, 0
1890, 689646620, 0.33177635, -0.0052111265, 9.462953E-4, 0.9433431, -0.05692929, 0.072771825, 0.14744663, 0
1892, 689679954, 0.33177933, -0.0051954607, 9.478049E-4, 0.9433422, -0.054639686, 0.05208129, 0.13363647, 0
1895, 689729955, 0.3317852, -0.0051795556, 9.365332E-4, 0.9433403, -0.05205185, 0.06785553, 0.12508774, 0
1898, 689779956, 0.33178243, -0.005111211, 9.149078E-4, 0.9433416, -0.05915522, 0.05238529, 0.10460281, 0
1900, 689813290, 0.3317773, -0.0050839814, 9.115431E-4, 0.94334364, -0.055637334, 0.061814282, 0.13383675, 0
1903, 689863291, 0.33177677, -0.0050467025, 9.0727175E-4, 0.943344, -0.059890933, 0.07757059, 0.11927223, 0
1906, 689913292, 0.33176428, -0.0050139665, 8.835725E-4, 0.9433486, -0.055041566, 0.07191372, 0.1278019, 0
1908, 689946626, 0.33175147, -0.0050006215, 8.761664E-4, 0.9433532, -0.04732027, 0.06502867, 0.12223911, 0
1911, 689996627, 0.33176848, -0.0049839886, 8.854018E-4, 0.94334733, -0.057834327, 0.06584815, 0.12496662, 0
1914, 690046628, 0.33177376, -0.0049730395, 8.75086E-4, 0.9433456, -0.054950595, 0.05804531, 0.11984348, 0
1916, 690079962, 0.33177102, -0.0049484754, 8.708988E-4, 0.9433466, -0.071803324, 0.057556994, 0.12139225, 0
1919, 690129963, 0.33177087, -0.004933084, 8.844923E-4, 0.9433468, -0.05205907, 0.07009695, 0.12735367, 0
1922, 690179964, 0.33180994, -0.0049411557, 7.7168836E-4, 0.94333315, -0.05212619, 0.07020531, 0.122665405, 0
1925, 690229965, 0.33181295, -0.0049211476, 7.6574885E-4, 0.9433323, -0.05587769, 0.06495922, 0.12555504, 0
1927, 690263299, 0.33180833, -0.0049100057, 7.606729E-4, 0.9433338, -0.050872535, 0.053749558, 0.11558914, 0
1931, 690329967, 0.3318064, -0.0048331157, 7.5001013E-4, 0.943335, -0.04471599, 0.08268958, 0.1325779, 0
1934, 690379968, 0.33181208, -0.0048245997, 7.2387495E-4, 0.94333315, -0.059246726, 0.06673894, 0.1452446, 0
1937, 690429969, 0.33179972, -0.004769617, 7.105735E-4, 0.9433378, -0.047241744, 0.055402704, 0.14201069, 0
1939, 690463303, 0.33180127, -0.004751274, 7.017848E-4, 0.9433374, -0.04162287, 0.055386078, 0.11482048, 0
1942, 690513304, 0.33180526, -0.004719138, 6.8652804E-4, 0.9433362, -0.05420929, 0.06164266, 0.13262653, 0
1945, 690563305, 0.3318141, -0.0046788873, 6.8058184E-4, 0.94333327, -0.055970076, 0.07859128, 0.13619232, 0
1948, 690613306, 0.33181337, -0.004660087, 6.5884815E-4, 0.9433337, -0.045157246, 0.04884489, 0.13749218, 0
1950, 690646640, 0.33180955, -0.004630633, 6.374241E-4, 0.94333506, -0.0541104, 0.06466015, 0.13971233, 0
1953, 690696641, 0.33179915, -0.0046097985, 6.325665E-4, 0.943339, -0.044786155, 0.049905863, 0.13376617, 0
1956, 690746642, 0.33179748, -0.004564783, 6.2379136E-4, 0.9433398, -0.04536237, 0.032043047, 0.14046192, 0
1960, 690813310, 0.33179948, -0.004528347, 6.087508E-4, 0.9433394, -0.060185753, 0.046082776, 0.13685703, 0
1962, 690846644, 0.3318024, -0.0045230314, 6.188647E-4, 0.9433384, -0.04903909, 0.061764047, 0.11107826, 0
1965, 690896645, 0.3318073, -0.0044940263, 6.127464E-4, 0.94333684, -0.057679553, 0.047375947, 0.12716675, 0
1968, 690946646, 0.33178696, -0.0044607315, 6.092657E-4, 0.94334424, -0.052436076, 0.052565936, 0.1217947, 0
1971, 690996647, 0.3317775, -0.0044236793, 5.989658E-4, 0.94334793, -0.04194766, 0.044905636, 0.116713524, 0
1973, 691029981, 0.33177966, -0.004420357, 5.8869255E-4, 0.9433471, -0.043427933, 0.064231716, 0.13772678, 0
1976, 691079982, 0.3317826, -0.00439102, 5.768369E-4, 0.94334614, -0.055181872, 0.05032773, 0.14773369, 0
1979, 691129983, 0.33177853, -0.0043727676, 5.611417E-4, 0.9433477, -0.048724767, 0.063167155, 0.14543915, 0
1981, 691163317, 0.33177894, -0.004343791, 5.5487937E-4, 0.9433478, -0.047742404, 0.041453503, 0.11253166, 0
1984, 691213318, 0.33176017, -0.004302722, 5.4002105E-4, 0.94335455, -0.05703791, 0.048221022, 0.14371967, 0
1988, 691279986, 0.33174872, -0.004264071, 5.114358E-4, 0.94335866, -0.036023304, 0.0442158, 0.11757946, 0
1991, 691329987, 0.33174577, -0.0042359554, 4.970617E-4, 0.94335973, -0.054807357, 0.048938088, 0.13759327, 0
1993, 691363321, 0.3317542, -0.0042153154, 4.8201976E-4, 0.94335693, -0.041671183, 0.05095877, 0.13276768, 0
1996, 691413322, 0.33175322, -0.004201665, 4.9775105E-4, 0.9433573, -0.039646007, 0.050936718, 0.112104416, 0
1999, 691463323, 0.33174035, -0.0041978, 4.806961E-4, 0.9433617, -0.039581817, 0.05755423, 0.13795185, 0
2002, 691513324, 0.33172882, -0.0041744565, 4.7368914E-4, 0.9433659, -0.03399611, 0.05070667, 0.13316822, 0
2004, 691546658, 0.3317237, -0.004175679, 4.799635E-4, 0.9433678, -0.045881122, 0.045754433, 0.14046288, 0
2007, 691596659, 0.33171245, -0.004154266, 4.8058896E-4, 0.9433717, -0.043721315, 0.050762273, 0.12748337, 0
2010, 691646660, 0.3317178, -0.0041487096, 4.6235352E-4, 0.9433698, -0.046023626, 0.045571394, 0.12746048, 0
2012, 691679994, 0.33171576, -0.0041224738, 4.419251E-4, 0.94337064, -0.041816473, 0.037971932, 0.15049553, 0
2015, 691729995, 0.3317238, -0.0040923627, 4.275954E-4, 0.9433678, -0.033826504, 0.06088075, 0.1366787, 0
2018, 691779996, 0.33171076, -0.004062894, 4.163316E-4, 0.9433725, -0.043408997, 0.041872025, 0.13818073, 0
2020, 691813330, 0.33171606, -0.004037117, 4.1919405E-4, 0.94337064, -0.03605939, 0.042564157, 0.14826393, 0
2023, 691863331, 0.33171976, -0.0040003927, 4.0437374E-4, 0.94336945, -0.01852137, 0.050023787, 0.14481354, 0
2026, 691913332, 0.33172035, -0.0039689112, 4.0576077E-4, 0.9433694, -0.026917554, 0.057725217, 0.12899017, 0
2029, 691963333, 0.3317034, -0.003947577, 3.95956E-4, 0.9433753, -0.057324786, 0.04883001, 0.12755871, 0
2031, 691996667, 0.33170483, -0.0039330483, 3.9543258E-4, 0.9433748, -0.04719913, 0.045453593, 0.12803555, 0
2034, 692046668, 0.3317035, -0.0038948113, 3.665857E-4, 0.9433754, -0.03475392, 0.05645057, 0.13093948, 0
2037, 692096669, 0.3316931, -0.0038706092, 3.462432E-4, 0.9433792, -0.037105996, 0.04295148, 0.13634396, 0
2039, 692130003, 0.3317036, -0.0038610687, 3.3817746E-4, 0.9433755, -0.033432316, 0.039160814, 0.13353157, 0
2042, 692180004, 0.33201352, -0.004077245, 2.5365799E-4, 0.94326556, -0.038160313, 0.040966712, 0.13188267, 0
2045, 692230005, 0.33201247, -0.0040594377, 2.481324E-4, 0.9432659, -0.047675837, 0.042064037, 0.13742638, 0
2047, 692263339, 0.33200747, -0.004028601, 2.3925555E-4, 0.94326764, -0.05659161, 0.04037319, 0.15091324, 0
2050, 692313340, 0.33200833, -0.004014203, 2.3380612E-4, 0.9432676, -0.029083503, 0.049644846, 0.14323997, 0
2053, 692363341, 0.33199307, -0.0039827134, 2.3385751E-4, 0.94327307, -0.04403424, 0.038158357, 0.13388062, 0
2056, 692413342, 0.33199185, -0.003961013, 2.2847629E-4, 0.94327354, -0.03721142, 0.049771924, 0.13315773, 0
2058, 692446676, 0.33199713, -0.0039567174, 2.2307725E-4, 0.9432717, -0.04109137, 0.042663686, 0.12427044, 0
2061, 692496677, 0.33199534, -0.003966331, 2.2969491E-4, 0.9432723, -0.045741893, 0.04077775, 0.1454649, 0
2064, 692546678, 0.33198807, -0.0039714007, 2.514438E-4, 0.9432748, -0.036873974, 0.05338335, 0.1445589, 0
2068, 692613346, 0.33199528, -0.003961504, 2.4266342E-4, 0.9432722, -0.056619573, 0.05965495, 0.13048935, 0
2070, 692646680, 0.33198795, -0.0039562513, 2.2798535E-4, 0.94327486, -0.03948668, 0.05005264, 0.12040329, 0
2073, 692696681, 0.33198583, -0.0039370665, 2.2042042E-4, 0.94327563, -0.018667126, 0.043038335, 0.13466358, 0
2076, 692746682, 0.3319672, -0.003926376, 2.0897231E-4, 0.9432823, -0.04238083, 0.05539029, 0.12977695, 0
2078, 692780016, 0.33197594, -0.0039156824, 1.9624004E-4, 0.9432792, -0.0514021, 0.043272164, 0.13102245, 0
2081, 692830017, 0.331967, -0.0039129877, 1.9638464E-4, 0.94328254, -0.038978457, 0.04019335, 0.12932205, 0
2084, 692880018, 0.33195058, -0.0038962434, 1.8588797E-4, 0.94328827, -0.04399674, 0.04330569, 0.10899067, 0
2087, 692930019, 0.33194962, -0.00389679, 1.6933796E-4, 0.9432887, -0.034229144, 0.029358625, 0.123643875, 0
2089, 692963353, 0.33195093, -0.0038849693, 1.6676364E-4, 0.9432883, -0.048516702, 0.05484573, 0.12101269, 0
2092, 693013354, 0.33195436, -0.0038757839, 1.5218105E-4, 0.94328713, -0.03650089, 0.040519293, 0.10529041, 0
2096, 693080022, 0.33198148, -0.0038560664, 1.4312186E-4, 0.9432777, -0.028983563, 0.03466578, 0.10959816, 0
2099, 693130023, 0.3319731, -0.0038039286, 1.2210466E-4, 0.94328094, -0.034964908, 0.042438522, 0.13405228, 0
2101, 693163357, 0.33197743, -0.003776068, 1.241906E-4, 0.9432795, -0.04541775, 0.048102465, 0.14237022, 0
2104, 693213358, 0.3319818, -0.0037755975, 1.3015687E-4, 0.9432781, -0.044074893, 0.04541535, 0.12792015, 0
2107, 693263359, 0.33197904, -0.003741341, 1.2596752E-4, 0.94327915, -0.034545206, 0.031185977, 0.14022636, 0
2110, 693313360, 0.33198118, -0.0037161894, 1.0770623E-4, 0.9432785, -0.032567732, 0.04584825, 0.12511158, 0
2112, 693346694, 0.33197588, -0.003692617, 8.670834E-5, 0.9432805, -0.03563518, 0.0509784, 0.123909, 0
2115, 693396695, 0.33199003, -0.003671528, 8.295049E-5, 0.9432757, -0.021447951, 0.037996117, 0.1361723, 0
2118, 693446696, 0.33196816, -0.0036531668, 6.1634135E-5, 0.94328344, -0.030405752, 0.03569207, 0.12827206, 0
2120, 693480030, 0.33195966, -0.003619326, 4.4951477E-5, 0.9432867, -0.033838037, 0.04396579, 0.14426994, 0
2124, 693546698, 0.33196568, -0.0036059306, 4.5596964E-5, 0.9432847, -0.02950136, 0.03794316, 0.13945007, 0
2127, 693596699, 0.33198273, -0.0035822187, 4.740314E-5, 0.94327885, -0.036868297, 0.0369053, 0.13230896, 0
2130, 693646700, 0.33198506, -0.003553875, 4.1234136E-5, 0.94327825, -0.034649, 0.03415251, 0.14269733, 0
2132, 693680034, 0.3319786, -0.0035365473, 3.573841E-5, 0.9432806, -0.054545287, 0.033411693, 0.14261532, 0
2135, 693730035, 0.33197024, -0.0035184093, 3.630544E-5, 0.9432837, -0.034940958, 0.047450032, 0.13933945, 0
2138, 693780036, 0.33196503, -0.0034894438, 1.7326609E-5, 0.9432857, -0.02142471, 0.01811838, 0.14820671, 0
2141, 693830037, 0.33196613, -0.0034459876, -1.0706834E-5, 0.9432856, -0.018849336, 0.038926397, 0.13022804, 0
2143, 693863371, 0.33196154, -0.0034334324, -1.5299185E-5, 0.9432872, -0.042936753, 0.038575355, 0.14402103, 0
2146, 693913372, 0.33195615, -0.0034329097, -1.019083E-5, 0.94328916, -0.034415223, 0.033644132, 0.13300228, 0
2149, 693963373, 0.331957, -0.0034096234, -2.406152E-6, 0.94328904, -0.020186605, 0.044018816, 0.12451553, 0
2151, 693996707, 0.33195114, -0.003393042, -7.0238602E-6, 0.9432913, -0.033024408, 0.03779344, 0.121061325, 0
2154, 694046708, 0.3319654, -0.0033880183, -7.4043055E-7, 0.9432862, -0.031468403, 0.032489605, 0.14717197, 0
2157, 694096709, 0.33196297, -0.0034059351, -8.824994E-6, 0.94328696, -0.018300703, 0.040561482, 0.12102413, 0
2160, 694146710, 0.33197168, -0.003372337, -1.3809979E-5, 0.94328403, -0.023245802, 0.037068058, 0.13364792, 0
2162, 694180044, 0.33209917, -0.0034304408, -5.2668955E-5, 0.9432388, -0.03348042, 0.038554057, 0.12668896, 0
2165, 694230045, 0.33210713, -0.003428216, -4.379255E-5, 0.9432358, -0.0264728, 0.03798928, 0.1140337, 0
2168, 694280046, 0.33210754, -0.0033955565, -3.3809905E-5, 0.94323575, -0.026457133, 0.03769934, 0.13395596, 0
2170, 694313380, 0.33211568, -0.0033990627, -4.8611364E-5, 0.9432328, -0.024977569, 0.044638116, 0.13703918, 0
2173, 694363381, 0.3321339, -0.0033863017, -5.2454438E-5, 0.94322646, -0.036252968, 0.024731006, 0.12884235, 0
2176, 694413382, 0.33214527, -0.0033731263, -6.0850674E-5, 0.94322246, -0.032234814, 0.05017573, 0.14003563, 0
2178, 694446716, 0.33216754, -0.0033796383, -7.511615E-5, 0.9432145, -0.02370064, 0.03957008, 0.13059044, 0
2181, 694496717, 0.33216324, -0.003371148, -8.9931105E-5, 0.94321597, -0.016938636, 0.047976714, 0.13384724, 0
2184, 694546718, 0.33215883, -0.00338162, -1.0181993E-4, 0.94321746, -0.01635769, 0.03259419, 0.12424564, 0
2187, 694596719, 0.33215052, -0.0033521561, -1.0356472E-4, 0.94322044, -0.03497489, 0.037232976, 0.13646221, 0
2189, 694630053, 0.332167, -0.0033459798, -9.376239E-5, 0.9432146, -0.012477229, 0.033045422, 0.12847233, 0
2192, 694680054, 0.33216497, -0.0033235927, -1.0777918E-4, 0.9432153, -0.048081968, 0.033244558, 0.132905, 0
2195, 694730055, 0.33216143, -0.0033255045, -1.1368027E-4, 0.9432166, -0.039073586, 0.031827282, 0.13105583, 0
2197, 694763389, 0.33214852, -0.0033163277, -1.20654586E-4, 0.9432211, -0.033954725, 0.03262465, 0.1271925, 0
2200, 694813390, 0.33214414, -0.0033044757, -1.0911198E-4, 0.94322264, -0.030665083, 0.040462267, 0.14263153, 0
2204, 694880058, 0.3321697, -0.0032634798, -1.3187365E-4, 0.9432137, -0.02565699, 0.042472903, 0.14287567, 0
2207, 694930059, 0.33218116, -0.0032629021, -1.4656436E-4, 0.94320965, -0.022329621, 0.032626435, 0.120565414, 0
2209, 694963393, 0.33218402, -0.0032559496, -1.4639113E-4, 0.9432087, -0.021062998, 0.03242212, 0.13939667, 0
2212, 695013394, 0.3321634, -0.0032300162, -1.6693625E-4, 0.9432161, -0.030254735, 0.04289496, 0.16046333, 0
2215, 695063395, 0.33216342, -0.003206708, -1.778313E-4, 0.9432161, -0.009816976, 0.042052217, 0.14415455, 0
2218, 695113396, 0.33219087, -0.0031871684, -1.9222368E-4, 0.9432065, -0.026034864, 0.024687033, 0.13980484, 0
2220, 695146730, 0.33219627, -0.003191372, -2.0131218E-4, 0.9432045, -0.01731701, 0.020504145, 0.12321186, 0
2223, 695196731, 0.33219135, -0.0031822305, -2.0353097E-4, 0.94320637, -0.03305764, 0.031473573, 0.12839031, 0
2226, 695246732, 0.3322017, -0.0031615677, -2.0584972E-4, 0.94320273, -0.0277617, 0.034012977, 0.13632488, 0
2228, 695280066, 0.3322311, -0.0031493579, -2.1802528E-4, 0.9431925, -0.031126365, 0.03127304, 0.13335323, 0
2232, 695346734, 0.33221644, -0.0031252194, -2.3589135E-4, 0.94319767, -0.02635357, 0.0373344, 0.12903309, 0
2235, 695396735, 0.3322065, -0.0030940527, -2.2535474E-4, 0.9432013, -0.018279057, 0.043988347, 0.133461, 0
2238, 695446736, 0.33221012, -0.00308694, -2.3002789E-4, 0.94320005, -0.020553496, 0.02398382, 0.15014076, 0
2241, 695496737, 0.33219686, -0.003067928, -2.4192118E-4, 0.9432048, -0.025503138, 0.033800207, 0.12688828, 0
2243, 695530071, 0.33220786, -0.0030529578, -2.4672542E-4, 0.943201, -0.009091391, 0.023901854, 0.12215996, 0
2246, 695580072, 0.33221722, -0.003046568, -2.517332E-4, 0.9431978, -0.03281559, 0.03861127, 0.11696434, 0
2249, 695630073, 0.33222196, -0.003035114, -2.684349E-4, 0.9431961, -0.03479658, 0.02472494, 0.11878586, 0
2251, 695663407, 0.3322081, -0.0030294252, -2.761784E-4, 0.94320107, -0.019055137, 0.021755926, 0.13061047, 0
2254, 695713408, 0.33220872, -0.003024644, -2.7396384E-4, 0.9432008, -0.027330033, 0.02091444, 0.11782551, 0
2257, 695763409, 0.33222237, -0.0030203862, -2.748973E-4, 0.94319606, -0.016433861, 0.030455261, 0.11976242, 0
2261, 695830077, 0.33222786, -0.003003235, -2.7672807E-4, 0.9431944, -0.022871198, 0.035976835, 0.1320734, 0
2263, 695863411, 0.33222476, -0.002987735, -2.8657046E-4, 0.94319534, -0.0273346, 0.02093979, 0.1246109, 0
2266, 695913412, 0.332241, -0.0029798744, -2.9988767E-4, 0.9431897, -0.042080928, 0.035181746, 0.12938976, 0
2269, 695963413, 0.3322481, -0.0029964626, -3.061322E-4, 0.9431873, -0.035620883, 0.033493932, 0.11635685, 0
2272, 696013414, 0.33224323, -0.002972361, -3.1293393E-4, 0.94318897, -0.030334871, 0.04294259, 0.12333107, 0
2274, 696046748, 0.33224034, -0.0029559482, -3.0682835E-4, 0.94319016, -0.029135302, 0.0388789, 0.15853596, 0
2277, 696096749, 0.3322398, -0.0029591462, -3.090097E-4, 0.9431904, -0.023007035, 0.038505152, 0.12893295, 0
2280, 696146750, 0.33224273, -0.0029387495, -3.1744066E-4, 0.9431895, -0.02332185, 0.04543054, 0.10888958, 0
2282, 696180084, 0.33207446, -0.002977141, -3.1099372E-4, 0.9432488, -0.029121818, 0.037978366, 0.13356781, 0
2285, 696230085, 0.33207363, -0.0029584074, -3.2940926E-4, 0.94324905, -0.03488088, 0.026811339, 0.13636017, 0
2288, 696280086, 0.33207256, -0.0029570875, -3.2323334E-4, 0.94324946, -0.029029349, 0.029220968, 0.11971855, 0
2290, 696313420, 0.33206436, -0.0029562982, -3.2945455E-4, 0.94325244, -0.026167618, 0.03222315, 0.1376667, 0
2293, 696363421, 0.33207232, -0.0029328596, -3.2629602E-4, 0.9432498, -0.038733922, 0.033272568, 0.14245987, 0
2296, 696413422, 0.3320676, -0.002949285, -3.2870797E-4, 0.94325155, -0.020097263, 0.024865288, 0.15707779, 0
2299, 696463423, 0.3320851, -0.0029601636, -3.2759216E-4, 0.9432454, -0.025820967, 0.021665586, 0.13909245, 0
2301, 696496757, 0.3320948, -0.002946299, -3.29379E-4, 0.94324213, -0.025508555, 0.027482832, 0.13298798, 0
2304, 696546758, 0.33210734, -0.0029550283, -3.3659863E-4, 0.9432377, -0.029228901, 0.028756104, 0.13215923, 0
2307, 696596759, 0.3321074, -0.0029577508, -3.5406245E-4, 0.9432377, -0.026325803, 0.020841345, 0.12617207, 0
2309, 696630093, 0.33209914, -0.002962586, -3.5511423E-4, 0.9432407, -0.012981617, 0.018063888, 0.11970425, 0
2312, 696680094, 0.33209145, -0.0029407046, -3.7035422E-4, 0.94324356, -0.022405423, 0.027186245, 0.13791847, 0
2315, 696730095, 0.33208945, -0.0029349532, -3.717905E-4, 0.9432444, -0.022970255, 0.023118708, 0.13142586, 0
2317, 696763429, 0.3320835, -0.0029404906, -3.7017936E-4, 0.9432465, -0.020184727, 0.028131984, 0.16546345, 0
2320, 696813430, 0.3320836, -0.0029391234, -3.684629E-4, 0.9432466, -0.02550729, 0.038415387, 0.11781311, 0
2323, 696863431, 0.3321045, -0.0029225198, -3.6714604E-4, 0.9432392, -0.022804104, 0.026679253, 0.1258421, 0
2326, 696913432, 0.33210444, -0.00290658, -3.6331068E-4, 0.94323915, -0.031872485, 0.027651193, 0.1204319, 0
2328, 696946766, 0.332107, -0.0028900234, -3.742411E-4, 0.94323826, -0.01955222, 0.022137618, 0.13188171, 0
2331, 696996767, 0.33210957, -0.0029041497, -3.732634E-4, 0.9432372, -0.027622337, 0.015056184, 0.1372633, 0
2334, 697046768, 0.3320872, -0.002911971, -3.8752466E-4, 0.943245, -0.021880548, 0.025937648, 0.13618946, 0
2336, 697080102, 0.3320948, -0.0029145337, -3.978677E-4, 0.94324225, -0.01727136, 0.03180608, 0.11071491, 0
2340, 697146770, 0.33212453, -0.002902518, -3.991871E-4, 0.94323164, -0.021886338, 0.030101908, 0.13230133, 0
2343, 697196771, 0.33209607, -0.0028862397, -4.067263E-4, 0.94324166, -0.026175866, 0.031476382, 0.14251041, 0
2346, 697246772, 0.33208138, -0.0028690312, -3.985895E-4, 0.9432469, -0.03726351, 0.031957876, 0.14186001, 0
2348, 697280106, 0.33208296, -0.002879573, -4.0195655E-4, 0.9432462, -0.021131445, 0.02724795, 0.15316105, 0
2351, 697330107, 0.33207676, -0.002865119, -4.10281E-4, 0.9432485, -0.026736554, 0.032985568, 0.14782524, 0
2354, 697380108, 0.3320621, -0.0028748761, -4.2249614E-4, 0.9432535, -0.0226108, 0.023084082, 0.1275425, 0
2357, 697430109, 0.3320479, -0.002865726, -4.32469E-4, 0.94325846, -0.022428583, 0.01888194, 0.13411903, 0
2359, 697463443, 0.33206952, -0.0028549205, -4.3518015E-4, 0.94325083, -0.013166244, 0.031762306, 0.13984776, 0
2362, 697513444, 0.33205524, -0.0028461951, -4.4606702E-4, 0.9432558, -0.030544309, 0.023135064, 0.12623978, 0
2365, 697563445, 0.33205652, -0.0028133055, -4.6493308E-4, 0.9432554, -0.025214395, 0.029048895, 0.12288189, 0
2369, 697630113, 0.33204308, -0.0027824244, -4.657951E-4, 0.94326013, -0.021688825, 0.014626043, 0.12112236, 0
2371, 697663447, 0.3320347, -0.0027756146, -4.7957565E-4, 0.9432631, -0.027164053, 0.02840584, 0.14030075, 0
2374, 697713448, 0.33203244, -0.0027597987, -4.7636527E-4, 0.94326395, -0.032231446, 0.025355529, 0.13449478, 0
2377, 697763449, 0.3320289, -0.002730341, -4.879967E-4, 0.9432653, -0.0043846816, 0.018186335, 0.13950539, 0
2380, 697813450, 0.3320306, -0.0027389154, -4.8553522E-4, 0.9432646, -0.0138121145, 0.024310458, 0.14438629, 0
2382, 697846784, 0.33202672, -0.002736318, -4.90008E-4, 0.9432659, -0.024328236, 0.022981333, 0.12163925, 0
2386, 697913452, 0.33200666, -0.0027246373, -5.0939224E-4, 0.94327307, -0.025723813, 0.027297629, 0.117637634, 0
2389, 697963453, 0.3320062, -0.0027002993, -5.138517E-4, 0.9432733, -0.0229323, 0.03182698, 0.14024448, 0
2392, 698013454, 0.33200032, -0.0026998052, -5.1377155E-4, 0.9432752, -0.020464165, 0.023491826, 0.13002586, 0
2394, 698046788, 0.33198935, -0.0026881846, -5.1543396E-4, 0.9432791, -0.011214262, 0.017618647, 0.13462353, 0
2398, 698113456, 0.3319781, -0.002680469, -5.089347E-4, 0.9432831, -0.028300764, 0.027378816, 0.1304388, 0
2401, 698163457, 0.33197612, -0.0026708588, -5.302159E-4, 0.9432838, -0.0025936156, 0.01250137, 0.13259983, 0
2404, 698213458, 0.33207405, -0.0026296724, -5.1387836E-4, 0.94324946, -0.01791463, 0.02288254, 0.12485695, 0
2407, 698263459, 0.33207098, -0.0026178255, -5.4866215E-4, 0.9432506, -0.012841378, 0.035980906, 0.13398075, 0
2409, 698296793, 0.33207658, -0.0026110632, -5.5224705E-4, 0.94324857, -0.031240968, 0.025803614, 0.14207363, 0
2412, 698346794, 0.33205324, -0.0026133056, -5.6336704E-4, 0.9432569, -0.0027181604, 0.016627299, 0.13376713, 0
2415, 698396795, 0.3320427, -0.0025947816, -5.6412775E-4, 0.94326055, -0.023139706, 0.030759182, 0.13220882, 0
2417, 698430129, 0.3320523, -0.002590612, -5.511201E-4, 0.9432572, -0.016593643, 0.03541042, 0.12154293, 0
2420, 698480130, 0.3320439, -0.0025706852, -5.518824E-4, 0.9432602, -0.008282467, 0.028368352, 0.13330364, 0
2423, 698530131, 0.33203447, -0.0025701236, -5.557876E-4, 0.9432636, -0.011843539, 0.025074385, 0.13631725, 0
2425, 698563465, 0.33202088, -0.00255398, -5.5452384E-4, 0.9432685, -0.012445672, 0.020580368, 0.14086819, 0
2428, 698613466, 0.33199435, -0.0025351183, -5.561959E-4, 0.9432778, -0.019472819, 0.019190047, 0.14922047, 0
2431, 698663467, 0.33200008, -0.0025269475, -5.5011234E-4, 0.9432759, -0.010231023, 0.019923424, 0.11821556, 0
2434, 698713468, 0.3320118, -0.00253955, -5.362024E-4, 0.9432717, -0.018468594, 0.01994511, 0.12361717, 0
2436, 698746802, 0.33201638, -0.0025392675, -5.312746E-4, 0.9432702, -0.025467182, 0.023582086, 0.14665508, 0
2439, 698796803, 0.33202314, -0.0025207978, -5.481643E-4, 0.9432678, -0.008634351, 0.025722265, 0.12636566, 0
2442, 698846804, 0.33201855, -0.0025163968, -5.2892213E-4, 0.9432695, -0.010769485, 0.015243465, 0.11931229, 0
2444, 698880138, 0.33202732, -0.0025171633, -5.282057E-4, 0.9432665, -0.018070955, 0.006033287, 0.15167618, 0
2447, 698930139, 0.33202806, -0.002508068, -5.178582E-4, 0.94326633, -0.014339546, 0.010626844, 0.1349001, 0
2450, 698980140, 0.3320345, -0.0024951538, -5.179899E-4, 0.94326407, -0.007545725, 0.020184228, 0.12198734, 0
2452, 699013474, 0.33203268, -0.0024802461, -5.229621E-4, 0.9432648, -0.020512797, 0.025123628, 0.14939499, 0
2455, 699063475, 0.33204824, -0.0024572825, -5.430844E-4, 0.94325936, -0.02293813, 0.035219077, 0.15270329, 0
2458, 699113476, 0.33204135, -0.0024583268, -5.585209E-4, 0.94326186, -0.007325818, 0.023651348, 0.1360836, 0
2461, 699163477, 0.332047, -0.0024376384, -5.569363E-4, 0.94325995, -0.025239732, 0.017344732, 0.1331253, 0
2463, 699196811, 0.3320415, -0.0024420824, -5.5786845E-4, 0.943262, 0.0013271372, 0.0119572915, 0.11262894, 0
2466, 699246812, 0.33205074, -0.0024337915, -5.6251086E-4, 0.9432588, -0.0144191785, 0.027232867, 0.10957241, 0
2469, 699296813, 0.3320572, -0.0024494352, -5.5883557E-4, 0.94325656, -0.0038458726, 0.027808823, 0.13181686, 0
2471, 699330147, 0.33205864, -0.0024476994, -5.5457436E-4, 0.9432561, -0.012245593, 0.018783657, 0.14059258, 0
2474, 699380148, 0.3320645, -0.0024661203, -5.560206E-4, 0.943254, -0.012706225, 0.013714515, 0.15018082, 0
2478, 699446816, 0.3320516, -0.0024670113, -5.618877E-4, 0.94325864, -0.01801794, 0.0035901777, 0.1318016, 0
2481, 699496817, 0.33203575, -0.002465705, -5.633242E-4, 0.94326437, -0.010860996, 0.018521456, 0.13139153, 0
2483, 699530151, 0.332057, -0.0024508124, -5.7578733E-4, 0.94325686, -0.025389783, 0.017940324, 0.11696148, 0
2486, 699580152, 0.33204764, -0.0024487507, -5.8250537E-4, 0.9432603, -0.034051716, 0.005462116, 0.120765686, 0
2489, 699630153, 0.33204374, -0.0024189593, -5.918595E-4, 0.94326186, -0.032640398, 0.026289027, 0.12501335, 0
2492, 699680154, 0.33197853, -0.002394187, -5.699366E-4, 0.9432849, -0.021132298, 0.029059222, 0.13646603, 0
2494, 699713488, 0.33190888, -0.0023839243, -5.755488E-4, 0.94330966, -0.0042817555, 0.023714619, 0.12990761, 0
2497, 699763489, 0.33193135, -0.0024333615, -5.941352E-4, 0.9433017, -0.014923503, 0.017824136, 0.14976597, 0
2500, 699813490, 0.33193108, -0.0024450605, -5.869055E-4, 0.94330174, -0.023291858, 0.018990094, 0.14270687, 0
2502, 699846824, 0.33193907, -0.0024463786, -5.970975E-4, 0.9432989, -0.012849264, 0.026023079, 0.12570667, 0
2506, 699913492, 0.33200976, -0.0024529004, -6.261752E-4, 0.9432738, -0.012164205, 0.025637222, 0.13629818, 0
2509, 699963493, 0.33202726, -0.0024473576, -6.415347E-4, 0.9432677, -0.015064955, 0.026115531, 0.1392765, 0
2512, 700013494, 0.3320337, -0.0024369597, -6.477741E-4, 0.94326526, -0.015136291, 0.0194484, 0.14672661, 0
2515, 700063495, 0.33210233, -0.0024588115, -6.635139E-4, 0.943241, -0.021017028, 0.02818334, 0.12175846, 0
2517, 700096829, 0.3320901, -0.002447243, -6.6157925E-4, 0.9432452, -0.020634899, 0.019154396, 0.12021828, 0
2520, 700146830, 0.3320742, -0.0024520087, -6.533143E-4, 0.9432508, -0.004793968, 0.0038846666, 0.13232136, 0
2523, 700196831, 0.3320719, -0.0024499637, -6.536835E-4, 0.94325155, -0.016342131, 0.03274968, 0.1516695, 0
2525, 700230165, 0.33205393, -0.0024416624, -6.46929E-4, 0.94325787, -0.01919756, 0.024663884, 0.12530899, 0
2528, 700280166, 0.33197948, -0.002395111, -6.4149714E-4, 0.943284, -0.013639736, 0.025759406, 0.13866425, 0
2531, 700330167, 0.33198446, -0.002409855, -6.485423E-4, 0.9432822, -0.0017275973, 0.020390939, 0.11928749, 0
2535, 700396835, 0.3319998, -0.002415307, -6.3864834E-4, 0.94327676, -0.015264748, 0.01036154, 0.1366167, 0
2537, 700430169, 0.33199427, -0.0024081534, -6.2772614E-4, 0.94327855, -0.010463047, 0.021342473, 0.14914417, 0
2540, 700480170, 0.3320045, -0.0024153418, -6.2394695E-4, 0.94327503, -0.01153484, 0.021591838, 0.13264942, 0
2543, 700530171, 0.3320371, -0.0024142002, -6.4059184E-4, 0.9432634, -0.0030040233, 0.021063246, 0.12264824, 0
2546, 700580172, 0.332061, -0.0024119788, -6.3771737E-4, 0.94325507, -0.0045023574, 0.026737608, 0.113012314, 0
2548, 700613506, 0.3320631, -0.002408561, -6.486868E-4, 0.9432543, -0.012900551, 0.021421934, 0.13320732, 0
2551, 700663507, 0.33207485, -0.0023960588, -6.570886E-4, 0.94325, -0.0047264486, 0.021394702, 0.12849522, 0
2554, 700713508, 0.33207375, -0.0023978958, -6.6329853E-4, 0.9432503, -0.024777042, 0.011778178, 0.13515186, 0
2556, 700746842, 0.33209494, -0.0023949347, -6.617285E-4, 0.9432429, -0.012816697, 0.019030057, 0.1406908, 0
2559, 700796843, 0.3321065, -0.002400425, -6.7899574E-4, 0.94323885, -0.015865913, 0.014610767, 0.11453915, 0
2562, 700846844, 0.33209616, -0.0023894613, -6.8622647E-4, 0.9432424, -0.019869436, 0.002550843, 0.1306448, 0
2564, 700880178, 0.33209378, -0.0023898408, -6.835508E-4, 0.94324327, -0.012460654, 0.029134322, 0.14875317, 0
2567, 700930179, 0.3320852, -0.0024124016, -6.8397407E-4, 0.9432461, -0.011363072, 0.031377047, 0.13932514, 0
2570, 700980180, 0.33207086, -0.0024019051, -6.899138E-4, 0.9432513, 0.005304386, 0.015388193, 0.11874485, 0
2573, 701030181, 0.3320744, -0.0024009347, -6.9118314E-4, 0.9432499, -0.019780522, 0.022475028, 0.13527489, 0
2575, 701063515, 0.33208534, -0.0023941072, -6.999222E-4, 0.943246, -0.0073822383, 0.023275273, 0.13097095, 0
2578, 701113516, 0.3320833, -0.0023789895, -7.0775347E-4, 0.9432468, -0.01359197, 0.024595585, 0.14315128, 0
2581, 701163517, 0.33210003, -0.0023822037, -7.149571E-4, 0.94324094, -0.012959891, 0.022931734, 0.14540005, 0
2583, 701196851, 0.3321022, -0.0023599889, -7.098341E-4, 0.9432402, -0.024236549, 0.004462777, 0.10914135, 0
2586, 701246852, 0.33209342, -0.002353434, -7.1113295E-4, 0.94324327, -0.027947567, 0.031648364, 0.13601685, 0
2589, 701296853, 0.33209324, -0.002353716, -7.1227655E-4, 0.94324344, -0.014360458, 0.009883657, 0.120420456, 0
2592, 701346854, 0.33209652, -0.002349585, -7.301206E-4, 0.94324225, -0.030037623, 0.010635223, 0.14087868, 0
2594, 701380188, 0.33209953, -0.002343971, -7.162482E-4, 0.9432412, -0.009818442, 0.019153614, 0.11048412, 0
2597, 701430189, 0.33209273, -0.002359909, -7.209283E-4, 0.94324344, -0.029464236, 0.024915492, 0.1332655, 0
2600, 701480190, 0.33201745, -0.0023233087, -7.2016986E-4, 0.94327, -0.004665296, 0.018896367, 0.14751816, 0
2602, 701513524, 0.3319564, -0.0023023528, -7.064886E-4, 0.9432916, -0.02395111, 0.002630879, 0.13378716, 0
2605, 701563525, 0.3319474, -0.0022801978, -7.2449277E-4, 0.9432949, -0.016691953, 0.01959677, 0.11779976, 0
2608, 701613526, 0.33197656, -0.0022732262, -7.26515E-4, 0.94328463, -0.017167049, 0.020198338, 0.12226486, 0
2610, 701646860, 0.33198133, -0.0022750986, -7.261327E-4, 0.94328296, -0.01766081, 0.012184347, 0.12277508, 0
2614, 701713528, 0.33201557, -0.0022884558, -7.1437383E-4, 0.9432709, -0.01824984, 0.025005693, 0.13084984, 0
2617, 701763529, 0.33201236, -0.0022673395, -7.2145264E-4, 0.94327205, -0.0053981915, 0.021247718, 0.12215614, 0
2620, 701813530, 0.33199376, -0.0022504013, -7.275518E-4, 0.94327873, -0.009376595, 0.0069264187, 0.14686489, 0
2623, 701863531, 0.33198476, -0.0022582076, -7.2805805E-4, 0.9432818, -0.022432294, 0.023856428, 0.13381004, 0
2625, 701896865, 0.33198643, -0.002250815, -7.215011E-4, 0.94328135, -0.0026443591, 0.029915107, 0.13226032, 0
2628, 701946866, 0.33199462, -0.0022390932, -7.196549E-4, 0.9432784, 0.0022488334, 0.0030288254, 0.12361431, 0
2631, 701996867, 0.33198982, -0.0022195473, -7.226705E-4, 0.9432802, -0.0021234208, 0.028100453, 0.14098549, 0
2633, 702030201, 0.331965, -0.002225966, -7.206521E-4, 0.943289, -0.01248863, 0.022186805, 0.11901283, 0
2636, 702080202, 0.33193308, -0.0022151852, -7.21573E-4, 0.9433003, 3.5141388E-4, 0.001986715, 0.11553764, 0
2639, 702130203, 0.33195034, -0.0022281578, -7.3144195E-4, 0.9432941, -0.010637866, 0.015881423, 0.14007092, 0
2643, 702196871, 0.3319403, -0.0022269539, -7.3743536E-4, 0.94329774, -0.010818298, 0.013994384, 0.14589977, 0
2645, 702230205, 0.33191973, -0.0022209547, -7.4090535E-4, 0.94330513, 0.007569535, 0.02367817, 0.113264084, 0
2648, 702280206, 0.33200878, -0.002228659, -7.51679E-4, 0.9432737, -0.0065529123, 0.009372424, 0.12792873, 0
2651, 702330207, 0.33201277, -0.0022069577, -7.643767E-4, 0.94327235, -0.006767395, 0.01923519, 0.11769009, 0
2654, 702380208, 0.33201736, -0.0021999078, -7.7747134E-4, 0.94327086, -0.020193644, 0.027248152, 0.12997341, 0
2656, 702413542, 0.33200526, -0.002178766, -7.887454E-4, 0.94327515, -0.019760573, 0.01708245, 0.133317, 0
2659, 702463543, 0.3320054, -0.0021720515, -7.97878E-4, 0.9432752, -0.0059940214, 0.019195687, 0.12734032, 0
2662, 702513544, 0.33200777, -0.0021578255, -8.002771E-4, 0.94327444, -0.003076476, 0.02758658, 0.14974499, 0
2664, 702546878, 0.3319875, -0.002142892, -7.968696E-4, 0.94328165, -0.0059194104, 0.024158629, 0.13326454, 0
2667, 702596879, 0.3319954, -0.002130423, -8.207419E-4, 0.94327897, -0.030088294, 0.02229506, 0.14083767, 0
2671, 702663547, 0.331972, -0.0021350798, -8.209838E-4, 0.9432872, -0.013527097, 0.016706068, 0.13127136, 0
2674, 702713548, 0.33194417, -0.0021299755, -8.194819E-4, 0.94329715, -0.005737266, 0.010530741, 0.14157677, 0
2677, 702763549, 0.33192936, -0.0021229736, -8.275427E-4, 0.94330245, -0.0059350845, 0.008014761, 0.14496422, 0
2679, 702796883, 0.33189633, -0.002103959, -8.2124706E-4, 0.94331414, -0.008986347, 0.024002563, 0.13701439, 0
2682, 702846884, 0.33185083, -0.00216411, -8.7516103E-4, 0.9433301, -0.016592067, 0.020698117, 0.1281662, 0
2685, 702896885, 0.3319245, -0.0021689732, -8.767511E-4, 0.94330424, -0.011588293, 0.015177235, 0.09914398, 0
2687, 702930219, 0.33190572, -0.0021596204, -8.8362733E-4, 0.9433109, -0.005616877, 0.010516848, 0.120274544, 0
2690, 702980220, 0.33189866, -0.0021482424, -8.9942897E-4, 0.94331336, -0.009036368, 0.016205102, 0.12526703, 0
2693, 703030221, 0.33188716, -0.0021493486, -9.030777E-4, 0.94331765, -0.01780825, 0.009073691, 0.11894226, 0
2695, 703063555, 0.33193034, -0.0021321108, -9.0671104E-4, 0.9433025, -0.014107897, 0.0076413318, 0.14308167, 0
2698, 703113556, 0.3318802, -0.0021142531, -9.0886693E-4, 0.9433202, -0.013636828, 0.025724247, 0.13703918, 0
2701, 703163557, 0.33170447, -0.0021437723, -9.30702E-4, 0.9433822, 0.0055984654, 0.016345618, 0.13286781, 0
2704, 703213558, 0.33179945, -0.002171034, -9.463812E-4, 0.94334847, -0.0051946626, 0.0175177, 0.12403393, 0
2706, 703246892, 0.33171868, -0.002575595, -0.0011948872, 0.94337565, -0.007852887, 0.011590666, 0.16060543, 0
2709, 703296893, 0.33172682, -0.003976533, -0.0020118137, 0.9433665, -0.01942735, 0.019135451, 0.13731194, 0
2712, 703346894, 0.33158726, -0.005852752, -0.0031498445, 0.9434026, -0.0023931584, 0.019189615, 0.13872814, 0
2714, 703380228, 0.33162722, -0.0064164316, -0.0034965975, 0.94338363, 0.0020376586, 0.023747297, 0.12209606, 0
2717, 703430229, 0.33162826, -0.006607016, -0.003636206, 0.94338125, -0.010472016, 0.028308956, 0.12134552, 0
2720, 703480230, 0.33161613, -0.006704844, -0.0037017367, 0.9433845, 0.0036542655, 0.032330997, 0.13016129, 0
2722, 703513564, 0.33175328, -0.0067067198, -0.003686963, 0.94333625, 0.01236717, 0.0030037574, 0.13153362, 0
2725, 703563565, 0.3316537, -0.0066786464, -0.0037049572, 0.94337124, -0.003759715, 0.013237556, 0.1302433, 0
2728, 703613566, 0.33163732, -0.006672087, -0.003672091, 0.9433771, -0.010817568, 0.010736296, 0.12726212, 0
2731, 703663567, 0.331641, -0.0066726794, -0.003684849, 0.9433757, -0.0060887276, 0.01193456, 0.11608219, 0
2733, 703696901, 0.33164793, -0.006681313, -0.0036775046, 0.94337326, -0.005518361, 6.323042E-4, 0.12312412, 0
2736, 703746902, 0.33164036, -0.0066830846, -0.003681942, 0.9433758, 0.0052733305, 0.015612481, 0.12743855, 0
2739, 703796903, 0.33166516, -0.0066697923, -0.0036907494, 0.94336706, -0.008848681, 0.019387124, 0.13806534, 0
2741, 703830237, 0.33166957, -0.00667041, -0.0037008424, 0.94336545, -0.0029815903, 0.0014361633, 0.13462162, 0
2744, 703880238, 0.33166245, -0.006664327, -0.0037235327, 0.94336796, -0.008520549, 0.0019133373, 0.13825226, 0
2747, 703930239, 0.33166525, -0.0066652573, -0.0037219217, 0.9433668, -0.011026097, 0.014811816, 0.123547554, 0
2751, 703996907, 0.33165893, -0.0066558, -0.0037349504, 0.9433689, 0.0030432285, 0.005232688, 0.13348866, 0
2753, 704030241, 0.33166498, -0.006653991, -0.0037352466, 0.9433669, 0.004713526, 0.0077729793, 0.13371849, 0
2756, 704080242, 0.33165434, -0.0066469107, -0.00374351, 0.9433706, -0.0016147274, 0.009122509, 0.13973331, 0
2759, 704130243, 0.33165646, -0.0066517685, -0.003745778, 0.9433697, -3.8368008E-4, 0.022318032, 0.11817169, 0
2762, 704180244, 0.3316804, -0.006642351, -0.0037519974, 0.9433613, -0.013871938, 0.0027978094, 0.12563705, 0
2764, 704213578, 0.3316832, -0.0066435286, -0.003750345, 0.9433602, -0.0059488374, 0.018257074, 0.13011074, 0
2767, 704263579, 0.33168167, -0.0066290926, -0.0037522789, 0.9433609, -0.014964304, 0.011828599, 0.14136696, 0
2770, 704313580, 0.33167952, -0.0066318978, -0.0037570347, 0.94336146, -2.2838135E-4, 0.011443954, 0.11827469, 0
2772, 704346914, 0.33169344, -0.006626583, -0.0037472723, 0.9433567, -0.019237105, 0.005685142, 0.14959049, 0
2775, 704396915, 0.33170322, -0.0066219736, -0.0037483359, 0.9433533, 0.0018638615, 0.0123878075, 0.14219189, 0
2779, 704463583, 0.3316949, -0.0066082575, -0.0037361314, 0.9433563, -0.009414247, 0.01233985, 0.13062572, 0
2782, 704513584, 0.3316985, -0.006594803, -0.0037647383, 0.9433551, -0.0027981333, 0.019625787, 0.14681625, 0
2785, 704563585, 0.33170435, -0.006612426, -0.0037650652, 0.9433528, -0.008251454, 0.015025958, 0.13938808, 0
2787, 704596919, 0.33169687, -0.0065871854, -0.0037596575, 0.9433557, -0.007594395, 0.013991918, 0.12555027, 0
2790, 704646920, 0.3316955, -0.006594439, -0.0037736716, 0.943356, -0.004744128, 0.014105302, 0.12952042, 0
2793, 704696921, 0.343783, -6.399984E-4, 3.8767193E-4, 0.9390488, 0.32028776, 0.55835706, 0.38786602, 0
2795, 704730255, 0.33697546, -0.0010291721, 0.0011826542, 0.9415123, -1.0680963, 0.29680246, 0.26552582, 0
2798, 704780256, 0.26356855, -0.0018674288, 0.0011008314, 0.9646383, 0.017443852, -0.4300246, -0.10438156, 0
2801, 704830257, 0.2139974, -0.0023008005, 1.6628113E-4, 0.9768316, 0.0020855074, -0.22113921, 0.089365005, 0
2803, 704863591, 0.206289, -0.002521054, 2.0115948E-4, 0.9784879, -0.3724143, -0.48211712, 0.26852512, 0
2807, 704930259, 0.20671661, -0.0025462592, 9.514481E-5, 0.9783977, -0.03763243, 6.981621E-4, 0.12638092, 0
2810, 704980260, 0.20671755, -0.002544316, 9.620354E-5, 0.97839755, -0.04255164, 0.015907375, 0.11571121, 0
2813, 705030261, 0.20672156, -0.0025613438, 8.587989E-5, 0.9783968, -0.031893, -0.012126236, 0.14490795, 0
2816, 705080262, 0.20671088, -0.002540907, 7.152362E-5, 0.97839904, -0.05090131, 0.011164992, 0.1330185, 0
2818, 705113596, 0.20671244, -0.002535574, 7.3073854E-5, 0.97839874, -0.050543383, 0.0019484113, 0.13352585, 0
2821, 705163597, 0.20671558, -0.0025425616, 8.7700864E-5, 0.97839814, -0.054113172, 0.005597908, 0.14019966, 0
2824, 705213598, 0.20670429, -0.002533486, 8.231739E-5, 0.9784005, -0.03226616, 0.007175008, 0.111774445, 0
2826, 705246932, 0.20670895, -0.0025338167, 8.118756E-5, 0.9783994, -0.037235547, -7.1911846E-4, 0.11216736, 0
2829, 705296933, 0.20673174, -0.0025117525, 7.660333E-5, 0.9783948, -0.038876504, -0.0031396023, 0.13786793, 0
2832, 705346934, 0.20673656, -0.0024963042, 5.7450885E-5, 0.9783939, -0.042722374, 0.0030235108, 0.124783516, 0
2834, 705380268, 0.2067382, -0.0025021697, 6.418167E-5, 0.97839355, -0.03331451, 0.009260122, 0.13769913, 0
2837, 705430269, 0.20672643, -0.0025061327, 5.6476376E-5, 0.978396, -0.031953573, 0.005158655, 0.119324684, 0
2840, 705480270, 0.20671557, -0.0025079846, 4.5653705E-5, 0.9783983, -0.04367988, 0.0021007573, 0.11184597, 0
2843, 705530271, 0.2067255, -0.0025160126, 4.0851985E-5, 0.9783963, -0.044730127, 3.8557293E-5, 0.13006306, 0
2845, 705563605, 0.20672777, -0.0025102391, 3.3547934E-5, 0.97839594, -0.045668717, 0.0033211014, 0.12148094, 0
2848, 705613606, 0.20672125, -0.0024967878, 4.1621588E-5, 0.9783974, -0.04236674, -0.0017458505, 0.13430882, 0
2851, 705663607, 0.20673014, -0.0024929934, 5.2828724E-5, 0.9783956, -0.03412503, -0.003326483, 0.13158321, 0
2853, 705696941, 0.20673437, -0.0025000032, 6.5214736E-5, 0.9783946, -0.04493036, -0.014537916, 0.12974644, 0
2856, 705746942, 0.20673215, -0.0025092692, 6.1175364E-5, 0.9783951, -0.047497794, 0.004989574, 0.11929321, 0
2859, 705796943, 0.20671529, -0.0025004256, 5.525298E-5, 0.9783987, -0.030399526, 0.0143917715, 0.14122772, 0
2861, 705830277, 0.20673408, -0.002502396, 6.694539E-5, 0.97839487, -0.040672403, -0.013183095, 0.13854218, 0
2864, 705880278, 0.20674294, -0.0024749746, 5.6999103E-5, 0.9783931, -0.036191333, -0.0021172191, 0.109396935, 0
2867, 705930279, 0.20674984, -0.0024980851, 5.587918E-5, 0.9783915, -0.03831076, -0.005448457, 0.14739323, 0
2870, 705980280, 0.20676279, -0.0025002048, 4.7781738E-5, 0.9783889, -0.044838145, -0.0052924696, 0.1427393, 0
2872, 706013614, 0.20675369, -0.0025123004, 5.688645E-5, 0.9783909, -0.046164624, -0.0014312125, 0.13628292, 0
2875, 706063615, 0.20674914, -0.0024975203, 5.3932134E-5, 0.9783918, -0.031219753, 0.004716215, 0.1325779, 0
2878, 706113616, 0.20675555, -0.0025077807, 4.235297E-5, 0.9783905, -0.042480372, 0.0011768278, 0.15930653, 0
2880, 706146950, 0.20399606, -0.0021653615, -2.097456E-4, 0.97897047, -0.960552, 0.465941, 0.18625546, 0
2883, 706196951, 0.15367088, -0.0035178615, 1.9683124E-4, 0.9881169, -0.88760376, 0.03143509, 0.22871304, 0
2887, 706263619, -0.039422195, -0.0053200806, -4.035246E-5, 0.99920976, 0.34296083, -0.6212988, 0.05360222, 0
2890, 706313620, -0.157101, -0.0059442013, 8.941746E-5, 0.9875659, -0.7847356, -0.34181994, 0.027090073, 0
2893, 706363621, -0.28581858, -0.0037446872, -0.0018859556, 0.9582759, 1.3451525, 1.5923365, 0.14237595, 0
2895, 706396955, -0.3320207, -0.0022046822, -0.0026435093, 0.9432671, 0.8180862, 1.0679123, -0.21156597, 0
2898, 706446956, -0.3198398, -0.0024758845, -0.0025200255, 0.9474664, 0.16322795, 0.10733798, 0.21659946, 0
2901, 706496957, -0.299618, -0.0053703017, -4.175753E-4, 0.95404524, -2.4138112, 1.0723578, 0.119389534, 0
2903, 706530291, -0.27898207, -0.006484727, 2.8445455E-4, 0.96027565, -0.40718028, -0.67348933, 0.2786188, 0
2906, 706580292, -0.29219192, -0.008729892, 0.0029014852, 0.95631665, 0.38317746, 0.62392175, 0.24722767, 0
2909, 706630293, -0.31401232, -0.0070889285, 5.387141E-4, 0.9493936, 0.3100157, 0.110485636, 0.10190678, 0
2911, 706663627, -0.3185423, -0.006715205, 2.599162E-4, 0.94788605, -0.28868943, -0.16325186, 0.13270187, 0
2915, 706730295, -0.37518725, -0.007983053, 0.001634198, 0.92691445, -0.03132892, 0.66707724, 0.13645363, 0
2918, 706780296, -0.37582952, -0.0070329565, 3.1586445E-4, 0.92666346, -0.39065823, 0.78896874, 0.10384655, 0
2921, 706830297, -0.37637937, -0.0063219042, -2.2234823E-4, 0.92644554, -0.0191771, -0.23480548, 0.09855652, 0
2924, 706880298, -0.37342846, -0.006433565, -1.7956391E-4, 0.92763793, -0.13191697, -0.17312185, 0.15129566, 0
2926, 706913632, -0.37457955, -0.0064072856, -2.027385E-4, 0.927174, -0.11747687, -0.073437706, 0.111662865, 0
2929, 706963633, -0.37529522, -0.0065091685, -1.01235084E-4, 0.9268839, -0.12309843, -0.13094245, 0.122992516, 0
2932, 707013634, -0.37528265, -0.0069349105, 3.1239283E-4, 0.926886, -0.13873136, -0.12070615, 0.12861729, 0
2934, 707046968, -0.37550643, -0.0068891943, 2.5359957E-4, 0.9267956, -0.11753849, -0.13422135, 0.11608505, 0
2937, 707096969, -0.37541655, -0.0070065022, 4.0569308E-4, 0.9268311, -0.15643035, -0.031153582, 0.10723686, 0
2940, 707146970, -0.37603405, -0.0067754267, 1.9417689E-4, 0.9265826, -0.109808356, -0.22635165, 0.07299137, 0
2944, 707213638, -0.37643096, -0.006746337, 1.6596197E-4, 0.9264215, -0.124969125, -0.110127546, 0.12614822, 0
2947, 707263639, -0.37643635, -0.006739707, 1.4973806E-4, 0.92641944, -0.123327754, -0.124427706, 0.09837532, 0
2949, 707296973, -0.37643534, -0.006741159, 1.6132765E-4, 0.92641985, -0.13368845, -0.11816476, 0.14330196, 0
2952, 707346974, -0.37641826, -0.0067343004, 1.6162805E-4, 0.92642707, -0.13045844, -0.122584954, 0.13406563, 0
2955, 707396975, -0.37642467, -0.0067031914, 1.6329068E-4, 0.92642444, -0.1282521, -0.11338694, 0.15071106, 0
2957, 707430309, -0.3764327, -0.0067007057, 1.70433E-4, 0.9264212, -0.13709036, -0.12177315, 0.121234894, 0
2960, 707480310, -0.3764298, -0.0066744857, 1.6557958E-4, 0.9264225, -0.13589278, -0.1274449, 0.14085197, 0
2963, 707530311, -0.37642425, -0.006664541, 1.8777198E-4, 0.9264249, -0.12203978, -0.11215145, 0.12531662, 0
2965, 707563645, -0.3764298, -0.006660121, 1.800432E-4, 0.9264227, -0.12885483, -0.11948607, 0.13296604, 0
2968, 707613646, -0.37642977, -0.006661006, 1.9499612E-4, 0.92642266, -0.14657322, -0.11519992, 0.118263245, 0
2971, 707663647, -0.3764242, -0.006652068, 1.84606E-4, 0.926425, -0.12467345, -0.11741775, 0.12615585, 0
2974, 707713648, -0.3764172, -0.006656572, 1.9542023E-4, 0.9264277, -0.11613611, -0.13142282, 0.13764954, 0
2976, 707746982, -0.3764239, -0.006661965, 2.0669057E-4, 0.926425, -0.13215144, -0.11385368, 0.1301775, 0
2979, 707796983, -0.3764354, -0.006651653, 2.105757E-4, 0.9264205, -0.11427322, -0.12553293, 0.14524841, 0
2982, 707846984, -0.37643823, -0.0066218297, 2.1711239E-4, 0.9264195, -0.11809806, -0.11838738, 0.128438, 0
2984, 707880318, -0.37644053, -0.0066018067, 2.2074093E-4, 0.9264186, -0.10784773, -0.10570719, 0.12469196, 0
2987, 707930319, -0.376445, -0.006595238, 2.306561E-4, 0.9264169, -0.11966203, -0.12119297, 0.14201927, 0
2990, 707980320, -0.37645292, -0.0066004316, 2.4502922E-4, 0.9264135, -0.12803894, -0.14334296, 0.12748814, 0
2992, 708013654, -0.3764545, -0.0065938104, 2.491475E-4, 0.92641294, -0.12819414, -0.12199734, 0.12490845, 0
2995, 708063655, -0.37645444, -0.006613193, 2.3819391E-4, 0.9264128, -0.12409003, -0.10810267, 0.12786198, 0
2998, 708113656, -0.37645653, -0.006592812, 2.4243188E-4, 0.92641205, -0.120709345, -0.11361814, 0.1475048, 0
3001, 708163657, -0.3764466, -0.0065646986, 2.5824E-4, 0.92641634, -0.12184757, -0.13073072, 0.13829803, 0
3003, 708196991, -0.37645197, -0.0065758284, 2.6885004E-4, 0.9264141, -0.13130368, -0.1326855, 0.13261604, 0
3006, 708246992, -0.37645218, -0.0065595806, 2.6969134E-4, 0.9264141, -0.12840001, -0.11900326, 0.1281271, 0
3009, 708296993, -0.37645006, -0.0065214527, 2.5934385E-4, 0.92641515, -0.12145963, -0.113042414, 0.1132431, 0
3011, 708330327, -0.37645212, -0.0065077096, 2.6185942E-4, 0.9264144, -0.11647421, -0.13456076, 0.118252754, 0
3014, 708380328, -0.37644535, -0.006485552, 2.6737803E-4, 0.9264171, -0.12004667, -0.11911462, 0.1534996, 0
3017, 708430329, -0.376441, -0.006503939, 2.882252E-4, 0.9264187, -0.11453905, -0.12594649, 0.116298676, 0
3019, 708463663, -0.37644547, -0.006498441, 2.8004998E-4, 0.926417, -0.116724424, -0.115940645, 0.12766266, 0
3023, 708530331, -0.3764459, -0.0064890683, 2.6642077E-4, 0.9264168, -0.11394877, -0.12077394, 0.13642693, 0
3026, 708580332, -0.37645367, -0.0064899637, 2.6379415E-4, 0.92641336, -0.11972291, -0.13458687, 0.12495327, 0
3029, 708630333, -0.37646395, -0.0064869435, 2.5092793E-4, 0.92640924, -0.12164884, -0.13582736, 0.14498043, 0
3032, 708680334, -0.37646943, -0.0064739506, 2.593534E-4, 0.92640716, -0.11628664, -0.13124502, 0.13611221, 0
3034, 708713668, -0.3764695, -0.006473361, 2.6446057E-4, 0.9264071, -0.10697087, -0.12392063, 0.13417244, 0
3037, 708763669, -0.376486, -0.0064560426, 2.5616062E-4, 0.92640036, -0.1279804, -0.12802133, 0.14232063, 0
3040, 708813670, -0.37649745, -0.006451993, 2.4189193E-4, 0.9263958, -0.13006201, -0.124332756, 0.1520195, 0
3042, 708847004, -0.37649822, -0.0064345174, 2.3084105E-4, 0.9263955, -0.11196227, -0.112432905, 0.13280392, 0
3045, 708897005, -0.3765109, -0.0064315423, 2.3200638E-4, 0.9263904, -0.12279528, -0.10872372, 0.106806755, 0
3048, 708947006, -0.3765125, -0.006410677, 2.3847313E-4, 0.92638975, -0.1229777, -0.1162185, 0.14017391, 0
3052, 709013674, -0.37650603, -0.0063831867, 2.3448009E-4, 0.9263926, -0.12501246, -0.11625487, 0.122639656, 0
