sep=,
DeviceTag:,Xsens_3,,,,,,,,,,,,,,,,,
FirmwareVersion:,2.2.1,,,,,,,,,,,,,,,,,
AppVersion:,2023.0.0,,,,,,,,,,,,,,,,,
SyncStatus:,Un-synced,,,,,,,,,,,,,,,,,
OutputRate:,60Hz,,,,,,,,,,,,,,,,,
FilterProfile:,General,,,,,,,,,,,,,,,,,
Measurement Mode:,Sensor fusion Mode - Extended (Quaternion),,,,,,,,,,,,,,,,,
StartTime:,2023-07-11 15:21:33.861 +0200,,,,,,,,,,,,,,,,,
© Movella Technologies B. V. 2005-2023,,,,,,,,,,,,,,,,,,,

PacketCounter,SampleTimeFine,Quat_W,Quat_X,Quat_Y,Quat_Z,FreeAcc_X,FreeAcc_Y,FreeAcc_Z,Status
1, 222145058, 0.9985012, -0.013334907, 0.036800623, 0.03825529, 0.0011403351, -0.02722589, 0.006965637, 0
2, 222161725, 0.99849623, -0.0133324955, 0.036906403, 0.038281016, 0.009019307, -0.011783589, 0.016737938, 0
3, 222178392, 0.9984977, -0.0132479705, 0.036935262, 0.03824446, 0.0029226553, -0.021249767, 0.025774002, 0
4, 222195059, 0.998493, -0.013147429, 0.036978696, 0.038362887, 0.009018916, -0.030849608, 0.027528763, 0
5, 222211726, 0.99849004, -0.01306734, 0.037025653, 0.038420744, -0.0079043405, -0.013924578, 0.042564392, 0
6, 222228393, 0.99848765, -0.012916395, 0.037112918, 0.0384518, 0.005864086, -0.02691367, 0.026426315, 0
7, 222245060, 0.9984839, -0.012752426, 0.037207153, 0.038512647, -1.9417689E-4, -0.029504744, -0.0031366348, 0
8, 222261727, 0.9984817, -0.012582862, 0.037290253, 0.03854371, 0.004745767, -0.02799054, 0.002128601, 0
9, 222278394, 0.9984794, -0.012396722, 0.03737059, 0.038584948, 0.007962146, -0.04071927, -0.0026893616, 0
10, 222295061, 0.9984778, -0.012203209, 0.03744557, 0.038612504, 0.0127573935, -0.04839993, 0.015965462, 0
11, 222311728, 0.99847645, -0.012026154, 0.037506454, 0.038646612, 0.013199725, -0.04058734, 0.008465767, 0
12, 222328395, 0.9984755, -0.011832931, 0.03756128, 0.038680144, 0.017038867, -0.04726718, -0.004881859, 0
13, 222345062, 0.9984733, -0.011638475, 0.037626114, 0.03873155, 0.026823873, -0.050126176, 0.012329102, 0
14, 222361729, 0.9984718, -0.011447313, 0.037675153, 0.03877727, 0.02183811, -0.06177286, 0.022206306, 0
15, 222378396, 0.998471, -0.011257829, 0.037722364, 0.03880944, 0.016884616, -0.055936247, 0.043811798, 0
16, 222395063, 0.9984697, -0.011062645, 0.03777436, 0.038846344, 0.035305995, -0.059024632, 0.047258377, 0
17, 222411730, 0.9984683, -0.01086134, 0.037830103, 0.038887747, 0.020177381, -0.06964189, 0.015137672, 0
18, 222428397, 0.99846643, -0.010659529, 0.037879925, 0.038943205, 0.022476211, -0.0666803, 0.021736145, 0
19, 222445064, 0.9984649, -0.010463627, 0.037930932, 0.038985632, 0.03178005, -0.07794429, 0.042858124, 0
20, 222461731, 0.9984632, -0.010263791, 0.037984867, 0.039029647, 0.01925701, -0.08649219, 0.02818203, 0
21, 222478398, 0.99846226, -0.010053087, 0.03802952, 0.03906334, 0.019251367, -0.07913157, 0.020346642, 0
22, 222495065, 0.9984601, -0.009846752, 0.038080994, 0.039122377, 0.015186224, -0.09078595, 0.014946938, 0
23, 222511732, 0.9984575, -0.009648876, 0.03814307, 0.039175294, 0.04193849, -0.0846422, -0.0073633194, 0
24, 222528399, 0.9984553, -0.009450986, 0.038205724, 0.039220445, 0.027592814, -0.10135953, 0.012656212, 0
25, 222545066, 0.9984525, -0.009242313, 0.03827465, 0.039273757, 0.034774397, -0.103004895, 0.03604698, 0
26, 222561733, 0.9984508, -0.009042566, 0.03833447, 0.039305102, 0.025808537, -0.10027958, 0.009889603, 0
27, 222578400, 0.9984488, -0.0088463, 0.03839041, 0.039344147, 0.026802082, -0.105700545, 0.025950432, 0
28, 222595067, 0.9984475, -0.008648637, 0.038448237, 0.039367095, 0.026759613, -0.11266561, 1.6593933E-4, 0
29, 222611734, 0.9984454, -0.008439541, 0.038507275, 0.039406925, 0.038084287, -0.1162855, -0.009356499, 0
32, 222661735, 0.99843943, -0.007825113, 0.03867434, 0.039520595, 0.036675096, -0.13189735, 0.0217247, 0
34, 222695069, 0.9984361, -0.007417309, 0.038775295, 0.03958564, 0.042143367, -0.1264272, 0.02601242, 0
36, 222728403, 0.9984313, -0.0070009883, 0.038890973, 0.039669346, 0.05084699, -0.1464275, 0.024819374, 0
37, 222745070, 0.99842906, -0.0067925267, 0.03893847, 0.039713033, 0.048822213, -0.14225684, 0.025366783, 0
39, 222778404, 0.9984247, -0.00636609, 0.03904743, 0.03978596, 0.040357247, -0.15418369, 0.021184921, 0
41, 222811738, 0.9984205, -0.005961821, 0.039142627, 0.03986239, 0.044277024, -0.16552848, 0.0052843094, 0
43, 222845072, 0.99841547, -0.0055509103, 0.039246917, 0.039945137, 0.05124121, -0.1704148, 0.031187057, 0
45, 222878406, 0.9984104, -0.0051467316, 0.039357264, 0.04001689, 0.053388834, -0.18320745, 0.014111519, 0
46, 222895073, 0.998408, -0.004938245, 0.03940926, 0.04005013, 0.06627668, -0.18738152, 0.009496689, 0
48, 222928407, 0.9984027, -0.0045290925, 0.03953302, 0.040111423, 0.057692327, -0.19892626, 0.010587692, 0
52, 222995075, 0.9983924, -0.0037281471, 0.039750703, 0.04023565, 0.06605601, -0.2035647, 0.01366806, 0
54, 223028409, 0.9983869, -0.0033243091, 0.039862454, 0.040297095, 0.06698558, -0.21455961, 0.0315876, 0
55, 223045076, 0.9983835, -0.003120066, 0.039921, 0.040338412, 0.073600024, -0.2121519, 0.0060796738, 0
57, 223078410, 0.9983778, -0.002731889, 0.040020894, 0.04040699, 0.05995925, -0.2131889, 0.017839432, 0
59, 223111744, 0.99837214, -0.0023290499, 0.04012608, 0.04046829, 0.07385245, -0.2325533, 0.03168869, 0
61, 223145078, 0.99836594, -0.0019491793, 0.040232528, 0.04053522, 0.06679143, -0.23930879, -0.0014829636, 0
63, 223178412, 0.9983599, -0.0015551072, 0.040338706, 0.040597666, 0.0681315, -0.24183607, 0.008964539, 0
64, 223195079, 0.9983569, -0.0013596893, 0.040382963, 0.04063515, 0.078476235, -0.25719118, 0.016547203, 0
66, 223228413, 0.9983508, -9.822216E-4, 0.040492885, 0.04068318, 0.09188715, -0.2666772, 0.020874023, 0
68, 223261747, 0.9983447, -6.117403E-4, 0.04058952, 0.040745307, 0.081429094, -0.2706469, -0.004023552, 0
72, 223328415, 0.99833184, 1.3990529E-4, 0.0408007, 0.04085621, 0.09821276, -0.2832254, 0.0067663193, 0
73, 223345082, 0.998329, 3.237729E-4, 0.040851098, 0.040873233, 0.074559, -0.28092977, 0.03223324, 0
75, 223378416, 0.99832284, 6.7608315E-4, 0.04094273, 0.040925484, 0.08194055, -0.28894323, 0.0030765533, 0
77, 223411750, 0.99831694, 0.0010188798, 0.041045576, 0.040960845, 0.08262123, -0.30343616, 0.016524315, 0
79, 223445084, 0.99831086, 0.0013662252, 0.04114703, 0.040995505, 0.09616175, -0.30668136, -0.002166748, 0
81, 223478418, 0.998305, 0.0016927174, 0.041236214, 0.0410357, 0.097723775, -0.31705064, 0.0060358047, 0
82, 223495085, 0.9983015, 0.0018565024, 0.041297097, 0.041055728, 0.09280238, -0.32011512, 0.0129003525, 0
84, 223528419, 0.9982964, 0.0021929508, 0.04138297, 0.04107657, 0.10164078, -0.32115313, 0.009485245, 0
86, 223561753, 0.99828976, 0.0025159772, 0.0414977, 0.04109962, 0.101274304, -0.34369054, 0.005580902, 0
88, 223595087, 0.998284, 0.0028302236, 0.041598007, 0.04111759, 0.11434347, -0.34052062, 0.0074186325, 0
91, 223645088, 0.9982769, 0.0032951955, 0.041731846, 0.041122492, 0.10599177, -0.35316277, 0.01193428, 0
93, 223678422, 0.9982728, 0.0035951498, 0.04180487, 0.04112233, 0.09856888, -0.3416835, 0.010178566, 0
95, 223711756, 0.9982684, 0.0038982595, 0.041871883, 0.041133728, 0.110122904, -0.36694664, 0.018409729, 0
97, 223745090, 0.9982643, 0.0041862833, 0.04193887, 0.041137572, 0.09360214, -0.34711036, 0.0047016144, 0
99, 223778424, 0.99826044, 0.004462765, 0.04201095, 0.041126896, 0.114352636, -0.36790156, 0.034413338, 0
100, 223795091, 0.9982584, 0.0045991074, 0.042045545, 0.0411273, 0.11835349, -0.38687667, 0.02111435, 0
102, 223828425, 0.99825495, 0.0048640734, 0.042114772, 0.041108277, 0.11022726, -0.36693186, 0.0012903214, 0
104, 223861759, 0.99825084, 0.0051182136, 0.042179476, 0.041110415, 0.12630337, -0.38119546, 0.017463684, 0
106, 223895093, 0.99824625, 0.005354292, 0.04226912, 0.04109872, 0.11256439, -0.3837386, 0.01607132, 0
108, 223928427, 0.9982416, 0.005581958, 0.0423655, 0.041084144, 0.13745977, -0.38524666, 5.788803E-4, 0
109, 223945094, 0.99823993, 0.00569176, 0.042396124, 0.0410768, 0.12070641, -0.38735777, -0.004880905, 0
111, 223978428, 0.99823725, 0.0059177983, 0.042454947, 0.041048687, 0.121488005, -0.40182436, 0.012464523, 0
113, 224011762, 0.9982344, 0.0061307293, 0.04251713, 0.04102501, 0.13617212, -0.3905568, 0.024062157, 0
115, 224045096, 0.99823326, 0.006342706, 0.042553414, 0.040983107, 0.13166095, -0.40199283, 0.0018167496, 0
117, 224078430, 0.99823177, 0.006553766, 0.042603053, 0.04093222, 0.11838244, -0.40367547, 0.020038605, 0
118, 224095097, 0.9982314, 0.006636604, 0.04262546, 0.04090369, 0.12494888, -0.40850717, 0.018660545, 0
120, 224128431, 0.99856615, -0.014492194, 0.03677301, 0.036104552, -0.0010719402, -0.0013185169, 0.014203072, 0
122, 224161765, 0.9985655, -0.014497846, 0.03677485, 0.036114927, 0.0019298947, 0.0017165516, 0.030033112, 0
124, 224195099, 0.9985651, -0.01449324, 0.03677361, 0.03612976, 0.0020585263, -5.4960436E-4, 0.043943405, 0
127, 224245100, 0.99856365, -0.014485476, 0.036795378, 0.0361536, 0.003128008, -0.0018895227, -4.8446655E-4, 0
129, 224278434, 0.998563, -0.014494016, 0.036803085, 0.036157846, -0.0069781584, 0.0022066177, 0.019384384, 0
131, 224311768, 0.9985627, -0.0144885685, 0.036806263, 0.03616349, 0.006094891, -0.005458913, 0.047867775, 0
133, 224345102, 0.9985623, -0.014500155, 0.036801443, 0.036178894, -0.0039712386, 0.007272483, 0.013476372, 0
135, 224378436, 0.9985615, -0.01450358, 0.036814336, 0.036183402, 0.0011758178, 0.00725354, 0.0032787323, 0
136, 224395103, 0.9985614, -0.01450305, 0.03681591, 0.036185004, -0.003250912, 0.003444209, 0.027543068, 0
138, 224428437, 0.99856097, -0.014516778, 0.03680393, 0.036204975, -0.0014706035, 0.0065971664, 0.009980202, 0
140, 224461771, 0.99856055, -0.014528335, 0.03679537, 0.036219284, 0.0056425007, 0.009201875, 0.029996872, 0
142, 224495105, 0.99855965, -0.014531946, 0.036808506, 0.036232438, -0.0018644612, 0.0056954455, 0.0044546127, 0
144, 224528439, 0.99855894, -0.014533405, 0.036818188, 0.03624046, -0.0051420834, 0.002467122, 0.01944828, 0
147, 224578440, 0.998559, -0.014546346, 0.03680773, 0.036244944, 0.006435273, 0.0025597543, 0.017224312, 0
149, 224611774, 0.9985587, -0.01455651, 0.03681037, 0.036243726, 0.0042438405, 2.2626497E-4, 0.02821827, 0
151, 224645108, 0.99855804, -0.0145533765, 0.03681234, 0.036261845, 0.0150872925, 0.014539001, 0.025045395, 0
153, 224678442, 0.99855906, -0.014558161, 0.036777776, 0.0362644, -2.10186E-4, -0.004951832, 0.061380386, 0
154, 224695109, 0.9985578, -0.014563117, 0.036815535, 0.036261164, 0.008624052, 0.0051187403, 0.0013847351, 0
156, 224728443, 0.99855864, -0.014565332, 0.03677163, 0.036281914, -0.008906796, 0.0025288814, 0.050880432, 0
158, 224761777, 0.9985581, -0.014574892, 0.036785215, 0.036280666, -0.0019120695, 0.007934878, 0.015211105, 0
160, 224795111, 0.9985576, -0.014570714, 0.03678813, 0.0362914, 8.4320265E-5, 0.0038284557, 0.019374847, 0
162, 224828445, 0.9985583, -0.014560051, 0.036765162, 0.036300257, 0.008168896, -0.011685663, 0.037693977, 0
163, 224845112, 0.9985576, -0.014556644, 0.0367849, 0.036299784, 0.007964437, -0.005813516, 0.0047855377, 0
167, 224911780, 0.9985571, -0.014545594, 0.03678272, 0.036323298, 0.0027036406, -0.0017684066, 0.029914856, 0
169, 224945114, 0.99855727, -0.014551699, 0.03676767, 0.036327783, -3.6541573E-4, -0.009034826, 0.025677681, 0
171, 224978448, 0.99855685, -0.014542241, 0.036763225, 0.036350112, 0.0029399497, 0.005535941, 0.016206741, 0
172, 224995115, 0.9985566, -0.01453223, 0.036764886, 0.036357068, 0.0023918122, 0.0086213, 0.02577591, 0
174, 225028449, 0.99855655, -0.0145288445, 0.03676657, 0.0363589, 0.0110685015, -0.009173139, 0.0049438477, 0
176, 225061783, 0.99855703, -0.014536089, 0.03674218, 0.03636643, 0.0037302636, -0.005811239, 0.00998497, 0
178, 225095117, 0.9985571, -0.014551185, 0.0367384, 0.036366418, -0.006435413, 0.005343161, 0.01636219, 0
180, 225128451, 0.9985567, -0.014556464, 0.036735438, 0.036374882, -0.01651378, -0.006449327, 0.016997337, 0
181, 225145118, 0.9985569, -0.014555811, 0.036732126, 0.036371924, -0.0044146883, 0.01030614, 0.006293297, 0
183, 225178452, 0.9985571, -0.014548067, 0.036736764, 0.036367826, 0.0037661933, -0.007995604, 0.013994217, 0
187, 225245120, 0.9985571, -0.014535768, 0.036727417, 0.03638116, 0.007327034, -0.007937127, 0.023848534, 0
189, 225278454, 0.99855673, -0.014532873, 0.036724977, 0.036394536, 0.0067524384, 0.014740931, 0.014852524, 0
190, 225295121, 0.9985565, -0.0145271355, 0.036730394, 0.03639813, 0.012784941, 0.006835543, -0.004714012, 0
192, 225328455, 0.998556, -0.014536148, 0.03674018, 0.036398366, -0.006920045, -0.003604328, 0.008890152, 0
194, 225361789, 0.998556, -0.01455616, 0.036727216, 0.03640525, -0.002715431, 0.0064650984, 0.012793541, 0
196, 225395123, 0.9985561, -0.014573809, 0.03671654, 0.03640567, -0.0027416658, 0.011764004, 0.037122726, 0
198, 225428457, 0.99855596, -0.014573693, 0.03671445, 0.03640968, -0.0015004146, -0.0055616032, 0.039892197, 0
199, 225445124, 0.9985558, -0.014572408, 0.036725875, 0.036403302, 0.005133841, -0.005035719, 0.028971672, 0
201, 225478458, 0.9985562, -0.0145764295, 0.036710866, 0.036404304, -0.008521543, -0.012140372, 0.023916245, 0
203, 225511792, 0.99855626, -0.014581508, 0.036701284, 0.0364127, -0.0016106344, 0.013679566, 0.024199486, 0
205, 225545126, 0.9985563, -0.014570871, 0.036694266, 0.03642137, -0.012567435, 0.0015798734, 0.005317688, 0
207, 225578460, 0.99855596, -0.014593418, 0.03669398, 0.0364206, 0.0033534765, 0.014749508, 0.02431488, 0
208, 225595127, 0.9985555, -0.014598657, 0.03669733, 0.03643252, 0.0045485725, 0.012741286, 0.017437935, 0
210, 225628461, 0.998555, -0.014596232, 0.036710795, 0.036433425, 0.015770711, 0.011386616, 0.020411491, 0
212, 225661795, 0.9985553, -0.014608575, 0.036694176, 0.03643552, 0.012686623, 0.0049390635, 0.0119075775, 0
214, 225695129, 0.9985555, -0.014598455, 0.03668559, 0.036439687, -0.0071986536, -0.007995324, 0.026742935, 0
216, 225728463, 0.9985549, -0.01461449, 0.036685113, 0.036450993, 0.0047843507, 0.015614824, 0.027471542, 0
217, 225745130, 0.99855477, -0.014621157, 0.03669047, 0.036446683, 0.0042456286, 7.9945E-4, 0.010744095, 0
219, 225778464, 0.9985551, -0.014619689, 0.036679517, 0.036447935, 0.003764908, 0.008064501, 0.03910637, 0
223, 225845132, 0.9985554, -0.014624491, 0.036689073, 0.03643033, -0.0133858, 0.00671588, 0.013354301, 0
225, 225878466, 0.9985547, -0.014634198, 0.036687803, 0.036448114, -0.0036481505, -0.0015838407, 0.037467003, 0
226, 225895133, 0.9985544, -0.014638725, 0.03669134, 0.036451917, 0.006513922, 0.008117264, 0.029457092, 0
228, 225928467, 0.99855393, -0.014647724, 0.03668743, 0.03646269, -0.016031522, 0.019254468, 0.018806458, 0
230, 225961801, 0.9985535, -0.014656069, 0.036680486, 0.036478464, 9.319093E-4, 0.007193066, 0.014389992, 0
232, 225995135, 0.99855244, -0.014664576, 0.03668761, 0.036497287, 0.0069178375, 0.012797807, 0.0345459, 0
234, 226028469, 0.9985518, -0.014671606, 0.036692064, 0.036506776, 0.00899648, -0.0060932706, 0.0025424957, 0
235, 226045136, 0.998552, -0.014676726, 0.036686186, 0.036504462, -0.0045081447, 0.0062215948, 0.020147324, 0
237, 226078470, 0.9985523, -0.014676254, 0.036679376, 0.036504537, -0.011474345, -0.005143382, 0.019390106, 0
239, 226111804, 0.998549, -0.014601367, 0.036791462, 0.03651449, -0.009564091, 0.007428132, 0.014993668, 0
243, 226178472, 0.998548, -0.014601036, 0.03679187, 0.036542565, -0.0046123574, 3.2194247E-4, 0.03666401, 0
244, 226195139, 0.99854815, -0.014598429, 0.036786415, 0.036541495, -0.00470573, -0.0011167964, 0.014066696, 0
246, 226228473, 0.9985475, -0.014606248, 0.03680023, 0.03654161, 0.0084975995, 6.422086E-4, 0.029346466, 0
248, 226261807, 0.9985468, -0.014603503, 0.036808223, 0.036555097, -0.010893602, -0.0017479551, -0.007624626, 0
250, 226295141, 0.99854684, -0.014607354, 0.036807254, 0.036550645, -0.02579806, 0.0036298784, 0.021935463, 0
252, 226328475, 0.9985465, -0.014616946, 0.036808647, 0.036558557, 0.007371094, 0.0070881685, -0.0015411377, 0
253, 226345142, 0.9985464, -0.014621338, 0.036804896, 0.036561877, -0.008645537, 0.005720074, 0.012976646, 0
255, 226378476, 0.99854577, -0.0146369515, 0.03680979, 0.036567338, -0.005057735, 0.006948347, 0.0032749176, 0
257, 226411810, 0.99854493, -0.014632166, 0.036822602, 0.03657977, 0.0027685713, -0.016940074, 0.008044243, 0
259, 226445144, 0.9985449, -0.014632845, 0.036826532, 0.03657724, 0.0079613915, 0.0040120017, 9.5176697E-4, 0
264, 226528479, 0.99854344, -0.014619102, 0.036854636, 0.03659126, -0.0049147983, 0.0032140464, 0.016757965, 0
266, 226561813, 0.99854213, -0.014631026, 0.03687031, 0.03660801, -0.0072295545, 0.0051407143, 0.001704216, 0
268, 226595147, 0.99854195, -0.014641532, 0.036861215, 0.036617164, -0.0021497477, -0.016579423, 0.010508537, 0
270, 226628481, 0.9985418, -0.014640068, 0.036872964, 0.036611073, 0.0037128297, 0.0051523787, 0.037467957, 0
271, 226645148, 0.9985419, -0.014631863, 0.0368765, 0.03660712, 0.013237946, 0.015541666, -7.43866E-5, 0
273, 226678482, 0.9985417, -0.014633346, 0.036875777, 0.036612038, 4.450143E-4, 0.0018216725, 0.018882751, 0
275, 226711816, 0.9985414, -0.0146250995, 0.03687574, 0.03662395, -0.0076967245, -0.0011949701, 0.00623703, 0
277, 226745150, 0.9985412, -0.014619875, 0.0368828, 0.03662685, -0.008608741, 0.0046719657, 0.022314072, 0
279, 226778484, 0.9985404, -0.014630797, 0.036888078, 0.03663657, 0.006462961, 0.0063135703, 0.023096085, 0
280, 226795151, 0.99854, -0.014638225, 0.036889993, 0.036645617, 0.0035241288, -0.0063902214, 0.021069527, 0
284, 226861819, 0.9985401, -0.014626872, 0.036879245, 0.03665706, 0.0041951425, 8.5517456E-4, 0.022585869, 0
286, 226895153, 0.9985394, -0.014623402, 0.036893975, 0.03666197, 8.050937E-4, 0.0025271352, 0.020539284, 0
288, 226928487, 0.99853945, -0.014623248, 0.036883846, 0.03667276, 0.004863474, 0.008171662, 0.03856182, 0
289, 226945154, 0.9985401, -0.014609826, 0.03687554, 0.03666785, -0.008135481, -0.013341041, 0.026047707, 0
291, 226978488, 0.9985393, -0.014617397, 0.036878675, 0.036680702, -0.0042372746, 0.010926333, 0.034386635, 0
295, 227045156, 0.99854064, -0.0146035245, 0.036847036, 0.036684055, 0.005003449, -5.972266E-4, 0.020175934, 0
297, 227078490, 0.99854124, -0.014611694, 0.036835667, 0.036674984, 0.010773995, -0.00712516, 0.016049385, 0
298, 227095157, 0.99854136, -0.01461366, 0.036834184, 0.03667378, -0.004454669, -0.004470706, 0.022938728, 0
300, 227128491, 0.99854136, -0.014609478, 0.03682991, 0.03667921, -0.005799211, -0.0020116027, 0.022649765, 0
302, 227161825, 0.99854213, -0.014606523, 0.03681847, 0.036671057, 0.008323008, -0.006182117, 0.028413773, 0
304, 227195159, 0.9985425, -0.014592749, 0.03681672, 0.03666886, 1.265642E-4, 8.8479003E-4, 0.016745567, 0
306, 227228493, 0.99854344, -0.014592743, 0.036796518, 0.036664486, 0.006938429, 0.010633377, 0.038388252, 0
307, 227245160, 0.9985435, -0.014595991, 0.036800936, 0.036653474, 0.002990799, 0.01798476, 0.014260292, 0
309, 227278494, 0.9985427, -0.014585747, 0.036817446, 0.036662422, 5.351738E-4, 0.0011474876, 0.023586273, 0
311, 227311828, 0.99854285, -0.014582484, 0.036817703, 0.036661256, 0.0023609395, 0.008063258, 0.016121864, 0
313, 227345162, 0.99854225, -0.014589069, 0.036825083, 0.036668487, -0.0062662694, 0.0066618454, 0.0135240555, 0
315, 227378496, 0.9985425, -0.014590809, 0.036816426, 0.03667096, -0.0026912356, -0.0022358, 0.017699242, 0
316, 227395163, 0.9985417, -0.014595357, 0.036828358, 0.036676485, -0.010546738, 0.0132667795, 0.015634537, 0
318, 227428497, 0.9985418, -0.014601553, 0.036818538, 0.03668134, 0.0012727107, 0.007895973, 0.014160156, 0
322, 227495165, 0.99854153, -0.014589626, 0.03682588, 0.03668484, -0.0038611304, 0.004243212, -0.010412216, 0
324, 227528499, 0.99854183, -0.014590942, 0.036810633, 0.036694072, 0.0025683315, 0.006600212, 0.024419785, 0
325, 227545166, 0.9985415, -0.01459484, 0.036811408, 0.036700543, 0.010164168, -0.0058484958, 0.04201603, 0
327, 227578500, 0.9985413, -0.01460209, 0.036799055, 0.036713913, -0.005557007, 6.798566E-4, 0.018678665, 0
329, 227611834, 0.99854136, -0.014599855, 0.036805276, 0.036708355, 0.008238184, -6.3678843E-4, 0.03103447, 0
331, 227645168, 0.9985414, -0.014600835, 0.03680494, 0.036707632, 9.778971E-4, -0.006720923, 0.018598557, 0
334, 227695169, 0.99854034, -0.014603008, 0.036820486, 0.03671999, -0.009000531, 0.008409396, 0.03260708, 0
336, 227728503, 0.9985399, -0.014589368, 0.036825467, 0.036728602, 0.0072626625, 0.0088315, 0.03147602, 0
338, 227761837, 0.99854, -0.0145760765, 0.036819816, 0.036739837, 0.0045686048, 0.0010248348, 0.013295174, 0
340, 227795171, 0.99854034, -0.014575498, 0.03681408, 0.03673666, 0.0059560337, 0.0098857405, 0.024033546, 0
343, 227845172, 0.9985399, -0.014569779, 0.03680838, 0.03675467, -0.002973337, 0.0012461406, 0.00846386, 0
345, 227878506, 0.99854004, -0.014566826, 0.036812115, 0.03674948, 0.0038160926, -0.0019082419, 0.011387825, 0
347, 227911840, 0.9985404, -0.014571699, 0.03679786, 0.036751553, 0.007138501, -0.001964637, 0.026463509, 0
349, 227945174, 0.9985395, -0.01456401, 0.03681282, 0.03676343, -0.0140324505, -0.0058524352, 0.021314621, 0
351, 227978508, 0.99853945, -0.014554776, 0.03681634, 0.036765102, -0.0034696474, -8.444878E-4, 0.0025568008, 0
352, 227995175, 0.99853885, -0.014547918, 0.03683165, 0.03676931, -0.005324833, 0.008877977, 0.013279915, 0
354, 228028509, 0.99853843, -0.014542372, 0.036838986, 0.036774557, -0.0019166236, 0.013368435, 0.022266388, 0
356, 228061843, 0.9985387, -0.014532807, 0.03683452, 0.036776513, -0.013541505, -6.3245784E-4, -0.0040664673, 0
358, 228095177, 0.9985379, -0.014532597, 0.036849238, 0.036785394, -0.0060725957, -0.006056726, 0.004160881, 0
360, 228128511, 0.9985407, -0.014593664, 0.03681013, 0.036724225, -3.0065287E-4, -0.010811056, 0.016892433, 0
363, 228178512, 0.9985396, -0.0146015445, 0.03683125, 0.036729045, -3.1786336E-4, -0.011392875, 0.010175705, 0
365, 228211846, 0.9985401, -0.014586229, 0.036822967, 0.0367278, 0.020897595, 0.002675073, 0.040340424, 0
367, 228245180, 0.9985404, -0.014576861, 0.03681759, 0.036729664, 0.0031756163, -0.004392393, 0.017745972, 0
369, 228278514, 0.9985404, -0.014561094, 0.03681447, 0.036739692, -0.0029659332, 0.008861702, 0.012825966, 0
370, 228295181, 0.9985409, -0.014562773, 0.03680659, 0.03673419, -4.725064E-4, 7.056444E-4, 0.01054287, 0
372, 228328515, 0.9985405, -0.014551992, 0.036812946, 0.036742654, -0.0042695724, -0.0039859065, 0.017414093, 0
374, 228361849, 0.9985412, -0.014524709, 0.036808025, 0.036741327, 0.012202969, -0.0028091108, 0.01879406, 0
376, 228395183, 0.99854136, -0.014514786, 0.036801048, 0.036747135, -0.0025139619, 0.0022408292, 0.03535366, 0
378, 228428517, 0.99854094, -0.01452071, 0.03679934, 0.036755, -0.007182114, -0.0010433585, 0.0026369095, 0
379, 228445184, 0.99854106, -0.014520769, 0.03679954, 0.036751688, -0.009873601, -0.007258695, 0.028533936, 0
383, 228511852, 0.9985409, -0.014535093, 0.036778383, 0.03677258, -0.004824639, 0.010005502, 0.031698227, 0
385, 228545186, 0.9985409, -0.014521875, 0.03678473, 0.03677225, -0.004282983, 6.793397E-5, 0.037903786, 0
387, 228578520, 0.99854094, -0.014530195, 0.036782023, 0.036769204, 0.0010023718, 0.008056371, 0.0051994324, 0
388, 228595187, 0.9985407, -0.014535813, 0.036782503, 0.036773715, -0.00221289, -0.010018577, 0.0057325363, 0
390, 228628521, 0.9985412, -0.01453129, 0.036778543, 0.036766827, 0.008294705, 0.011420017, 0.0070228577, 0
392, 228661855, 0.9985405, -0.014531792, 0.03678002, 0.03678163, 0.0073351646, 0.0022492947, -7.429123E-4, 0
394, 228695189, 0.998541, -0.014522936, 0.03678194, 0.03677301, 0.006023842, 0.0018543473, 0.029931068, 0
396, 228728523, 0.9985415, -0.0145238, 0.036766775, 0.036774177, -8.913138E-4, 0.0023961149, 0.023469925, 0
397, 228745190, 0.9985414, -0.014524584, 0.036771942, 0.036769953, -0.0032018789, -0.01132508, 0.008224487, 0
399, 228778524, 0.9985415, -0.014513735, 0.036775243, 0.036768414, 0.0037157352, 0.0074887457, 0.007827759, 0
401, 228811858, 0.9985411, -0.014519426, 0.036774125, 0.03677797, 0.0019942105, 0.004175222, 0.04082203, 0
403, 228845192, 0.99854195, -0.014516749, 0.036758274, 0.036771983, -0.0068967994, -0.001472238, 0.009167671, 0
405, 228878526, 0.99854213, -0.014509264, 0.03675635, 0.03676991, -0.00870569, -0.015333114, 0.007946968, 0
406, 228895193, 0.99854195, -0.014507618, 0.036758788, 0.03677351, -0.0034980895, -0.005604434, 0.02558422, 0
408, 228928527, 0.9985426, -0.014500638, 0.03675087, 0.036765095, -0.004635044, 0.0010927409, 0.026654243, 0
410, 228961861, 0.99854255, -0.014499924, 0.036748208, 0.036769953, 0.0055385395, -8.466112E-4, 0.020386696, 0
412, 228995195, 0.9985425, -0.01449538, 0.03675296, 0.03676904, 0.0014281081, -0.0017129474, 0.004837036, 0
414, 229028529, 0.99854314, -0.01449175, 0.036744747, 0.036764387, 0.0071441727, 8.267744E-4, 0.029449463, 0
415, 229045196, 0.9985435, -0.0144983465, 0.0367478, 0.036750093, -0.008062308, -0.0016774088, 0.025623322, 0
419, 229111864, 0.9985435, -0.014495363, 0.03673347, 0.036762957, -0.01614775, 0.013626649, 0.021494865, 0
421, 229145198, 0.9985437, -0.014491317, 0.036730863, 0.036760636, -0.012384015, -0.028013075, 0.009055138, 0
423, 229178532, 0.9985437, -0.014474941, 0.036737792, 0.036760513, 0.009361672, -0.002551596, 0.023686409, 0
424, 229195199, 0.99854344, -0.014467429, 0.03674934, 0.036757927, 0.0076853256, -0.013366661, 0.030900002, 0
426, 229228533, 0.998543, -0.014456506, 0.0367669, 0.03675383, 0.011093954, -0.0015750818, 0.029417038, 0
428, 229261867, 0.99854356, -0.014462545, 0.036765527, 0.036739413, -0.004710396, 0.008807151, 0.021196365, 0
430, 229295201, 0.99854374, -0.01445218, 0.036768336, 0.036738575, 0.0034972234, 0.007265987, 0.010608673, 0
432, 229328535, 0.9985437, -0.014446432, 0.036778025, 0.036732197, 0.024562119, 0.002311124, 0.033234596, 0
433, 229345202, 0.9985439, -0.0144411465, 0.036781885, 0.036724918, -0.0023586764, -0.0072892183, 0.015093803, 0
435, 229378536, 0.99854356, -0.014441875, 0.036783695, 0.03673199, -0.0064711194, -0.006513433, 0.005504608, 0
439, 229445204, 0.99854296, -0.014435113, 0.03679499, 0.036739204, -0.0022104871, -0.005975689, 0.022764206, 0
441, 229478538, 0.9985427, -0.014440359, 0.03679509, 0.03674344, 0.0071827006, -0.0035523472, 0.00771904, 0
442, 229495205, 0.998543, -0.014441938, 0.03679813, 0.03673284, 0.0014387808, 0.005109143, 0.017381668, 0
444, 229528539, 0.99854314, -0.014438152, 0.036786772, 0.03673956, 0.008482372, -0.009341361, 0.03202629, 0
446, 229561873, 0.9985436, -0.014425829, 0.036781523, 0.03673807, -0.0069372836, 0.003435855, 0.025648117, 0
448, 229595207, 0.9985436, -0.01441985, 0.036778156, 0.036745533, 0.0014132166, -0.010910757, 0.03275299, 0
450, 229628541, 0.9985434, -0.014403142, 0.036778174, 0.036754407, 0.0010277405, 2.1693329E-4, 0.010092735, 0
451, 229645208, 0.9985441, -0.014399465, 0.036764856, 0.036751628, -0.003331684, -0.0023022254, 0.0064725876, 0
453, 229678542, 0.99854374, -0.014398191, 0.03676648, 0.03676119, 0.015765375, -0.016317451, 0.024537086, 0
455, 229711876, 0.9985442, -0.014397087, 0.0367512, 0.03676304, -0.008430908, 0.007048928, 0.008018494, 0
459, 229778544, 0.99854493, -0.014385393, 0.03674528, 0.03675356, -0.0021618453, -3.6611423E-4, 0.005027771, 0
460, 229795211, 0.9985447, -0.014389702, 0.036750816, 0.036753, 0.009759805, -0.0016770177, 0.038909912, 0
462, 229828545, 0.9985448, -0.014393396, 0.0367495, 0.036750622, -0.0053828345, -0.0070997635, 7.171631E-4, 0
464, 229861879, 0.99854517, -0.014388723, 0.036742736, 0.0367503, -0.00435881, 0.014838383, 0.015646935, 0
466, 229895213, 0.99854416, -0.014395521, 0.036754675, 0.036763698, 0.012486691, 0.0013494455, -0.005662918, 0
468, 229928547, 0.998544, -0.014403694, 0.036759418, 0.03675974, -0.011568667, 8.02202E-4, 0.02204609, 0
471, 229978548, 0.99854326, -0.0144197745, 0.036781788, 0.036749747, -0.017336195, -0.009404391, -0.014600754, 0
473, 230011882, 0.998544, -0.014416636, 0.03678199, 0.036731727, 0.004207017, -0.009500097, 0.025101662, 0
475, 230045216, 0.99854434, -0.014421528, 0.03676915, 0.03673283, -0.0019108402, 3.651224E-4, 0.008178711, 0
477, 230078550, 0.99854493, -0.014411076, 0.036754318, 0.036735248, -0.0054297443, -0.011622716, 0.03256035, 0
480, 230128551, 0.9985394, -0.014524589, 0.03679365, 0.036801405, 0.0065563056, 0.0045115533, 0.01038456, 0
482, 230161885, 0.9985392, -0.014526298, 0.03678304, 0.03681838, 0.002454843, -0.015330013, 0.015719414, 0
484, 230195219, 0.9985388, -0.01452809, 0.03679441, 0.036815148, 0.0037418304, -0.009736476, 0.024967194, 0
486, 230228553, 0.99853903, -0.014523121, 0.036800154, 0.0368074, 0.004385799, -0.017836096, 0.004313469, 0
487, 230245220, 0.99853957, -0.014523055, 0.036786426, 0.036803875, 0.001228511, -0.0041621607, 2.670288E-4, 0
489, 230278554, 0.9985397, -0.0145210065, 0.036779206, 0.036811862, 0.002230855, 0.004595203, 0.035294533, 0
491, 230311888, 0.9985398, -0.014521133, 0.036777016, 0.03681018, 0.008391822, -0.020066602, 0.0028438568, 0
493, 230345222, 0.9985391, -0.014528445, 0.03679002, 0.036811523, 0.021548493, -8.3190127E-4, 0.008673668, 0
495, 230378556, 0.9985413, -0.014523497, 0.03673045, 0.036813755, -0.02119565, -0.0026127407, 0.03724289, 0
496, 230395223, 0.9985404, -0.014514253, 0.03675451, 0.036815636, -0.004807177, 0.0010510138, 0.03779316, 0
498, 230428557, 0.9985414, -0.014531018, 0.03673511, 0.03680433, -8.7142114E-5, 0.005118391, 0.012465477, 0
500, 230461891, 0.99854213, -0.014531225, 0.03671107, 0.036807958, -0.0058403937, -0.0015985367, -5.531311E-4, 0
502, 230495225, 0.9985425, -0.014523242, 0.036709946, 0.036801454, 0.002509855, 0.0060947794, 0.016776085, 0
504, 230528559, 0.9985421, -0.014525499, 0.036714047, 0.036808774, -0.0027763662, -0.0010363457, 0.046761513, 0
505, 230545226, 0.9985419, -0.0145272175, 0.03672271, 0.036804657, -0.005239367, -0.010680245, 0.017461777, 0
507, 230578560, 0.9985425, -0.014517329, 0.036707126, 0.036806338, -0.0050006276, -9.7101013E-4, 0.0041913986, 0
509, 230611894, 0.9985422, -0.014527358, 0.036721922, 0.036798254, 0.013509095, 0.007074702, 0.015871048, 0
511, 230645228, 0.998542, -0.014532188, 0.03673258, 0.03679179, -0.006516241, 9.93557E-4, 0.009820938, 0
513, 230678562, 0.9985413, -0.014529457, 0.036749076, 0.036791116, -0.01238069, 0.005029628, 0.01683712, 0
516, 230728563, 0.9985409, -0.014545829, 0.036753703, 0.036795784, -0.00487736, -0.007788267, 0.0116996765, 0
518, 230761897, 0.9985413, -0.014536153, 0.036742974, 0.03679819, -0.013628563, -0.0051593077, 0.05897045, 0
520, 230795231, 0.99854106, -0.014532848, 0.036754295, 0.036795113, 0.010744743, 0.005641383, 0.013562202, 0
522, 230828565, 0.99854004, -0.014542755, 0.03676871, 0.036802106, 0.0053676637, 0.008805544, 0.023932457, 0
523, 230845232, 0.9985403, -0.014540298, 0.036761876, 0.03680441, 0.0014692065, 8.2562893E-4, 0.003648758, 0
525, 230878566, 0.99854106, -0.014558612, 0.036746167, 0.036791578, 0.004369036, 0.006472181, 0.018378258, 0
527, 230911900, 0.9985408, -0.014548626, 0.036749836, 0.036798824, -0.004503926, -0.008162246, 0.013282776, 0
529, 230945234, 0.9985406, -0.014546289, 0.036756713, 0.036798187, -0.0038184396, -0.009080032, 0.03421116, 0
531, 230978568, 0.9985414, -0.014545894, 0.036745403, 0.03678721, 0.0012195146, -0.0024439325, 0.011865616, 0
532, 230995235, 0.99854106, -0.014550575, 0.03675455, 0.03678585, -0.009626927, 0.009208357, 0.018475533, 0
536, 231061903, 0.9985419, -0.014539866, 0.03675422, 0.036766935, 0.0047124634, 0.005890097, 0.021782875, 0
538, 231095237, 0.9985416, -0.014547547, 0.03675872, 0.036767554, 0.010901984, -0.0037641816, 0.039546013, 0
540, 231128571, 0.9985412, -0.014540041, 0.036779758, 0.036759485, -8.6127926E-4, -2.269355E-4, 0.02157116, 0
541, 231145238, 0.99854106, -0.0145404665, 0.03678116, 0.036761638, -0.0054474296, -0.001349236, 0.035245895, 0
543, 231178572, 0.9985408, -0.014553602, 0.036790486, 0.03675604, 0.011585962, -0.002319827, 0.025323868, 0
545, 231211906, 0.9985412, -0.014552029, 0.036781434, 0.036755305, 0.015058794, -9.996757E-4, 0.029914856, 0
547, 231245240, 0.99854004, -0.014549306, 0.03679889, 0.036766864, 0.0021501668, -0.0012507227, 0.031271935, 0
549, 231278574, 0.99853903, -0.014550809, 0.036812246, 0.036780495, 0.011599037, 0.0023360178, 0.022195816, 0
550, 231295241, 0.99853987, -0.014552511, 0.03680572, 0.036768258, 0.012793966, 0.0040143346, 0.030727386, 0
552, 231328575, 0.99853927, -0.014560687, 0.03682135, 0.036762796, -0.009480302, -0.0016986566, 0.030700684, 0
556, 231395243, 0.9985385, -0.014575126, 0.036822837, 0.036777187, 8.499359E-4, 0.0077330032, 0.0025930405, 0
558, 231428577, 0.99853855, -0.014592723, 0.03681872, 0.03677377, 0.012971267, -0.006948445, 0.017466545, 0
559, 231445244, 0.9985387, -0.014585378, 0.036816526, 0.0367757, 0.0026317253, -0.007324268, 0.0025320053, 0
561, 231478578, 0.9985385, -0.014586274, 0.03682192, 0.036775265, 0.011513068, 0.0038336243, 0.034737587, 0
563, 231511912, 0.99853814, -0.014605179, 0.036820687, 0.036778096, 4.1126383E-5, -0.0067243176, 0.01444149, 0
565, 231545246, 0.99853796, -0.014626962, 0.03681973, 0.036777135, 0.011360912, 0.0018295234, 0.034415245, 0
567, 231578580, 0.99853814, -0.014636555, 0.03681548, 0.036770254, -4.4331E-4, 0.0068099787, 0.018733978, 0
568, 231595247, 0.99853814, -0.014637755, 0.036810726, 0.036774877, 0.012131557, 0.0012772369, 0.021437645, 0
570, 231628581, 0.9985387, -0.014630855, 0.03680076, 0.036771063, -0.016539764, 0.0042515798, 0.02050209, 0
572, 231661915, 0.99853855, -0.014634357, 0.036798827, 0.03677543, -0.012558439, 0.002445986, 0.0079574585, 0
576, 231728583, 0.9985395, -0.014638104, 0.03677533, 0.03677066, 0.010228344, 0.004609284, 0.015883446, 0
577, 231745250, 0.9985397, -0.014633708, 0.036771946, 0.03677109, 0.0074929367, 0.002953123, 0.014707565, 0
579, 231778584, 0.998539, -0.01463907, 0.036782436, 0.036778398, -0.0021040672, 0.008356647, 0.015425682, 0
581, 231811918, 0.99853885, -0.014639899, 0.03678386, 0.036780585, -4.2989923E-4, 0.002395151, 0.025657654, 0
583, 231845252, 0.9985381, -0.014637155, 0.03679754, 0.036788903, -0.005352409, -0.002549249, 0.010751724, 0
585, 231878586, 0.99853784, -0.014636087, 0.036795653, 0.03679821, 0.016585778, -0.0039816876, 0.020251274, 0
586, 231895253, 0.99853766, -0.014641099, 0.03679745, 0.03680129, 0.011688526, 7.3707587E-4, 0.03341484, 0
588, 231928587, 0.99853855, -0.014644867, 0.036773704, 0.036797427, 0.007151241, 0.0064150873, 0.027985573, 0
590, 231961921, 0.9985388, -0.01463412, 0.036780257, 0.036787823, 8.188956E-4, 0.007344873, 0.026208878, 0
592, 231995255, 0.99853843, -0.014644692, 0.03678682, 0.036785804, 0.01383235, 0.003947756, 0.032133102, 0
594, 232028589, 0.99854004, -0.014642275, 0.03676361, 0.036770985, -0.0063736117, 0.0069098333, 0.0019979477, 0
595, 232045256, 0.99854004, -0.014637355, 0.036759067, 0.03677473, 2.4558485E-5, 0.0067743845, 0.014790535, 0
597, 232078590, 0.9985395, -0.01464183, 0.036764752, 0.036780853, 0.016306778, -0.001963296, 0.022323608, 0
599, 232111924, 0.99853945, -0.014527489, 0.036770415, 0.036825087, 0.003429443, 0.0044907383, 0.040976524, 0
601, 232145258, 0.9985396, -0.014529885, 0.03675626, 0.036833204, -0.0024963603, -0.013511553, 0.026713371, 0
603, 232178592, 0.99853987, -0.014538394, 0.036753733, 0.036823176, -5.207293E-4, 0.0048377984, 0.027745247, 0
604, 232195259, 0.99854004, -0.014538408, 0.036751494, 0.036819793, 0.01205601, 0.0022296396, -0.0082530975, 0
606, 232228593, 0.99854034, -0.01453038, 0.03674548, 0.036821328, 0.0094120465, -0.0069304523, 0.015339851, 0
608, 232261927, 0.9985404, -0.014537875, 0.036746755, 0.036816113, 0.001205098, 0.0050887614, -2.784729E-4, 0
612, 232328595, 0.9985385, -0.014537026, 0.036775533, 0.03683846, 0.002743482, 0.0014291698, 0.034335136, 0
613, 232345262, 0.99853855, -0.0145266615, 0.036777027, 0.036842503, -0.006210112, 0.0010234658, 0.014186859, 0
615, 232378596, 0.99853814, -0.014524502, 0.036780387, 0.03684976, -0.0059876046, 0.0041394182, 0.019711494, 0
617, 232411930, 0.9985376, -0.014537994, 0.036782097, 0.03685865, -0.006730897, 0.0053584576, 0.016872406, 0
619, 232445264, 0.99853724, -0.014539398, 0.036780402, 0.036869027, 0.008245421, -0.014770909, 0.021377563, 0
621, 232478598, 0.9985362, -0.014546504, 0.036792625, 0.03687997, -0.004097104, -0.0012213028, 0.02865982, 0
622, 232495265, 0.9985366, -0.014546918, 0.036788274, 0.03687518, -0.0025349164, 0.011885692, 0.027907372, 0
624, 232528599, 0.99853706, -0.014545663, 0.036776125, 0.036874626, -0.0024819158, 0.013668376, 0.03191662, 0
626, 232561933, 0.9985373, -0.014544993, 0.036771115, 0.0368739, -0.007048956, -0.00356668, 0.029065132, 0
628, 232595267, 0.9985372, -0.014543575, 0.03676336, 0.036887173, 0.007153085, 0.0027332702, 0.025123596, 0
631, 232645268, 0.9985366, -0.014556369, 0.036785092, 0.036876827, 0.008958651, 0.002029791, 0.022655487, 0
633, 232678602, 0.99853575, -0.014560348, 0.036797184, 0.036882076, -0.0036550795, -0.0038208421, 0.023744583, 0
635, 232711936, 0.9985349, -0.014550536, 0.036805846, 0.0368995, -0.006309575, 0.0016557421, 0.009943008, 0
637, 232745270, 0.99853486, -0.014546707, 0.036805842, 0.036905676, -9.264612E-4, 0.005722281, 0.0183115, 0
639, 232778604, 0.998535, -0.0145505695, 0.036805872, 0.03689994, -0.005960224, 0.010962863, 0.036278725, 0
640, 232795271, 0.99853534, -0.014552346, 0.036801666, 0.036892843, 7.0113223E-4, -0.009101559, 0.050827026, 0
642, 232828605, 0.9985355, -0.014551004, 0.03679553, 0.036896147, -0.0050841095, -0.001552088, 0.037831306, 0
644, 232861939, 0.99853534, -0.014555308, 0.03680168, 0.03689421, -0.0041350736, 0.004145816, 0.014620781, 0
646, 232895273, 0.99853563, -0.014550506, 0.03679842, 0.036888704, 0.0038472167, -1.17484E-5, 0.02973938, 0
648, 232928607, 0.9985361, -0.0145440595, 0.03678367, 0.036893193, 0.01161228, 0.0033898673, 0.018521309, 0
651, 232978608, 0.9985356, -0.014542401, 0.036782533, 0.036907908, -0.0076050283, 9.29311E-4, 0.031852722, 0
653, 233011942, 0.99853486, -0.014546073, 0.036795516, 0.03691243, -0.004149015, 0.0046215914, 0.028933525, 0
655, 233045276, 0.9985351, -0.014541035, 0.036797132, 0.03691134, 0.0026373412, -0.004268315, 0.020439148, 0
657, 233078610, 0.99853456, -0.014551444, 0.03679752, 0.0369182, 0.01674671, -0.009330674, 0.019918442, 0
658, 233095277, 0.99853414, -0.0145554915, 0.036801964, 0.03692308, -0.002986692, 0.0076124184, 0.016405106, 0
660, 233128611, 0.998534, -0.014549818, 0.03680596, 0.036925342, -0.0025476846, -0.0073456974, -0.0010967255, 0
662, 233161945, 0.99853414, -0.014544156, 0.036809653, 0.036921743, -0.005728218, 0.0026206614, 0.025053024, 0
664, 233195279, 0.9985348, -0.014541787, 0.036798492, 0.036915623, 0.013048714, 0.0012501639, 0.0051822662, 0
666, 233228613, 0.99853414, -0.014545206, 0.036804732, 0.036925804, 0.0032015156, -0.0020084595, 0.024285316, 0
667, 233245280, 0.99853474, -0.014544473, 0.036791835, 0.036923535, 0.0065319147, 0.004990206, 0.013820648, 0
671, 233311948, 0.998534, -0.014572191, 0.036799647, 0.036924925, -0.0019289447, -0.006972724, 0.011083603, 0
673, 233345282, 0.9985342, -0.01456958, 0.03679926, 0.036918696, 0.008684428, 0.014157046, 0.024663925, 0
675, 233378616, 0.99853414, -0.014573261, 0.03680146, 0.036918074, 0.012158238, -0.005367957, 0.045042038, 0
676, 233395283, 0.998534, -0.014584824, 0.036796477, 0.036922842, -0.0011760972, 0.006344527, 0.002538681, 0
678, 233428617, 0.9985339, -0.014580793, 0.03679804, 0.03692321, 0.0055200993, 0.0061327624, 0.02124405, 0
680, 233461951, 0.99853367, -0.014580373, 0.036802992, 0.03692522, 0.005733638, 0.0018679677, 0.038386345, 0
682, 233495285, 0.99853337, -0.0145864105, 0.03679725, 0.03693756, 0.010405646, 0.004346028, 0.035416603, 0
684, 233528619, 0.998534, -0.014575489, 0.036788873, 0.036932476, -0.019236336, 0.003707116, 0.033771515, 0
685, 233545286, 0.9985337, -0.014587143, 0.036796156, 0.036928393, -0.016508332, 0.009630922, 0.041312218, 0
687, 233578620, 0.99853414, -0.014585511, 0.036787897, 0.03692694, 0.0037757764, 0.0025066838, 0.02320671, 0
689, 233611954, 0.99853384, -0.014589375, 0.036800936, 0.036920317, -0.0018796043, 0.0011199676, 0.023527145, 0
691, 233645288, 0.9985333, -0.014600434, 0.036808133, 0.036922086, -0.014090033, -3.5326224E-4, 0.006307602, 0
693, 233678622, 0.99853396, -0.014608989, 0.036798466, 0.036912244, 2.8190573E-4, 0.0012963053, 0.020385742, 0
694, 233695289, 0.9985337, -0.014609645, 0.03680701, 0.036909387, 0.0016541635, 8.3378714E-4, 0.023486137, 0
696, 233728623, 0.9985336, -0.01459509, 0.036808934, 0.036913518, 0.005526274, 0.00197524, 0.01957035, 0
698, 233761957, 0.9985335, -0.01461407, 0.03679838, 0.036921233, 0.008694934, 0.003697016, 0.014831543, 0
700, 233795291, 0.99853325, -0.014619197, 0.03680752, 0.036916506, 0.0051495987, 0.0036876844, 0.017302513, 0
702, 233828625, 0.99853253, -0.01462954, 0.036816947, 0.036924805, 0.0019319063, 0.0101466775, 0.013548851, 0
703, 233845292, 0.99853307, -0.014635777, 0.03680678, 0.03691746, -0.003662148, 0.018725175, 0.0133571625, 0
707, 233911960, 0.99853295, -0.014640299, 0.036812756, 0.036912818, 4.5571497E-4, 0.0044286717, 0.0406456, 0
709, 233945294, 0.99853307, -0.014627032, 0.03680995, 0.036917586, -0.010099963, 0.004631398, 0.027452469, 0
711, 233978628, 0.9985323, -0.014634893, 0.036822498, 0.036922283, 0.0037854991, 0.0055989716, 0.02884674, 0
712, 233995295, 0.9985325, -0.014636017, 0.036822062, 0.036917694, -0.005161054, -0.0015602461, 0.025801659, 0
714, 234028629, 0.9985327, -0.014629611, 0.036816023, 0.03692129, -0.0054531293, 0.011326812, 0.009518623, 0
716, 234061963, 0.9985325, -0.01461883, 0.03681493, 0.036930755, -0.008319935, 0.010003043, 0.0067749023, 0
718, 234095297, 0.99853307, -0.014610416, 0.036805566, 0.036927342, 0.008763496, 0.0070024375, 0.025510788, 0
720, 234128631, 0.9985369, -0.014546222, 0.03675933, 0.036896754, 0.0018036378, 0.009973357, 0.018422127, 0
721, 234145298, 0.9985366, -0.014547974, 0.03676176, 0.036902484, -0.003969311, 0.021311387, 0.007744789, 0
723, 234178632, 0.9985371, -0.014534357, 0.03675796, 0.036896974, -0.0017211615, 0.0065691853, 0.012832642, 0
727, 234245300, 0.9985371, -0.014518178, 0.036760796, 0.036901042, 0.002063248, 0.0027009305, 0.03137207, 0
729, 234278634, 0.9985371, -0.014524385, 0.03675584, 0.036901914, 0.0064540203, -0.008672694, 0.010328293, 0
730, 234295301, 0.99853677, -0.01452504, 0.036760386, 0.03690647, -0.005652922, -0.026881428, 0.018030167, 0
732, 234328635, 0.9985368, -0.014523295, 0.036762167, 0.036902733, 0.0041005686, 0.005178516, 0.03316784, 0
734, 234361969, 0.9985371, -0.01451956, 0.036754966, 0.036904503, 0.0030236554, -0.0018744495, 0.015788078, 0
736, 234395303, 0.9985371, -0.014516953, 0.036764886, 0.036896434, 0.0021175058, 0.007923185, 0.027848244, 0
738, 234428637, 0.9985374, -0.014513064, 0.036760982, 0.036894947, -0.010779052, -0.009935849, 0.012727737, 0
739, 234445304, 0.9985371, -0.01451467, 0.036765244, 0.03689486, 0.008408921, -6.283228E-4, 0.017716408, 0
741, 234478638, 0.99853677, -0.014514858, 0.036775712, 0.036896165, -0.008121008, -0.006417462, 0.045425415, 0
743, 234511972, 0.9985371, -0.014520011, 0.03677383, 0.03688385, 0.0013188662, -0.0052520935, 0.011436462, 0
747, 234578640, 0.9985369, -0.0145278, 0.036780655, 0.036883608, 0.005216485, -6.763083E-4, 0.028741837, 0
748, 234595307, 0.9985373, -0.0145190945, 0.036777522, 0.036879145, -1.5601204E-4, 0.009480707, 0.020560265, 0
750, 234628641, 0.9985371, -0.014516277, 0.036782824, 0.036878917, 0.0045448286, -0.001933415, 2.5844574E-4, 0
752, 234661975, 0.9985375, -0.014506824, 0.03678347, 0.03687468, -0.015136102, 7.612991E-4, 0.024166107, 0
754, 234695309, 0.99853736, -0.014503882, 0.03678234, 0.036877416, -0.0019723622, 0.0042297035, 0.024018288, 0
756, 234728643, 0.9985377, -0.0144885015, 0.036784455, 0.036868785, -0.01349521, -0.002248233, 0.022362709, 0
757, 234745310, 0.99853814, -0.014475952, 0.036782537, 0.036864053, -0.0035402216, -0.003502448, 0.026719093, 0
759, 234778644, 0.9985377, -0.014475968, 0.036792267, 0.03686995, -0.0063788923, 0.0038366977, -0.00278759, 0
761, 234811978, 0.9985371, -0.014485304, 0.03680016, 0.036874477, -0.006048987, 0.0047064424, 0.009714127, 0
763, 234845312, 0.99853754, -0.0144862, 0.03678616, 0.036874898, 0.011218535, -0.0034273895, 0.022369385, 0
766, 234895313, 0.99853647, -0.014502126, 0.03678838, 0.03689586, -0.007776519, 0.0019748907, 0.029564857, 0
768, 234928647, 0.998537, -0.014495996, 0.03677627, 0.03689429, -0.0088790525, -0.0032622274, 0.028847694, 0
770, 234961981, 0.9985365, -0.014486997, 0.036795206, 0.036893673, 0.0029380498, -0.014625556, 0.01895523, 0
772, 234995315, 0.9985369, -0.014483977, 0.03679159, 0.036888506, 0.0047454317, 0.002891182, 0.038596153, 0
774, 235028649, 0.9985378, -0.014480275, 0.036782306, 0.036876854, -0.0033201731, 0.0045352736, 0.011813164, 0
775, 235045316, 0.9985379, -0.0144838905, 0.03677834, 0.03687326, -0.005872663, 0.010945625, 0.028417587, 0
777, 235078650, 0.99853796, -0.014453885, 0.03678347, 0.03687927, -0.007363355, -0.0067403126, 0.02090931, 0
779, 235111984, 0.99853754, -0.014447048, 0.036794342, 0.036881816, -0.01000187, 0.0013296367, 0.036802292, 0
781, 235145318, 0.9985375, -0.014442166, 0.036798574, 0.036883146, -0.013957211, 0.010750163, -0.0039377213, 0
783, 235178652, 0.998537, -0.01443977, 0.036809005, 0.036884286, 0.004851628, 0.0033621658, 0.0119457245, 0
784, 235195319, 0.9985375, -0.014441828, 0.036797043, 0.036882486, -0.018011708, -0.0011980155, -0.02531147, 0
786, 235228653, 0.9985376, -0.014432031, 0.03680537, 0.03687665, 0.001145029, 0.012034915, 0.011953354, 0
788, 235261987, 0.99853784, -0.0144296475, 0.03678785, 0.036888935, -9.835687E-4, -0.0039623957, 0.019316673, 0
790, 235295321, 0.9985382, -0.014437751, 0.03678769, 0.036875717, 0.0053613773, -0.002338588, 0.023993492, 0
792, 235328655, 0.99853706, -0.014431779, 0.036816724, 0.036877908, 0.0017570074, -0.009898607, -0.008696556, 0
793, 235345322, 0.99853694, -0.014444218, 0.036810286, 0.036883015, -0.0026987235, -0.010394344, -0.0063791275, 0
795, 235378656, 0.9985363, -0.01446054, 0.03682405, 0.036878206, -0.0031482358, 0.002207917, 0.008493423, 0
797, 235411990, 0.99853694, -0.014458041, 0.03681681, 0.03687081, -0.008679511, -0.003805406, 0.02089405, 0
799, 235445324, 0.9985374, -0.014464392, 0.036819052, 0.036852308, 4.4789203E-4, -0.0023425415, 0.0319376, 0
802, 235495325, 0.99853724, -0.014467622, 0.036822323, 0.036852058, 0.010527795, -0.009894863, 0.039702415, 0
804, 235528659, 0.9985373, -0.014470821, 0.036818102, 0.036854733, 0.0123602105, -6.840474E-4, 0.010248184, 0
806, 235561993, 0.9985374, -0.014477793, 0.036830105, 0.036838867, 0.021452773, -0.0020901815, 0.032343864, 0
808, 235595327, 0.9985379, -0.014464248, 0.036831133, 0.036827125, -0.013464951, 0.0030468588, 0.02696228, 0
810, 235628661, 0.99853814, -0.014463411, 0.03683354, 0.036821354, -0.0022310226, -0.004963175, 0.023875237, 0
811, 235645328, 0.9985379, -0.0144702075, 0.036834624, 0.036822863, 0.0049376804, -0.0038821546, 0.0075159073, 0
813, 235678662, 0.9985378, -0.014467254, 0.03684371, 0.03681766, 0.016121794, -0.0013867721, 0.02951622, 0
815, 235711996, 0.9985374, -0.014466659, 0.036845285, 0.03682663, 2.7028305E-4, 0.0010696632, 0.020366669, 0
817, 235745330, 0.9985374, -0.014462151, 0.036843296, 0.03682945, 0.010646369, -0.0021005888, 0.022747993, 0
819, 235778664, 0.9985377, -0.014451256, 0.036840063, 0.036830466, 0.0024644819, 0.0029434282, 0.0010261536, 0
822, 235828665, 0.99853885, -0.014427715, 0.03682594, 0.036820583, 0.0056793247, -0.0030502393, 0.022592545, 0
824, 235861999, 0.99853843, -0.014436775, 0.03682921, 0.036826838, -0.0043987627, -0.0015485815, 0.009737968, 0
826, 235895333, 0.998538, -0.014443037, 0.036838505, 0.036828727, 0.008369778, -0.0076419357, 0.017279625, 0
828, 235928667, 0.9985377, -0.014432451, 0.03684345, 0.036835264, 0.010377539, -0.0063497936, 0.0065202713, 0
829, 235945334, 0.99853754, -0.014446857, 0.03684484, 0.036833916, -0.01132392, -0.010551041, -0.0142736435, 0
831, 235978668, 0.9985372, -0.014440907, 0.03684834, 0.036840457, 0.004410134, 0.0045899083, 0.024567604, 0
833, 236012002, 0.99853677, -0.01442861, 0.036850486, 0.036852892, -0.009564566, -0.0072676074, 0.025614738, 0
835, 236045336, 0.9985363, -0.014432867, 0.036862977, 0.03685378, -1.6959046E-5, 0.006735842, -0.0013217926, 0
837, 236078670, 0.99853647, -0.014421785, 0.03686624, 0.036851842, 8.971251E-4, -0.0043319883, 0.03060627, 0
838, 236095337, 0.99853665, -0.014435454, 0.03686231, 0.03684579, -0.0034888696, 0.012659998, 0.010293961, 0
842, 236162005, 0.99853826, -0.01450123, 0.03672602, 0.03690849, 0.0022354648, 0.0063213515, 0.017106056, 0
844, 236195339, 0.99853855, -0.014489135, 0.036730483, 0.036902066, 0.010520475, -0.0050662425, 0.0033874512, 0
846, 236228673, 0.9985386, -0.014495493, 0.036727533, 0.03690127, 0.005319888, -0.005619451, -0.004880905, 0
847, 236245340, 0.9985382, -0.014495191, 0.0367326, 0.03690866, 0.012634517, 1.7284536E-4, 0.014044762, 0
849, 236278674, 0.99853826, -0.014495412, 0.036721826, 0.036915213, 0.0029856302, 7.616344E-4, 0.04231739, 0
851, 236312008, 0.9985385, -0.014497394, 0.03671045, 0.036918867, 0.011275306, -0.015502384, 0.011687279, 0
853, 236345342, 0.99853826, -0.014504096, 0.036708344, 0.036926348, -0.007688119, -0.0028534082, 0.026427269, 0
855, 236378676, 0.99853826, -0.0145013835, 0.036716968, 0.03691759, 0.011496557, 0.0025278616, 0.012489319, 0
856, 236395343, 0.9985381, -0.014491494, 0.036719244, 0.036924258, -0.0049734428, 0.004194472, 0.033143044, 0
858, 236428677, 0.99853736, -0.014498816, 0.03673487, 0.036926165, -0.0046000644, -0.009202601, 0.018573761, 0
862, 236495345, 0.9985378, -0.014479931, 0.036725163, 0.03693221, 8.361061E-4, 3.5776044E-5, 0.010231972, 0
864, 236528679, 0.9985371, -0.014475645, 0.036739454, 0.03693681, 0.015301948, -0.0017139392, 0.02850914, 0
865, 236545346, 0.9985368, -0.014472267, 0.036743734, 0.036941092, 0.01185739, 0.010742801, 0.018697739, 0
867, 236578680, 0.9985367, -0.014466509, 0.036743786, 0.03694658, 0.01801872, -0.0038240552, 0.026825905, 0
869, 236612014, 0.99853724, -0.014452587, 0.036742777, 0.036940206, 8.380898E-4, -0.011800073, 0.026826859, 0
871, 236645348, 0.9985376, -0.014452803, 0.036742777, 0.036929008, 0.0064396597, -0.012715205, 0.023422241, 0
873, 236678682, 0.9985373, -0.014451884, 0.036745895, 0.036935266, 0.0067636697, -0.014013732, -8.497238E-4, 0
874, 236695349, 0.9985374, -0.0144387465, 0.036740866, 0.036939885, 0.014745178, 0.002870982, 0.04668522, 0
876, 236728683, 0.99853826, -0.014443115, 0.03673671, 0.036922887, -0.016343407, -0.015898002, 0.018126488, 0
878, 236762017, 0.9985389, -0.014444176, 0.03673148, 0.036910944, 0.009974489, -0.0029736303, 0.027310371, 0
880, 236795351, 0.99853915, -0.014447309, 0.03671915, 0.036911793, -0.011674054, -0.006251015, 0.041246414, 0
882, 236828685, 0.99853903, -0.0144545045, 0.036712356, 0.036920734, -0.011066099, -7.258723E-4, 0.011739731, 0
883, 236845352, 0.9985389, -0.014459148, 0.03671347, 0.036920488, -0.009908218, 0.0035247714, 0.018745422, 0
885, 236878686, 0.99853957, -0.0144591695, 0.036706563, 0.036909282, -0.0018319122, 0.005644205, 0.01209259, 0
887, 236912020, 0.99854004, -0.014457859, 0.036696978, 0.036908314, -0.006542336, -0.0029580682, 0.04529667, 0
889, 236945354, 0.9985402, -0.014452303, 0.0366886, 0.03691275, -0.010929253, 0.0043090642, 0.007923126, 0
891, 236978688, 0.9985401, -0.014452321, 0.03669732, 0.03690785, 0.0015158369, -0.00544641, 0.0031251907, 0
892, 236995355, 0.9985404, -0.014456569, 0.036686994, 0.036909398, 0.010024053, -0.007813259, 0.019701004, 0
894, 237028689, 0.9985404, -0.014464696, 0.03668996, 0.036899388, -0.00672313, 5.394206E-4, 0.014657021, 0
898, 237095357, 0.9985412, -0.014484653, 0.03667706, 0.036887135, -0.0049474314, -0.004776458, 0.015539169, 0
900, 237128691, 0.99854136, -0.014483523, 0.036664356, 0.036892418, 0.0024725283, -0.0024145546, 0.025162697, 0
901, 237145358, 0.9985416, -0.014480311, 0.036664166, 0.03689127, -0.0014457656, -0.0026756737, 0.037903786, 0
903, 237178692, 0.99854213, -0.014476474, 0.036659535, 0.036878247, -0.0053359806, -0.009674689, 0.0034637451, 0
905, 237212026, 0.9985419, -0.014479456, 0.03666005, 0.03688618, 0.0012241525, 0.0060616713, 0.010725021, 0
907, 237245360, 0.9985413, -0.014468279, 0.03666107, 0.036906704, -0.0016979721, -0.011559769, 0.0010194778, 0
909, 237278694, 0.99854136, -0.014460236, 0.036669053, 0.03689934, -0.0066602947, -0.0033443265, 0.044487953, 0
910, 237295361, 0.9985412, -0.014457464, 0.0366689, 0.036905937, 0.001846664, -7.2089914E-4, 0.005927086, 0
912, 237328695, 0.9985409, -0.01445684, 0.03667433, 0.03690738, 0.0016725195, 0.0059762057, 0.015039444, 0
914, 237362029, 0.99854076, -0.014459132, 0.03667537, 0.03690708, 0.0025026745, 0.0024378558, 0.018491745, 0
918, 237428697, 0.9985403, -0.01446452, 0.036684677, 0.036909703, 0.0050353277, 0.0052368664, 0.045118332, 0
919, 237445364, 0.99854, -0.014469934, 0.036687743, 0.03691278, -0.0022833245, 0.014092813, 0.006511688, 0
921, 237478698, 0.99854, -0.014459557, 0.03667904, 0.036924686, 0.0045811217, 8.5481134E-4, 0.018546104, 0
923, 237512032, 0.9985414, -0.014447806, 0.03666012, 0.036910955, -0.013768929, -0.012158476, 0.033880234, 0
925, 237545366, 0.9985413, -0.0144533655, 0.036660656, 0.03691271, -0.0026656992, 0.0034137692, 0.030358315, 0
927, 237578700, 0.9985405, -0.014453848, 0.036664255, 0.03693066, -0.003157316, 0.0010759773, 0.00587368, 0
928, 237595367, 0.9985407, -0.014447211, 0.03666901, 0.036921777, -0.0066658827, 0.008551676, 0.034104347, 0
930, 237628701, 0.99854094, -0.014441896, 0.036657244, 0.036926918, -0.00738674, -0.0011569031, 0.0041036606, 0
932, 237662035, 0.99854046, -0.014442457, 0.036663625, 0.03693754, -0.005665243, 5.3951837E-4, 0.028450966, 0
934, 237695369, 0.99854004, -0.014438754, 0.036675215, 0.03693469, -0.0061986567, -0.012368439, 0.027162552, 0
937, 237745370, 0.9985398, -0.014434917, 0.03668194, 0.03693704, -0.002460235, -0.005205491, -5.054474E-4, 0
939, 237778704, 0.99854034, -0.014424197, 0.036674313, 0.036935445, 0.010337586, 0.0072693536, 0.008311272, 0
941, 237812038, 0.9985398, -0.014435965, 0.03667056, 0.036951534, -0.0041749706, -0.0018326945, 0.014740944, 0
943, 237845372, 0.99853915, -0.0144193815, 0.036681578, 0.036959734, -0.0025394424, -0.0018688897, 0.0015134811, 0
945, 237878706, 0.9985391, -0.014406597, 0.036682237, 0.036967356, -0.011346663, -1.7569515E-4, 0.020688057, 0
946, 237895373, 0.9985391, -0.014403087, 0.036689, 0.036963545, -0.0051043094, 0.0020446826, 0.020012856, 0
948, 237928707, 0.9985397, -0.014404764, 0.036673322, 0.036961645, -0.019162716, -0.011259899, 0.034374237, 0
950, 237962041, 0.9985398, -0.014399498, 0.03667034, 0.036965072, -0.0024048598, -0.0028620975, 0.020453453, 0
952, 237995375, 0.9985394, -0.014398744, 0.036676485, 0.03696931, -0.0069008507, -0.0030377787, 0.004149437, 0
954, 238028709, 0.9985392, -0.014408169, 0.03667798, 0.03697047, -0.0024191646, -0.0025642943, 0.040153503, 0
957, 238078710, 0.99853945, -0.014411297, 0.036662087, 0.03697713, -0.0069152396, -1.12105714E-4, 0.019343376, 0
959, 238112044, 0.998537, -0.014478679, 0.036706295, 0.03697238, -0.0029791764, -0.0031713834, 0.028195381, 0
961, 238145378, 0.99853724, -0.014470489, 0.03669992, 0.036972817, 0.0030240745, -0.005766718, 0.008640289, 0
963, 238178712, 0.9985373, -0.014451076, 0.03671134, 0.036970872, -5.64929E-5, -0.0039034442, 0.016489029, 0
964, 238195379, 0.99853736, -0.014447293, 0.036704816, 0.03697713, -0.0011798411, -0.015415172, 0.023546219, 0
966, 238228713, 0.9985381, -0.014429745, 0.036701925, 0.0369677, 1.6165574E-4, 0.004673223, 0.017287254, 0
968, 238262047, 0.9985383, -0.014426808, 0.036696557, 0.036967445, 0.0059710927, -0.01488634, 0.03083992, 0
970, 238295381, 0.998538, -0.01443528, 0.03670886, 0.036960423, -1.0748179E-4, -0.011844957, 0.027176857, 0
972, 238328715, 0.99853784, -0.014451935, 0.03671298, 0.036951732, -0.013654071, 0.008001205, 0.0054035187, 0
973, 238345382, 0.99853843, -0.014452853, 0.036706153, 0.036943447, -0.011614068, 9.786515E-4, 0.036616325, 0
975, 238378716, 0.9985382, -0.01444883, 0.03671179, 0.03694572, -7.8330113E-4, 0.0022651083, 0.024332047, 0
977, 238412050, 0.99853843, -0.014443451, 0.03671443, 0.036937773, 0.007834269, -0.0071049877, 0.024366379, 0
979, 238445384, 0.99853843, -0.014452332, 0.036718935, 0.03693157, -0.0051813098, 0.0050244876, 0.010345459, 0
981, 238478718, 0.99853826, -0.014456511, 0.0367222, 0.03692927, -0.0033861375, 0.007040714, 0.03484726, 0
982, 238495385, 0.9985382, -0.01446004, 0.036727175, 0.03692847, 0.0017905902, 0.010582374, 0.01990223, 0
984, 238528719, 0.9985374, -0.014478019, 0.036726203, 0.0369396, 0.0028138326, 0.0069898786, 0.018490791, 0
986, 238562053, 0.99853694, -0.0144770155, 0.03674902, 0.036931787, 0.0054228995, 0.007887367, -0.001961708, 0
988, 238595387, 0.99853766, -0.014485248, 0.036747053, 0.036911782, 0.008344325, -0.0010280479, 0.017152786, 0
990, 238628721, 0.9985379, -0.014487763, 0.036733326, 0.03691771, 0.017067673, -0.0119541995, 0.03564167, 0
993, 238678722, 0.99853706, -0.014479963, 0.036743212, 0.03693341, -0.0013747443, -0.005758434, 0.023866653, 0
995, 238712056, 0.9985371, -0.014475411, 0.036738764, 0.036937803, -0.007476536, 2.9587527E-5, 0.014955521, 0
997, 238745390, 0.99853736, -0.014470358, 0.03674007, 0.03693247, -0.0035131488, -0.008899559, 0.011109352, 0
999, 238778724, 0.99853754, -0.014462121, 0.03674214, 0.036931846, 0.014206818, -0.007339495, 0.018525124, 0
1000, 238795391, 0.99853754, -0.014461394, 0.03674296, 0.03692717, 0.001331327, -0.0042784153, 0.04126072, 0
1002, 238828725, 0.9985377, -0.014467759, 0.036741506, 0.036924496, 0.0012243201, -0.0019551935, 0.036315918, 0
1004, 238862059, 0.99853814, -0.014472823, 0.036736336, 0.03691606, -0.009390199, -5.4274534E-4, 0.0128593445, 0
1006, 238895393, 0.9985376, -0.014477534, 0.03674224, 0.036919575, 0.0064290706, -0.005695208, 0.028718948, 0
1008, 238928727, 0.9985373, -0.01447234, 0.03675324, 0.0369213, 0.007616511, -0.00812587, 0.0043172836, 0
1009, 238945394, 0.9985374, -0.014474564, 0.03675012, 0.03691638, 0.011266254, 0.0025164904, 0.024871826, 0
1013, 239012062, 0.99853706, -0.014500829, 0.036753867, 0.03691352, 0.0060226405, -0.008607036, 0.038905144, 0
1015, 239045396, 0.9985374, -0.01449412, 0.036746938, 0.036912154, 0.0030469287, 0.0022622864, -0.004221916, 0
1017, 239078730, 0.99853665, -0.014499948, 0.036758434, 0.03692051, 0.020941265, 0.0093054455, 0.013397217, 0
1018, 239095397, 0.99853724, -0.01450262, 0.03673935, 0.036922414, -0.01853537, 0.003941595, -0.003364563, 0
1020, 239128731, 0.9985362, -0.014495181, 0.036752604, 0.0369399, 0.003133428, 0.006424461, 0.003616333, 0
1022, 239162065, 0.99853677, -0.014504661, 0.036736768, 0.03693896, -0.011673272, -0.0040781195, 0.040369034, 0
1024, 239195399, 0.9985361, -0.014506631, 0.036741864, 0.036950316, 0.0060171923, 0.019806447, 0.02349186, 0
1026, 239228733, 0.99853593, -0.0145166805, 0.036747776, 0.03694607, 0.0013779853, 0.016795922, 0.00623703, 0
1027, 239245400, 0.9985361, -0.014519604, 0.036737163, 0.036949866, -0.013600707, 0.003903011, 0.028710365, 0
1029, 239278734, 0.9985365, -0.014530927, 0.036733333, 0.036935803, -3.9117562E-4, -3.169274E-4, 0.009969711, 0
1033, 239345402, 0.99853736, -0.014517115, 0.036722787, 0.036931418, 0.0027773161, -0.017652145, 0.030575752, 0
1035, 239378736, 0.9985362, -0.01451794, 0.03674222, 0.036940742, 0.012866495, 0.007854427, 0.025881767, 0
1036, 239395403, 0.99853635, -0.014508338, 0.036735885, 0.036947064, -0.009968035, 0.002987153, 0.01651764, 0
1038, 239428737, 0.9985359, -0.014500928, 0.036751654, 0.036949266, 0.0019405674, 0.010597741, 0.015301704, 0
1040, 239462071, 0.9985351, -0.014510929, 0.03676607, 0.036952946, -0.010819731, -0.004201373, 0.0047826767, 0
1042, 239495405, 0.99853486, -0.014495256, 0.03677752, 0.03695211, -0.0022554134, -0.010175316, 0.024774551, 0
1044, 239528739, 0.99853474, -0.0144885015, 0.036787592, 0.036949433, 0.010419811, -0.003741523, 0.031838417, 0
1045, 239545406, 0.9985346, -0.014499744, 0.036795698, 0.03694116, -0.0018786823, -4.060392E-4, 0.021907806, 0
1047, 239578740, 0.9985349, -0.014502558, 0.03678823, 0.036937498, 0.0027201807, 0.00122256, 0.02546215, 0
1049, 239612074, 0.9985352, -0.0145022925, 0.036786012, 0.036932275, 0.0028059536, -0.0019595241, 0.0046749115, 0
1053, 239678742, 0.99853504, -0.014507183, 0.03677849, 0.03693883, -0.0016358633, -0.006580431, 0.027413368, 0
1054, 239695409, 0.99853516, -0.0145090595, 0.036776487, 0.036940698, 0.0036867345, -0.0074273637, 0.044890404, 0
1056, 239728743, 0.9985345, -0.014510721, 0.03677847, 0.036955643, 0.011483286, -0.0039927796, 0.020484924, 0
1058, 239762077, 0.9985351, -0.014511415, 0.03675951, 0.03695593, -0.0023030776, 0.0027625782, 0.01837635, 0
1060, 239795411, 0.99853545, -0.014507056, 0.036751837, 0.036958445, 0.003604314, -0.003495072, 0.014874458, 0
1062, 239828745, 0.99853545, -0.014495787, 0.03675562, 0.03695865, 0.013276027, -0.005171559, 0.014095306, 0
1063, 239845412, 0.9985354, -0.014498065, 0.036761537, 0.036953837, -6.603411E-4, 0.0076073473, -0.0040664673, 0
1065, 239878746, 0.99853575, -0.01450105, 0.036761653, 0.03694313, 0.0030134856, -0.009422496, 0.042466164, 0
1067, 239912080, 0.998536, -0.01451367, 0.036760926, 0.036932185, -0.011524021, -0.00245068, 0.01265049, 0
1069, 239945414, 0.9985368, -0.014512832, 0.03674533, 0.036926527, -0.0031955368, -0.0048188274, 0.015733719, 0
1071, 239978748, 0.9985368, -0.014510857, 0.03673986, 0.036930375, -0.0047611054, 1.5953237E-4, 0.026187897, 0
1072, 239995415, 0.9985367, -0.014510138, 0.0367371, 0.036937058, 0.00801903, -0.009458761, 0.017406464, 0
1074, 240028749, 0.99853694, -0.01451504, 0.03672436, 0.03694255, -0.0032256271, -0.0070309355, 0.007590294, 0
1076, 240062083, 0.9985371, -0.014512619, 0.036717344, 0.036943648, -0.0046562776, -0.011122536, 0.033913612, 0
1078, 240095417, 0.998538, -0.014504269, 0.036694665, 0.036945585, 0.0107843885, 0.0022867331, 0.020593643, 0
1080, 240128751, 0.99853677, -0.014504829, 0.036711365, 0.036964215, -0.0035475977, -0.0095751695, 0.024603844, 0
1081, 240145418, 0.9985365, -0.014512206, 0.036712967, 0.036966044, -0.0045513944, 0.008626818, 0.006585121, 0
1083, 240178752, 0.99853593, -0.014508265, 0.036726255, 0.036967687, -0.006209693, 0.004174677, -0.008710861, 0
1085, 240212086, 0.998536, -0.014500393, 0.03673234, 0.036964163, -0.0034529958, -0.0071331505, 0.019711494, 0
1089, 240278754, 0.99853593, -0.014511434, 0.036733042, 0.036961377, -0.017004587, -0.0041653174, 0.014121056, 0
1090, 240295421, 0.9985365, -0.014512311, 0.036724184, 0.036953732, 0.0057340013, 0.0033292675, 0.014454842, 0
1092, 240328755, 0.99853605, -0.014509769, 0.036722276, 0.036967896, 0.013165919, 0.0033591622, 0.015972137, 0
1094, 240362089, 0.99853575, -0.014500394, 0.03672633, 0.03697852, -0.009246787, -0.0012022762, 0.008494377, 0
1096, 240395423, 0.9985363, -0.014484498, 0.036724746, 0.03697051, -1.1846187E-5, -0.013054302, 0.008076668, 0
1098, 240428757, 0.99853563, -0.014485542, 0.036737252, 0.036975954, -0.011885134, -0.0021559221, 0.047512054, 0
1099, 240445424, 0.9985355, -0.014487478, 0.036742084, 0.036975306, 0.0044952924, -0.015377859, 0.029483795, 0
1101, 240478758, 0.9985353, -0.014494629, 0.036741808, 0.036976993, 0.006766799, 0.0011188779, 0.029565811, 0
1103, 240512092, 0.99853474, -0.014495014, 0.03674697, 0.03698655, -5.8054697E-4, -0.0057361666, 0.019433975, 0
1105, 240545426, 0.998535, -0.01448833, 0.036739893, 0.036992565, 0.004012225, -0.0024236906, 0.011631012, 0
1108, 240595427, 0.9985347, -0.014492198, 0.03675016, 0.036983892, 0.004143008, 0.011168552, 0.021204948, 0
1110, 240628761, 0.9985342, -0.014496569, 0.036764044, 0.036985453, 0.0049983365, -0.001720002, 0.0058021545, 0
1112, 240662095, 0.9985343, -0.014489633, 0.036758874, 0.03698812, 0.0026990867, 0.0041250153, 0.0019626617, 0
1114, 240695429, 0.99853444, -0.014503152, 0.036759492, 0.03697611, -7.4359967E-4, -0.00940284, 0.006049156, 0
1116, 240728763, 0.9985345, -0.014523684, 0.036766272, 0.036963765, -0.020167155, -0.005072906, 0.048470497, 0
1117, 240745430, 0.9985344, -0.014518369, 0.036761034, 0.03697213, -0.0012211351, -0.0028258464, 0.021499634, 0
1119, 240778764, 0.9985335, -0.014531698, 0.036771923, 0.036981042, 0.002299194, -0.009402645, 0.029141426, 0
1121, 240812098, 0.9985332, -0.014536426, 0.036770195, 0.036989752, 3.7754132E-4, -0.004018442, 0.023041725, 0
1123, 240845432, 0.9985335, -0.0145393, 0.03675866, 0.03699242, 0.012315955, -0.0023109843, 0.0025177002, 0
1125, 240878766, 0.99853384, -0.014539536, 0.0367458, 0.036993347, 0.0014066509, -0.00944176, 0.008983612, 0
1128, 240928767, 0.9985336, -0.014548174, 0.036749974, 0.036993384, 0.012229037, 0.0070335474, 0.019469261, 0
1130, 240962101, 0.9985332, -0.014555823, 0.03675873, 0.03699312, 0.0021090123, -0.0039878623, 0.024342537, 0
1132, 240995435, 0.9985337, -0.014560395, 0.036747985, 0.03698845, -0.0069841654, -0.012029188, 0.03827381, 0
1134, 241028769, 0.9985335, -0.01454904, 0.036736447, 0.03700602, 0.00813875, 0.013319779, 0.00655365, 0
1135, 241045436, 0.99853396, -0.014545776, 0.03673776, 0.03699551, -0.0055292635, -0.002545226, 0.008618355, 0
1137, 241078770, 0.99853486, -0.014542644, 0.036720403, 0.03699001, -0.022525357, -0.0076123206, 0.025558472, 0
1139, 241112104, 0.99853396, -0.014553686, 0.03675361, 0.036975894, -0.005175694, -0.0010067442, 0.00630188, 0
1141, 241145438, 0.9985351, -0.01455592, 0.036729455, 0.036971357, 0.010085771, 0.0052148225, 0.027514458, 0
1143, 241178772, 0.9985345, -0.014558227, 0.036743823, 0.03697086, 0.0070676752, -0.003099007, -0.016011238, 0
1144, 241195439, 0.99853516, -0.014553359, 0.036722235, 0.036974605, -1.6593043E-4, -0.017672652, 0.05905819, 0
1148, 241262107, 0.9985341, -0.014556293, 0.036757383, 0.036969207, 0.008945463, -0.004095302, 0.01450634, 0
1150, 241295441, 0.99853384, -0.014555599, 0.036764685, 0.03696699, -0.00403304, 0.0011286566, 0.030483246, 0
1152, 241328775, 0.9985338, -0.014545747, 0.036783762, 0.036955744, -0.0015364281, -0.0022090345, 0.011293411, 0
1153, 241345442, 0.9985336, -0.014544184, 0.03678573, 0.036959577, 0.009848512, -0.008847243, 0.028662682, 0
1155, 241378776, 0.99853396, -0.014544309, 0.036779523, 0.036956526, -0.004215063, 9.517461E-5, 0.004559517, 0
1157, 241412110, 0.9985337, -0.014541715, 0.03679311, 0.03694775, -0.0058579394, 0.0034430635, 0.014706612, 0
1159, 241445444, 0.998534, -0.01454226, 0.036783673, 0.036949996, 0.016301498, -0.0013188382, 0.031464577, 0
1161, 241478778, 0.99853444, -0.014547908, 0.03678171, 0.03694013, -0.00550694, 0.0034780852, 0.008187294, 0
1162, 241495445, 0.9985343, -0.014562012, 0.03678031, 0.03694148, -0.0058523794, -0.010514609, 4.7683716E-5, 0
1164, 241528779, 0.9985344, -0.014571177, 0.036768086, 0.03694421, 0.016714187, -0.0073075746, 0.005249977, 0
1166, 241562113, 0.9985336, -0.014570711, 0.03678231, 0.036954187, 0.008753717, -0.0021272288, 0.014261246, 0
1168, 241595447, 0.9985334, -0.014565429, 0.036785297, 0.036957886, -0.002686123, 0.003261487, 0.03091526, 0
1170, 241628781, 0.99853367, -0.014561384, 0.036776446, 0.036958233, 0.0023043905, -0.0079641715, 0.02379322, 0
1171, 241645448, 0.9985336, -0.014568934, 0.03677592, 0.036958102, -0.006636854, 0.002342346, 0.03843975, 0
1173, 241678782, 0.9985337, -0.014574155, 0.036781207, 0.03694982, 0.0029303667, 0.0017081, -0.011146545, 0
1175, 241712116, 0.99853474, -0.014577801, 0.036742657, 0.03696023, -0.00700213, -0.0021349678, 0.03190136, 0
1177, 241745450, 0.99853486, -0.01458128, 0.036748603, 0.036946483, 0.022329336, 0.001989838, -0.011256218, 0
1179, 241778784, 0.9985351, -0.01457801, 0.036741808, 0.03694922, 0.0033800746, -0.00182279, 0.048007965, 0
1180, 241795451, 0.99853456, -0.014578876, 0.036748443, 0.03695739, -0.0034210894, -6.5190345E-4, 0.034072876, 0
1184, 241862119, 0.9985345, -0.014590051, 0.0367483, 0.03695458, 1.3645466E-4, 0.0032457015, 0.0065546036, 0
1186, 241895453, 0.9985347, -0.0146038635, 0.0367404, 0.03695235, 0.0045830216, 0.022969281, 0.017001152, 0
1188, 241928787, 0.99853474, -0.014602674, 0.036728617, 0.0369608, 0.002035672, -0.0018793109, 0.023200035, 0
1189, 241945454, 0.9985351, -0.014597173, 0.0367312, 0.03695, 0.007874277, 0.0048864265, 0.032518387, 0
1191, 241978788, 0.9985347, -0.014598465, 0.036741663, 0.03695336, 0.002252871, -4.040276E-4, 0.015254974, 0
1193, 242012122, 0.9985353, -0.0146075385, 0.036731295, 0.036944564, -0.0040461714, 0.017846337, 0.011567116, 0
1195, 242045456, 0.9985355, -0.014606118, 0.036719523, 0.036947776, 0.006080558, -0.0050079194, 0.018094063, 0
1197, 242078790, 0.9985357, -0.014600775, 0.03672272, 0.036941428, 0.004129821, 0.009129833, 0.01645279, 0
1198, 242095457, 0.9985356, -0.0145947235, 0.036719378, 0.036949035, 0.0037233627, -0.0026592314, 0.010710716, 0
1200, 242128791, 0.9985344, -0.014549288, 0.03671468, 0.037004136, 0.0062419344, 0.003713095, 0.019742966, 0
1204, 242195459, 0.99853426, -0.014555199, 0.036708765, 0.037014257, -0.012474901, -0.0016558818, 0.0077705383, 0
1206, 242228793, 0.9985346, -0.014544019, 0.036706142, 0.037010714, 0.0048569646, -0.0078030047, 0.013037682, 0
1207, 242245460, 0.99853516, -0.014549033, 0.036698826, 0.037001584, 0.0023315195, 0.020810034, 0.0037412643, 0
1209, 242278794, 0.99853474, -0.014549483, 0.03669917, 0.03701124, -0.007098073, 0.005986124, 0.011034012, 0
1211, 242312128, 0.9985347, -0.014547024, 0.036691245, 0.037021738, -0.0048641167, -0.0063167973, 0.022148132, 0
1213, 242345462, 0.9985353, -0.014570673, 0.036668465, 0.037021883, -0.0046280595, 0.0156955, 0.06878376, 0
1215, 242378796, 0.99853396, -0.014570525, 0.036698297, 0.03702436, -8.26048E-4, -0.0016271184, -0.01099205, 0
1216, 242395463, 0.99853444, -0.014572821, 0.03668169, 0.03702617, -0.0018727313, 0.0014861795, 0.05725193, 0
1218, 242428797, 0.99853396, -0.014587656, 0.036675863, 0.03703872, 0.0037072697, 0.0051516104, 0.0271492, 0
1220, 242462131, 0.9985333, -0.014590045, 0.036689594, 0.037043955, 0.012877978, 0.0074813, 0.0011281967, 0
1224, 242528799, 0.99853283, -0.014596242, 0.036699038, 0.037043303, -0.005169603, -0.0022939413, 0.007405281, 0
1225, 242545466, 0.9985332, -0.014596339, 0.0366965, 0.037040647, 3.1543266E-5, -0.0025843824, 0.004839897, 0
1227, 242578800, 0.9985332, -0.014595612, 0.036691718, 0.037043907, -0.00513345, 0.016979693, 0.019293785, 0
1229, 242612134, 0.9985333, -0.0146130975, 0.036682487, 0.03704352, 0.0040415893, 0.0054661212, -3.709793E-4, 0
1231, 242645468, 0.9985332, -0.014615905, 0.036676213, 0.037052218, 0.013701176, 0.008412022, 0.040503502, 0
1233, 242678802, 0.9985331, -0.014620079, 0.036679395, 0.037048195, 0.0018474743, 0.004830073, 0.018276215, 0
1234, 242695469, 0.99853295, -0.014628429, 0.03668207, 0.03704835, -0.0187714, 0.008888942, 0.0073041916, 0
1236, 242728803, 0.9985327, -0.014635996, 0.036676522, 0.037055038, 0.0024298932, 0.00664972, 0.04118061, 0
1238, 242762137, 0.9985318, -0.014655421, 0.036691822, 0.037055746, 0.010482171, -0.008843192, 0.034748077, 0
1240, 242795471, 0.9985315, -0.014676873, 0.03670247, 0.03704576, 0.0031148486, 7.988912E-4, 0.027182579, 0
1243, 242845472, 0.99853075, -0.014693021, 0.03671051, 0.03705397, -0.011754714, -5.769428E-4, 0.019843102, 0
1245, 242878806, 0.9985309, -0.014679387, 0.03671814, 0.037043974, -4.9882504E-4, -0.015114086, 0.008975029, 0
1247, 242912140, 0.9985308, -0.0146977445, 0.036716685, 0.037043627, -0.011315343, 0.0017877124, -0.0010786057, 0
1249, 242945474, 0.9985304, -0.014704907, 0.036726028, 0.03704262, 0.007337623, 0.0056637484, 0.024999619, 0
1251, 242978808, 0.9985296, -0.014711773, 0.036732104, 0.03705322, 9.804675E-4, 0.008864971, 0.007461548, 0
1252, 242995475, 0.9985291, -0.01472161, 0.03673422, 0.037062503, -0.012796061, 0.0056202193, 0.011947632, 0
1254, 243028809, 0.9985289, -0.014726944, 0.03672769, 0.037071444, -0.00511149, -0.006561712, 0.021875381, 0
1256, 243062143, 0.9985295, -0.014736761, 0.036699455, 0.037079856, 0.014194163, -0.0024098188, 0.06729889, 0
1258, 243095477, 0.99852806, -0.014731974, 0.036739893, 0.037078198, -0.0075002564, 0.011118527, -0.01008606, 0
1260, 243128811, 0.99852747, -0.01472495, 0.036752403, 0.037086204, 0.0028999688, -0.0023944664, 0.012154579, 0
1261, 243145478, 0.9985276, -0.014723655, 0.03674121, 0.03709517, 0.0022145384, 0.014281598, 0.009501457, 0
1263, 243178812, 0.9985272, -0.014711394, 0.036760706, 0.037093077, -0.009030733, 0.015706507, 0.021945953, 0
1265, 243212146, 0.9985275, -0.014720853, 0.036752183, 0.037087563, 0.008739552, 0.0033582682, 0.029463768, 0
1267, 243245480, 0.9985272, -0.01473121, 0.036765687, 0.037076883, -0.0018546546, 0.0077107917, 0.0068454742, 0
1269, 243278814, 0.998527, -0.01471602, 0.036776878, 0.03708011, 0.004252446, 0.02035151, 0.0034751892, 0
1270, 243295481, 0.9985268, -0.014719085, 0.036780342, 0.037079588, -0.006927309, 0.0012393513, 0.0057964325, 0
1272, 243328815, 0.9985275, -0.014727492, 0.036765214, 0.037071154, 0.011843421, 0.01754912, 0.030294418, 0
1274, 243362149, 0.9985276, -0.014731568, 0.036760412, 0.037072193, 0.0012752252, -0.0066162627, 0.021860123, 0
1276, 243395483, 0.9985275, -0.014736327, 0.03675877, 0.037074987, -0.0024920856, -0.0034504253, 0.019904137, 0
1279, 243445484, 0.99852717, -0.014742805, 0.036766857, 0.0370725, -0.00426228, 0.0010404529, 0.034017563, 0
1281, 243478818, 0.99852663, -0.014739155, 0.036778625, 0.037077155, 0.0038483343, 0.01646268, 0.047574043, 0
1283, 243512152, 0.99852556, -0.014742043, 0.036787502, 0.03709618, 0.021228729, 4.5181747E-4, 0.007516861, 0
1285, 243545486, 0.9985256, -0.01474479, 0.036789615, 0.037092865, -0.008854102, 0.0031984006, 0.019826889, 0
1287, 243578820, 0.998525, -0.014734745, 0.036807846, 0.03709426, -0.010437105, 0.01336486, 0.027254105, 0
1288, 243595487, 0.9985246, -0.014736459, 0.036819138, 0.037094284, -0.0059313634, -0.0023938238, 0.029691696, 0
1290, 243628821, 0.99852383, -0.014750539, 0.036827244, 0.037101228, -0.011826741, -0.012151143, -0.03035736, 0
1292, 243662155, 0.9985236, -0.014749698, 0.036825027, 0.037111863, 0.002981104, 0.0016620284, 0.03732586, 0
1294, 243695489, 0.99852395, -0.014742845, 0.036814973, 0.037112534, 0.0022699416, -0.0020506755, 0.01727581, 0
1296, 243728823, 0.99852425, -0.014743471, 0.03680439, 0.037113413, 0.006839776, 0.019126115, 0.03928089, 0
1299, 243778824, 0.9985236, -0.014746044, 0.03681323, 0.037123874, 5.307315E-4, 0.0038610466, 0.019804, 0
1301, 243812158, 0.99852383, -0.014755071, 0.03679726, 0.03712678, -0.0035019452, 0.007815507, 0.015637398, 0
1303, 243845492, 0.9985236, -0.014756141, 0.036801558, 0.037128046, 0.009460381, 0.002209286, 0.03407097, 0
1305, 243878826, 0.99852294, -0.014757862, 0.036804542, 0.037144594, 0.0031779353, 0.008002867, 0.016569138, 0
1306, 243895493, 0.99852294, -0.014770849, 0.03679941, 0.037144825, 0.00288382, 0.007033184, 0.04253292, 0
1308, 243928827, 0.99852234, -0.014762485, 0.036813408, 0.03714863, 0.0037804702, 9.979155E-4, 0.019961357, 0
1310, 243962161, 0.9985211, -0.014783197, 0.03683249, 0.037154034, -0.0070950557, -0.0017635452, 0.010639191, 0
1312, 243995495, 0.9985207, -0.014785284, 0.03683997, 0.03715727, 0.0013013763, -7.515064E-4, 0.024102211, 0
1314, 244028829, 0.99852026, -0.014792391, 0.036845505, 0.037161462, -0.007097263, 0.015278451, 0.022824287, 0
1315, 244045496, 0.9985203, -0.014788081, 0.036846936, 0.037159927, -0.0028298136, -0.0040249513, 0.018909454, 0
1319, 244112164, 0.99852896, -0.014648038, 0.03677092, 0.03706209, -0.0081319325, -0.013326415, 0.038653374, 0
1321, 244145498, 0.9985288, -0.014646182, 0.036772884, 0.037063066, -0.010400728, 0.012808661, 0.019040108, 0
1323, 244178832, 0.9985281, -0.014647381, 0.03677785, 0.03707224, -0.007255873, -0.008507839, -0.0023927689, 0
1324, 244195499, 0.9985279, -0.014639803, 0.036785297, 0.037079107, -0.0068247444, -0.0023232636, -0.002573967, 0
1328, 244262167, 0.99852896, -0.014635172, 0.036771614, 0.037063483, 0.0075912266, 0.0033769035, 0.0077695847, 0
1330, 244295501, 0.998529, -0.014624303, 0.036780808, 0.03705751, 6.522108E-4, 4.666252E-4, -0.0029706955, 0
1332, 244328835, 0.9985286, -0.014636067, 0.036788322, 0.037056927, 0.0037880416, 0.0019884412, 0.021924019, 0
1333, 244345502, 0.9985284, -0.014648858, 0.036790196, 0.037055477, -0.0064724046, -0.010837529, 0.008775711, 0
1335, 244378836, 0.9985286, -0.014637978, 0.036790438, 0.037055627, -0.011857893, -0.0033553625, 0.0104522705, 0
1337, 244412170, 0.998528, -0.014634764, 0.036800336, 0.03705977, -0.002329927, 0.0023706763, 0.0373621, 0
1342, 244495505, 0.9985279, -0.014641999, 0.0368112, 0.037050463, -0.005067486, 0.0037886982, 0.00669384, 0
1344, 244528839, 0.9985275, -0.014632524, 0.03681215, 0.037063897, 3.633762E-4, 0.0019554729, 0.03631878, 0
1346, 244562173, 0.9985276, -0.014643858, 0.036798533, 0.037068736, -3.523123E-5, -8.7723247E-4, 0.036538124, 0
1348, 244595507, 0.99852765, -0.0146385385, 0.036796257, 0.03707298, -0.0024852126, 0.0046214797, 0.030966759, 0
1350, 244628841, 0.9985284, -0.014637677, 0.036779255, 0.03707137, -4.2185278E-4, 0.011909455, 0.004630089, 0
1351, 244645508, 0.9985303, -0.014641569, 0.036726777, 0.037067335, -0.008231815, 0.0033578072, 0.062485695, 0
1353, 244678842, 0.9985295, -0.014642322, 0.036742464, 0.037074234, 0.01008809, 0.010540536, 0.0057468414, 0
1355, 244712176, 0.9985281, -0.014643084, 0.036767505, 0.037085924, 0.0067779184, 0.010327011, -0.015618324, 0
1357, 244745510, 0.9985282, -0.014651027, 0.036764666, 0.037084278, 0.0033935134, 5.0064106E-4, 0.053601265, 0
1359, 244778844, 0.99852717, -0.014662316, 0.036784366, 0.037087947, -0.0015166472, 0.004739634, 0.003988266, 0
1360, 244795511, 0.99852735, -0.014668491, 0.036771663, 0.037093278, 4.0634655E-4, -0.007070665, 0.016199112, 0
1362, 244828845, 0.9985272, -0.014674759, 0.036776803, 0.037091754, -0.0035099357, -0.004927986, 0.006307602, 0
1364, 244862179, 0.9985271, -0.014665378, 0.03678445, 0.037089474, -0.0088642165, 0.005941491, 0.0052461624, 0
1366, 244895513, 0.9985273, -0.014658129, 0.036779996, 0.037090253, -0.0011519019, -0.018276403, 0.043258667, 0
1368, 244928847, 0.998528, -0.014655311, 0.036772355, 0.037078474, -0.011772009, -0.005221556, 0.0032138824, 0
1369, 244945514, 0.998528, -0.01464319, 0.036775462, 0.037082016, -0.0020596997, 0.0015882133, 0.0382185, 0
1371, 244978848, 0.9985278, -0.01464128, 0.036777705, 0.037084904, -0.005916276, 0.005745345, 0.03874874, 0
1373, 245012182, 0.9985276, -0.014640299, 0.036780667, 0.037089624, -0.0062547307, 0.010537602, 0.02849865, 0
1375, 245045516, 0.99852693, -0.014622549, 0.036797695, 0.037097055, -0.007896909, 0.0062130596, 0.005440712, 0
1378, 245095517, 0.99852645, -0.014636267, 0.036800504, 0.037102144, 0.0074309674, -0.0015379786, 0.030765533, 0
1380, 245128851, 0.9985268, -0.014639886, 0.03679416, 0.037096202, 0.0028392293, -0.0037012908, 0.027291298, 0
1382, 245162185, 0.99852645, -0.014641762, 0.036801662, 0.03709917, 0.0072521293, 0.007387676, 0.027898788, 0
1384, 245195519, 0.99852616, -0.014649186, 0.03681226, 0.037094273, 2.4273507E-4, -0.006350087, 0.024332047, 0
1386, 245228853, 0.9985265, -0.01464904, 0.036804788, 0.037089426, 0.009261343, 0.00868996, 0.03868866, 0
1387, 245245520, 0.998527, -0.014646871, 0.036796313, 0.037088104, -0.0015734194, 0.006123123, 0.0031757355, 0
1389, 245278854, 0.9985272, -0.014634821, 0.03680118, 0.037080932, -0.0042288653, 6.826924E-4, 0.0083761215, 0
1391, 245312188, 0.998527, -0.014637598, 0.03680896, 0.03707969, 0.0064392965, 0.0032774403, 0.030311584, 0
1393, 245345522, 0.99852765, -0.014624216, 0.036803547, 0.037071355, -0.00661467, 0.011138335, 0.014780998, 0
1395, 245378856, 0.9985271, -0.014619113, 0.036816005, 0.037074476, 5.266524E-4, 0.011121893, 0.010260582, 0
1398, 245428857, 0.9985272, -0.014618183, 0.03682596, 0.037063994, 0.004107693, 0.0063534817, 0.018614769, 0
1400, 245462191, 0.99852663, -0.014608033, 0.036834486, 0.03707321, 0.010667463, 0.0064416295, -0.0033960342, 0
1402, 245495525, 0.9985267, -0.0146283535, 0.036830503, 0.037067078, 0.0033217098, 0.016058749, 0.05352497, 0
1404, 245528859, 0.99852675, -0.014617243, 0.03683602, 0.037063487, 0.02475747, 0.0040841266, 0.04438114, 0
1405, 245545526, 0.99852747, -0.014620747, 0.036825035, 0.03705671, 0.0027391233, 0.011346901, 0.03714657, 0
1407, 245578860, 0.998527, -0.014631062, 0.03682965, 0.037059326, -0.0015830026, 0.008663683, 0.01388073, 0
1409, 245612194, 0.9985276, -0.014625944, 0.03681991, 0.037056644, 0.004471097, -0.011172114, 0.011861801, 0
1411, 245645528, 0.9985289, -0.014611338, 0.036819234, 0.03702789, -0.0037067388, 0.0034160602, 0.030571938, 0
1413, 245678862, 0.9985287, -0.014614983, 0.03681806, 0.037030615, 0.0068966877, -4.6665315E-4, 0.04277134, 0
1414, 245695529, 0.99852884, -0.014611414, 0.036821876, 0.037025433, -0.0041516693, 0.005963088, 0.022780418, 0
