sep=,
DeviceTag:,Xsens_1,,,,,,,,,,,,,,,,,
FirmwareVersion:,2.2.1,,,,,,,,,,,,,,,,,
AppVersion:,2023.0.0,,,,,,,,,,,,,,,,,
StartTime:,2023-07-06 00:44:00.000 +0200,,,,,,,,,,,,,,,,,
© Movella Technologies B. V. 2005-2023,,,,,,,,,,,,,,,,,,,

PacketCounter,SampleTimeFine,Quat_W,Quat_X,Quat_Y,Quat_Z,Acc_X,Acc_Y,Acc_Z,Gyr_X,Gyr_Y,Gyr_Z,Mag_X,Mag_Y,Mag_Z,Status,
0, 2083233641, 0.64118016, 0.19044876, -0.69601965, 0.26110154, 0.0, 0.0, 0.0, 0.0, 0.0, 0.0, -0.986572265625, 0.51025390625, -0.289306640625, 0, 
1, 2083250308, 0.64037675, 0.19201526, -0.69623506, 0.26135176, 9.935429573059082, -1.1420413255691528, -0.2518821954727173, 5.603696823120117, -2.9195034503936768, -10.136052131652832, -0.98876953125, 0.508056640625, -0.288818359375, 0, 
2, 2083266975, 0.64196056, 0.192685, -0.6947454, 0.2609369, 10.587190628051758, -0.793617844581604, 0.363983154296875, -2.4150478839874268, 5.890801429748535, -9.496603965759277, -0.989990234375, 0.503662109375, -0.29248046875, 0, 
3, 2083283642, 0.6487082, 0.18972018, -0.6905056, 0.2576548, 10.459056854248047, 0.9751603603363037, 1.7041879892349243, -36.4008903503418, 22.73374366760254, -3.0237908363342285, -0.98876953125, 0.507568359375, -0.291015625, 0, 
4, 2083300309, 0.66254336, 0.18491332, -0.68304855, 0.2455368, 10.39617919921875, 0.8124730587005615, 2.427856206893921, -84.52136993408203, 28.976261138916016, -9.48681640625, -0.988525390625, 0.51123046875, -0.286376953125, 0, 
5, 2083316976, 0.6781095, 0.18060839, -0.6727721, 0.23436238, 9.192188262939453, -0.40850406885147095, 0.5975081920623779, -72.91810607910156, 35.99267578125, -12.20458984375, -0.9873046875, 0.5107421875, -0.281494140625, 0, 
6, 2083333643, 0.6877155, 0.17738953, -0.66629416, 0.22722784, 8.934164047241211, -2.348931074142456, -1.523848295211792, -54.03970718383789, 22.20113182067871, -6.836572647094727, -0.984619140625, 0.514892578125, -0.28271484375, 0, 
7, 2083350310, 0.6908427, 0.17393678, -0.66525275, 0.22343029, 9.072303771972656, -2.488971710205078, -1.8793309926986694, -36.703372955322266, 9.354439735412598, -4.940638065338135, -0.98779296875, 0.5205078125, -0.281005859375, 0, 
8, 2083366977, 0.6904621, 0.1708757, -0.66687584, 0.2221272, 9.230411529541016, -1.7629259824752808, -1.403581976890564, -21.16831398010254, 5.209830284118652, -2.5886027812957764, -0.987060546875, 0.519287109375, -0.275390625, 0, 
9, 2083383644, 0.68794817, 0.16926852, -0.66974777, 0.22251642, 9.472103118896484, -1.3529969453811646, -1.5996832847595215, -5.266279220581055, -2.796881675720215, 0.38698872923851013, -0.984375, 0.518798828125, -0.27783203125, 0, 
10, 2083400311, 0.68403214, 0.16895787, -0.6734069, 0.22377756, 9.801345825195312, -1.5413566827774048, -1.563832402229309, 5.507597923278809, -9.510422706604004, 2.7469699382781982, -0.983642578125, 0.515869140625, -0.275146484375, 0, 
11, 2083416978, 0.6794799, 0.16865332, -0.6775565, 0.22534494, 10.087080001831055, -1.6641184091567993, -1.4232839345932007, 7.15609884262085, -13.02588939666748, 6.2434916496276855, -0.98583984375, 0.520263671875, -0.2744140625, 0, 
12, 2083433645, 0.67512053, 0.1678924, -0.68162084, 0.22675449, 10.289644241333008, -1.4719069004058838, -0.8061419725418091, 9.729769706726074, -12.266460418701172, 7.843571662902832, -0.985595703125, 0.521484375, -0.27001953125, 0, 
13, 2083450312, 0.6717364, 0.16747689, -0.6845418, 0.22830741, 10.565062522888184, -0.9938541054725647, 0.3680398166179657, 13.470236778259277, -5.991071701049805, 5.438432216644287, -0.986328125, 0.519775390625, -0.27099609375, 0, 
14, 2083466979, 0.6700614, 0.16702701, -0.68585336, 0.22961922, 10.422343254089355, -0.38460949063301086, 1.0503748655319214, 11.079144477844238, 3.618788003921509, 2.533872127532959, -0.98486328125, 0.520263671875, -0.276123046875, 0, 
15, 2083483646, 0.6697445, 0.16593216, -0.6862886, 0.230037, 10.05111026763916, -0.2612438499927521, 0.7571497559547424, 1.661784052848816, 8.435972213745117, 1.6911234855651855, -0.984130859375, 0.520751953125, -0.275634765625, 0, 
16, 2083500313, 0.6702038, 0.16408901, -0.68659645, 0.22910085, 9.757779121398926, -0.49550291895866394, 0.29982179403305054, -5.332616806030273, 8.431684494018555, 0.3032096326351166, -0.983642578125, 0.52197265625, -0.277099609375, 0, 
17, 2083516980, 0.67083704, 0.1626144, -0.68665665, 0.22811656, 9.497471809387207, -0.8234105706214905, 0.02681838348507881, -5.626394748687744, 8.179398536682129, -0.7168099880218506, -0.982177734375, 0.519775390625, -0.27783203125, 0, 
18, 2083533647, 0.67156625, 0.16119578, -0.68664, 0.22702546, 9.463024139404297, -0.9461575150489807, -0.13809163868427277, -4.621901512145996, 7.782515048980713, -1.1442091464996338, -0.98388671875, 0.520263671875, -0.280029296875, 0, 
19, 2083550314, 0.67235225, 0.15988223, -0.68653417, 0.22594495, 9.696986198425293, -0.8250795006752014, -0.06479422748088837, -7.251995086669922, 8.18480396270752, -1.5419747829437256, -0.983154296875, 0.52197265625, -0.27880859375, 0, 
20, 2083566981, 0.6735934, 0.1578968, -0.68631446, 0.22430594, 9.89986801147461, -0.7863858938217163, -0.04629948362708092, -12.795013427734375, 10.806090354919434, -1.3947917222976685, -0.98388671875, 0.52197265625, -0.2822265625, 0, 
21, 2083583648, 0.6749925, 0.1552583, -0.6862697, 0.22206815, 9.935702323913574, -0.8699604272842407, -0.1640595942735672, -18.8498477935791, 10.719513893127441, -0.7606214880943298, -0.98291015625, 0.519775390625, -0.2861328125, 0, 
22, 2083600315, 0.6762301, 0.15274744, -0.68629575, 0.21995342, 9.908833503723145, -1.1333622932434082, -0.2230030596256256, -17.83344268798828, 9.437811851501465, -0.2598283886909485, -0.982177734375, 0.52294921875, -0.27880859375, 0, 
23, 2083616982, 0.67706525, 0.15103872, -0.6862866, 0.21858776, 9.768394470214844, -1.2520630359649658, -0.14393378794193268, -12.516461372375488, 7.446276664733887, -0.10679222643375397, -0.98046875, 0.525634765625, -0.283935546875, 0, 
24, 2083633649, 0.6775515, 0.14980075, -0.6863743, 0.21765575, 9.657564163208008, -1.0276223421096802, 0.012693497352302074, -7.2181220054626465, 4.887372016906738, 0.14278444647789001, -0.979248046875, 0.5224609375, -0.28125, 0, 
25, 2083650316, 0.67796695, 0.1485933, -0.6864982, 0.2167973, 9.711477279663086, -0.6197793483734131, 0.41245269775390625, -8.766883850097656, 4.378729343414307, 0.4865454435348511, -0.9794921875, 0.52294921875, -0.283935546875, 0, 
26, 2083666983, 0.67880696, 0.14624049, -0.6867094, 0.21509416, 9.80437183380127, -0.30544203519821167, 0.9026856422424316, -19.450464248657227, 6.406583309173584, 1.7351666688919067, -0.98046875, 0.525634765625, -0.280029296875, 0, 
27, 2083683650, 0.68030405, 0.1426192, -0.6869182, 0.21210739, 9.904754638671875, -0.4308502674102783, 0.8254608511924744, -30.210886001586914, 9.183216094970703, 1.284987211227417, -0.978271484375, 0.525634765625, -0.279541015625, 0, 
28, 2083700317, 0.6821128, 0.13844725, -0.68711406, 0.20839591, 9.930861473083496, -0.5973634123802185, 0.3942810297012329, -39.332679748535156, 10.534173965454102, 0.3169526159763336, -0.975830078125, 0.5302734375, -0.279541015625, 0, 
29, 2083716984, 0.6840546, 0.13384914, -0.68738455, 0.2040994, 9.923644065856934, -0.8698663711547852, -0.08276264369487762, -45.87704086303711, 10.826078414916992, -0.3874591290950775, -0.977783203125, 0.5341796875, -0.27392578125, 0, 
30, 2083733651, 0.68576014, 0.12939402, -0.6877731, 0.19989643, 9.761198997497559, -1.4904619455337524, -0.4874853491783142, -41.39578628540039, 8.829527854919434, -0.1271294355392456, -0.978271484375, 0.53857421875, -0.27001953125, 0, 
31, 2083750318, 0.6866427, 0.12670241, -0.6881154, 0.19739729, 9.729031562805176, -1.89599609375, -0.6982479691505432, -26.591642379760742, 4.794177532196045, 0.2775975167751312, -0.9775390625, 0.541748046875, -0.266845703125, 0, 
32, 2083766985, 0.68708175, 0.12543786, -0.68819976, 0.19638081, 9.77678394317627, -1.7027627229690552, -0.4980427622795105, -10.959678649902344, 3.528567314147949, 0.45021384954452515, -0.9736328125, 0.541748046875, -0.266357421875, 0, 
33, 2083783652, 0.6873674, 0.124599874, -0.6881875, 0.19595699, 9.962773323059082, -0.9914259314537048, 0.06949486583471298, -6.497598171234131, 3.4778661727905273, 1.0293426513671875, -0.975830078125, 0.53955078125, -0.266845703125, 0, 
34, 2083800319, 0.68735653, 0.12384282, -0.6883437, 0.19592616, 9.856441497802734, -0.9790028929710388, -0.1086418405175209, -4.641469478607178, 1.4910242557525635, 3.086362361907959, -0.974853515625, 0.541748046875, -0.267333984375, 0, 
35, 2083816986, 0.6871583, 0.12286245, -0.688765, 0.19575848, 9.83825969696045, -1.2611593008041382, -0.2082243710756302, -3.9057579040527344, -0.7060526013374329, 4.0759477615356445, -0.971923828125, 0.538818359375, -0.265869140625, 0, 
36, 2083833653, 0.68675894, 0.12238576, -0.689149, 0.196106, 9.747736930847168, -1.1571422815322876, 0.009326894767582417, -4.013869285583496, -1.1501256227493286, 4.192921161651611, -0.970703125, 0.544189453125, -0.263671875, 0, 
37, 2083850320, 0.68643606, 0.121527076, -0.68964684, 0.19602041, 9.725031852722168, -0.8414386510848999, 0.30028587579727173, -5.211467742919922, -1.5071152448654175, 3.9947168827056885, -0.973388671875, 0.5458984375, -0.261962890625, 0, 
38, 2083866987, 0.68631816, 0.12013919, -0.6901697, 0.19544788, 9.954262733459473, -0.5012069344520569, 0.5725997090339661, -11.494564056396484, -0.3520467281341553, 4.026645183563232, -0.972900390625, 0.547119140625, -0.262939453125, 0, 
39, 2083883654, 0.6865842, 0.117945105, -0.6906453, 0.19416612, 9.884547233581543, -0.6771526336669922, 0.4749670922756195, -17.689008712768555, 1.849783182144165, 4.186099529266357, -0.974365234375, 0.549072265625, -0.259033203125, 0, 
40, 2083900321, 0.6871058, 0.11494032, -0.6911659, 0.19226035, 9.957704544067383, -0.8948671221733093, 0.30529770255088806, -25.029054641723633, 3.2989039421081543, 4.913365364074707, -0.970947265625, 0.55078125, -0.255859375, 0, 
41, 2083916988, 0.68777555, 0.11192492, -0.6915054, 0.19041532, 9.823003768920898, -1.1797473430633545, 0.10344015061855316, -24.945419311523438, 4.861628532409668, 4.9676008224487305, -0.970947265625, 0.553466796875, -0.253662109375, 0, 
42, 2083933655, 0.68848944, 0.1090528, -0.69170505, 0.18877016, 9.871498107910156, -0.9402804374694824, 0.24333760142326355, -23.40823745727539, 5.70271110534668, 5.034423828125, -0.9697265625, 0.553955078125, -0.253173828125, 0, 
43, 2083950322, 0.68895745, 0.10666172, -0.6919267, 0.18761298, 9.740030288696289, -1.198743224143982, -0.1287163347005844, -19.753002166748047, 4.239823818206787, 5.415281295776367, -0.965576171875, 0.55810546875, -0.2490234375, 0, 
44, 2083966989, 0.6892578, 0.10434602, -0.6923183, 0.18636274, 9.759527206420898, -1.3032338619232178, -0.24063149094581604, -17.918411254882812, 2.2894132137298584, 4.971373558044434, -0.9677734375, 0.560791015625, -0.2470703125, 0, 
45, 2083983656, 0.6895651, 0.10216262, -0.692656, 0.18517733, 9.80496597290039, -1.004665493965149, -0.13628406822681427, -16.32215690612793, 2.454768419265747, 4.569201469421387, -0.96923828125, 0.56201171875, -0.244873046875, 0, 
46, 2084000323, 0.6897228, 0.10036611, -0.69303536, 0.18415014, 9.731738090515137, -1.04314124584198, -0.12283222377300262, -15.989049911499023, 1.4687552452087402, 3.6873550415039062, -0.966552734375, 0.56396484375, -0.2421875, 0, 
47, 2084016990, 0.6897827, 0.09828757, -0.69365525, 0.18270747, 9.7910795211792, -1.051209568977356, -0.0626930370926857, -18.20659065246582, -0.1955147534608841, 3.4021451473236084, -0.96484375, 0.565185546875, -0.2412109375, 0, 
48, 2084033657, 0.68972796, 0.0968496, -0.6941327, 0.18186705, 9.853643417358398, -1.2223879098892212, -0.12295052409172058, -15.55399227142334, -0.03467962518334389, 3.2118289470672607, -0.965087890625, 0.568359375, -0.23828125, 0, 
49, 2084050324, 0.68972266, 0.0952514, -0.69459695, 0.1809564, 9.964211463928223, -1.3239173889160156, -0.0033461558632552624, -12.821365356445312, -0.02082313597202301, 3.6321072578430176, -0.964111328125, 0.5693359375, -0.2373046875, 0, 
50, 2084066991, 0.68958837, 0.09468531, -0.6947846, 0.18104418, 9.921845436096191, -1.443213939666748, -0.053085967898368835, -3.7290046215057373, 0.15974001586437225, 3.374441385269165, -0.962890625, 0.572509765625, -0.235107421875, 0, 
51, 2084083658, 0.6895409, 0.0947167, -0.6946883, 0.18157731, 9.903656005859375, -1.1927835941314697, 0.1991937905550003, 3.0548462867736816, 1.2806800603866577, 2.317085027694702, -0.96240234375, 0.571044921875, -0.23681640625, 0, 
52, 2084100325, 0.68949616, 0.09516203, -0.69443434, 0.18248436, 9.77929973602295, -1.1367155313491821, 0.1693214476108551, 6.192070007324219, 1.8212618827819824, 1.9975666999816895, -0.964599609375, 0.572509765625, -0.23828125, 0, 
53, 2084116992, 0.6895821, 0.09543881, -0.6941559, 0.1830732, 9.710253715515137, -0.9728171825408936, 0.11339528113603592, 2.8177366256713867, 2.650665044784546, 1.1089082956314087, -0.960205078125, 0.56982421875, -0.240234375, 0, 
54, 2084133659, 0.6895252, 0.09594947, -0.69397646, 0.18370023, 9.643943786621094, -1.1862695217132568, -0.03870629519224167, 5.01338529586792, 1.092503547668457, 0.4737517833709717, -0.960693359375, 0.572021484375, -0.239501953125, 0, 
55, 2084150326, 0.6894312, 0.09647862, -0.6938694, 0.18417929, 9.736367225646973, -1.0397642850875854, 0.2010105848312378, 4.566251754760742, 0.4260864853858948, -0.21852757036685944, -0.96240234375, 0.567626953125, -0.240234375, 0, 
56, 2084166993, 0.6893538, 0.09698051, -0.6937579, 0.18462463, 9.818702697753906, -0.980809211730957, 0.3431069552898407, 3.671779155731201, 0.5797498822212219, -0.2580479681491852, -0.96240234375, 0.572021484375, -0.24072265625, 0, 
57, 2084183660, 0.6894709, 0.09691719, -0.6936982, 0.18444513, 9.854851722717285, -0.6742483377456665, 0.5475126504898071, -2.90520977973938, 1.5955238342285156, -0.7149657011032104, -0.96240234375, 0.571044921875, -0.242919921875, 0, 
58, 2084200327, 0.68962, 0.09673338, -0.6936366, 0.18421513, 9.780644416809082, -1.1178882122039795, 0.09406296163797379, -2.3878209590911865, 1.6299474239349365, -0.3159198760986328, -0.9619140625, 0.5693359375, -0.243896484375, 0, 
59, 2084216994, 0.68952847, 0.0970154, -0.6936383, 0.18440294, 9.783292770385742, -1.3707600831985474, -0.1137554720044136, -0.025932859629392624, 0.09995996952056885, -0.23963244259357452, -0.963134765625, 0.566650390625, -0.243408203125, 0, 
60, 2084233661, 0.68943137, 0.097257875, -0.6936835, 0.18446842, 9.780637741088867, -1.2168796062469482, 0.04616168513894081, 0.4611373841762543, -0.29930999875068665, -0.6033198833465576, -0.9619140625, 0.5693359375, -0.2451171875, 0, 
61, 2084250328, 0.68935335, 0.09774776, -0.69361234, 0.18476808, 9.775561332702637, -1.037901759147644, 0.10632076114416122, 1.6758836507797241, 0.33414962887763977, -0.805391252040863, -0.9619140625, 0.567626953125, -0.242919921875, 0, 
62, 2084266995, 0.68911403, 0.09852569, -0.6935606, 0.18544175, 9.715679168701172, -1.249856948852539, -0.16926085948944092, 4.63109016418457, -0.6172020435333252, -0.1780082732439041, -0.9609375, 0.568359375, -0.24560546875, 0, 
63, 2084283662, 0.68868935, 0.09950593, -0.69359946, 0.18634759, 9.764689445495605, -1.4113398790359497, -0.2788850963115692, 7.1119890213012695, -2.0493109226226807, 0.24765567481517792, -0.962646484375, 0.56982421875, -0.24609375, 0, 
64, 2084300329, 0.6880614, 0.10075979, -0.6936933, 0.18764019, 9.744285583496094, -1.4770563840866089, -0.36321645975112915, 10.937747955322266, -3.3999719619750977, 1.048974871635437, -0.9638671875, 0.564453125, -0.24609375, 0, 
65, 2084316996, 0.6872649, 0.10270197, -0.6937114, 0.18943019, 9.767172813415527, -1.3386316299438477, -0.15720120072364807, 16.578994750976562, -4.312671184539795, 0.23816631734371185, -0.967041015625, 0.565185546875, -0.24658203125, 0, 
66, 2084333663, 0.6865739, 0.10444313, -0.6937057, 0.19099846, 9.829679489135742, -0.9402895569801331, 0.10330605506896973, 14.267404556274414, -3.5418035984039307, -0.03199028596282005, -0.965576171875, 0.566162109375, -0.248291015625, 0, 
67, 2084350330, 0.68589365, 0.10579607, -0.69381756, 0.19228731, 9.780433654785156, -0.9919825196266174, 0.22500358521938324, 11.941044807434082, -3.8742878437042236, 0.6175225377082825, -0.964599609375, 0.56298828125, -0.2509765625, 0, 
68, 2084366997, 0.6855068, 0.10666714, -0.69383705, 0.19311358, 9.860214233398438, -0.8575705885887146, 0.4213005602359772, 6.170574188232422, -1.6179225444793701, 0.2841089069843292, -0.962158203125, 0.562255859375, -0.247802734375, 0, 
69, 2084383664, 0.6853442, 0.107331686, -0.6937472, 0.19364493, 9.758962631225586, -0.9256121516227722, 0.3684236705303192, 4.524311065673828, -0.1215963140130043, -0.4481326639652252, -0.96728515625, 0.5615234375, -0.252197265625, 0, 
70, 2084400331, 0.68517655, 0.10804016, -0.69364035, 0.1942262, 9.791224479675293, -1.19034743309021, 0.13339608907699585, 5.103477954864502, -0.14088265597820282, -0.40094125270843506, -0.964599609375, 0.560791015625, -0.25341796875, 0, 
71, 2084416998, 0.6849794, 0.10904792, -0.6934207, 0.19514002, 9.809749603271484, -1.3301353454589844, -0.052914757281541824, 8.597654342651367, 0.04318942502140999, -0.30527782440185547, -0.96630859375, 0.55859375, -0.253173828125, 0, 
72, 2084433665, 0.6847479, 0.11017753, -0.6931924, 0.19612645, 9.876965522766113, -1.07487154006958, 0.24257758259773254, 10.156725883483887, -0.2544366419315338, -0.5158783793449402, -0.963623046875, 0.55908203125, -0.25439453125, 0, 
73, 2084450332, 0.68477875, 0.11079195, -0.69285923, 0.19684939, 9.968476295471191, -0.8161081671714783, 0.332719087600708, 5.748495101928711, 2.042478322982788, 0.26540520787239075, -0.96533203125, 0.5576171875, -0.2548828125, 0, 
74, 2084466999, 0.68476546, 0.11153833, -0.6924553, 0.19789216, 9.822320938110352, -1.1904525756835938, 0.01761903241276741, 7.401898384094238, 2.2738640308380127, 1.1762698888778687, -0.96533203125, 0.55859375, -0.2587890625, 0, 
75, 2084483666, 0.68469524, 0.11203071, -0.6922148, 0.19869606, 9.835548400878906, -1.276983618736267, -0.032685089856386185, 5.324361801147461, 1.3472856283187866, 1.4662951231002808, -0.9658203125, 0.55859375, -0.2587890625, 0, 
76, 2084500333, 0.68480027, 0.1122663, -0.69188374, 0.19935347, 9.847128868103027, -1.0200649499893188, 0.2600384056568146, 3.261809825897217, 2.873239278793335, 1.673348307609558, -0.966064453125, 0.556640625, -0.260498046875, 0, 
77, 2084517000, 0.68502665, 0.11212638, -0.6916056, 0.19961959, 9.848373413085938, -0.8785156607627869, 0.42686617374420166, -0.7190125584602356, 3.418200731277466, 1.503356695175171, -0.9638671875, 0.55908203125, -0.260498046875, 0, 
78, 2084533667, 0.6852784, 0.11179503, -0.6914099, 0.19961958, 9.84146785736084, -0.9556289315223694, 0.25892558693885803, -2.6265439987182617, 3.1222710609436035, 1.2253692150115967, -0.966064453125, 0.55810546875, -0.261474609375, 0, 
79, 2084550334, 0.6854526, 0.11185539, -0.6911289, 0.19996049, 9.850074768066406, -1.3125989437103271, 0.06540647894144058, 0.36342501640319824, 2.9457998275756836, 1.0181496143341064, -0.9638671875, 0.55859375, -0.26171875, 0, 
80, 2084567001, 0.68564725, 0.112100795, -0.69077706, 0.20037083, 9.7935791015625, -1.3392229080200195, 0.11555176228284836, 2.3922712802886963, 3.0884759426116943, 0.38274985551834106, -0.962158203125, 0.556884765625, -0.26171875, 0, 
81, 2084583668, 0.6858184, 0.112505235, -0.6904167, 0.20080042, 9.844192504882812, -1.143206000328064, 0.11848609894514084, 3.007667064666748, 2.844360589981079, -0.27789777517318726, -0.96435546875, 0.55810546875, -0.264404296875, 0, 
82, 2084600335, 0.6859363, 0.113174975, -0.6900151, 0.20140117, 9.814860343933105, -1.112365961074829, -0.033817142248153687, 4.97205924987793, 2.577348470687866, -0.6923497915267944, -0.964111328125, 0.55712890625, -0.268310546875, 0, 
83, 2084617002, 0.68596476, 0.11359487, -0.68980867, 0.20177418, 9.831522941589355, -1.1190531253814697, 0.1843644678592682, 2.595097780227661, 1.4094091653823853, -0.2981318235397339, -0.964599609375, 0.555419921875, -0.269287109375, 0, 
84, 2084633669, 0.6860972, 0.11390894, -0.6895503, 0.20202893, 9.77617359161377, -1.0410305261611938, 0.15745232999324799, 1.305908203125, 2.226146936416626, -0.5401718020439148, -0.966064453125, 0.55615234375, -0.265380859375, 0, 
85, 2084650336, 0.68610644, 0.114349924, -0.6893992, 0.20226476, 9.715396881103516, -1.0860344171524048, 0.1758882999420166, 2.6877007484436035, 0.8263233304023743, -0.9443018436431885, -0.96240234375, 0.554931640625, -0.272216796875, 0, 
86, 2084667003, 0.6860291, 0.114893496, -0.6893136, 0.20251021, 9.727709770202637, -1.112652063369751, 0.1592244952917099, 3.028221607208252, -0.007081911433488131, -1.2120826244354248, -0.96630859375, 0.553955078125, -0.27099609375, 0, 
87, 2084683670, 0.6858305, 0.1156194, -0.6892653, 0.20293425, 9.713101387023926, -1.147173523902893, 0.03179436922073364, 3.7330963611602783, -0.7431781888008118, -1.0574588775634766, -0.96630859375, 0.553955078125, -0.26806640625, 0, 
88, 2084700337, 0.68556434, 0.11649865, -0.6892244, 0.20346864, 9.765655517578125, -1.1365824937820435, -0.043124619871377945, 5.633686542510986, -1.2912002801895142, -1.1495364904403687, -0.963134765625, 0.55322265625, -0.2705078125, 0, 
89, 2084717004, 0.68518734, 0.11779219, -0.6891172, 0.20435499, 9.800179481506348, -1.1722962856292725, -0.011127724312245846, 9.363127708435059, -1.7727320194244385, -1.3542203903198242, -0.96533203125, 0.55224609375, -0.273193359375, 0, 
90, 2084733671, 0.68475085, 0.11911869, -0.6890308, 0.20533793, 9.82702922821045, -1.1918470859527588, 0.07342959940433502, 9.670992851257324, -2.0687766075134277, -0.9659832119941711, -0.966552734375, 0.549560546875, -0.2763671875, 0, 
91, 2084750338, 0.68443686, 0.11984208, -0.6890696, 0.20583299, 9.911044120788574, -0.9691258668899536, 0.23130394518375397, 3.8644378185272217, -1.5716848373413086, -0.48863911628723145, -0.967041015625, 0.550048828125, -0.2724609375, 0, 
92, 2084767005, 0.6842064, 0.12058107, -0.6889995, 0.20640142, 9.764988899230957, -1.0102393627166748, 0.06347545236349106, 5.071539402008057, -0.7200883626937866, -0.3939617872238159, -0.96923828125, 0.552490234375, -0.274169921875, 0, 
93, 2084783672, 0.6838365, 0.12163504, -0.6889607, 0.2071372, 9.759589195251465, -1.1071816682815552, 0.05264813452959061, 7.615354537963867, -1.8531432151794434, -0.861099123954773, -0.96728515625, 0.54541015625, -0.277099609375, 0, 
94, 2084800339, 0.6834383, 0.12298245, -0.68882847, 0.20809364, 9.72636890411377, -1.123511791229248, 0.08700381964445114, 9.686245918273926, -1.711313009262085, -1.2618229389190674, -0.96728515625, 0.55029296875, -0.278076171875, 0, 
95, 2084817006, 0.6829211, 0.124442056, -0.68876636, 0.20912679, 9.744650840759277, -1.1206601858139038, 0.06767149269580841, 11.034012794494629, -2.7516629695892334, -1.1946791410446167, -0.969970703125, 0.544921875, -0.27685546875, 0, 
96, 2084833673, 0.6823389, 0.12597597, -0.68871397, 0.21027794, 9.807387351989746, -1.1033635139465332, 0.05573092773556709, 11.864877700805664, -3.093618631362915, -0.8934482336044312, -0.970703125, 0.54541015625, -0.279541015625, 0, 
97, 2084850340, 0.68169326, 0.12740256, -0.6887434, 0.21141298, 9.846198081970215, -1.0938879251480103, 0.08680202066898346, 11.38970947265625, -3.648401975631714, -0.2940979301929474, -0.968994140625, 0.542236328125, -0.27978515625, 0, 
98, 2084867007, 0.68111926, 0.12865607, -0.6887805, 0.21238162, 9.925300598144531, -1.0122491121292114, 0.28793004155158997, 9.008840560913086, -3.1539487838745117, -0.3637772798538208, -0.968505859375, 0.54150390625, -0.28076171875, 0, 
99, 2084883674, 0.6806101, 0.1297226, -0.6888468, 0.21314779, 9.91769027709961, -0.9756028652191162, 0.2847301959991455, 7.2770490646362305, -2.927224636077881, -0.4815700650215149, -0.969482421875, 0.538330078125, -0.278076171875, 0, 
100, 2084900341, 0.6802297, 0.13030763, -0.689044, 0.213368, 9.952085494995117, -0.8684303164482117, 0.4201349914073944, 3.0103049278259277, -2.8301901817321777, -0.8004352450370789, -0.9697265625, 0.537841796875, -0.282470703125, 0, 
101, 2084917008, 0.68003666, 0.13072369, -0.6891281, 0.21345696, 9.903010368347168, -0.8760559558868408, 0.37530678510665894, 0.9609373211860657, -1.232143759727478, -0.9805629849433899, -0.97021484375, 0.54052734375, -0.282470703125, 0, 
102, 2084933675, 0.6798919, 0.13108793, -0.68920714, 0.2134399, 9.818120002746582, -1.053831934928894, 0.2384800761938095, 0.12751923501491547, -1.0141476392745972, -1.2866923809051514, -0.97021484375, 0.538330078125, -0.279296875, 0, 
103, 2084950342, 0.6797522, 0.13155083, -0.68924457, 0.21347915, 9.787179946899414, -1.1359121799468994, 0.13616958260536194, 1.1908944845199585, -0.9347739219665527, -1.528335452079773, -0.968017578125, 0.539306640625, -0.2802734375, 0, 
104, 2084967009, 0.67956007, 0.13212447, -0.6892676, 0.21366212, 9.74545669555664, -1.1658790111541748, 0.053346794098615646, 2.5306947231292725, -1.1596405506134033, -1.3191947937011719, -0.971923828125, 0.53955078125, -0.282958984375, 0, 
105, 2084983676, 0.6793207, 0.13278428, -0.6892844, 0.2139598, 9.758700370788574, -1.114128828048706, 0.08467287570238113, 3.195408582687378, -1.3350236415863037, -1.1388431787490845, -0.971435546875, 0.53515625, -0.28369140625, 0, 
106, 2085000343, 0.67912644, 0.13329668, -0.68929446, 0.21422559, 9.811786651611328, -1.0521221160888672, 0.11148907244205475, 2.087646484375, -0.8715490102767944, -0.6677615642547607, -0.971923828125, 0.53564453125, -0.28125, 0, 
107, 2085017010, 0.67898613, 0.13350257, -0.6893674, 0.2143074, 9.850638389587402, -1.062898874282837, 0.05585678294301033, 0.07178599387407303, -0.6794665455818176, -0.08785156160593033, -0.9736328125, 0.53515625, -0.279541015625, 0, 
108, 2085033677, 0.6788695, 0.13361394, -0.68944556, 0.21435614, 9.874526977539062, -1.0961045026779175, 0.04855431988835335, -0.6653794050216675, -0.46757256984710693, 0.17727188766002655, -0.9765625, 0.533203125, -0.283935546875, 0, 
109, 2085050344, 0.67875946, 0.13362922, -0.68955564, 0.21434103, 9.876832008361816, -1.0231821537017822, 0.15173396468162537, -1.8375061750411987, -0.4567512571811676, 0.34976059198379517, -0.972900390625, 0.53564453125, -0.2802734375, 0, 
110, 2085067011, 0.6787586, 0.13367121, -0.6895403, 0.21436639, 9.875340461730957, -0.9655198454856873, 0.18114741146564484, -1.144426703453064, 0.6052728891372681, 0.14485903084278107, -0.9736328125, 0.53466796875, -0.2802734375, 0, 
111, 2085083678, 0.6787774, 0.13378508, -0.68942606, 0.21460305, 9.82479190826416, -1.0869659185409546, 0.11119361966848373, 0.5350812673568726, 1.2152265310287476, 0.6827897429466248, -0.972412109375, 0.536376953125, -0.28125, 0, 
112, 2085100345, 0.67871666, 0.13402732, -0.68931186, 0.2150105, 9.8377046585083, -1.1423577070236206, 0.012506909668445587, 1.7065551280975342, 0.8418445587158203, 0.9836878180503845, -0.971923828125, 0.537841796875, -0.27978515625, 0, 
113, 2085117012, 0.67867035, 0.13414995, -0.6892196, 0.21537548, 9.822039604187012, -1.0936394929885864, 0.032770078629255295, 1.4518239498138428, 0.8875760436058044, 1.3546621799468994, -0.97314453125, 0.5341796875, -0.28076171875, 0, 
114, 2085133679, 0.67852706, 0.13424903, -0.6892054, 0.21581061, 9.798517227172852, -1.0234534740447998, 0.011588801629841328, 1.3090459108352661, 0.20685455203056335, 2.0041489601135254, -0.971923828125, 0.5361328125, -0.28125, 0, 
115, 2085150346, 0.67826027, 0.13416499, -0.689365, 0.2161917, 9.837021827697754, -1.0017772912979126, 0.04427154362201691, 0.04487985372543335, -0.9587730765342712, 2.96960711479187, -0.972412109375, 0.537841796875, -0.28173828125, 0, 
116, 2085167013, 0.67795336, 0.13401857, -0.6895678, 0.21659821, 9.839344024658203, -1.0433704853057861, 0.03996682167053223, -0.11981620639562607, -1.2341094017028809, 3.490633010864258, -0.97265625, 0.536865234375, -0.283447265625, 0, 
117, 2085183680, 0.67768157, 0.13383716, -0.68974334, 0.21700148, 9.853687286376953, -1.0073609352111816, 0.13827192783355713, -0.786233127117157, -0.8291984796524048, 3.563514471054077, -0.9736328125, 0.536865234375, -0.28173828125, 0, 
118, 2085200347, 0.6776341, 0.13361098, -0.6897437, 0.21728781, 9.863776206970215, -0.9435924291610718, 0.268607497215271, -1.0869646072387695, 0.9600088000297546, 2.7492613792419434, -0.96923828125, 0.53564453125, -0.282470703125, 0, 
119, 2085217014, 0.6777033, 0.13339543, -0.6896635, 0.21745811, 9.78421688079834, -0.9813417792320251, 0.225014790892601, -2.022801637649536, 1.8052536249160767, 1.9171427488327026, -0.970703125, 0.5400390625, -0.2802734375, 0, 
120, 2085233681, 0.6777907, 0.13317233, -0.6896045, 0.21750955, 9.751404762268066, -1.0536139011383057, 0.10163955390453339, -2.028986930847168, 1.608458399772644, 1.4093836545944214, -0.971435546875, 0.54052734375, -0.282470703125, 0, 
121, 2085250348, 0.6778806, 0.13319275, -0.68944746, 0.21771552, 9.749310493469238, -1.0594241619110107, 0.11599935591220856, -0.010936622507870197, 1.8525985479354858, 0.8868973255157471, -0.972412109375, 0.53955078125, -0.28466796875, 0, 
122, 2085267015, 0.6779618, 0.1333108, -0.6892613, 0.21797954, 9.783345222473145, -0.9897393584251404, 0.12246399372816086, 0.3994620442390442, 1.899200677871704, 0.680715024471283, -0.970703125, 0.538818359375, -0.282470703125, 0, 
123, 2085283682, 0.67798924, 0.13346598, -0.6891388, 0.2181863, 9.788810729980469, -1.063204050064087, 0.008708782494068146, 0.34864646196365356, 1.2266753911972046, 0.38773149251937866, -0.970947265625, 0.5390625, -0.28515625, 0, 
124, 2085300349, 0.677906, 0.13375142, -0.68907094, 0.21848455, 9.782930374145508, -1.1781573295593262, -0.002189991530030966, 1.5155993700027466, 0.3303461968898773, 0.4192478656768799, -0.96875, 0.53662109375, -0.2841796875, 0, 
125, 2085317016, 0.6777107, 0.13419108, -0.6890547, 0.2188715, 9.80595588684082, -1.1264610290527344, 0.021265234798192978, 2.5372259616851807, -0.5664376020431519, 0.31210991740226746, -0.97412109375, 0.537841796875, -0.28515625, 0, 
126, 2085333683, 0.6775191, 0.1345302, -0.68910587, 0.21909522, 9.849129676818848, -0.954556941986084, 0.09978258609771729, 0.9267507195472717, -0.8239477872848511, 0.08276102691888809, -0.971435546875, 0.537353515625, -0.2841796875, 0, 
127, 2085350350, 0.6773365, 0.1347394, -0.68921113, 0.2192002, 9.881123542785645, -0.9082764983177185, 0.0981670469045639, -0.02489554136991501, -0.9837581515312195, 0.19835112988948822, -0.975341796875, 0.535400390625, -0.28515625, 0, 
128, 2085367017, 0.6771179, 0.13492884, -0.68934864, 0.21932626, 9.841497421264648, -1.0971745252609253, 0.10966616123914719, -0.1323920488357544, -1.2435861825942993, 0.48899129033088684, -0.970458984375, 0.537353515625, -0.28466796875, 0, 
129, 2085383684, 0.6769147, 0.13505729, -0.68948776, 0.21943721, 9.887228965759277, -1.1665582656860352, 0.1753958910703659, -0.5897964239120483, -1.09071683883667, 0.6884693503379822, -0.971435546875, 0.536865234375, -0.28515625, 0, 
130, 2085400351, 0.6768105, 0.13523579, -0.6895206, 0.21954572, 9.850985527038574, -1.0682165622711182, 0.15454554557800293, -0.2498006522655487, -0.21564608812332153, 0.19080819189548492, -0.97216796875, 0.537841796875, -0.286376953125, 0, 
131, 2085417018, 0.6766851, 0.13550885, -0.689539, 0.21970583, 9.792016983032227, -0.9312622547149658, 0.14309477806091309, 0.5352861881256104, -0.35561951994895935, 0.007101120427250862, -0.971435546875, 0.536376953125, -0.28515625, 0, 
132, 2085433685, 0.676491, 0.13586958, -0.68959856, 0.21989381, 9.79184627532959, -0.9985095858573914, 0.051651835441589355, 0.9588562250137329, -0.9685826301574707, -0.1245417669415474, -0.972412109375, 0.536865234375, -0.282958984375, 0, 
133, 2085450352, 0.67627484, 0.13620354, -0.68969667, 0.22004487, 9.742793083190918, -1.0713763236999512, 0.009777966886758804, 0.972443699836731, -1.2875630855560303, -0.08648127317428589, -0.9736328125, 0.5341796875, -0.283935546875, 0, 
134, 2085467019, 0.67605424, 0.13660666, -0.6897623, 0.22026677, 9.752483367919922, -1.080220103263855, 0.02302006259560585, 1.3625379800796509, -1.1510604619979858, -0.1097504198551178, -0.970947265625, 0.537841796875, -0.28369140625, 0, 
135, 2085483686, 0.67587674, 0.13696453, -0.68980086, 0.22046842, 9.792329788208008, -0.9936650395393372, 0.07695672661066055, 1.4424622058868408, -0.815495491027832, -0.07322670519351959, -0.97216796875, 0.53564453125, -0.28515625, 0, 
136, 2085500353, 0.6757616, 0.13725653, -0.689789, 0.2206766, 9.80773639678955, -1.0365294218063354, 0.10478676855564117, 0.8381307125091553, -0.13711757957935333, 0.13314121961593628, -0.9736328125, 0.535888671875, -0.28466796875, 0, 
137, 2085517020, 0.67562205, 0.13749348, -0.68981594, 0.22087218, 9.836989402770996, -1.0775262117385864, 0.06848055869340897, 0.7673244476318359, -0.39812374114990234, 0.4179287850856781, -0.97265625, 0.537353515625, -0.28515625, 0, 
138, 2085533687, 0.675422, 0.13781896, -0.68985647, 0.22115485, 9.845708847045898, -1.057520866394043, 0.11581113189458847, 1.6963224411010742, -0.8075554966926575, 0.5111077427864075, -0.974365234375, 0.535888671875, -0.286865234375, 0, 
139, 2085550354, 0.67521346, 0.13814859, -0.6898829, 0.22150335, 9.918888092041016, -0.9890729784965515, 0.22350655496120453, 1.5797336101531982, -0.671680212020874, 0.7970095276832581, -0.9736328125, 0.53515625, -0.282470703125, 0, 
140, 2085567021, 0.6751379, 0.13821676, -0.689922, 0.2215686, 9.901423454284668, -0.9456067085266113, 0.17085371911525726, -0.5510829091072083, -0.05043140426278114, 0.5458642840385437, -0.9755859375, 0.5341796875, -0.288818359375, 0, 
141, 2085583688, 0.6750889, 0.13828386, -0.689959, 0.22156106, 9.87289047241211, -0.9629418849945068, 0.15203413367271423, -2.524477481842041, 0.20442134141921997, 0.1694856435060501, -0.975830078125, 0.535400390625, -0.283935546875, 0, 
142, 2085600355, 0.6751446, 0.1380827, -0.69003445, 0.2212809, 9.845060348510742, -1.0318890810012817, 0.12356968224048615, -3.713611125946045, 0.48439380526542664, 0.07742078602313995, -0.97265625, 0.5341796875, -0.28515625, 0, 
143, 2085617022, 0.6751507, 0.13795161, -0.69012254, 0.22106953, 9.78865909576416, -1.1657270193099976, 0.014617502689361572, -3.436583995819092, 0.19340789318084717, 0.15464307367801666, -0.975830078125, 0.533203125, -0.28125, 0, 
144, 2085633689, 0.67510647, 0.1379566, -0.69019705, 0.22096902, 9.76993179321289, -1.181371808052063, -0.011326518841087818, -1.8330625295639038, -0.12652672827243805, 0.08680783212184906, -0.97412109375, 0.53515625, -0.28173828125, 0, 
145, 2085650356, 0.675042, 0.13810591, -0.6902138, 0.22102065, 9.803814888000488, -1.1016933917999268, 0.04976634308695793, -0.34951090812683105, -0.024268031120300293, 0.07975154370069504, -0.9736328125, 0.5341796875, -0.28125, 0, 
146, 2085667023, 0.6749764, 0.1383055, -0.69018984, 0.22117107, 9.79566764831543, -1.0838192701339722, 0.052770838141441345, 0.48102569580078125, 0.17138096690177917, 0.2640989422798157, -0.9736328125, 0.53369140625, -0.283447265625, 0, 
147, 2085683690, 0.6748616, 0.13853738, -0.6901891, 0.22137833, 9.798080444335938, -1.0854517221450806, 0.03024602308869362, 0.9486752152442932, -0.16950485110282898, 0.4742255210876465, -0.975341796875, 0.535888671875, -0.28515625, 0, 
148, 2085700357, 0.67466664, 0.1388649, -0.69022065, 0.22166893, 9.80518627166748, -1.0268408060073853, 0.060816530138254166, 1.5089914798736572, -0.7275543808937073, 0.5596567392349243, -0.9736328125, 0.532958984375, -0.28466796875, 0, 
149, 2085717024, 0.67443466, 0.13916801, -0.6903047, 0.22192298, 9.82207202911377, -0.9847897887229919, 0.115015909075737, 1.1235971450805664, -1.1372166872024536, 0.6178104281425476, -0.97314453125, 0.532470703125, -0.283447265625, 0, 
150, 2085733691, 0.6742127, 0.13940577, -0.6904013, 0.22214735, 9.828142166137695, -1.0289011001586914, 0.08893804252147675, 0.7397651672363281, -1.0922023057937622, 0.7956392765045166, -0.97216796875, 0.532958984375, -0.28369140625, 0, 
151, 2085750358, 0.67405444, 0.13959372, -0.6904493, 0.2223605, 9.860422134399414, -1.0079487562179565, 0.16550393402576447, 0.365243524312973, -0.48729440569877625, 0.840717613697052, -0.975341796875, 0.531982421875, -0.28466796875, 0, 
152, 2085767025, 0.6739692, 0.13976565, -0.69041383, 0.2226208, 9.847246170043945, -1.0113548040390015, 0.17936673760414124, 0.5296385884284973, 0.3131088316440582, 0.9511595368385315, -0.97314453125, 0.531982421875, -0.28564453125, 0, 
153, 2085783692, 0.67391074, 0.13987388, -0.6903869, 0.22281332, 9.847024917602539, -1.0160391330718994, 0.11443470418453217, 0.11283034086227417, 0.3957354426383972, 0.9160317778587341, -0.974853515625, 0.53466796875, -0.28515625, 0, 
154, 2085800359, 0.6738393, 0.14005841, -0.69035006, 0.22302772, 9.793262481689453, -1.032589077949524, 0.03788718581199646, 0.5100961327552795, 0.2899165749549866, 0.6697912812232971, -0.9765625, 0.53369140625, -0.284423828125, 0, 
155, 2085817026, 0.6737288, 0.14032167, -0.6903228, 0.22327957, 9.77854061126709, -1.0781549215316772, 0.010538680478930473, 1.0961658954620361, -0.025190088897943497, 0.5441609621047974, -0.97314453125, 0.53369140625, -0.283447265625, 0, 
156, 2085833693, 0.6735948, 0.14063995, -0.690286, 0.22359765, 9.793797492980957, -1.081178903579712, -2.9895512852817774E-4, 1.8247061967849731, -0.12511803209781647, 0.6190652847290039, -0.97216796875, 0.532958984375, -0.287353515625, 0, 
157, 2085850360, 0.6734195, 0.14094746, -0.6902981, 0.22389446, 9.800369262695312, -1.056591510772705, 0.00297685619443655, 1.5456175804138184, -0.5383790135383606, 0.6854150891304016, -0.97216796875, 0.533447265625, -0.28466796875, 0, 
158, 2085867027, 0.6732003, 0.14120346, -0.69037896, 0.2241423, 9.838543891906738, -1.0442208051681519, 0.05922108143568039, 1.0750099420547485, -1.0365076065063477, 0.8395139575004578, -0.9755859375, 0.530517578125, -0.28515625, 0, 
159, 2085883694, 0.67305654, 0.14144929, -0.69041187, 0.22431822, 9.847098350524902, -1.008985996246338, 0.11337331682443619, 0.6416172981262207, -0.5067856311798096, 0.39810454845428467, -0.974853515625, 0.531494140625, -0.28515625, 0, 
160, 2085900361, 0.67292845, 0.14170997, -0.6904274, 0.22448981, 9.809289932250977, -1.006991982460022, 0.09025989472866058, 0.5651634335517883, -0.3672733008861542, 0.2719748318195343, -0.97412109375, 0.53369140625, -0.28173828125, 0, 
161, 2085917028, 0.6728354, 0.14203012, -0.69039845, 0.22465539, 9.77739429473877, -1.0076547861099243, 0.09812266379594803, 1.3876512050628662, -0.1618722677230835, -0.12901116907596588, -0.974853515625, 0.532470703125, -0.2861328125, 0, 
162, 2085933695, 0.672744, 0.14244519, -0.6903433, 0.22483638, 9.79710865020752, -0.9750019907951355, 0.16853764653205872, 1.4717122316360474, -0.11054440587759018, -0.5291967988014221, -0.97265625, 0.5302734375, -0.28466796875, 0, 
163, 2085950362, 0.67267644, 0.14281346, -0.6902926, 0.2249601, 9.798540115356445, -1.0003494024276733, 0.10338111221790314, 0.9486239552497864, -0.009412667714059353, -0.5980181694030762, -0.973876953125, 0.52978515625, -0.287841796875, 0, 
164, 2085967029, 0.67259645, 0.14314105, -0.6902915, 0.22499408, 9.822442054748535, -1.095377802848816, -0.004134141840040684, 0.012159629724919796, -0.29687681794166565, -0.7460851669311523, -0.9755859375, 0.531494140625, -0.2861328125, 0, 
165, 2085983696, 0.6725259, 0.14331527, -0.6903505, 0.22491346, 9.858083724975586, -1.0492863655090332, -0.03721538186073303, -1.1353212594985962, -0.42733505368232727, -0.5039682388305664, -0.9765625, 0.530517578125, -0.287841796875, 0, 
166, 2086000363, 0.6724304, 0.14350334, -0.69040495, 0.22491194, 9.854601860046387, -0.9746620655059814, -0.016752276569604874, -1.0816371440887451, -0.415770947933197, -0.16635450720787048, -0.974853515625, 0.531005859375, -0.282958984375, 0, 
167, 2086017030, 0.67233896, 0.14359933, -0.6904987, 0.22483584, 9.867496490478516, -1.0362334251403809, 0.10484418272972107, -1.0420783758163452, -0.6105939745903015, -0.03261777386069298, -0.97705078125, 0.529296875, -0.284423828125, 0, 
168, 2086033697, 0.6722855, 0.14382055, -0.6905004, 0.22484896, 9.862604141235352, -1.1574931144714355, 0.043855030089616776, -0.3141525387763977, -0.0707806944847107, -0.36142081022262573, -0.97705078125, 0.527099609375, -0.283447265625, 0, 
169, 2086050364, 0.67226684, 0.14407136, -0.69043434, 0.22494717, 9.806220054626465, -1.1120322942733765, 0.07780750095844269, 0.10279656201601028, 0.4678415358066559, -0.2334597408771515, -0.97607421875, 0.52880859375, -0.282470703125, 0, 
170, 2086067031, 0.67224896, 0.1443678, -0.69035584, 0.22505176, 9.772255897521973, -0.9287343621253967, 0.10014563053846359, 0.7488128542900085, 0.4163472354412079, -0.4362034797668457, -0.97705078125, 0.531494140625, -0.2861328125, 0, 
171, 2086083698, 0.6722113, 0.14467826, -0.69029325, 0.2251567, 9.76475715637207, -0.9436661601066589, 0.0869428813457489, 0.8017991185188293, 0.2240278571844101, -0.4441113770008087, -0.9755859375, 0.52880859375, -0.287841796875, 0, 
172, 2086100365, 0.67215866, 0.14486909, -0.69028974, 0.22520235, 9.778316497802734, -1.0065163373947144, 0.04498511180281639, -0.4909186363220215, 0.04738990217447281, -0.06184186786413193, -0.97607421875, 0.52978515625, -0.283935546875, 0, 
173, 2086117032, 0.6721255, 0.14489296, -0.6903404, 0.22513045, 9.820135116577148, -1.0178754329681396, -0.018042823299765587, -1.466403841972351, -0.02416558377444744, 0.21409015357494354, -0.977294921875, 0.52880859375, -0.288818359375, 0, 
174, 2086133699, 0.67206347, 0.14497244, -0.6903951, 0.2250963, 9.846710205078125, -0.9808827042579651, 0.0188473891466856, -1.7555840015411377, -0.13824453949928284, 0.17757923901081085, -0.977294921875, 0.52783203125, -0.28662109375, 0, 
175, 2086150366, 0.6720114, 0.14507943, -0.69040686, 0.22514734, 9.853650093078613, -1.0341674089431763, 0.01922006905078888, -0.8406471610069275, 0.11189547181129456, 0.38789790868759155, -0.974365234375, 0.5283203125, -0.286376953125, 0, 
176, 2086167033, 0.6719931, 0.14519495, -0.6903734, 0.22522937, 9.900161743164062, -0.9979666471481323, 0.07342381030321121, -0.5572939515113831, 0.49142447113990784, 0.3962092697620392, -0.977294921875, 0.525634765625, -0.287353515625, 0, 
177, 2086183700, 0.6719609, 0.14544924, -0.6902821, 0.22544126, 9.8585844039917, -1.017516851425171, 0.07102705538272858, 0.35146385431289673, 0.6578941941261292, 0.3046310245990753, -0.977294921875, 0.5283203125, -0.288330078125, 0, 
178, 2086200367, 0.67195624, 0.1456306, -0.6902034, 0.22557874, 9.838139533996582, -1.0019495487213135, 0.028534557670354843, 0.13635559380054474, 0.7042660117149353, 0.281477153301239, -0.977294921875, 0.529296875, -0.2861328125, 0, 
179, 2086217034, 0.6719539, 0.14580059, -0.6901225, 0.22572361, 9.830171585083008, -0.9845476150512695, 0.07043160498142242, 0.1657077521085739, 0.7460659146308899, 0.36557644605636597, -0.977783203125, 0.530029296875, -0.2861328125, 0, 
180, 2086233701, 0.67196363, 0.14596209, -0.69004464, 0.2258286, 9.795950889587402, -0.9758790135383606, 0.0766846165060997, 0.10302067548036575, 0.738023579120636, 0.2104787528514862, -0.9755859375, 0.52880859375, -0.2890625, 0, 
181, 2086250368, 0.671939, 0.14605635, -0.69002676, 0.22589545, 9.810961723327637, -1.082839012145996, -0.02483416348695755, -0.7132431864738464, 0.3915925621986389, 0.4721701145172119, -0.9755859375, 0.526123046875, -0.286865234375, 0, 
182, 2086267035, 0.6718919, 0.14618121, -0.6900218, 0.22596993, 9.793400764465332, -1.0669399499893188, -0.04390152171254158, -0.45525291562080383, 0.18034540116786957, 0.4093485176563263, -0.977783203125, 0.52734375, -0.28564453125, 0, 
183, 2086283702, 0.67183506, 0.14634943, -0.6900009, 0.22609366, 9.7947416305542, -1.0161793231964111, 0.003665612544864416, 0.14783009886741638, 0.17856533825397491, 0.42890384793281555, -0.9765625, 0.5283203125, -0.28564453125, 0, 
184, 2086300369, 0.6717802, 0.1464527, -0.6900192, 0.22613382, 9.80685043334961, -0.9767301678657532, 0.05140798166394234, -0.53079754114151, 0.015630150213837624, 0.3888711929321289, -0.974609375, 0.527099609375, -0.287841796875, 0, 
185, 2086317036, 0.67170084, 0.1466306, -0.6900305, 0.22622003, 9.845602989196777, -0.9626545906066895, 0.05195188522338867, -0.4224814772605896, -0.0832284614443779, 0.2831931710243225, -0.98046875, 0.52685546875, -0.287109375, 0, 
186, 2086333703, 0.6716556, 0.14684598, -0.6899916, 0.22633362, 9.857278823852539, -0.9536743760108948, 0.0828106552362442, -0.05186571553349495, 0.27552223205566406, 0.1337815225124359, -0.977783203125, 0.52783203125, -0.288330078125, 0, 
187, 2086350370, 0.6716017, 0.14705496, -0.68996805, 0.22642918, 9.85382080078125, -0.9880130887031555, 0.0817592516541481, -0.09930042922496796, 0.142348974943161, 0.11677467823028564, -0.9794921875, 0.52685546875, -0.287841796875, 0, 
188, 2086367037, 0.6715439, 0.14732665, -0.6899262, 0.22655188, 9.83562183380127, -0.954081654548645, 0.07773588597774506, 0.3515663146972656, 0.13440904021263123, -0.0654916763305664, -0.9794921875, 0.52392578125, -0.28662109375, 0, 
189, 2086383704, 0.6714788, 0.147587, -0.68988526, 0.22669981, 9.841736793518066, -0.982451856136322, 0.03521865978837013, 0.2724230885505676, 0.1542716920375824, 0.12233265489339828, -0.97900390625, 0.526123046875, -0.288818359375, 0, 
190, 2086400371, 0.67140186, 0.14782527, -0.689873, 0.22680992, 9.830646514892578, -0.9715554118156433, 0.06544817239046097, -0.08643004298210144, -0.03448750078678131, 0.10436534881591797, -0.97900390625, 0.525146484375, -0.287353515625, 0, 
191, 2086417038, 0.6713625, 0.14801101, -0.6898605, 0.22684312, 9.856127738952637, -0.985531210899353, 0.038190316408872604, -0.49292922019958496, 0.1197969987988472, -0.056642480194568634, -0.981201171875, 0.5283203125, -0.288330078125, 0, 
192, 2086433705, 0.671315, 0.14822617, -0.6898434, 0.22689523, 9.828569412231445, -1.0070240497589111, 0.018999945372343063, -0.09789174050092697, 0.05616224557161331, -0.09799419343471527, -0.977783203125, 0.526611328125, -0.287841796875, 0, 
193, 2086450372, 0.67123, 0.14841923, -0.68986535, 0.22695348, 9.816463470458984, -1.0139477252960205, 0.006869893986731768, -0.10283498466014862, -0.2704060971736908, 0.13562564551830292, -0.980712890625, 0.524658203125, -0.289306640625, 0, 
194, 2086467039, 0.67112553, 0.14861599, -0.68989104, 0.22705574, 9.820025444030762, -0.9768694639205933, 0.04468806833028793, -0.47708770632743835, -0.2711104154586792, 0.3570474088191986, -0.9794921875, 0.526123046875, -0.28662109375, 0, 
195, 2086483706, 0.67101187, 0.14873268, -0.6899666, 0.22708559, 9.822610855102539, -0.9904839396476746, 0.05107392743229866, -0.6402278542518616, -0.5648112297058105, 0.471395343542099, -0.97998046875, 0.5234375, -0.287841796875, 0, 
196, 2086500373, 0.670907, 0.14884421, -0.6900446, 0.22708517, 9.843843460083008, -0.9973448514938354, 0.10867320746183395, -1.3532599210739136, -0.499332457780838, 0.34662309288978577, -0.97900390625, 0.525146484375, -0.2861328125, 0, 
197, 2086517040, 0.6708511, 0.14881794, -0.6901463, 0.2269586, 9.84417724609375, -0.9573527574539185, 0.07639039307832718, -2.1943554878234863, -0.349459707736969, 0.3685859739780426, -0.978515625, 0.524658203125, -0.2900390625, 0, 
198, 2086533707, 0.67074466, 0.14892608, -0.6902182, 0.22698374, 9.851987838745117, -0.9573653936386108, 0.05416527017951012, -1.8098315000534058, -0.39069607853889465, 0.48311305046081543, -0.977294921875, 0.52294921875, -0.2890625, 0, 
199, 2086550374, 0.6706497, 0.14903946, -0.690285, 0.22698644, 9.832988739013672, -0.997413158416748, 0.059981171041727066, -1.55684232711792, -0.3848308324813843, 0.33732566237449646, -0.978271484375, 0.525146484375, -0.28662109375, 0, 
200, 2086567041, 0.6706105, 0.14907804, -0.69033974, 0.2269106, 9.811344146728516, -1.0206693410873413, -0.019745713099837303, -1.6549131870269775, -0.10574202984571457, 0.2314939796924591, -0.978271484375, 0.525146484375, -0.287353515625, 0, 
201, 2086583708, 0.6704981, 0.14923438, -0.6904028, 0.2269481, 9.763435363769531, -1.0565510988235474, -0.043307870626449585, -0.5384173393249512, -0.554924726486206, 0.31824418902397156, -0.978515625, 0.526611328125, -0.288818359375, 0, 
202, 2086600375, 0.6703419, 0.14942281, -0.6904701, 0.22708087, 9.832180976867676, -0.9927129745483398, 0.038827333599328995, -0.08151242882013321, -0.7109060883522034, 0.6763481497764587, -0.977783203125, 0.52392578125, -0.2861328125, 0, 
203, 2086617042, 0.67029387, 0.14934891, -0.6905618, 0.22699243, 9.8583984375, -0.9396282434463501, 0.04747619852423668, -2.3204212188720703, -0.14837437868118286, 0.7603962421417236, -0.97900390625, 0.5224609375, -0.2900390625, 0, 
204, 2086633709, 0.6701965, 0.14923589, -0.6907134, 0.22689316, 9.872535705566406, -0.9312626719474792, -0.02394029125571251, -3.628295660018921, -0.497052937746048, 1.041482925415039, -0.978271484375, 0.52734375, -0.28564453125, 0, 
205, 2086650376, 0.670126, 0.14904764, -0.6908864, 0.22669771, 9.846781730651855, -1.0021967887878418, 0.023925717920064926, -3.405682325363159, -0.5681537389755249, 0.9369191527366638, -0.977783203125, 0.525634765625, -0.28515625, 0, 
206, 2086667043, 0.6700234, 0.1489997, -0.6910199, 0.226626, 9.825444221496582, -1.0875375270843506, 0.02964477613568306, -2.3679451942443848, -0.6004128456115723, 0.8525890707969666, -0.9794921875, 0.524658203125, -0.284423828125, 0, 
207, 2086683710, 0.6699564, 0.14896756, -0.69111145, 0.22656608, 9.829468727111816, -1.05922532081604, -0.034881990402936935, -2.187375783920288, -0.25670328736305237, 0.7313514351844788, -0.97900390625, 0.525146484375, -0.2861328125, 0, 
208, 2086700377, 0.66982555, 0.14899582, -0.6912163, 0.22661483, 9.80531120300293, -0.9864694476127625, -0.008614200167357922, -1.4488334655761719, -0.5901806354522705, 1.0576571226119995, -0.978759765625, 0.526611328125, -0.283935546875, 0, 
209, 2086717044, 0.66963965, 0.14905848, -0.69136304, 0.22667505, 9.793755531311035, -0.9504314661026001, -0.01847444660961628, -1.0113941431045532, -1.1136655807495117, 1.0744717121124268, -0.97998046875, 0.521728515625, -0.28173828125, 0, 
210, 2086733711, 0.6694492, 0.14910059, -0.691519, 0.2267342, 9.790984153747559, -0.9887101054191589, -0.014286757446825504, -1.1311335563659668, -1.1464884281158447, 1.190138816833496, -0.97998046875, 0.52734375, -0.2822265625, 0, 
211, 2086750378, 0.6693375, 0.14898491, -0.6916717, 0.22667387, 9.828612327575684, -0.9780144691467285, 0.02322405017912388, -2.268324851989746, -0.6588994860649109, 1.2641980648040771, -0.9794921875, 0.525634765625, -0.284423828125, 0, 
212, 2086767045, 0.669296, 0.14886674, -0.69176143, 0.22660019, 9.837803840637207, -0.932666540145874, 0.022813264280557632, -2.5951554775238037, -0.017813634127378464, 1.046669363975525, -0.9794921875, 0.525146484375, -0.28564453125, 0, 
213, 2086783712, 0.66924244, 0.14881377, -0.6918203, 0.22661348, 9.834601402282715, -1.018203616142273, -0.06226050481200218, -2.56034779548645, 0.13533750176429749, 1.1312873363494873, -0.978271484375, 0.525634765625, -0.283447265625, 0, 
214, 2086800379, 0.66919, 0.14875554, -0.69188094, 0.2266217, 9.817919731140137, -1.0603293180465698, -0.09451694041490555, -1.9999035596847534, 0.069007009267807, 1.1309735774993896, -0.978759765625, 0.525634765625, -0.284423828125, 0, 
215, 2086817046, 0.66909415, 0.14884876, -0.6918967, 0.22679582, 9.835535049438477, -1.073750615119934, -0.10633747279644012, -0.41785842180252075, 0.006883413530886173, 1.1954407691955566, -0.97998046875, 0.526611328125, -0.283447265625, 0, 
216, 2086833713, 0.66901857, 0.14899284, -0.6918593, 0.2270375, 9.859748840332031, -0.9804209470748901, -0.04891252890229225, 0.2105555683374405, 0.34118032455444336, 1.174835205078125, -0.978759765625, 0.52783203125, -0.28173828125, 0, 
217, 2086850380, 0.66897416, 0.14903022, -0.69182765, 0.2272404, 9.86134147644043, -1.017709493637085, -0.010959143750369549, -0.20453022420406342, 0.5569161772727966, 1.4610060453414917, -0.9814453125, 0.529052734375, -0.281494140625, 0, 
218, 2086867047, 0.6689529, 0.1490066, -0.69181305, 0.22736299, 9.840486526489258, -1.0281763076782227, -0.06152697652578354, -0.7751298546791077, 0.5859480500221252, 1.3623073101043701, -0.9765625, 0.527099609375, -0.28076171875, 0, 
219, 2086883714, 0.6689117, 0.14899723, -0.69182295, 0.22746, 9.83963680267334, -0.9949120879173279, -0.011408727616071701, -0.8691540956497192, 0.3310377299785614, 1.2348713874816895, -0.979248046875, 0.526611328125, -0.28271484375, 0, 
220, 2086900381, 0.66881114, 0.14906333, -0.6918329, 0.22768185, 9.874881744384766, -1.068159580230713, -0.03943348675966263, -0.22407270967960358, 0.09873054921627045, 1.547435998916626, -0.97705078125, 0.52783203125, -0.283935546875, 0, 
221, 2086917048, 0.66867435, 0.14923407, -0.69181305, 0.22803177, 9.8634033203125, -1.1382895708084106, -0.09553331136703491, 0.9683072566986084, 0.029512230306863785, 1.664486050605774, -0.978271484375, 0.529296875, -0.283447265625, 0, 
222, 2086933715, 0.6685004, 0.14946061, -0.6917824, 0.2284862, 9.83452033996582, -1.1507954597473145, -0.07434485107660294, 1.7675515413284302, -0.07274006307125092, 1.9202159643173218, -0.979248046875, 0.52783203125, -0.28271484375, 0, 
223, 2086950382, 0.6683075, 0.14966534, -0.69175756, 0.22899182, 9.750426292419434, -1.0773688554763794, -0.07912573218345642, 1.979170322418213, -0.10696503520011902, 2.2904670238494873, -0.977783203125, 0.5283203125, -0.284423828125, 0, 
224, 2086967049, 0.66802174, 0.14994937, -0.69176376, 0.22961959, 9.724286079406738, -1.084838628768921, -0.04520213231444359, 2.9745185375213623, -0.6875858306884766, 2.652989625930786, -0.978271484375, 0.530029296875, -0.284423828125, 0, 
225, 2086983716, 0.6677392, 0.15023449, -0.69175684, 0.2302746, 9.747422218322754, -1.0024882555007935, 0.07562059164047241, 3.088334321975708, -0.5809729099273682, 2.7497987747192383, -0.97607421875, 0.527099609375, -0.283447265625, 0, 
226, 2087000383, 0.6675549, 0.15039463, -0.69170743, 0.23085245, 9.782197952270508, -0.9491371512413025, 0.18894422054290771, 2.190570831298828, 0.18615950644016266, 2.7941086292266846, -0.9765625, 0.5283203125, -0.287353515625, 0, 
227, 2087017050, 0.6674554, 0.15041193, -0.69164586, 0.23131369, 9.786813735961914, -0.9247393608093262, 0.20842599868774414, 0.249141126871109, 0.8180888891220093, 2.8001532554626465, -0.9765625, 0.529296875, -0.282958984375, 0, 
228, 2087033717, 0.6674641, 0.15013365, -0.6916411, 0.23148263, 9.814255714416504, -0.9476990699768066, 0.20615898072719574, -1.7896360158920288, 1.1218169927597046, 2.751002073287964, -0.974365234375, 0.52978515625, -0.28466796875, 0, 
229, 2087050384, 0.66756207, 0.14980681, -0.69157434, 0.2316114, 9.862320899963379, -1.0442748069763184, 0.13392449915409088, -2.48594331741333, 1.89058256149292, 2.5990045070648193, -0.9775390625, 0.529296875, -0.282958984375, 0, 
230, 2087067051, 0.66767037, 0.14945021, -0.6915083, 0.23172694, 9.874505043029785, -1.1461039781570435, -0.005256582051515579, -2.5346710681915283, 1.9420251846313477, 2.6648542881011963, -0.9765625, 0.531005859375, -0.284423828125, 0, 
231, 2087083718, 0.66768736, 0.14922982, -0.69145805, 0.2319697, 9.913385391235352, -1.1929339170455933, -0.01369662955403328, -1.276306390762329, 1.3534070253372192, 2.7610297203063965, -0.97607421875, 0.531494140625, -0.288330078125, 0, 
232, 2087100385, 0.6677043, 0.14920351, -0.69128054, 0.23246658, 9.871720314025879, -1.1677191257476807, -0.01241567824035883, 0.9620835185050964, 1.8956280946731567, 2.874276638031006, -0.97216796875, 0.5341796875, -0.287353515625, 0, 
233, 2087117052, 0.6676992, 0.14920817, -0.6911044, 0.23300117, 9.840989112854004, -1.1047499179840088, -0.05129587650299072, 1.5055078268051147, 1.7501862049102783, 2.9304962158203125, -0.97265625, 0.531982421875, -0.287841796875, 0, 
234, 2087133719, 0.6676505, 0.14913762, -0.6910473, 0.23335485, 9.802075386047363, -1.0676523447036743, -0.016691377386450768, -0.19212085008621216, 0.976247251033783, 2.6505494117736816, -0.973876953125, 0.532470703125, -0.287353515625, 0, 
235, 2087150386, 0.6676263, 0.14896104, -0.6910489, 0.23353179, 9.788948059082031, -1.039103388786316, 0.036851439625024796, -1.5170403718948364, 0.7984951734542847, 2.364250898361206, -0.973876953125, 0.53466796875, -0.287841796875, 0, 
236, 2087167053, 0.66757095, 0.14872603, -0.69113076, 0.23359752, 9.764422416687012, -1.038749098777771, 0.06590133905410767, -2.3513095378875732, 0.2536361515522003, 2.267050266265869, -0.97119140625, 0.53466796875, -0.2890625, 0, 
237, 2087183720, 0.66746145, 0.14856674, -0.6912411, 0.23368508, 9.77197551727295, -1.0718945264816284, 0.07544784992933273, -2.308126926422119, -0.18592260777950287, 2.1287550926208496, -0.974853515625, 0.53369140625, -0.286865234375, 0, 
238, 2087200387, 0.6673624, 0.14837848, -0.69137764, 0.23368438, 9.773906707763672, -1.0558509826660156, 0.11497525125741959, -2.492602586746216, -0.35623425245285034, 1.8721923828125, -0.970458984375, 0.537353515625, -0.286865234375, 0, 
239, 2087217054, 0.6672756, 0.14817683, -0.69154185, 0.23357409, 9.79930591583252, -1.0037049055099487, 0.09459284693002701, -2.879328489303589, -0.5527092814445496, 1.4435125589370728, -0.97265625, 0.53466796875, -0.287353515625, 0, 
240, 2087233721, 0.6671973, 0.14812207, -0.69164914, 0.23351468, 9.790966987609863, -1.02982497215271, 0.07506153732538223, -2.446627378463745, -0.36784958839416504, 0.9156860113143921, -0.9697265625, 0.536865234375, -0.28466796875, 0, 
241, 2087250388, 0.66710085, 0.14803761, -0.6918102, 0.23336703, 9.811378479003906, -1.1004245281219482, 0.011712916195392609, -2.547323703765869, -0.8142660856246948, 0.736089825630188, -0.973876953125, 0.536376953125, -0.287353515625, 0, 
242, 2087267055, 0.66700053, 0.1479243, -0.6920083, 0.23313795, 9.870505332946777, -1.1116288900375366, -0.03078020177781582, -3.510310411453247, -0.9904431700706482, 0.5497061610221863, -0.97265625, 0.536376953125, -0.28564453125, 0, 
243, 2087283722, 0.66696894, 0.14767633, -0.6922181, 0.23276274, 9.89120101928711, -1.0491100549697876, -0.07961861789226532, -5.016901016235352, -0.6354255080223083, 0.42166829109191895, -0.97265625, 0.53564453125, -0.28466796875, 0, 
244, 2087300389, 0.6669333, 0.1473911, -0.6924656, 0.23230863, 9.8560791015625, -1.038251519203186, -0.07483462244272232, -5.627277374267578, -0.8463205695152283, 0.28684306144714355, -0.975341796875, 0.53466796875, -0.283447265625, 0, 
245, 2087317056, 0.66684645, 0.1473008, -0.6926723, 0.23199882, 9.794445037841797, -1.1825041770935059, -0.0426575131714344, -3.9726126194000244, -1.0600136518478394, 0.06631127744913101, -0.969970703125, 0.53466796875, -0.285888671875, 0, 
246, 2087333723, 0.66674215, 0.14735985, -0.6928313, 0.23178616, 9.804610252380371, -1.2554333209991455, -0.08197445422410965, -2.7935004234313965, -1.055140733718872, -0.22015395760536194, -0.9736328125, 0.537353515625, -0.28125, 0, 
247, 2087350390, 0.6667276, 0.14735912, -0.6929302, 0.23153272, 9.800514221191406, -1.1413778066635132, -0.030178029090166092, -2.9002668857574463, -0.3435431718826294, -0.3381388783454895, -0.97314453125, 0.537841796875, -0.28173828125, 0, 
248, 2087367057, 0.66673726, 0.14740115, -0.69300056, 0.23126769, 9.789616584777832, -0.9466187953948975, 0.02919614687561989, -2.7236738204956055, -0.17938494682312012, -0.6621843576431274, -0.972900390625, 0.536865234375, -0.279541015625, 0, 
249, 2087383724, 0.6667345, 0.14745972, -0.69307715, 0.2310087, 9.775561332702637, -1.045779824256897, -0.044359996914863586, -2.4579737186431885, -0.3104771375656128, -0.6819764971733093, -0.97412109375, 0.53515625, -0.279541015625, 0, 
250, 2087400391, 0.66670847, 0.1475085, -0.69317347, 0.23076352, 9.757468223571777, -1.1388427019119263, -0.06997652351856232, -2.624648332595825, -0.4606572091579437, -0.511178195476532, -0.975341796875, 0.536376953125, -0.28076171875, 0, 
251, 2087417058, 0.6667014, 0.14754505, -0.6932315, 0.23058607, 9.75981616973877, -1.1453038454055786, -0.05598663166165352, -2.446537971496582, -0.08888887614011765, -0.2112535685300827, -0.97314453125, 0.53564453125, -0.28125, 0, 
252, 2087433725, 0.66667354, 0.14761284, -0.69329447, 0.2304337, 9.768904685974121, -1.1101065874099731, -0.08494187891483307, -2.2525346279144287, -0.22390621900558472, -0.20789827406406403, -0.974609375, 0.53466796875, -0.278076171875, 0, 
253, 2087450392, 0.66665906, 0.14756827, -0.6933936, 0.23020607, 9.770926475524902, -1.0812890529632568, -0.04382212832570076, -2.863781690597534, -0.2662440240383148, -0.006108629051595926, -0.972900390625, 0.53564453125, -0.277587890625, 0, 
254, 2087467059, 0.6666325, 0.14746396, -0.6935295, 0.22993998, 9.80728530883789, -1.109994888305664, -0.05935253947973251, -3.24839448928833, -0.4514237940311432, 0.15904845297336578, -0.976806640625, 0.53466796875, -0.279541015625, 0, 
255, 2087483726, 0.66655666, 0.1474323, -0.69366616, 0.22976805, 9.866392135620117, -1.1323816776275635, -0.05568835884332657, -2.9643754959106445, -0.6401894092559814, 0.3270805776119232, -0.974609375, 0.53857421875, -0.27734375, 0, 
256, 2087500393, 0.6665093, 0.14742804, -0.6937623, 0.2296176, 9.860852241516113, -1.1208503246307373, -0.03750672936439514, -1.9697444438934326, -0.4324575662612915, 0.20048977434635162, -0.975830078125, 0.535888671875, -0.27783203125, 0, 
257, 2087517060, 0.6664051, 0.14758773, -0.69382787, 0.2296196, 9.868026733398438, -1.1398546695709229, -0.07685128599405289, -0.9665079712867737, -0.595405638217926, 0.1803966462612152, -0.97216796875, 0.537841796875, -0.274169921875, 0, 
258, 2087533727, 0.6663084, 0.14769465, -0.69390476, 0.22959913, 9.83566951751709, -1.1118459701538086, -0.05883181095123291, -0.6387935280799866, -0.6391393542289734, 0.31770631670951843, -0.97509765625, 0.535888671875, -0.2763671875, 0, 
259, 2087550394, 0.6662, 0.14781973, -0.6939645, 0.22965258, 9.830574989318848, -1.12445867061615, -0.09009712189435959, -0.5438344478607178, -0.5239077210426331, 0.5772013664245605, -0.975341796875, 0.5341796875, -0.279052734375, 0, 
260, 2087567061, 0.66605777, 0.14798571, -0.6940345, 0.22974667, 9.78438663482666, -1.1378110647201538, -0.09824138134717941, -0.7583408355712891, -0.6767260432243347, 0.6377754211425781, -0.976806640625, 0.5341796875, -0.275146484375, 0, 
261, 2087583728, 0.6659202, 0.1480754, -0.69414574, 0.22975153, 9.779060363769531, -1.0772866010665894, -0.07717964798212051, -0.9589011669158936, -0.8925641179084778, 0.6189373135566711, -0.975830078125, 0.535888671875, -0.27734375, 0, 
262, 2087600395, 0.66578925, 0.14819789, -0.6942244, 0.2298145, 9.747477531433105, -1.1072896718978882, -0.04361554980278015, -0.935990571975708, -0.6499223113059998, 0.6898332834243774, -0.973876953125, 0.53564453125, -0.275146484375, 0, 
263, 2087617062, 0.6656528, 0.14823745, -0.69435436, 0.22979158, 9.765605926513672, -1.1137348413467407, -0.07651791721582413, -1.2683923244476318, -0.9341976642608643, 0.7464246153831482, -0.97509765625, 0.53369140625, -0.2763671875, 0, 
264, 2087633729, 0.6655403, 0.14839612, -0.69440144, 0.22987261, 9.790162086486816, -1.0982310771942139, -0.04067361727356911, -0.5347163081169128, -0.47097912430763245, 0.536246657371521, -0.974609375, 0.536376953125, -0.2763671875, 0, 
265, 2087650396, 0.6654521, 0.14857519, -0.694407, 0.229996, 9.806915283203125, -1.0526387691497803, -0.039520666003227234, -0.24037519097328186, -0.15203697979450226, 0.5498598217964172, -0.974609375, 0.53466796875, -0.27587890625, 0, 
266, 2087667063, 0.66536766, 0.14877245, -0.6943909, 0.23016086, 9.786314964294434, -1.066911220550537, -0.07287215441465378, 0.12596964836120605, -0.029134444892406464, 0.6270692944526672, -0.977294921875, 0.53466796875, -0.274658203125, 0, 
267, 2087683730, 0.6652371, 0.14894442, -0.69443107, 0.23030558, 9.78643798828125, -1.0961276292800903, -0.08620306849479675, 0.1513262242078781, -0.5226911902427673, 0.7834988236427307, -0.976806640625, 0.53369140625, -0.274658203125, 0, 
268, 2087700397, 0.6651134, 0.14915389, -0.6944606, 0.23043843, 9.811410903930664, -1.087578296661377, -0.06988624483346939, 0.1412092000246048, -0.49575942754745483, 0.5294080376625061, -0.973388671875, 0.532470703125, -0.274658203125, 0, 
269, 2087717064, 0.6650151, 0.1492616, -0.6945183, 0.23047875, 9.848538398742676, -1.0432658195495605, -0.08950959891080856, -0.9128877520561218, -0.4275912046432495, 0.5828232765197754, -0.973388671875, 0.533447265625, -0.275390625, 0, 
270, 2087733731, 0.66493213, 0.14935035, -0.6945758, 0.230487, 9.850872039794922, -1.07249116897583, -0.10699684917926788, -1.1105666160583496, -0.3642125725746155, 0.5033599734306335, -0.97509765625, 0.5341796875, -0.27685546875, 0, 
271, 2087750398, 0.66484463, 0.1494829, -0.6946226, 0.2305122, 9.8538236618042, -1.0911333560943604, -0.12645767629146576, -0.9765993356704712, -0.3671708106994629, 0.3711087703704834, -0.973388671875, 0.5341796875, -0.275390625, 0, 
272, 2087767065, 0.664771, 0.14967775, -0.69463485, 0.23056152, 9.814425468444824, -1.0969479084014893, -0.10580924153327942, -0.4992939829826355, -0.22098638117313385, 0.12485551089048386, -0.976318359375, 0.53515625, -0.276123046875, 0, 
273, 2087783732, 0.66469276, 0.14993116, -0.6946263, 0.2306485, 9.796594619750977, -1.0950812101364136, -0.10006943345069885, 0.09089305996894836, -0.21476247906684875, 0.003092733444646001, -0.974609375, 0.532958984375, -0.275146484375, 0, 
274, 2087800399, 0.66462183, 0.15013608, -0.6946406, 0.23067616, 9.797446250915527, -1.0642896890640259, -0.09113603085279465, -0.4019785225391388, -0.2750035226345062, -0.025779182091355324, -0.978515625, 0.53466796875, -0.2744140625, 0, 
275, 2087817066, 0.6645602, 0.15027939, -0.6946778, 0.23064841, 9.786975860595703, -1.0785521268844604, -0.0843670666217804, -0.8419406414031982, -0.3137427568435669, 0.02172597125172615, -0.97900390625, 0.5341796875, -0.27783203125, 0, 
276, 2087833733, 0.66452444, 0.15034881, -0.694733, 0.23053993, 9.809489250183105, -1.0452932119369507, -0.06786324828863144, -2.0656514167785645, -0.1836942732334137, -0.008759543299674988, -0.976318359375, 0.5341796875, -0.274658203125, 0, 
277, 2087850400, 0.6645895, 0.15026003, -0.69478285, 0.23025969, 9.810380935668945, -0.9702329635620117, -0.05442291870713234, -3.351543426513672, 0.3491138815879822, -0.2090316265821457, -0.97509765625, 0.53564453125, -0.274658203125, 0, 
278, 2087867067, 0.6646788, 0.15018155, -0.6948095, 0.22997281, 9.802987098693848, -1.0542978048324585, -0.08649745583534241, -3.210238218307495, 0.5314122438430786, -0.3483903408050537, -0.978515625, 0.536376953125, -0.276123046875, 0, 
279, 2087883734, 0.6647614, 0.15015548, -0.6948161, 0.22973087, 9.79384994506836, -1.1135127544403076, -0.11477410048246384, -3.0137057304382324, 0.5897772908210754, -0.3993147909641266, -0.97412109375, 0.532958984375, -0.27685546875, 0, 
280, 2087900401, 0.66475886, 0.15033825, -0.6947923, 0.22969088, 9.787345886230469, -1.1690797805786133, -0.13864058256149292, -1.1711279153823853, 0.22743439674377441, -0.3671068549156189, -0.977294921875, 0.5341796875, -0.27392578125, 0, 
281, 2087917068, 0.66469455, 0.15061848, -0.6947641, 0.22977886, 9.803653717041016, -1.1372768878936768, -0.13882121443748474, 0.5336726307868958, -0.13793718814849854, -0.1670844405889511, -0.976806640625, 0.532470703125, -0.27783203125, 0, 
282, 2087933735, 0.66466725, 0.15081015, -0.69473207, 0.2298289, 9.84984016418457, -1.0404152870178223, -0.16865035891532898, -0.7638987898826599, 0.23998457193374634, 0.027616893872618675, -0.9775390625, 0.531982421875, -0.27734375, 0, 
283, 2087950402, 0.6646456, 0.15092924, -0.6947282, 0.22982457, 9.841208457946777, -0.9857550859451294, -0.13682661950588226, -1.5013524293899536, 0.20950548350811005, 0.14758677780628204, -0.976318359375, 0.531494140625, -0.275146484375, 0, 
284, 2087967069, 0.66458476, 0.15101987, -0.6947875, 0.22976196, 9.804956436157227, -1.0370895862579346, -0.12752051651477814, -1.618709683418274, -0.32236143946647644, 0.1431685835123062, -0.976806640625, 0.53369140625, -0.27294921875, 0, 
285, 2087983736, 0.66446453, 0.15121405, -0.69486135, 0.22975865, 9.825545310974121, -1.160536527633667, -0.15804331004619598, -0.2204100787639618, -0.8475114107131958, 0.018588414415717125, -0.97900390625, 0.531005859375, -0.2734375, 0, 
286, 2088000403, 0.6642997, 0.15157486, -0.6948749, 0.22995652, 9.818581581115723, -1.1971468925476074, -0.20562154054641724, 1.1663063764572144, -0.7799707651138306, 0.153362438082695, -0.977294921875, 0.531494140625, -0.2734375, 0, 
287, 2088017070, 0.66408914, 0.15204121, -0.694868, 0.23027745, 9.78456974029541, -1.1003496646881104, -0.16560322046279907, 2.4262588024139404, -0.9530357122421265, 0.25569796562194824, -0.97900390625, 0.531494140625, -0.27392578125, 0, 
288, 2088033737, 0.66377884, 0.15264381, -0.6948861, 0.23071826, 9.73418140411377, -1.055902361869812, -0.16722100973129272, 3.71000599861145, -1.6342953443527222, 0.333727091550827, -0.9794921875, 0.530517578125, -0.2744140625, 0, 
289, 2088050404, 0.66347027, 0.15317427, -0.69494057, 0.23109019, 9.74986457824707, -1.0159988403320312, -0.1302749216556549, 2.8468451499938965, -1.7311491966247559, 0.4023306369781494, -0.981201171875, 0.531494140625, -0.276611328125, 0, 
290, 2088067071, 0.663253, 0.15360683, -0.69498056, 0.23130652, 9.78382682800293, -0.9310674071311951, -0.08555231988430023, 1.502037525177002, -1.226925015449524, 0.0040275962091982365, -0.978515625, 0.52978515625, -0.2734375, 0, 
291, 2088083738, 0.6631506, 0.15393193, -0.6949895, 0.23135707, 9.787954330444336, -0.9517644643783569, -0.08186531811952591, 0.4524931013584137, -0.579858660697937, -0.4570586085319519, -0.97900390625, 0.530517578125, -0.270751953125, 0, 
292, 2088100405, 0.6630847, 0.15417905, -0.6950024, 0.2313424, 9.794455528259277, -1.0418744087219238, -0.07968147099018097, 0.2844994366168976, -0.43353334069252014, -0.44178062677383423, -0.9775390625, 0.531494140625, -0.27734375, 0, 
293, 2088117072, 0.66300845, 0.15452592, -0.69496274, 0.23144862, 9.799548149108887, -1.0577633380889893, -0.09954339265823364, 0.6225743293762207, -0.18255451321601868, -0.3918743133544922, -0.980224609375, 0.529296875, -0.276123046875, 0, 
294, 2088133739, 0.66290915, 0.15489149, -0.6949342, 0.23157443, 9.80411434173584, -1.0823510885238647, -0.20233038067817688, 0.7228991985321045, -0.3441322147846222, -0.3425058424472809, -0.977294921875, 0.531494140625, -0.271240234375, 0, 
295, 2088150406, 0.66283035, 0.15511808, -0.6949514, 0.23159671, 9.845523834228516, -1.033727765083313, -0.19587960839271545, 0.5927483439445496, -0.4699162244796753, -0.1568777710199356, -0.97900390625, 0.529296875, -0.276123046875, 0, 
296, 2088167073, 0.66272384, 0.15540886, -0.6949512, 0.23170738, 9.850820541381836, -1.0397282838821411, -0.1838492751121521, 0.2771037817001343, -0.4007363021373749, -0.014624850824475288, -0.98193359375, 0.529541015625, -0.276123046875, 0, 
297, 2088183740, 0.6626217, 0.15559472, -0.69500196, 0.23172228, 9.852081298828125, -1.0769798755645752, -0.1635798215866089, -0.640317440032959, -0.5582159757614136, 0.09663031250238419, -0.981201171875, 0.530517578125, -0.27490234375, 0, 
298, 2088200407, 0.6625054, 0.15573262, -0.6951006, 0.23166637, 9.857561111450195, -1.0658726692199707, -0.17077122628688812, -0.9263474345207214, -0.8825112581253052, 0.06983943283557892, -0.9833984375, 0.529541015625, -0.27490234375, 0, 
299, 2088217074, 0.6624112, 0.15590142, -0.6951457, 0.23168683, 9.858044624328613, -1.0929890871047974, -0.15778227150440216, -0.4653443694114685, -0.4871535897254944, 0.17842449247837067, -0.980712890625, 0.530029296875, -0.27392578125, 0, 
300, 2088233741, 0.66232586, 0.15613829, -0.6951365, 0.2317987, 9.819904327392578, -1.1006382703781128, -0.14382460713386536, 0.49215441942214966, -0.2218315750360489, 0.19124360382556915, -0.980224609375, 0.52880859375, -0.2734375, 0, 
301, 2088250408, 0.6622228, 0.15644836, -0.6951083, 0.23196863, 9.806341171264648, -1.0520581007003784, -0.11201071739196777, 1.1083317995071411, -0.2712128758430481, 0.11284314095973969, -0.980224609375, 0.52734375, -0.276123046875, 0, 
302, 2088267075, 0.66213536, 0.15669489, -0.6950901, 0.23210634, 9.821638107299805, -1.0113193988800049, -0.13428634405136108, 0.15319596230983734, -0.12099438905715942, 0.2649441659450531, -0.980224609375, 0.526611328125, -0.275146484375, 0, 
303, 2088283742, 0.6621098, 0.15679485, -0.6950933, 0.23210202, 9.840859413146973, -0.9841874241828918, -0.05598960444331169, -1.0902684926986694, 0.13338452577590942, 0.23988214135169983, -0.9814453125, 0.52783203125, -0.275634765625, 0, 
304, 2088300409, 0.6621374, 0.15680826, -0.69509214, 0.2320177, 9.844061851501465, -0.9983425736427307, -0.10265708714723587, -1.897708773612976, 0.45490068197250366, 0.20045135915279388, -0.978515625, 0.527099609375, -0.274658203125, 0, 
305, 2088317076, 0.66216743, 0.15680638, -0.69509953, 0.23191105, 9.833512306213379, -1.045127272605896, -0.1310514211654663, -1.898016095161438, 0.4029325842857361, 0.17499235272407532, -0.979736328125, 0.52783203125, -0.276123046875, 0, 
306, 2088333743, 0.66214126, 0.15692988, -0.69507974, 0.23196194, 9.82419204711914, -1.1193314790725708, -0.15658780932426453, -0.6075460314750671, 0.2439289540052414, 0.3564455509185791, -0.97802734375, 0.52783203125, -0.27685546875, 0, 
307, 2088350410, 0.6620624, 0.15714419, -0.69505376, 0.23211968, 9.83078670501709, -1.0801148414611816, -0.18726471066474915, 0.14770200848579407, 0.016283273696899414, 0.48603296279907227, -0.982421875, 0.52783203125, -0.276123046875, 0, 
308, 2088367077, 0.66199446, 0.15731609, -0.6950373, 0.23224615, 9.836365699768066, -1.0234426259994507, -0.1749015748500824, -0.15311270952224731, 0.05264049768447876, 0.5360417366027832, -0.980712890625, 0.5283203125, -0.276123046875, 0, 
309, 2088383744, 0.66195786, 0.15740286, -0.69503385, 0.23230195, 9.824518203735352, -1.0255324840545654, -0.15102773904800415, -0.7845425605773926, 0.18708154559135437, 0.5823110938072205, -0.982421875, 0.52880859375, -0.2744140625, 0, 
310, 2088400411, 0.66192293, 0.15740871, -0.6950691, 0.23229222, 9.812910079956055, -1.0586016178131104, -0.18308499455451965, -1.0163376331329346, 0.01706446334719658, 0.7001424431800842, -0.97802734375, 0.52880859375, -0.2763671875, 0, 
311, 2088417078, 0.6618396, 0.15748039, -0.69511735, 0.23233654, 9.819226264953613, -1.0636284351348877, -0.1445574015378952, -0.9878946542739868, -0.254270076751709, 0.7315946817398071, -0.979248046875, 0.526611328125, -0.275634765625, 0, 
312, 2088433745, 0.6617823, 0.15751608, -0.69515455, 0.23236433, 9.81594467163086, -1.0195891857147217, -0.10510437190532684, -1.3125356435775757, -0.03302757814526558, 0.7759944200515747, -0.97900390625, 0.5283203125, -0.27294921875, 0, 
313, 2088450412, 0.66178876, 0.15745428, -0.69519424, 0.23226908, 9.834312438964844, -1.0198124647140503, -0.12137264758348465, -1.9022676944732666, 0.2233106940984726, 0.5716304779052734, -0.980224609375, 0.5283203125, -0.275146484375, 0, 
314, 2088467079, 0.66182595, 0.15738389, -0.69521147, 0.23215902, 9.823487281799316, -1.0329344272613525, -0.09216944128274918, -2.1693830490112305, 0.4852902293205261, 0.47777292132377625, -0.98193359375, 0.52734375, -0.2744140625, 0, 
315, 2088483746, 0.66189355, 0.1573526, -0.6951891, 0.23205437, 9.824315071105957, -1.0007442235946655, -0.10792470723390579, -2.0910849571228027, 0.7712048292160034, 0.22584639489650726, -0.981201171875, 0.52734375, -0.2744140625, 0, 
316, 2088500413, 0.661967, 0.15731747, -0.6951616, 0.23195131, 9.81501293182373, -1.0044649839401245, -0.10754972696304321, -2.1026360988616943, 0.8288718461990356, 0.23755139112472534, -0.98193359375, 0.5283203125, -0.275634765625, 0, 
317, 2088517080, 0.6620391, 0.15727933, -0.69513726, 0.2318442, 9.793465614318848, -1.06119966506958, -0.15848182141780853, -2.2127325534820557, 0.8137474656105042, 0.24058650434017181, -0.980712890625, 0.52734375, -0.271728515625, 0, 
318, 2088533747, 0.6621012, 0.15718216, -0.6951388, 0.23172823, 9.801250457763672, -1.0692445039749146, -0.1848088502883911, -2.073629856109619, 0.6797418594360352, 0.5143479108810425, -0.982421875, 0.52783203125, -0.27392578125, 0, 
319, 2088550414, 0.66206235, 0.15726958, -0.69513, 0.23180634, 9.801039695739746, -1.0896525382995605, -0.19742451608181, -0.3924633860588074, 0.18399524688720703, 0.6699705123901367, -0.979736328125, 0.525146484375, -0.27294921875, 0, 
320, 2088567081, 0.66196203, 0.1574448, -0.69512993, 0.23197398, 9.818220138549805, -1.0751959085464478, -0.156999409198761, 0.33293306827545166, -0.17351321876049042, 0.7653522491455078, -0.980712890625, 0.52783203125, -0.2744140625, 0, 
321, 2088583748, 0.66192174, 0.15744042, -0.69517064, 0.23196988, 9.87200927734375, -1.002280354499817, -0.22207176685333252, -1.4450045824050903, 0.029051203280687332, 0.7882755994796753, -0.984619140625, 0.52783203125, -0.273193359375, 0, 
322, 2088600415, 0.66190374, 0.15727225, -0.69526756, 0.23184468, 9.879579544067383, -0.9359806776046753, -0.17507530748844147, -2.6925861835479736, -0.009348634630441666, 1.042917013168335, -0.97998046875, 0.52783203125, -0.271240234375, 0, 
323, 2088617082, 0.66192114, 0.15708457, -0.6953502, 0.2316742, 9.865286827087402, -1.0137906074523926, -0.11831510812044144, -2.7141778469085693, 0.17342999577522278, 0.8546893000602722, -0.980224609375, 0.525146484375, -0.274658203125, 0, 
324, 2088633749, 0.66186607, 0.15713723, -0.6953771, 0.23171498, 9.840476036071777, -1.1528958082199097, -0.14718948304653168, -1.1630213260650635, 0.00482159061357379, 0.7405464053153992, -0.981201171875, 0.525634765625, -0.27294921875, 0, 
325, 2088650416, 0.66186625, 0.15728553, -0.6952981, 0.23185098, 9.837176322937012, -1.1843115091323853, -0.20746123790740967, 0.026912545785307884, 0.6795625686645508, 0.5048071146011353, -0.981689453125, 0.526611328125, -0.271728515625, 0, 
326, 2088667083, 0.66184336, 0.15744634, -0.6952268, 0.23202135, 9.764875411987305, -1.065381407737732, -0.22837252914905548, 0.5536633729934692, 0.5213144421577454, 0.6338567137718201, -0.978515625, 0.527099609375, -0.2734375, 0, 
327, 2088683750, 0.6617331, 0.15769222, -0.69520307, 0.23224019, 9.749672889709473, -0.9690161943435669, -0.22784315049648285, 1.0868300199508667, -0.1831820160150528, 0.6407464742660522, -0.980712890625, 0.5283203125, -0.26953125, 0, 
328, 2088700417, 0.66161346, 0.15778185, -0.6952733, 0.23230949, 9.73676586151123, -1.0196079015731812, -0.18704964220523834, 0.05516335740685463, -0.6250523924827576, 0.812300443649292, -0.980224609375, 0.52783203125, -0.272216796875, 0, 
329, 2088717084, 0.66145766, 0.1577915, -0.6954198, 0.23230796, 9.772794723510742, -1.028968334197998, -0.13069812953472137, -1.1020504236221313, -1.0527459383010864, 1.0221707820892334, -0.980224609375, 0.526123046875, -0.27294921875, 0, 
330, 2088733751, 0.6613931, 0.15776764, -0.69551075, 0.23223582, 9.79358959197998, -0.9633334279060364, -0.1335301548242569, -1.8274273872375488, -0.3625093102455139, 0.6603401303291321, -0.981689453125, 0.52783203125, -0.272216796875, 0, 
331, 2088750418, 0.6613695, 0.1576519, -0.6956041, 0.23210195, 9.774084091186523, -0.986944317817688, -0.18164277076721191, -2.4093997478485107, -0.11971376836299896, 0.7545693516731262, -0.98193359375, 0.52734375, -0.27392578125, 0, 
332, 2088767085, 0.6613291, 0.15763552, -0.69565886, 0.23206411, 9.806325912475586, -1.019004464149475, -0.1550574153661728, -1.8930470943450928, -0.024741865694522858, 0.7117191553115845, -0.980224609375, 0.52734375, -0.27392578125, 0, 
333, 2088783752, 0.6613529, 0.15772325, -0.695597, 0.23212217, 9.817911148071289, -1.0686331987380981, -0.20602470636367798, -0.801325261592865, 0.743587851524353, 0.4203299880027771, -0.981201171875, 0.526611328125, -0.271728515625, 0, 
334, 2088800419, 0.6614062, 0.15789749, -0.6954601, 0.2322619, 9.811200141906738, -1.060144066810608, -0.24901831150054932, 0.4523394703865051, 1.1350843906402588, 0.24111154675483704, -0.980712890625, 0.530029296875, -0.27294921875, 0, 
335, 2088817086, 0.661515, 0.15811072, -0.69524366, 0.23245487, 9.794736862182617, -1.0720596313476562, -0.25476503372192383, 1.279463291168213, 1.7229728698730469, 0.11350907385349274, -0.98193359375, 0.52880859375, -0.2744140625, 0, 
336, 2088833753, 0.6616455, 0.15844686, -0.69496685, 0.23268262, 9.78980541229248, -1.1234558820724487, -0.26964011788368225, 1.726186990737915, 1.985528588294983, -0.4112758934497833, -0.978515625, 0.52880859375, -0.275634765625, 0, 
337, 2088850420, 0.66183925, 0.15878052, -0.6946487, 0.23285401, 9.7578763961792, -1.1083223819732666, -0.2778562903404236, 1.6271429061889648, 2.4000699520111084, -0.8069281578063965, -0.979736328125, 0.525146484375, -0.27685546875, 0, 
338, 2088867087, 0.662037, 0.1591659, -0.69430333, 0.23305824, 9.766592025756836, -1.0581876039505005, -0.27233079075813293, 1.6391870975494385, 2.54667067527771, -0.9347417950630188, -0.98291015625, 0.525634765625, -0.275634765625, 0, 
339, 2088883754, 0.6622208, 0.15950742, -0.6939977, 0.2332132, 9.793562889099121, -1.1104152202606201, -0.2108052372932434, 1.5454829931259155, 2.2753937244415283, -0.893639862537384, -0.979736328125, 0.52392578125, -0.279052734375, 0, 
340, 2088900421, 0.6623314, 0.15994078, -0.69371176, 0.23345265, 9.850525856018066, -1.0946177244186401, -0.16071394085884094, 1.995696783065796, 1.8307639360427856, -0.8025227189064026, -0.97802734375, 0.52490234375, -0.2763671875, 0, 
341, 2088917088, 0.6623604, 0.16038696, -0.69349915, 0.23369601, 9.898418426513672, -1.0520721673965454, -0.06873342394828796, 2.7120964527130127, 1.0180343389511108, -0.6497302055358887, -0.984375, 0.524169921875, -0.27880859375, 0, 
342, 2088933755, 0.6622647, 0.16080168, -0.6933982, 0.23398173, 9.936823844909668, -1.0027343034744263, -0.07823511958122253, 2.5244007110595703, 0.032861094921827316, 0.02136099338531494, -0.983154296875, 0.523681640625, -0.281005859375, 0, 
343, 2088950422, 0.6620803, 0.16112146, -0.69342977, 0.23418982, 9.963336944580078, -0.9688681364059448, -0.05171060189604759, 1.1881667375564575, -0.8824471235275269, 0.4155724346637726, -0.982666015625, 0.5234375, -0.27880859375, 0, 
344, 2088967089, 0.6618529, 0.16122831, -0.6936066, 0.23423544, 9.934016227722168, -0.943515419960022, -0.06555989384651184, -0.24064411222934723, -1.6424269676208496, 0.9155707359313965, -0.98193359375, 0.524658203125, -0.27880859375, 0, 
345, 2088983756, 0.6616073, 0.16128933, -0.6938047, 0.23430005, 9.8999605178833, -0.9743063449859619, -0.08157305419445038, -0.4297299087047577, -1.7277944087982178, 1.2754547595977783, -0.982666015625, 0.524169921875, -0.27880859375, 0, 
346, 2089000423, 0.66135645, 0.16127162, -0.6940333, 0.23434354, 9.862990379333496, -0.9901708364486694, -0.05958244577050209, -0.9737308025360107, -1.7864985466003418, 1.5995066165924072, -0.9814453125, 0.524169921875, -0.280029296875, 0, 
347, 2089017090, 0.66117746, 0.16124502, -0.69418913, 0.23440568, 9.803094863891602, -0.9345306158065796, -0.060424186289310455, -1.1946018934249878, -1.0458049774169922, 1.536717176437378, -0.98046875, 0.5234375, -0.27783203125, 0, 
348, 2089033757, 0.66102797, 0.16123106, -0.6942993, 0.2345107, 9.72685718536377, -1.0057129859924316, -0.12497087568044662, -0.7110339999198914, -0.6914659142494202, 1.5709354877471924, -0.982421875, 0.524658203125, -0.276611328125, 0, 
349, 2089050424, 0.66083324, 0.16130552, -0.69439614, 0.234721, 9.715999603271484, -1.0566831827163696, -0.13533782958984375, 0.3755013644695282, -0.8867756128311157, 1.6826069355010986, -0.98046875, 0.524658203125, -0.279052734375, 0, 
350, 2089067091, 0.66057324, 0.1614815, -0.6944831, 0.23507452, 9.743181228637695, -1.1108291149139404, -0.14048098027706146, 1.3465173244476318, -1.1305829286575317, 1.9477241039276123, -0.97998046875, 0.5224609375, -0.28076171875, 0, 
351, 2089083758, 0.66027683, 0.16173969, -0.6945474, 0.23553976, 9.817495346069336, -1.0514979362487793, -0.12392959743738174, 1.8026536703109741, -1.152699589729309, 2.1036159992218018, -0.98193359375, 0.5234375, -0.276123046875, 0, 
352, 2089100425, 0.66009384, 0.16174583, -0.6946321, 0.23579796, 9.854297637939453, -1.0223402976989746, -0.0931805819272995, 0.22260639071464539, -0.606214165687561, 2.1897642612457275, -0.9814453125, 0.525634765625, -0.27783203125, 0, 
353, 2089117092, 0.65999544, 0.16152744, -0.69476956, 0.23581824, 9.853815078735352, -1.0414128303527832, -0.1365341991186142, -2.0566232204437256, -0.34981825947761536, 2.105536937713623, -0.98193359375, 0.52685546875, -0.27783203125, 0, 
354, 2089133759, 0.6599315, 0.16137883, -0.6948518, 0.23585667, 9.815162658691406, -1.0906445980072021, -0.11441444605588913, -1.7876768112182617, -0.00746610201895237, 1.7392113208770752, -0.983642578125, 0.524169921875, -0.2783203125, 0, 
355, 2089150426, 0.65980726, 0.16144182, -0.69490933, 0.23599182, 9.802599906921387, -1.1048781871795654, -0.13586652278900146, -0.5799996256828308, -0.3858553171157837, 1.2436310052871704, -0.98095703125, 0.526123046875, -0.27734375, 0, 
356, 2089167093, 0.65970784, 0.16161233, -0.69488364, 0.23622844, 9.781472206115723, -1.1587047576904297, -0.16008765995502472, 0.9617376923561096, -0.004174870438873768, 1.0465797185897827, -0.98095703125, 0.526123046875, -0.2783203125, 0, 
357, 2089183760, 0.65959466, 0.16182448, -0.6948451, 0.23651278, 9.794646263122559, -1.1466408967971802, -0.08637338876724243, 1.1390416622161865, 0.005858904682099819, 1.0736266374588013, -0.978515625, 0.525634765625, -0.27685546875, 0, 
358, 2089200427, 0.6593937, 0.16201472, -0.6949075, 0.23675898, 9.8200044631958, -1.0646865367889404, -0.0662904679775238, 1.1945699453353882, -0.9266290664672852, 1.2505080699920654, -0.9814453125, 0.526611328125, -0.275146484375, 0, 
359, 2089217094, 0.6591052, 0.16219416, -0.69506055, 0.23699039, 9.869779586791992, -0.9929664134979248, 0.0336761437356472, 1.2601767778396606, -1.78456449508667, 1.4729797840118408, -0.979248046875, 0.5244140625, -0.2763671875, 0, 
360, 2089233761, 0.6588066, 0.16221327, -0.6953292, 0.23701972, 9.87804126739502, -0.9570740461349487, 0.016647934913635254, -1.0872975587844849, -2.272576332092285, 1.4798698425292969, -0.983154296875, 0.52685546875, -0.277099609375, 0, 
361, 2089250428, 0.65862477, 0.16174544, -0.6957664, 0.23656133, 9.938101768493652, -0.8840399980545044, -0.015367859974503517, -6.071042537689209, -2.228497266769409, 1.5993019342422485, -0.983154296875, 0.52685546875, -0.2783203125, 0, 
362, 2089267095, 0.65852755, 0.16105056, -0.69623464, 0.2359273, 9.927682876586914, -0.9106170535087585, -0.07558728754520416, -8.463448524475098, -1.7518062591552734, 1.801437497138977, -0.9833984375, 0.5283203125, -0.27392578125, 0, 
363, 2089283762, 0.6583689, 0.1605559, -0.6966716, 0.23541667, 9.875244140625, -1.0932865142822266, -0.10537587106227875, -6.483395099639893, -2.1374826431274414, 1.460660457611084, -0.9794921875, 0.530029296875, -0.27392578125, 0, 
364, 2089300429, 0.65810454, 0.16036363, -0.6970385, 0.23520084, 9.832468032836914, -1.2746596336364746, -0.16041675209999084, -3.50799298286438, -2.4893624782562256, 1.4419119358062744, -0.98388671875, 0.5283203125, -0.27099609375, 0, 
365, 2089317096, 0.65787095, 0.1603523, -0.69725394, 0.23522359, 9.749411582946777, -1.2034565210342407, -0.24536222219467163, -1.3876063823699951, -1.6818578243255615, 1.4317818880081177, -0.9794921875, 0.52783203125, -0.270263671875, 0, 
366, 2089333763, 0.65759635, 0.16043663, -0.6974321, 0.23540531, 9.6781644821167, -1.0616616010665894, -0.2515316307544708, -0.10044020414352417, -1.6874415874481201, 1.7148663997650146, -0.982177734375, 0.530517578125, -0.271728515625, 0, 
367, 2089350430, 0.6573004, 0.16045868, -0.697669, 0.23551463, 9.684528350830078, -1.0110104084014893, -0.23900195956230164, -0.7157213091850281, -2.042574167251587, 1.783636212348938, -0.98291015625, 0.52783203125, -0.27099609375, 0, 
368, 2089367097, 0.65701133, 0.16050573, -0.6979016, 0.23560002, 9.71201229095459, -1.0663552284240723, -0.2006971836090088, -1.1787092685699463, -2.0027594566345215, 1.553147554397583, -0.98046875, 0.5283203125, -0.2685546875, 0, 
369, 2089383764, 0.65683633, 0.1603603, -0.6981362, 0.23549183, 9.758822441101074, -1.0163426399230957, -0.13832907378673553, -2.7240512371063232, -1.4118232727050781, 1.40775728225708, -0.97998046875, 0.52880859375, -0.27001953125, 0, 
370, 2089400431, 0.65672123, 0.16018973, -0.69832635, 0.23536538, 9.77806282043457, -1.0042394399642944, -0.14722630381584167, -3.2170960903167725, -0.8712928891181946, 1.3108389377593994, -0.982177734375, 0.530517578125, -0.265625, 0, 
371, 2089417098, 0.6566964, 0.1599248, -0.69847447, 0.23517579, 9.8236083984375, -1.0552138090133667, -0.1401597112417221, -3.421203851699829, -0.2328706830739975, 1.2713311910629272, -0.98046875, 0.5283203125, -0.267333984375, 0, 
372, 2089433765, 0.6567202, 0.15969808, -0.69856495, 0.23499402, 9.833114624023438, -1.0970158576965332, -0.1970910131931305, -3.578427314758301, 0.2543405592441559, 0.9940481185913086, -0.981689453125, 0.530517578125, -0.266845703125, 0, 
373, 2089450432, 0.6567671, 0.15951622, -0.69861937, 0.23482491, 9.82121753692627, -1.0660444498062134, -0.2595660388469696, -2.981619119644165, 0.4301525056362152, 0.7508746981620789, -0.982177734375, 0.530517578125, -0.2666015625, 0, 
374, 2089467099, 0.6568239, 0.15934393, -0.6986729, 0.23462339, 9.817041397094727, -1.0505969524383545, -0.2813810706138611, -3.1340208053588867, 0.4362803101539612, 0.5429059863090515, -0.983154296875, 0.531494140625, -0.264404296875, 0, 
375, 2089483766, 0.65695035, 0.1591187, -0.69868946, 0.23437326, 9.805987358093262, -1.065045714378357, -0.2810829281806946, -3.536525011062622, 0.960188090801239, 0.419606477022171, -0.9814453125, 0.530517578125, -0.265625, 0, 
376, 2089500433, 0.65710884, 0.15885985, -0.6986997, 0.23407371, 9.792868614196777, -1.1009896993637085, -0.26874101161956787, -4.1914286613464355, 1.1716338396072388, 0.30721792578697205, -0.978271484375, 0.529296875, -0.26513671875, 0, 
377, 2089517100, 0.6572823, 0.15864766, -0.69869983, 0.23372933, 9.811147689819336, -1.0798976421356201, -0.25544625520706177, -4.060944557189941, 1.1490817070007324, -0.15681374073028564, -0.982177734375, 0.531494140625, -0.265625, 0, 
378, 2089533767, 0.6574577, 0.15848337, -0.69867504, 0.23342174, 9.80659294128418, -1.0720337629318237, -0.2277388721704483, -3.6759347915649414, 1.2388159036636353, -0.2510300874710083, -0.97998046875, 0.527587890625, -0.2646484375, 0, 
379, 2089550434, 0.6576344, 0.1583431, -0.69863856, 0.2331279, 9.80369758605957, -1.0271281003952026, -0.23219476640224457, -3.647658348083496, 1.2933324575424194, -0.31443431973457336, -0.9814453125, 0.531005859375, -0.2646484375, 0, 
380, 2089567101, 0.6578243, 0.15825705, -0.6985751, 0.23284113, 9.763351440429688, -1.068374752998352, -0.2602972090244293, -3.0717697143554688, 1.3696072101593018, -0.6007458567619324, -0.9814453125, 0.530517578125, -0.265625, 0, 
381, 2089583768, 0.65803695, 0.15813035, -0.6985166, 0.23250112, 9.777629852294922, -1.0539257526397705, -0.23103001713752747, -3.726149082183838, 1.4845441579818726, -0.6721797585487366, -0.9814453125, 0.531982421875, -0.26513671875, 0, 
382, 2089600435, 0.65826553, 0.15795705, -0.6984786, 0.2320858, 9.769163131713867, -1.0295664072036743, -0.24095658957958221, -4.136214256286621, 1.435489296913147, -0.7991355061531067, -0.98046875, 0.52978515625, -0.2646484375, 0, 
383, 2089617102, 0.6584365, 0.15781504, -0.6984745, 0.23170923, 9.803412437438965, -1.0735276937484741, -0.25830331444740295, -3.8947958946228027, 1.006982684135437, -0.6404584050178528, -0.98046875, 0.531494140625, -0.263916015625, 0, 
384, 2089633769, 0.6585697, 0.15774852, -0.6984672, 0.2313981, 9.819198608398438, -1.0837583541870117, -0.26870158314704895, -3.003741979598999, 0.7709230184555054, -0.6579774022102356, -0.98095703125, 0.531494140625, -0.262939453125, 0, 
385, 2089650436, 0.6587076, 0.15773249, -0.6984239, 0.23114704, 9.828195571899414, -1.0897475481033325, -0.28320804238319397, -2.3414745330810547, 0.931597888469696, -0.6783778667449951, -0.98095703125, 0.52978515625, -0.26513671875, 0, 
386, 2089667103, 0.65882266, 0.15777898, -0.69836736, 0.23095793, 9.834685325622559, -1.0415334701538086, -0.28773900866508484, -2.120283365249634, 0.8962972164154053, -0.6647520065307617, -0.983154296875, 0.530517578125, -0.26171875, 0, 
387, 2089683770, 0.65892744, 0.15779895, -0.6983406, 0.23072629, 9.833162307739258, -1.0386193990707397, -0.25606727600097656, -1.964814305305481, 0.6509019732475281, -0.6968575716018677, -0.98193359375, 0.53369140625, -0.262939453125, 0, 
388, 2089700437, 0.65902275, 0.15776931, -0.69834435, 0.23046298, 9.826706886291504, -1.0617016553878784, -0.2628977298736572, -2.3008530139923096, 0.5036673545837402, -0.556858479976654, -0.98486328125, 0.530029296875, -0.264404296875, 0, 
389, 2089717104, 0.65904784, 0.15786938, -0.6983413, 0.230332, 9.808879852294922, -1.0989829301834106, -0.31003040075302124, -1.3770027160644531, 0.17809149622917175, -0.46344903111457825, -0.982421875, 0.52783203125, -0.26025390625, 0, 
390, 2089733771, 0.65902215, 0.15805513, -0.6983318, 0.23030661, 9.817865371704102, -1.0993046760559082, -0.2916540205478668, -0.07957865297794342, -0.09218010306358337, -0.33471956849098206, -0.98388671875, 0.52783203125, -0.264404296875, 0, 
391, 2089750438, 0.6590151, 0.15828773, -0.69826466, 0.23037046, 9.807190895080566, -1.058074712753296, -0.26791873574256897, 0.04869614169001579, 0.34831348061561584, -0.23167964816093445, -0.982666015625, 0.52783203125, -0.266845703125, 0, 
392, 2089767105, 0.6589896, 0.1584889, -0.69824064, 0.23037821, 9.825085639953613, -1.057184100151062, -0.2720850110054016, -0.4566231667995453, 0.058185648173093796, -0.2577149569988251, -0.982666015625, 0.52880859375, -0.267333984375, 0, 
393, 2089783772, 0.65893763, 0.15867399, -0.69825655, 0.23035127, 9.817275047302246, -1.0355910062789917, -0.2708941400051117, -0.7047462463378906, -0.2642718255519867, -0.2537449896335602, -0.983154296875, 0.52880859375, -0.263427734375, 0, 
394, 2089800439, 0.65890867, 0.15885833, -0.69823253, 0.23037997, 9.81541633605957, -1.0517303943634033, -0.25881728529930115, 0.1122540682554245, 0.03250892087817192, -0.09328146278858185, -0.9833984375, 0.526611328125, -0.26611328125, 0, 
395, 2089817106, 0.6588244, 0.15913212, -0.69820756, 0.23050758, 9.822260856628418, -1.0656025409698486, -0.23496754467487335, 0.48266488313674927, -0.19871613383293152, 0.026874123141169548, -0.982177734375, 0.526123046875, -0.2646484375, 0, 
396, 2089833773, 0.6587458, 0.15935963, -0.6981943, 0.2306152, 9.812755584716797, -1.0710276365280151, -0.2513751983642578, 0.41708359122276306, -0.2033776193857193, 0.15454062819480896, -0.982177734375, 0.527099609375, -0.263916015625, 0, 
397, 2089850440, 0.65862954, 0.15965165, -0.6981823, 0.23078091, 9.798362731933594, -1.0796551704406738, -0.29729771614074707, 1.2735979557037354, -0.4545869827270508, 0.1612127423286438, -0.9833984375, 0.52734375, -0.26611328125, 0, 
398, 2089867107, 0.65845406, 0.16000527, -0.6981793, 0.23104644, 9.806571960449219, -1.0670667886734009, -0.3157270848751068, 1.7688065767288208, -0.7319340705871582, 0.42837876081466675, -0.98486328125, 0.5234375, -0.26220703125, 0, 
399, 2089883774, 0.6582844, 0.16031146, -0.6981909, 0.23128243, 9.810154914855957, -1.0114848613739014, -0.25741875171661377, 1.528367519378662, -0.7417950630187988, 0.5231202244758606, -0.986572265625, 0.52685546875, -0.26708984375, 0, 
400, 2089900441, 0.65808773, 0.16066083, -0.69820434, 0.23155867, 9.833345413208008, -1.0186407566070557, -0.18177655339241028, 1.6868586540222168, -0.8749682307243347, 0.5511276721954346, -0.981689453125, 0.527099609375, -0.26611328125, 0, 
401, 2089917108, 0.65793306, 0.16092539, -0.69823706, 0.23171563, 9.86829662322998, -1.0162131786346436, -0.21313884854316711, 0.8096110224723816, -0.7753989100456238, 0.3680608868598938, -0.984375, 0.526123046875, -0.268310546875, 0, 
402, 2089933775, 0.6578454, 0.16106525, -0.69825745, 0.23180607, 9.881665229797363, -1.011104702949524, -0.2936137616634369, -0.4673420786857605, -0.2379804104566574, 0.5558532476425171, -0.98388671875, 0.526611328125, -0.264404296875, 0, 
403, 2089950442, 0.65780306, 0.16114056, -0.69825613, 0.2318778, 9.859109878540039, -1.0031154155731201, -0.2940286099910736, -0.27546456456184387, 0.09657908976078033, 0.667178750038147, -0.98486328125, 0.524169921875, -0.265625, 0, 
404, 2089967109, 0.65766007, 0.1614252, -0.6982439, 0.23212267, 9.81550121307373, -1.0687237977981567, -0.285898357629776, 1.2579870223999023, -0.43693986535072327, 0.6064383387565613, -0.98388671875, 0.525634765625, -0.267333984375, 0, 
405, 2089983776, 0.6575321, 0.16172718, -0.69820315, 0.23239678, 9.848177909851074, -1.1629207134246826, -0.3086627125740051, 1.4774110317230225, -0.2272614687681198, 0.5986520051956177, -0.98486328125, 0.526123046875, -0.263916015625, 0, 
406, 2090000443, 0.65750945, 0.16186231, -0.6981356, 0.23256984, 9.812990188598633, -1.083068609237671, -0.2924670875072479, 0.5479004383087158, 0.5128110647201538, 0.7283803224563599, -0.986572265625, 0.524658203125, -0.2666015625, 0, 
407, 2090017110, 0.65744424, 0.16200873, -0.6981062, 0.23274016, 9.800286293029785, -0.9657651782035828, -0.2718513309955597, 0.2800556421279907, 0.14783009886741638, 0.7821669578552246, -0.981689453125, 0.525146484375, -0.263427734375, 0, 
408, 2090033777, 0.65739316, 0.16201621, -0.6981385, 0.23278256, 9.794724464416504, -0.9479020833969116, -0.2522295117378235, -0.6075844764709473, -0.03397524729371071, 0.9033278822898865, -0.98486328125, 0.52685546875, -0.264892578125, 0, 
409, 2090050444, 0.65740496, 0.16198136, -0.69812727, 0.23280735, 9.810569763183594, -1.0085415840148926, -0.20242388546466827, -0.9942978620529175, 0.5231714248657227, 0.8812754154205322, -0.983154296875, 0.52783203125, -0.264404296875, 0, 
410, 2090067111, 0.65747094, 0.16185261, -0.698114, 0.23275028, 9.809093475341797, -1.0295565128326416, -0.215946763753891, -1.5905293226242065, 0.8202338814735413, 0.8669130206108093, -0.9833984375, 0.5234375, -0.268310546875, 0, 
411, 2090083778, 0.6575327, 0.16183972, -0.6980467, 0.23278669, 9.816985130310059, -1.0219980478286743, -0.2596503496170044, -1.3996315002441406, 1.057080864906311, 0.7068400382995605, -0.98388671875, 0.526123046875, -0.263916015625, 0, 
412, 2090100445, 0.6576251, 0.16180225, -0.6979522, 0.23283517, 9.81842041015625, -1.0581965446472168, -0.27566882967948914, -0.8675790429115295, 1.3184329271316528, 0.7790807485580444, -0.984375, 0.524169921875, -0.267822265625, 0, 
413, 2090117112, 0.6576674, 0.1618871, -0.69783056, 0.23302105, 9.815876007080078, -1.0362998247146606, -0.2804816961288452, -0.022699253633618355, 1.2088425159454346, 0.8795400857925415, -0.981689453125, 0.5244140625, -0.266845703125, 0, 
414, 2090133779, 0.6577089, 0.16194868, -0.697723, 0.23318352, 9.818422317504883, -1.0403748750686646, -0.2643209993839264, -0.07104963064193726, 1.131895661354065, 0.89508056640625, -0.982666015625, 0.525634765625, -0.266845703125, 0, 
415, 2090150446, 0.65778434, 0.16190326, -0.6976476, 0.23322734, 9.847475051879883, -1.01292085647583, -0.26882821321487427, -0.9730263948440552, 1.1627204418182373, 0.8464932441711426, -0.98095703125, 0.527099609375, -0.266357421875, 0, 
416, 2090167113, 0.6579205, 0.16174701, -0.6975842, 0.23314121, 9.828466415405273, -1.0528254508972168, -0.25566795468330383, -1.9557600021362305, 1.4074242115020752, 0.7002448439598083, -0.981689453125, 0.52392578125, -0.266357421875, 0, 
417, 2090183780, 0.6580405, 0.16155149, -0.69756955, 0.23298188, 9.80759334564209, -1.0217927694320679, -0.25168052315711975, -2.827904224395752, 1.1221565008163452, 0.6450430154800415, -0.98291015625, 0.524658203125, -0.267333984375, 0, 
418, 2090200447, 0.6581388, 0.1614894, -0.6975152, 0.23290983, 9.794265747070312, -1.0236324071884155, -0.2436426430940628, -1.9085431098937988, 1.102543592453003, 0.39635008573532104, -0.981689453125, 0.5244140625, -0.267822265625, 0, 
419, 2090217114, 0.6582501, 0.161447, -0.6974378, 0.23285684, 9.819425582885742, -1.0614066123962402, -0.2293403446674347, -1.6468583345413208, 1.2524162530899048, 0.3404375910758972, -0.98291015625, 0.52783203125, -0.26904296875, 0, 
420, 2090233781, 0.6583876, 0.16137676, -0.6973603, 0.23274872, 9.802142143249512, -1.0569534301757812, -0.22370536625385284, -2.088446855545044, 1.3648688793182373, 0.18030700087547302, -0.988525390625, 0.524658203125, -0.270263671875, 0, 
421, 2090250448, 0.6585177, 0.16138327, -0.69726145, 0.23267221, 9.796050071716309, -1.0120148658752441, -0.21820075809955597, -1.8820405006408691, 1.3735579252243042, -0.04577630013227463, -0.9833984375, 0.525634765625, -0.267822265625, 0, 
422, 2090267115, 0.6586967, 0.16124053, -0.69719136, 0.23247488, 9.760396957397461, -1.0236148834228516, -0.25791528820991516, -2.729135751724243, 1.5260239839553833, 0.06284716725349426, -0.98291015625, 0.524658203125, -0.267333984375, 0, 
423, 2090283782, 0.6588484, 0.16108668, -0.6971535, 0.232265, 9.761783599853516, -1.0516146421432495, -0.2770228981971741, -2.9631845951080322, 1.2656707763671875, 0.13936510682106018, -0.985107421875, 0.524658203125, -0.267822265625, 0, 
424, 2090300449, 0.6589258, 0.1610022, -0.6971436, 0.2321337, 9.808302879333496, -1.0821737051010132, -0.2449549287557602, -2.260545015335083, 0.7626053690910339, 0.3134738504886627, -0.985107421875, 0.524658203125, -0.27001953125, 0, 
425, 2090317116, 0.65897477, 0.16096427, -0.6971335, 0.23205136, 9.808441162109375, -1.041048288345337, -0.2295394092798233, -2.0904252529144287, 0.6409705877304077, 0.3638540506362915, -0.98291015625, 0.525146484375, -0.26904296875, 0, 
426, 2090333783, 0.659019, 0.16091363, -0.6971326, 0.2319637, 9.839386940002441, -1.0192819833755493, -0.19997316598892212, -1.9649614095687866, 0.5671932697296143, 0.4121851921081543, -0.9833984375, 0.525146484375, -0.268310546875, 0, 
427, 2090350450, 0.65907127, 0.16077901, -0.6971555, 0.23183948, 9.872532844543457, -1.0070738792419434, -0.20072020590305328, -2.54328989982605, 0.5887271761894226, 0.6618001461029053, -0.9833984375, 0.526123046875, -0.26611328125, 0, 
428, 2090367117, 0.6591488, 0.16057535, -0.69719404, 0.23164393, 9.870828628540039, -1.0248347520828247, -0.2355928272008896, -2.864203929901123, 0.6265314221382141, 0.6369814276695251, -0.981689453125, 0.5283203125, -0.267333984375, 0, 
429, 2090383784, 0.659203, 0.16039321, -0.6972387, 0.23148164, 9.851603507995605, -1.0131725072860718, -0.2520533502101898, -2.6448187828063965, 0.495151162147522, 0.7292768359184265, -0.982666015625, 0.52734375, -0.265625, 0, 
430, 2090400451, 0.6592006, 0.16027626, -0.6973074, 0.23136233, 9.834877967834473, -1.0673383474349976, -0.1974947303533554, -2.19438099861145, 0.06793129444122314, 0.7286365032196045, -0.986083984375, 0.525634765625, -0.265625, 0, 
431, 2090417118, 0.65913296, 0.16024193, -0.697382, 0.23135416, 9.818046569824219, -1.1123839616775513, -0.2170552909374237, -1.295093297958374, -0.27337712049484253, 0.9483422040939331, -0.982177734375, 0.526123046875, -0.26904296875, 0, 
432, 2090433785, 0.65899837, 0.16031505, -0.6974568, 0.23146124, 9.805974960327148, -1.0830228328704834, -0.1583261936903, -0.5041604042053223, -0.6043316721916199, 1.0701563358306885, -0.9833984375, 0.525634765625, -0.266845703125, 0, 
433, 2090450452, 0.65882754, 0.16039167, -0.69756293, 0.2315747, 9.811623573303223, -1.0088248252868652, -0.15401113033294678, -0.26190266013145447, -0.9430596232414246, 1.1683168411254883, -0.98388671875, 0.525634765625, -0.268310546875, 0, 
434, 2090467119, 0.6587152, 0.16037819, -0.69766515, 0.23159535, 9.830940246582031, -0.9405033588409424, -0.15240243077278137, -1.444748044013977, -0.5758374333381653, 1.089327096939087, -0.985595703125, 0.5263671875, -0.26708984375, 0, 
435, 2090483786, 0.6587309, 0.16020177, -0.6977397, 0.23144862, 9.81866455078125, -0.9305893778800964, -0.16656000912189484, -2.861527681350708, 0.21379561722278595, 0.8744880557060242, -0.98486328125, 0.526123046875, -0.265625, 0, 
436, 2090500453, 0.65883374, 0.15999615, -0.6977547, 0.23125312, 9.770581245422363, -1.0085065364837646, -0.17977362871170044, -3.1554718017578125, 0.8841567635536194, 0.5890985131263733, -0.984375, 0.52783203125, -0.265625, 0, 
437, 2090517120, 0.65894127, 0.15978864, -0.6977642, 0.2310611, 9.734489440917969, -1.1146413087844849, -0.25259000062942505, -2.9829509258270264, 0.9190220236778259, 0.5962252020835876, -0.98388671875, 0.52880859375, -0.26513671875, 0, 
438, 2090533787, 0.65902877, 0.15967736, -0.6977337, 0.23098055, 9.731367111206055, -1.1429625749588013, -0.3195180594921112, -1.810325026512146, 0.9631912708282471, 0.6224014759063721, -0.982666015625, 0.52734375, -0.265625, 0, 
439, 2090550454, 0.65909874, 0.15966961, -0.6976597, 0.23100993, 9.759888648986816, -1.070203185081482, -0.304516077041626, -0.9417406320571899, 1.0567479133605957, 0.6076933741569519, -0.981201171875, 0.529296875, -0.26953125, 0, 
440, 2090567121, 0.65918887, 0.1596564, -0.6975593, 0.23106503, 9.80949878692627, -1.0228699445724487, -0.2744169235229492, -1.1461172103881836, 1.3473881483078003, 0.6959290504455566, -0.986083984375, 0.525146484375, -0.264892578125, 0, 
441, 2090583788, 0.65928495, 0.15961176, -0.69746697, 0.23110071, 9.834769248962402, -1.0512999296188354, -0.2533054053783417, -1.1328880786895752, 1.3387309312820435, 0.752417802810669, -0.9833984375, 0.525146484375, -0.26611328125, 0, 
442, 2090600455, 0.65936965, 0.15962636, -0.6973729, 0.2311325, 9.809754371643066, -1.0649514198303223, -0.22110891342163086, -0.959835946559906, 1.2041491270065308, 0.4689237177371979, -0.98486328125, 0.52783203125, -0.26708984375, 0, 
443, 2090617122, 0.65947175, 0.15958919, -0.6972939, 0.2311053, 9.803558349609375, -1.0513275861740112, -0.27443504333496094, -1.4346057176589966, 1.2272642850875854, 0.4354991018772125, -0.9833984375, 0.52783203125, -0.27001953125, 0, 
444, 2090633789, 0.65960634, 0.15952277, -0.6971819, 0.23110498, 9.823588371276855, -0.9726470112800598, -0.24768979847431183, -1.64523184299469, 1.633085012435913, 0.6147368550300598, -0.984375, 0.52783203125, -0.264404296875, 0, 
445, 2090650456, 0.65976363, 0.15935308, -0.69710284, 0.23101117, 9.832419395446777, -0.9814711809158325, -0.22007185220718384, -2.1254312992095947, 1.6002751588821411, 0.6726855039596558, -0.982666015625, 0.52734375, -0.26513671875, 0, 
446, 2090667123, 0.65984, 0.15933773, -0.6970357, 0.2310063, 9.818863868713379, -1.0595378875732422, -0.18537215888500214, -0.9042947292327881, 1.00766122341156, 0.47969385981559753, -0.982177734375, 0.5283203125, -0.26953125, 0, 
447, 2090683790, 0.6599543, 0.15934342, -0.6969266, 0.23100527, 9.840561866760254, -1.0980160236358643, -0.20495565235614777, -1.019487977027893, 1.3777263164520264, 0.29660147428512573, -0.982666015625, 0.526123046875, -0.266845703125, 0, 
448, 2090700457, 0.66011184, 0.15930218, -0.69680476, 0.23095097, 9.796828269958496, -1.049004316329956, -0.25879496335983276, -1.5209717750549316, 1.658761739730835, 0.19463732838630676, -0.981201171875, 0.52783203125, -0.26904296875, 0, 
449, 2090717124, 0.66023564, 0.15933971, -0.6966761, 0.23095953, 9.804743766784668, -0.9394343495368958, -0.20832157135009766, -0.8279561996459961, 1.4747217893600464, 0.14873935282230377, -0.981689453125, 0.52783203125, -0.267333984375, 0, 
450, 2090733791, 0.66038626, 0.15938069, -0.6965246, 0.23095757, 9.764934539794922, -0.989614725112915, -0.1752614825963974, -0.6327873468399048, 1.6659460067749023, 0.013773228041827679, -0.9833984375, 0.52685546875, -0.267822265625, 0, 
451, 2090750458, 0.6605156, 0.15943031, -0.69639134, 0.23095551, 9.745556831359863, -1.0376830101013184, -0.22063425183296204, -0.7107908725738525, 1.4784739017486572, 0.028154756873846054, -0.97900390625, 0.526123046875, -0.271240234375, 0, 
452, 2090767125, 0.6606042, 0.15957417, -0.6962631, 0.2309894, 9.7495698928833, -1.0367391109466553, -0.23285140097141266, -0.4048214852809906, 1.1873726844787598, -0.18265694379806519, -0.981201171875, 0.52734375, -0.26953125, 0, 
453, 2090783792, 0.6606792, 0.15978847, -0.6961101, 0.23108746, 9.746170997619629, -1.0363785028457642, -0.27063581347465515, 0.6114071607589722, 1.1576876640319824, -0.24146373569965363, -0.98388671875, 0.526123046875, -0.268798828125, 0, 
454, 2090800459, 0.6607092, 0.16007192, -0.6959646, 0.23124427, 9.778651237487793, -1.0438907146453857, -0.22534684836864471, 1.2768378257751465, 0.8608748316764832, -0.22686447203159332, -0.981201171875, 0.52734375, -0.26904296875, 0, 
455, 2090817126, 0.660713, 0.16035642, -0.6958315, 0.23143649, 9.823006629943848, -1.0406310558319092, -0.19572359323501587, 1.6712285280227661, 0.6951542496681213, -0.020701462402939796, -0.984130859375, 0.524658203125, -0.271728515625, 0, 
456, 2090833793, 0.66068155, 0.16071466, -0.6957125, 0.2316355, 9.859453201293945, -1.003387689590454, -0.14847752451896667, 1.6939023733139038, 0.3908434212207794, -0.2631961405277252, -0.98291015625, 0.525634765625, -0.271240234375, 0, 
457, 2090850460, 0.66071016, 0.16098745, -0.6955933, 0.23172227, 9.893653869628906, -0.9274338483810425, -0.09349476546049118, 0.7613694667816162, 0.6844545602798462, -0.4628726840019226, -0.982177734375, 0.524658203125, -0.26904296875, 0, 
458, 2090867127, 0.66075337, 0.1612311, -0.6954882, 0.23174517, 9.866418838500977, -0.9869813323020935, -0.11946102231740952, 0.44514229893684387, 0.647059977054596, -0.6238612532615662, -0.9833984375, 0.52294921875, -0.271728515625, 0, 
459, 2090883794, 0.6607474, 0.16153029, -0.6954152, 0.23177283, 9.81432819366455, -1.0506192445755005, -0.13761460781097412, 0.5155451893806458, 0.20386426150798798, -0.7467830777168274, -0.984130859375, 0.525146484375, -0.272705078125, 0, 
460, 2090900461, 0.66072226, 0.16184352, -0.6953521, 0.23181556, 9.803245544433594, -1.0554523468017578, -0.16622582077980042, 0.7674909234046936, 0.049669425934553146, -0.7084216475486755, -0.984130859375, 0.52294921875, -0.272705078125, 0, 
461, 2090917128, 0.6606655, 0.16219954, -0.69529337, 0.23190458, 9.78530502319336, -1.0602912902832031, -0.20226851105690002, 1.1291935443878174, -0.12998445332050323, -0.6454528570175171, -0.984130859375, 0.525146484375, -0.273193359375, 0, 
462, 2090933795, 0.66056514, 0.16256534, -0.6952757, 0.23198695, 9.809722900390625, -0.9958098530769348, -0.142750084400177, 1.2425041198730469, -0.5599960684776306, -0.6112086772918701, -0.984619140625, 0.520751953125, -0.2734375, 0, 
463, 2090950462, 0.660523, 0.16289812, -0.69522125, 0.23203705, 9.80333423614502, -1.0077908039093018, -0.1301245093345642, 0.6609293222427368, -0.07014037668704987, -0.7284892201423645, -0.984619140625, 0.524169921875, -0.272216796875, 0, 
464, 2090967129, 0.660508, 0.1631228, -0.6951974, 0.23199348, 9.791479110717773, -0.9965636730194092, -0.18344160914421082, 0.06680431962013245, -0.05588690564036369, -0.6558387875556946, -0.984130859375, 0.52197265625, -0.272705078125, 0, 
465, 2090983796, 0.66044044, 0.16343981, -0.6951673, 0.23205261, 9.750503540039062, -1.0250881910324097, -0.18008242547512054, 0.7022873163223267, -0.27598321437835693, -0.5484895706176758, -0.984130859375, 0.520751953125, -0.27001953125, 0, 
466, 2091000463, 0.66038156, 0.16380052, -0.6951009, 0.2321649, 9.771075248718262, -1.0625557899475098, -0.19678615033626556, 1.460858941078186, -0.1050184816122055, -0.5755237936973572, -0.984619140625, 0.519287109375, -0.272216796875, 0, 
467, 2091017130, 0.66032326, 0.16418023, -0.69501245, 0.23232754, 9.77534294128418, -1.0510940551757812, -0.20500724017620087, 1.791832447052002, 0.026400288566946983, -0.46250131726264954, -0.984130859375, 0.519775390625, -0.27490234375, 0, 
468, 2091033797, 0.6602444, 0.16461827, -0.69490206, 0.23257113, 9.801619529724121, -1.016382098197937, -0.20062218606472015, 2.2315514087677, 0.055073704570531845, -0.3629063069820404, -0.9853515625, 0.520263671875, -0.272705078125, 0, 
469, 2091050464, 0.6601776, 0.16495712, -0.6948326, 0.23272811, 9.846090316772461, -0.962554931640625, -0.13655011355876923, 1.6341862678527832, -0.04792136326432228, -0.2626582086086273, -0.98486328125, 0.51806640625, -0.276123046875, 0, 
470, 2091067131, 0.6601388, 0.16525047, -0.6947669, 0.23282665, 9.845863342285156, -0.9329428672790527, -0.1286686807870865, 0.708210289478302, 0.11513547599315643, -0.34224966168403625, -0.98583984375, 0.520263671875, -0.275390625, 0, 
471, 2091083798, 0.6601427, 0.16546753, -0.6947016, 0.23285599, 9.868683815002441, -0.9416801333427429, -0.10855549573898315, 0.302889347076416, 0.32752880454063416, -0.3653779923915863, -0.98583984375, 0.519287109375, -0.27490234375, 0, 
472, 2091100465, 0.6602181, 0.16558923, -0.69463253, 0.23276164, 9.867715835571289, -0.9253036379814148, -0.0760016143321991, -0.7503496408462524, 0.6922664642333984, -0.5895787477493286, -0.987060546875, 0.51708984375, -0.2744140625, 0, 
473, 2091117132, 0.6603213, 0.16569787, -0.6945428, 0.23265927, 9.837918281555176, -0.9444984197616577, -0.11238525062799454, -0.996807873249054, 0.9436293840408325, -0.629854679107666, -0.98583984375, 0.517578125, -0.275634765625, 0, 
474, 2091133799, 0.6604006, 0.16577959, -0.69449574, 0.23251656, 9.82205867767334, -0.9591600298881531, -0.12158872187137604, -1.362544298171997, 0.6341768503189087, -0.596404492855072, -0.987060546875, 0.5166015625, -0.273193359375, 0, 
475, 2091150466, 0.6604699, 0.16581751, -0.6944776, 0.23234694, 9.8086519241333, -0.9658401608467102, -0.18213778734207153, -1.632271647453308, 0.4835101068019867, -0.4629623293876648, -0.987548828125, 0.51708984375, -0.275390625, 0, 
476, 2091167133, 0.66045934, 0.16590378, -0.6945151, 0.23220316, 9.80501937866211, -0.9985291957855225, -0.18928146362304688, -1.3587409257888794, -0.19052007794380188, -0.3833197057247162, -0.987548828125, 0.517578125, -0.2744140625, 0, 
477, 2091183800, 0.6604249, 0.16600391, -0.6945509, 0.23212284, 9.855486869812012, -0.9688307046890259, -0.13325320184230804, -0.7616832852363586, -0.26553967595100403, -0.12980516254901886, -0.987548828125, 0.51611328125, -0.272216796875, 0, 
478, 2091200467, 0.6603969, 0.16604945, -0.6946046, 0.2320089, 9.856192588806152, -0.9213550686836243, -0.12265870720148087, -1.2523330450057983, -0.264579176902771, -0.0116537781432271, -0.986328125, 0.5166015625, -0.273193359375, 0, 
479, 2091217134, 0.6603654, 0.16603848, -0.69468766, 0.23185761, 9.844372749328613, -0.9355239868164062, -0.15282252430915833, -1.8270690441131592, -0.3578093945980072, 0.12924808263778687, -0.987548828125, 0.5166015625, -0.272216796875, 0, 
480, 2091233801, 0.660306, 0.16597381, -0.6948217, 0.23167126, 9.88087272644043, -0.9598398208618164, -0.1631394624710083, -2.0930185317993164, -0.6972289681434631, 0.32650431990623474, -0.98486328125, 0.51708984375, -0.272705078125, 0, 
481, 2091250468, 0.6602536, 0.16593878, -0.6949216, 0.2315461, 9.838934898376465, -0.9705587029457092, -0.1692410707473755, -1.7194187641143799, -0.4765626788139343, 0.41474005579948425, -0.98974609375, 0.518310546875, -0.27197265625, 0, 
482, 2091267135, 0.66015077, 0.1660013, -0.6950083, 0.2315344, 9.804471969604492, -0.9819478988647461, -0.21669085323810577, -0.633222758769989, -0.6847938895225525, 0.5266290903091431, -0.98974609375, 0.518310546875, -0.27197265625, 0, 
483, 2091283802, 0.6599626, 0.16613658, -0.69513273, 0.23160017, 9.797401428222656, -0.9980270862579346, -0.19080772995948792, 0.08538633584976196, -1.2896250486373901, 0.708991527557373, -0.987548828125, 0.514404296875, -0.273193359375, 0, 
484, 2091300469, 0.6598175, 0.16616023, -0.69527113, 0.23158093, 9.823854446411133, -0.9488084316253662, -0.18001586198806763, -1.2426384687423706, -1.0341895818710327, 0.8114551305770874, -0.988037109375, 0.515625, -0.27099609375, 0, 
485, 2091317136, 0.65970874, 0.16605832, -0.69543374, 0.23147579, 9.864184379577637, -0.9121146202087402, -0.1836985945701599, -1.996484398841858, -0.8988905549049377, 0.984904408454895, -0.9892578125, 0.518310546875, -0.273193359375, 0, 
486, 2091333803, 0.6595976, 0.16600546, -0.69557977, 0.23139182, 9.84645938873291, -0.9292243719100952, -0.17657458782196045, -1.781593918800354, -0.8756982684135437, 0.8350957036018372, -0.98681640625, 0.51708984375, -0.2705078125, 0, 
487, 2091350470, 0.6593961, 0.1660939, -0.6957179, 0.23148762, 9.824315071105957, -1.046733021736145, -0.19983333349227905, -0.18199105560779572, -1.2882548570632935, 1.1067569255828857, -0.988037109375, 0.51611328125, -0.269287109375, 0, 
488, 2091367137, 0.65922344, 0.16613913, -0.6958436, 0.23156896, 9.857831001281738, -1.0850096940994263, -0.23899288475513458, -0.24309012293815613, -1.0649888515472412, 1.1854004859924316, -0.987548828125, 0.518310546875, -0.272705078125, 0, 
489, 2091383804, 0.659037, 0.1661796, -0.6959866, 0.23164047, 9.798038482666016, -0.9966186881065369, -0.28214502334594727, -0.40396350622177124, -1.2066398859024048, 1.2052247524261475, -0.986328125, 0.517578125, -0.27001953125, 0, 
490, 2091400471, 0.658779, 0.16629273, -0.6961586, 0.23177613, 9.784149169921875, -0.8958706855773926, -0.21915198862552643, 0.1164417490363121, -1.7045764923095703, 1.2929739952087402, -0.987060546875, 0.515380859375, -0.272216796875, 0, 
491, 2091417138, 0.6585593, 0.1663611, -0.6963093, 0.23189896, 9.793190956115723, -0.9129735827445984, -0.14967577159404755, -0.36825937032699585, -1.3499428033828735, 1.373205542564392, -0.987060546875, 0.51708984375, -0.273193359375, 0, 
492, 2091433805, 0.6584445, 0.16630772, -0.69641775, 0.23193765, 9.814282417297363, -0.9390878081321716, -0.1549944281578064, -1.372597336769104, -0.5583824515342712, 1.3604377508163452, -0.98681640625, 0.5166015625, -0.27099609375, 0, 
493, 2091450472, 0.6584387, 0.1661818, -0.6964705, 0.23188582, 9.831536293029785, -0.8954688906669617, -0.10534602403640747, -2.0191452503204346, 0.21047237515449524, 1.0565879344940186, -0.99072265625, 0.518798828125, -0.270263671875, 0, 
494, 2091467139, 0.6585942, 0.16602036, -0.6963797, 0.23183252, 9.821610450744629, -0.8804387450218201, -0.07606441527605057, -2.1193807125091553, 1.6844449043273926, 0.7987832427024841, -0.988525390625, 0.51708984375, -0.272216796875, 0, 
495, 2091483806, 0.6588442, 0.16579528, -0.69621015, 0.23179284, 9.787394523620605, -0.9570497274398804, -0.08678071945905685, -2.5305283069610596, 2.629194974899292, 0.9304454326629639, -0.987548828125, 0.519287109375, -0.271484375, 0, 
496, 2091500473, 0.6591371, 0.16555558, -0.69598895, 0.2317954, 9.764026641845703, -0.9860413074493408, -0.1320376843214035, -2.151313304901123, 3.117417573928833, 1.0594756603240967, -0.988037109375, 0.5166015625, -0.272705078125, 0, 
497, 2091517140, 0.65949786, 0.16522537, -0.69571465, 0.23182876, 9.786334991455078, -0.9162498116493225, -0.12667785584926605, -2.608038902282715, 3.8793447017669678, 1.467780590057373, -0.988525390625, 0.518310546875, -0.273193359375, 0, 
498, 2091533807, 0.65999067, 0.16455638, -0.6954627, 0.23165789, 9.866292953491211, -0.9015100002288818, -0.16018317639827728, -5.137280464172363, 4.700090408325195, 1.9753987789154053, -0.98583984375, 0.5166015625, -0.276123046875, 0, 
499, 2091550474, 0.6605634, 0.16378573, -0.6951751, 0.23143445, 9.932369232177734, -1.0033842325210571, -0.20144033432006836, -6.189168930053711, 5.3756513595581055, 2.0615217685699463, -0.988037109375, 0.518798828125, -0.272705078125, 0, 
500, 2091567141, 0.6612399, 0.1628539, -0.69484586, 0.2311487, 9.950230598449707, -1.0487260818481445, -0.2373097687959671, -6.932437419891357, 6.214622497558594, 2.3285601139068604, -0.986328125, 0.520263671875, -0.273193359375, 0, 
501, 2091583808, 0.66188896, 0.16197197, -0.6944716, 0.23103574, 9.938984870910645, -1.1064727306365967, -0.2165355235338211, -5.774538516998291, 6.403413772583008, 2.87101149559021, -0.983642578125, 0.5224609375, -0.2744140625, 0, 
502, 2091600475, 0.6624858, 0.16129012, -0.6939793, 0.23128094, 9.893145561218262, -1.1999796628952026, -0.22742459177970886, -2.8609516620635986, 6.768022537231445, 3.491415023803711, -0.983642578125, 0.521484375, -0.275634765625, 0, 
