DeviceTag:;Xsens_1;;;;;;;;
FirmwareVersion:;2.2.1;;;;;;;;
AppVersion:;2023.0.0;;;;;;;;
SyncStatus:;Un-synced;;;;;;;;
OutputRate:;60Hz;;;;;;;;
FilterProfile:;General;;;;;;;;
Measurement Mode:;Sensor fusion Mode - Extended (Quaternion);;;;;;;;
StartTime:;2023-07-11 15:23:06.896 +0200;;;;;;;;
© Movella Technologies B. V. 2005-2023;;;;;;;;;
;;;;;;;;;
PacketCounter;SampleTimeFine;Quat_W;Quat_X;Quat_Y;Quat_Z;FreeAcc_X;FreeAcc_Y;FreeAcc_Z;Status
1;41824572;0;5.74E-18;0.707106781;0.707106781;-0.006862658;0.001221338;0.14258575;0
2;41841239;1.24E-05;8.86E-05;-0.706966318;-0.707247211;0.002002033;-0.003301988;0.14465904;0
3;41857906;2.52E-05;0.00014242;-0.70684255;-0.707370899;0.002724427;-0.014687633;0.14543915;0
4;41874573;2.26E-05;-0.000161426;0.706716931;0.707496398;0.015046808;-0.00332589;0.13040829;0
5;41891240;4.35E-05;-0.000172716;0.706620519;0.707592687;0.011023436;-0.01113866;0.13452244;0
6;41907907;6.74E-05;-0.000175747;0.706529233;0.707683833;0.014466653;0.001004027;0.14151096;0
7;41924574;7.98E-05;-0.000200264;0.706438712;0.707774187;0.018658219;-0.000134097;0.13647556;0
8;41941241;6.83E-05;-0.000218082;0.706353578;0.707859146;0.021690061;0.007021848;0.15212727;0
9;41957908;5.35E-05;-0.00024783;0.706282966;0.707929592;0.02323719;-0.002324381;0.14036942;0
10;41974575;3.56E-05;-0.000262953;0.706213994;0.707998393;0.04102287;0.003674162;0.12917042;0
11;41991242;2.48E-05;-0.000269855;0.706153741;0.708058487;0.030168718;0.00983383;0.15612507;0
12;42007909;1.52E-05;-0.000307913;0.706095096;0.708116954;0.027362484;0.009271436;0.13411713;0
13;42024576;2.53E-05;0.000339403;-0.70602959;-0.708182252;0.02904903;0.009370998;0.15765381;0
14;42041243;5.10E-05;0.000358883;-0.705958057;-0.708253549;0.040590037;0.01874847;0.13164043;0
15;42057910;9.07E-05;0.000382958;-0.705882866;-0.708328472;0.03791777;0.013491972;0.14464855;0
16;42074577;0.000123445;0.000390028;-0.705817777;-0.708393322;0.049545586;0.003472651;0.15237331;0
17;42091244;0.000160447;0.000418569;-0.705749454;-0.708461366;0.04270349;0.003976463;0.1377554;0
18;42107911;0.000185102;0.000432498;-0.705679219;-0.708531311;0.038306292;0.012106313;0.16790771;0
19;42124578;0.000216939;0.000466626;-0.705612392;-0.708597831;0.03800592;-0.006996046;0.16479397;0
20;42141245;0.000255684;0.000499646;-0.70554164;-0.708668243;0.06187512;0.011719277;0.11836338;0
21;42157912;0.000282264;0.000517684;-0.705473631;-0.708735923;0.04266133;0.020766977;0.14100647;0
22;42174579;0.00031211;0.000547707;-0.705406224;-0.708802978;0.052444465;0.02293448;0.14010048;0
23;42191246;0.000345894;0.000566178;-0.705332835;-0.708875978;0.047449064;0.011407735;0.14944649;0
24;42207913;0.000379655;0.000588909;-0.705255073;-0.708953307;0.044527635;0.012800206;0.16012764;0
25;42224580;0.000414605;0.000609787;-0.705183096;-0.709024864;0.057707943;0.003241794;0.13838005;0
26;42241247;0.000441261;0.000632867;-0.705105787;-0.709101709;0.06902471;0.016374916;0.14429092;0
27;42257914;0.000471352;0.00065013;-0.705034704;-0.709172349;0.069116354;0.014163636;0.1453495;0
28;42274581;0.00050751;0.000674802;-0.704962455;-0.709244121;0.07057469;0.007151534;0.13941383;0
29;42291248;0.000541276;0.000690593;-0.704889015;-0.709317071;0.053206254;0.003339996;0.1519413;0
30;42307915;0.000578902;0.000712281;-0.704814324;-0.709391236;0.044730976;0.014571044;0.13104725;0
31;42324582;0.00062243;0.000755337;-0.704733701;-0.709471249;0.06581054;0.005272395;0.14114189;0
32;42341249;0.000655196;0.000788525;-0.704652333;-0.709551998;0.074907824;0.015470041;0.13833141;0
33;42357916;0.000684426;0.000815839;-0.704575595;-0.70962814;0.069990315;0.014088277;0.13132286;0
34;42374583;0.000730209;0.00084376;-0.704495497;-0.709707581;0.077283405;0.012273027;0.14898872;0
35;42391250;0.000762067;0.000864704;-0.704414483;-0.709787931;0.07429836;-0.003715955;0.15106869;0
36;42407917;0.000794824;0.000891287;-0.704338564;-0.709863199;0.07468082;0.010446622;0.14204502;0
37;42424584;0.000833004;0.000930365;-0.704257728;-0.709943303;0.09147396;0.019913374;0.12334728;0
38;42441251;0.000873393;0.000955933;-0.70417832;-0.710021983;0.08430375;0.004495949;0.1427021;0
39;42457918;0.00090764;0.000981513;-0.704102729;-0.710096866;0.099612765;0.010997637;0.15259361;0
40;42474585;0.000937007;0.001022117;-0.704019714;-0.710179076;0.09996047;0.021985339;0.15016747;0
41;42491252;0.000969444;0.001058292;-0.703943062;-0.710254958;0.08941678;0.02501236;0.15352535;0
42;42507919;0.000995739;0.00107665;-0.703860749;-0.710336466;0.097485766;0.009244538;0.13499546;0
43;42524586;0.001033166;0.001116243;-0.703790341;-0.710406111;0.09884436;0.000567419;0.14399242;0
44;42541253;0.001056709;0.001141724;-0.703708602;-0.710487004;0.10108116;0.019628104;0.1227541;0
45;42557920;0.001083887;0.001161479;-0.703632583;-0.710562217;0.09505718;0.014064707;0.15513992;0
46;42574587;0.001119093;0.001191647;-0.70355879;-0.710635178;0.09940585;0.010045539;0.14324665;0
47;42591254;0.001152285;0.001223525;-0.703475992;-0.710717035;0.10599663;0.036001444;0.16152954;0
48;42607921;0.001181018;0.001249453;-0.70340149;-0.710790678;0.11086321;0.010488649;0.15006828;0
49;42624588;0.001210249;0.001285382;-0.703329862;-0.710861441;0.12361957;0.01982882;0.15542984;0
50;42641255;0.001239235;0.001312159;-0.703258576;-0.710931866;0.1016393;0.025054794;0.15549755;0
51;42657922;0.001272361;0.001344417;-0.703191339;-0.710998252;0.12217945;0.020246217;0.12718487;0
52;42674589;0.001307817;0.001371324;-0.703107044;-0.711081496;0.12130839;0.013635867;0.15980911;0
53;42691256;0.00133951;0.001386193;-0.703032602;-0.711155007;0.12375077;0.02061248;0.17010784;0
54;42707923;0.001365467;0.001419425;-0.702956435;-0.711230182;0.12137935;0.024644751;0.1394043;0
55;42724590;0.001392576;0.001446146;-0.702877685;-0.711307901;0.11526091;0.02770115;0.14423752;0
56;42741257;0.001417484;0.001478923;-0.702800073;-0.711384468;0.12386473;0.02049761;0.1431179;0
57;42757924;0.001441605;0.001505774;-0.702725146;-0.711458378;0.12066439;0.016079042;0.16265488;0
58;42774591;0.001467275;0.001536921;-0.702651311;-0.71153118;0.121755384;0.005056708;0.15282822;0
59;42791258;0.001497538;0.001570218;-0.702575057;-0.711606339;0.1253323;0.00753608;0.15005684;0
60;42807925;0.001517699;0.001597034;-0.702502856;-0.711677514;0.13576205;0.01449138;0.16833782;0
61;42824592;0.001538533;0.001630677;-0.702428313;-0.711750967;0.14077586;0.019647127;0.15430927;0
62;42841259;0.00155694;0.001663304;-0.702350612;-0.711827527;0.1285934;0.02849321;0.14195442;0
63;42857926;0.001584713;0.001696241;-0.702275736;-0.711901259;0.14646856;0.019354776;0.15857983;0
64;42874593;0.001611101;0.001733074;-0.702202552;-0.711973298;0.15201907;0.008209014;0.14086246;0
65;42891260;0.001635671;0.001765241;-0.702126003;-0.712048653;0.15535477;0.03432923;0.15591145;0
66;42907927;0.001657349;0.001788659;-0.702050726;-0.712122765;0.16127919;0.02491833;0.15272617;0
67;42924594;0.001690584;0.001816568;-0.701978734;-0.712193583;0.16268313;0.01636247;0.15699863;0
68;42941261;0.001706154;0.00185278;-0.701904924;-0.712266196;0.15254916;0.019658823;0.13348866;0
69;42957928;0.00172305;0.001872764;-0.701835364;-0.712334644;0.16103035;0.015474123;0.14888859;0
70;42974595;0.001751104;0.001911193;-0.701765677;-0.712403128;0.14410274;0.019330675;0.13273144;0
71;42991262;0.001780908;0.001939403;-0.701696697;-0.71247092;0.15650976;0.033239335;0.1627779;0
72;43007929;0.001793758;0.001970877;-0.701636161;-0.712530417;0.16186638;0.041458342;0.1261692;0
73;43024596;0.001817977;0.002012489;-0.701565783;-0.712599535;0.17760985;0.042636964;0.14641571;0
74;43041263;0.001825656;0.002052197;-0.7014934;-0.712670657;0.1626413;0.019975916;0.15156937;0
75;43057930;0.001834221;0.002085205;-0.701425588;-0.712737281;0.17695755;0.030415144;0.12862778;0
76;43074597;0.001848389;0.002125057;-0.701365232;-0.71279652;0.18150645;0.0370208;0.12513733;0
77;43091264;0.001854745;0.002162723;-0.701302947;-0.712857671;0.1723835;0.036207724;0.16567707;0
78;43107931;0.001865016;0.002205948;-0.701235983;-0.712923384;0.15839326;0.024397435;0.16195202;0
79;43124598;0.001881428;0.002255065;-0.701172907;-0.712985224;0.1748812;0.03087835;0.15489101;0
80;43141265;0.001894881;0.002295409;-0.701110634;-0.713046295;0.18094304;0.020836582;0.14057732;0
81;43157932;0.00190453;0.002331401;-0.701046765;-0.713108947;0.17700832;0.03176005;0.13297462;0
82;43174599;0.001908268;0.002370116;-0.700981442;-0.713173022;0.18282689;0.03144135;0.16084385;0
83;43191266;0.001933554;0.002411982;-0.700914867;-0.713238244;0.19035769;0.02422777;0.15166569;0
84;43207933;0.001944994;0.00245369;-0.700854045;-0.713297837;0.17827268;0.027813004;0.14736462;0
85;43224600;0.001946469;0.002483425;-0.700794988;-0.713355752;0.18940637;0.029013142;0.15165424;0
86;43241267;0.001953116;0.002517965;-0.700735755;-0.713413798;0.18137917;0.030452128;0.15350628;0
87;43257934;0.001966965;0.002564097;-0.700674471;-0.713473785;0.184285;0.035769112;0.13701916;0
88;43274601;0.001974337;0.002611676;-0.700622704;-0.713524427;0.19239862;0.028980123;0.15039253;0
89;43291268;0.001977112;0.002655306;-0.700562685;-0.713583187;0.19544953;0.037455983;0.15729618;0
90;43307935;0.001975927;0.002692888;-0.700508624;-0.71363612;0.1820211;0.035925034;0.13265038;0
91;43324602;0.001977026;0.002736365;-0.700451777;-0.713691749;0.19919296;0.028363165;0.12985897;0
92;43341269;0.001972587;0.002782698;-0.700401187;-0.713741229;0.19823605;0.036018364;0.16419697;0
93;43357936;0.00197853;0.002833361;-0.700340706;-0.713800359;0.20364504;0.030207615;0.12286377;0
94;43374603;0.001987172;0.002876898;-0.700275728;-0.713863908;0.1895526;0.021272238;0.16509628;0
95;43391270;0.00199003;0.002924335;-0.700221852;-0.713916554;0.2152665;0.02911138;0.17333698;0
96;43407937;0.00199417;0.002980383;-0.700166266;-0.713970826;0.20550707;0.02983868;0.11755657;0
97;43424604;0.001985271;0.003025868;-0.700112428;-0.714023453;0.2000916;0.03330268;0.15269947;0
98;43441271;0.00198567;0.003069323;-0.700058964;-0.714075684;0.1985985;0.039688814;0.12899303;0
99;43457938;0.00198093;0.003120407;-0.700005631;-0.714127759;0.21224007;0.027207738;0.17426682;0
100;43474605;0.001980106;0.003174454;-0.699955581;-0.71417658;0.20419028;0.034686234;0.14097214;0
101;43491272;0.001983158;0.003237106;-0.69991082;-0.714220157;0.21117683;0.024499461;0.13692951;0
102;43507939;0.001984396;0.003293407;-0.699868899;-0.714260974;0.20486349;0.029943248;0.1658268;0
103;43524606;0.001982736;0.003344006;-0.699828934;-0.714299902;0.21555145;0.026172474;0.16213512;0
104;43541273;0.001969339;0.003401539;-0.699790987;-0.714336843;0.21762286;0.031200467;0.14911938;0
105;43557940;0.001957056;0.00344962;-0.699748794;-0.714377978;0.21334969;0.015673736;0.14105129;0
106;43574607;0.00195638;0.003512151;-0.699705843;-0.714419744;0.22200148;0.031990096;0.14729404;0
107;43591274;0.001945882;0.003566269;-0.699663746;-0.714460732;0.21267204;0.036303494;0.13091469;0
108;43607941;0.001924864;0.003623909;-0.699620366;-0.714502978;0.22246583;0.03407526;0.13130951;0
109;43624608;0.001913083;0.003682404;-0.69957966;-0.714542567;0.22710355;0.039977297;0.133708;0
110;43641275;0.001899459;0.003728467;-0.699538588;-0.714582573;0.22614019;0.028363222;0.14069557;0
111;43657942;0.001884294;0.003787248;-0.699503933;-0.714616228;0.23362568;0.02694968;0.15581703;0
112;43674609;0.001863709;0.003839513;-0.699468753;-0.714650437;0.23537196;0.029070955;0.14572906;0
113;43691276;0.001839292;0.003889435;-0.699430591;-0.71468758;0.24007027;0.031508982;0.15186214;0
114;43707943;0.001813673;0.003939057;-0.699392169;-0.714724974;0.23098373;0.03492459;0.15677834;0
115;43724610;0.001803318;0.003994681;-0.699353191;-0.714762831;0.24320003;0.021360945;0.15889835;0
116;43741277;0.001782764;0.004044332;-0.699314195;-0.714800757;0.23300694;0.04132026;0.16084099;0
117;43757944;0.001768689;0.004111044;-0.699285794;-0.714828196;0.22957155;0.022321338;0.16857147;0
118;43774611;0.001738696;0.004170251;-0.69925872;-0.714854411;0.24704966;0.032827277;0.12228775;0
119;43791278;0.00283047;-0.002531734;0.707438758;0.706764447;-0.005822121;-0.005208215;0.15655708;0
120;43807945;0.002826722;-0.002522221;0.707439841;0.706763412;0.000833172;-0.008801521;0.15763187;0
121;43824612;0.002817374;-0.002516886;0.707444919;0.706758385;-0.002168467;-0.012154771;0.15289783;0
122;43841279;0.002810192;-0.00250686;0.707445467;0.7067579;0.003867584;0.003759516;0.13241768;0
123;43857946;0.00279674;-0.002494579;0.707444606;0.706758859;-0.010314983;0.000196615;0.156147;0
124;43874613;0.002780103;-0.002487765;0.707450578;0.70675297;-0.00443025;0.007085773;0.13731194;0
125;43891280;0.002781496;-0.002461727;0.707447564;0.706756073;-0.003263876;-0.004336372;0.17364979;0
126;43907947;0.002774678;-0.002450061;0.707454323;0.706749376;-0.01628289;0.000615247;0.14212704;0
127;43924614;0.002760233;-0.002449804;0.707454621;0.706749134;0.006036945;0.009627849;0.13758278;0
128;43941281;0.002758133;-0.002447686;0.7074585;0.706745267;0.000580631;0.010170014;0.1517477;0
129;43957948;0.002758175;-0.002437498;0.707458767;0.706745035;-0.012734651;-0.003207701;0.14005756;0
130;43974615;0.002760003;-0.002425629;0.707466587;0.70673724;0.001592977;-0.003340373;0.11799717;0
131;43991282;0.002752249;-0.002414595;0.707455786;0.706748121;-0.000210437;-0.013792042;0.14087772;0
132;44007949;0.002749068;-0.002412743;0.70745264;0.706751288;-0.000640309;-0.006037895;0.1622858;0
133;44024616;0.002732533;-0.002404932;0.707457838;0.706746176;0.004070338;0.001159117;0.14900494;0
134;44041283;0.002718975;-0.002392671;0.707461591;0.706742513;0.005427341;0.002434594;0.16066456;0
135;44057950;0.002714297;-0.002392312;0.707472297;0.706731815;-0.003700285;-0.01606731;0.1435566;0
136;44074617;0.002712433;-0.002385716;0.70747667;0.706727467;-0.006878779;-0.017664094;0.15308857;0
137;44091284;0.002708518;-0.002374822;0.707471318;0.706732876;-0.001602672;-0.00698829;0.1748085;0
138;44107951;0.002705667;-0.00237483;0.707469943;0.706734264;0.009634665;-0.010970732;0.15061569;0
139;44124618;0.002699205;-0.002367678;0.707469598;0.706734657;0.000299926;-0.001371224;0.13006878;0
140;44141285;0.002691381;-0.002360612;0.707469426;0.706734883;0.003277678;-0.002755566;0.1417942;0
141;44157952;0.002679126;-0.002356047;0.707466911;0.706737463;-0.0111367;0.008169866;0.12829304;0
142;44174619;0.002675996;-0.002338469;0.70747127;0.706733169;0.00141819;0.006728613;0.16126347;0
143;44191286;0.002672149;-0.002324867;0.707469917;0.706734583;-0.003736131;-0.004357476;0.151227;0
144;44207953;0.002667295;-0.002324108;0.707470843;0.706733677;0.015415018;-0.006912557;0.13422966;0
145;44224620;0.002647957;-0.002320393;0.707470951;0.706733654;3.69E-05;-0.009474966;0.16519642;0
146;44241287;0.002642062;-0.002315972;0.707473947;0.706730692;-0.003159439;0.008532286;0.16022778;0
147;44257954;0.002636119;-0.002306206;0.7074735;0.706731193;-0.019516313;-0.007955493;0.12545681;0
148;44274621;0.002628087;-0.002291262;0.707472207;0.706732565;-0.005291446;-0.017631998;0.14987469;0
149;44291288;0.002619766;-0.002286756;0.707473382;0.706731435;0.002978282;0.001040048;0.14861298;0
150;44307955;0.002622048;-0.002279978;0.707474975;0.706729854;0.002953333;-0.003002052;0.1279192;0
151;44324622;0.002624605;-0.00227192;0.707473153;0.706731694;-0.005053768;-0.009346331;0.14668274;0
152;44341289;0.002628405;-0.002258173;0.707479487;0.706725383;0.005239339;0.006304141;0.14029503;0
153;44357956;0.002624119;-0.002256791;0.707485211;0.706719673;-0.00345931;-0.008476684;0.15293694;0
154;44374623;0.002621224;-0.002242454;0.707482386;0.706722558;0.005120235;0.002250098;0.15417385;0
155;44391290;0.002612671;-0.002243121;0.707479347;0.70672563;-0.002279162;-0.00407513;0.14936924;0
156;44407957;0.002602571;-0.002230968;0.707477639;0.706727415;0.000402882;-0.010817472;0.121795654;0
157;44424624;0.002601485;-0.002224422;0.707478258;0.70672682;0.003951933;-0.014585736;0.14064598;0
158;44441291;0.002587653;-0.002220773;0.707480705;0.706724433;-0.008333792;-0.005740375;0.15147305;0
159;44457958;0.002585185;-0.002213992;0.70747902;0.70672615;-0.007282946;0.000431541;0.15882206;0
160;44474625;0.002586862;-0.002203666;0.707479567;0.706725629;0.011134968;0.002764464;0.14963627;0
161;44491292;0.002579676;-0.00218625;0.707474215;0.706731066;-0.002297182;-0.008165885;0.16077232;0
162;44507959;0.002564616;-0.002184952;0.707473346;0.706731996;-0.003530862;-0.014215669;0.17337322;0
163;44524626;0.002564823;-0.002187091;0.70747423;0.706731103;-0.003564445;-0.006040043;0.14658356;0
164;44541293;0.002565012;-0.002171865;0.707478159;0.706727217;-0.013023346;-0.002013118;0.13386822;0
165;44557960;0.00256458;-0.002158253;0.707475746;0.706729675;-0.012393458;-0.006382947;0.14902782;0
166;44574627;0.00256087;-0.002144663;0.707474754;0.706730723;-0.004567822;0.002384632;0.13950539;0
167;44591294;0.002561745;-0.002131175;0.707474216;0.7067313;0.002649411;-0.004533947;0.14827633;0
168;44607961;0.002564265;-0.002132954;0.707481553;0.70672394;-0.01782812;0.002711156;0.11949921;0
169;44624628;0.002557948;-0.00213147;0.707481199;0.706724321;-0.000224798;-0.011153063;0.14536953;0
170;44641295;0.002547102;-0.002119653;0.70748311;0.706722483;-0.002320847;-0.001898044;0.16020775;0
171;44657962;0.00254654;-0.002114473;0.707482352;0.70672326;0.000345607;0.006403786;0.14670563;0
172;44674629;0.002534403;-0.002117831;0.707481486;0.70672416;-0.018606672;-0.009021961;0.14610672;0
173;44691296;0.002536437;-0.002108218;0.707481576;0.706724092;0.000170289;-0.001479425;0.14848518;0
174;44707963;0.002526202;-0.002103771;0.707487075;0.706718636;-0.001623961;-0.006172415;0.14037514;0
175;44724630;0.002522452;-0.002093769;0.707487443;0.706718311;-0.00357481;-0.00121042;0.13345909;0
176;44741297;0.002505227;-0.002091172;0.70748567;0.706720155;-0.014177091;-0.003233845;0.15601826;0
177;44757964;0.002500171;-0.002091245;0.707480098;0.706725751;0.000660146;0.00590494;0.15527725;0
178;44774631;0.002494339;-0.002085196;0.707481079;0.706724807;0.014591568;-0.001467377;0.15053177;0
179;44791298;0.002492943;-0.002072328;0.707482059;0.706723869;-0.007850474;-0.023826068;0.13347816;0
180;44807965;0.00249562;-0.002067659;0.707476924;0.706729014;-0.000890699;0.008767938;0.15550995;0
181;44824632;0.00250092;-0.002057859;0.707472409;0.706733543;-0.00032591;0.001914689;0.1503563;0
182;44841299;0.002491955;-0.002046799;0.707476917;0.706729094;-0.003593306;-0.01029522;0.14111042;0
183;44857966;0.002482552;-0.00204528;0.707477531;0.706728517;-0.012543743;0.005665648;0.15045452;0
184;44874633;0.002476153;-0.002037852;0.707479502;0.706726588;-0.001315821;-0.010787071;0.15480232;0
185;44891300;0.002469226;-0.002036637;0.707477729;0.706728391;0.007379169;0.002866617;0.13925934;0
186;44907967;0.002464957;-0.002024606;0.707473307;0.706732867;-0.00373736;-0.001445277;0.13047504;0
187;44924634;0.002455924;-0.002028313;0.707474089;0.706732104;-0.003619373;-0.007343155;0.1174736;0
188;44941301;0.002458378;-0.002019801;0.707473236;0.706732974;-0.006156413;0.002334055;0.1483345;0
189;44957968;0.002457877;-0.002014268;0.707464871;0.706741366;-0.002384101;-0.012444503;0.15000343;0
190;44974635;0.002463168;-0.002008468;0.70746723;0.706739002;-0.001724738;-0.003150803;0.13782024;0
191;44991302;0.002459236;-0.002009766;0.707467483;0.706738759;-0.001326968;0.005312197;0.14056396;0
192;45007969;0.002444015;-0.002004984;0.707470173;0.706736132;-0.004362917;0.005456126;0.14589691;0
193;45024636;0.002435178;-0.002002171;0.707470938;0.706735405;-0.006153703;0.001856806;0.14112186;0
194;45041303;0.002438995;-0.001998616;0.707464121;0.706742226;-0.008244918;-0.000161376;0.13883495;0
195;45057970;0.002436664;-0.001994405;0.707465647;0.706740718;-0.007459242;-0.004608876;0.14190006;0
196;45074637;0.002433432;-0.001990333;0.707467365;0.706739022;0.00241651;-0.011426223;0.1389246;0
197;45091304;0.002425404;-0.001998678;0.70746022;0.706746178;-0.006391046;-0.0014193;0.1566925;0
198;45107971;0.002420424;-0.002008286;0.707462065;0.70674432;0.000618237;0.003814989;0.17378998;0
199;45124638;0.00241181;-0.001995751;0.707468038;0.706738406;0.003479594;-0.018086696;0.15427208;0
200;45141305;0.002404753;-0.001992159;0.707470214;0.706736262;-0.002388683;-0.004112988;0.1661501;0
201;45157972;0.002399767;-0.001987244;0.707468566;0.706737943;-0.004381245;0.00655377;0.13689613;0
202;45174639;0.002401716;-0.001969968;0.707464402;0.706742153;-0.006987797;-0.006451995;0.1440897;0
203;45191306;0.002394356;-0.001971992;0.707458018;0.706748563;0.007256935;-0.008954467;0.1383133;0
204;45207973;0.0023897;-0.00197332;0.707462628;0.706743961;0.013150273;-0.004452867;0.1517477;0
205;45224640;0.002395167;-0.001964211;0.707462001;0.706744594;-0.009934257;-0.00796721;0.14848995;0
206;45241307;0.002386663;-0.001960453;0.707463027;0.706743606;-0.009410203;-0.003044016;0.13691139;0
207;45257974;0.002374481;-0.001966801;0.707464565;0.706742091;-0.003319;-0.006972756;0.13318348;0
208;45274641;0.002370074;-0.001963356;0.70746091;0.706745774;-0.010826772;-0.003767014;0.12948513;0
209;45291308;0.002361578;-0.001969934;0.707454455;0.706752245;-0.026156269;-0.011281614;0.122608185;0
210;45307975;0.002362512;-0.001953981;0.707457599;0.70674914;-0.01236795;0.010073694;0.12698269;0
211;45324642;0.002360369;-0.001942206;0.707452589;0.706754194;-0.01432109;0.006959684;0.1572752;0
212;45341309;0.002367;-0.001922947;0.70745122;0.706755595;-0.015228218;-0.008081219;0.15137196;0
213;45357976;0.002359811;-0.001922036;0.707447566;0.706759279;-0.008761009;0.000535411;0.1574421;0
214;45374643;0.002353498;-0.001926713;0.707446499;0.706760355;-0.007271742;0.007848783;0.15084267;0
215;45391310;0.002347197;-0.001925089;0.707451421;0.706755454;-0.001737003;-0.003349754;0.1489582;0
216;45407977;0.002353157;-0.00191452;0.707444402;0.706762489;-0.007714522;-0.00651155;0.11286926;0
217;45424644;0.002356009;-0.00191299;0.707441723;0.706765165;0.004585899;0.001178458;0.14852333;0
218;45441311;0.002361036;-0.001896566;0.707443854;0.706763059;0.007140205;-0.018385299;0.13907337;0
219;45457978;0.002363504;-0.001893264;0.707444648;0.706762265;0.001703197;-0.00353367;0.13445663;0
220;45474645;0.002365476;-0.001886859;0.7074392;0.706767729;-0.005661946;-0.002965682;0.15089989;0
221;45491312;0.002371502;-0.001886739;0.707433874;0.70677304;0.003876609;-0.012492049;0.16032887;0
222;45507979;0.002372995;-0.001886206;0.707431858;0.706775054;-0.01026676;0.008589575;0.14054203;0
223;45524646;0.002367952;-0.001873205;0.707431934;0.70677503;-0.00996376;-0.008947587;0.15001202;0
224;45541313;0.002369277;-0.001864947;0.707438106;0.706768869;-0.012172376;-0.000245822;0.13078213;0
225;45557980;0.002366301;-0.001847194;0.707439056;0.706767975;0.002389605;0.011597061;0.14372444;0
226;45574647;0.002358375;-0.001839251;0.707436216;0.706770865;0.009242764;-0.00205502;0.13558578;0
227;45591314;0.002361651;-0.001827434;0.707437447;0.706769652;-0.016967455;0.001847062;0.13244915;0
228;45607981;0.002367252;-0.001822971;0.707437496;0.706769596;0.001324538;0.001373487;0.14318657;0
229;45624648;0.002365259;-0.001818113;0.707430594;0.706776524;0.000339349;0.003968068;0.15214157;0
230;45641315;0.002357405;-0.001816668;0.707427787;0.706779364;-0.007792863;0.003447163;0.13734722;0
231;45657982;0.002347526;-0.001818703;0.707425524;0.706781656;-0.008936662;0.010509831;0.15270424;0
232;45674649;0.002340917;-0.001803273;0.707424081;0.706783162;0.003014715;-0.000249559;0.16943645;0
233;45691316;0.00233835;-0.001796433;0.707423318;0.706783952;-0.018384444;-0.009710918;0.1474247;0
234;45707983;0.002334037;-0.001794696;0.707422729;0.706784559;-0.005507499;0.005944013;0.15243053;0
235;45724650;0.00232657;-0.001796972;0.707426103;0.706781202;-0.015085951;-0.005346566;0.14552784;0
236;45741317;0.002336248;-0.001788684;0.707424618;0.706782677;-0.0167799;-0.011459796;0.11597633;0
237;45757984;0.002337376;-0.001774945;0.70742539;0.706781935;-0.005967181;-0.009360698;0.14652348;0
238;45774651;0.002342132;-0.0017704;0.707427761;0.706779557;0.003728308;-0.007021963;0.16030025;0
239;45791318;0.002328392;-0.001938393;0.707394318;0.706812635;0.002488649;-0.000465605;0.13014603;0
240;45807985;0.002322328;-0.001936174;0.707392198;0.706814782;0.012842328;0.005738206;0.16541195;0
241;45824652;0.002327263;-0.001939316;0.707396861;0.70681009;-6.07E-05;-0.000695803;0.13729954;0
242;45841319;0.002313881;-0.001940696;0.707394093;0.706812901;-0.000203285;0.002708397;0.1525898;0
243;45857986;0.002302241;-0.001946414;0.707391403;0.706815615;-0.016824296;-0.00199018;0.1454649;0
244;45874653;0.002294211;-0.001945302;0.70739464;0.706812405;-0.010282099;-0.005750293;0.13811874;0
245;45891320;0.002291179;-0.001955725;0.707395349;0.706811677;-0.008884976;-0.001190996;0.1635685;0
246;45907987;0.00229163;-0.001955207;0.707395931;0.706811094;-0.006637664;-0.012378535;0.15248013;0
247;45924654;0.00228111;-0.001961953;0.707399996;0.706807041;-0.005794769;0.005736767;0.12416935;0
248;45941321;0.002274772;-0.001972577;0.707400305;0.706806722;-0.002458559;-0.001407349;0.1692276;0
249;45957988;0.002268322;-0.001972727;0.707403597;0.706803448;-0.021337245;-0.009035382;0.16435051;0
250;45974655;0.002262515;-0.001978879;0.707413003;0.706794035;0.002741191;-0.007956206;0.14781189;0
251;45991322;0.002254465;-0.001982715;0.707416399;0.706790651;0.007885677;-0.004512887;0.12934399;0
252;46007989;0.002256157;-0.001981052;0.707407762;0.706799295;-0.00244892;-0.00732767;0.13615227;0
253;46024656;0.002259528;-0.001972841;0.707401355;0.70680572;-0.011387873;-0.003552274;0.13605595;0
254;46041323;0.002259165;-0.001972303;0.707405092;0.706801983;-0.002011924;-0.002369939;0.12987614;0
255;46057990;0.002255456;-0.001967212;0.707404354;0.706802747;-0.011098228;-0.00680408;0.15029621;0
256;46074657;0.00224714;-0.001965019;0.707401624;0.706805511;0.014119369;-0.000116583;0.1441164;0
257;46091324;0.002241507;-0.001958528;0.707404941;0.706802228;-0.000340662;-0.00978575;0.14653683;0
258;46107991;0.002243044;-0.001958897;0.707396482;0.706810688;0.00119328;-0.006762343;0.1576519;0
259;46124658;0.002240175;-0.001962018;0.707403419;0.706803745;-0.000886089;0.001946602;0.15256119;0
260;46141325;0.002243672;-0.001955381;0.707401418;0.706805756;0.000659866;0.013490522;0.14607334;0
261;46157992;0.002235474;-0.001954781;0.707411557;0.706795636;0.003608784;0.00723735;0.14848042;0
262;46174659;0.002236204;-0.00196238;0.707407053;0.70680012;0.001163217;0.002447132;0.15307522;0
263;46191326;0.002230055;-0.001962936;0.707407781;0.706799409;-0.014649989;-0.017243672;0.13959694;0
264;46207993;0.002235803;-0.001955328;0.707403751;0.706803445;-0.004914268;-0.013978242;0.18030167;0
265;46224660;0.002235368;-0.001955186;0.707398609;0.706808594;0.009258047;-0.006306642;0.15096283;0
266;46241327;0.002228205;-0.001965966;0.707408672;0.706798515;0.001050483;-0.009714572;0.14289951;0
267;46257994;0.002227085;-0.001957363;0.707411868;0.706795343;0.006801862;-0.010249501;0.15482903;0
268;46274661;0.002221143;-0.00195739;0.70741101;0.706796221;-0.006337263;-0.009463985;0.1175375;0
269;46291328;0.002220486;-0.001956283;0.707410352;0.706796885;0.0022137;-0.011673988;0.14946842;0
270;46307995;0.002224321;-0.001939722;0.707412411;0.706794857;0.009472479;-0.010786044;0.15200138;0
271;46324662;0.002227903;-0.001942316;0.707416804;0.706790442;0.004071316;-0.008147767;0.14013386;0
272;46341329;0.002229591;-0.001942633;0.707414148;0.706793095;-0.000875137;-0.009752122;0.15544224;0
273;46357996;0.002217528;-0.001949595;0.707415906;0.706791354;-0.008899671;-0.01306532;0.1347723;0
274;46374663;0.002218205;-0.001949273;0.707415306;0.706791953;-0.01799472;-0.003732722;0.14416218;0
275;46391330;0.002218139;-0.001950202;0.707413888;0.70679337;-0.0016393;0.003871489;0.1491661;0
276;46407997;0.002221561;-0.001947458;0.707408962;0.706798297;0.002117869;-0.002932106;0.14314938;0
277;46424664;0.002230702;-0.001935953;0.707413586;0.706793672;-0.014998669;0.003742256;0.14104557;0
278;46441331;0.002229841;-0.001942003;0.70741513;0.706792113;-0.001982923;-0.007339191;0.1342268;0
279;46457998;0.002231478;-0.001926212;0.707418376;0.706788901;-0.000724294;-0.012895091;0.15236187;0
280;46474665;0.002241686;-0.001913996;0.707417131;0.706790149;-0.003924413;-0.006026863;0.17270565;0
281;46491332;0.002244973;-0.0019117;0.707417832;0.706789443;-0.012801873;-0.006636774;0.14202213;0
282;46507999;0.002248469;-0.00190237;0.707413672;0.706793621;0.008822643;-0.013642864;0.1545372;0
283;46524666;0.00224867;-0.001899443;0.707412614;0.706794687;-0.009818757;-0.008030796;0.13576889;0
284;46541333;0.00224005;-0.001884464;0.70741627;0.706791095;0.002255861;-0.001920668;0.15202141;0
285;46558000;0.002239434;-0.001886968;0.707423445;0.706783909;0.014879146;0.012493298;0.13778782;0
286;46574667;0.00223205;-0.00188754;0.707425399;0.706781975;-0.015090422;-0.001474976;0.16456795;0
287;46591334;0.002228178;-0.001884271;0.707417299;0.706790103;-0.009287215;-0.001314326;0.15443802;0
288;46608001;0.002219663;-0.001891904;0.707419725;0.706787681;-0.003316849;-0.005345103;0.13628197;0
289;46624668;0.002218682;-0.001899266;0.707424985;0.7067824;0.000847477;-0.011616168;0.11880684;0
290;46641335;0.00222705;-0.001891635;0.707430663;0.70677671;-0.003413378;-0.010775783;0.15650082;0
291;46658002;0.002221454;-0.001892114;0.707435094;0.706772292;0.006230033;-0.006533493;0.14894581;0
292;46674669;0.002220972;-0.001889;0.707430282;0.706777118;0.006351344;0.00141944;0.1292162;0
293;46691336;0.002216951;-0.001891631;0.707432551;0.706774853;-0.003794608;-0.003884453;0.14430523;0
294;46708003;0.002218403;-0.001887558;0.707430448;0.706776964;0.006221064;-0.002020397;0.14768028;0
295;46724670;0.002214392;-0.001889159;0.707433934;0.706773484;-0.011104208;0.00527441;0.1209631;0
296;46741337;0.00221627;-0.00188344;0.707436974;0.70677045;-0.008663977;-0.013085346;0.13704967;0
297;46758004;0.002221178;-0.001878008;0.707439781;0.706767639;0.001518547;0.001334268;0.15338516;0
298;46774671;0.002213526;-0.001878311;0.707438848;0.706768596;-0.001022181;0.009577691;0.1442852;0
299;46791338;0.002213974;-0.001874993;0.707448271;0.706759172;-0.008315548;-0.007026915;0.14623737;0
300;46808005;0.00220836;-0.001874021;0.707453584;0.706753873;-0.000996225;0.014717232;0.12905121;0
301;46824672;0.002202789;-0.001873148;0.707456788;0.706750686;-0.008268499;0.005421782;0.1656084;0
302;46841339;0.002198738;-0.001872519;0.707451817;0.706755676;-0.004641414;-0.006905237;0.14225292;0
303;46858006;0.002200745;-0.001868981;0.707447495;0.706760006;-0.011642091;-0.010217262;0.13121128;0
304;46874673;0.002201279;-0.001861649;0.707449783;0.706757733;-0.000485275;0.016197488;0.16080761;0
305;46891340;0.002196733;-0.001855647;0.707440679;0.706766875;-0.006141186;-0.007645816;0.14717197;0
306;46908007;0.002207262;-0.001845548;0.707438527;0.706769024;-0.011640331;-0.008036391;0.14035034;0
307;46924674;0.002212836;-0.001840105;0.707439761;0.706767785;-0.009811604;-0.016254425;0.16257381;0
308;46941341;0.002208899;-0.001838201;0.707441602;0.70676596;-0.014499062;-0.009777564;0.16474628;0
309;46958008;0.002204965;-0.001839805;0.707441833;0.706765736;-0.000589767;-0.008793084;0.12966728;0
310;46974675;0.002189739;-0.001847437;0.707431955;0.706775651;0.001660785;-0.004632425;0.13986015;0
311;46991342;0.002183048;-0.001844741;0.707431391;0.706776244;-0.017952478;-0.008316389;0.13878632;0
312;47008009;0.002180863;-0.001851169;0.707429596;0.70677803;-0.008080496;-0.017410735;0.14520359;0
313;47024676;0.002179863;-0.001840899;0.707426613;0.706781046;-0.004229899;-0.00377901;0.14309692;0
314;47041343;0.002170364;-0.001838259;0.707424355;0.706783342;-0.000183364;0.002968657;0.14736652;0
315;47058010;0.002165797;-0.001840112;0.70742621;0.706781495;0.005810415;-0.010669779;0.14672756;0
316;47074677;0.002170785;-0.001835914;0.707426562;0.706781138;-0.003082132;-0.010424212;0.13341904;0
317;47091344;0.002165789;-0.00183772;0.707423018;0.706784696;0.004574835;-0.003669384;0.14238167;0
318;47108011;0.002177411;-0.00182703;0.70742551;0.706782193;-0.011879043;0.003420593;0.13097572;0
319;47124678;0.002173871;-0.001831835;0.707425368;0.706782334;-0.009628408;-0.007641356;0.133461;0
320;47141345;0.00217224;-0.001826166;0.707429723;0.706777995;0.008891904;-0.009262346;0.14282703;0
321;47158012;0.002161888;-0.00181549;0.707427401;0.706780378;-0.007031355;-0.000292131;0.1670208;0
322;47174679;0.00216531;-0.001806165;0.707428143;0.706779649;-0.008146097;0.002629414;0.1596489;0
323;47191346;0.002171872;-0.001809098;0.707423081;0.706784687;0.000629245;-0.008458432;0.15268326;0
324;47208013;0.002166679;-0.001814333;0.707428449;0.706779317;-0.009011344;-0.000588908;0.13563347;0
325;47224680;0.002168642;-0.00180569;0.707428966;0.706778816;0.000425792;-0.001453812;0.15462685;0
326;47241347;0.00217494;-0.001799341;0.707431494;0.706776283;-0.006908059;0.001798888;0.14763927;0
327;47258014;0.002172789;-0.00180215;0.707432682;0.706775092;-0.008455607;-0.003775343;0.13632202;0
328;47274681;0.002177814;-0.001802661;0.707430441;0.706777319;0.003978642;0.002525822;0.16312599;0
329;47291348;0.002179326;-0.001794401;0.707430221;0.706777556;-0.002500104;-0.007258712;0.1448574;0
330;47308015;0.00218741;-0.001785113;0.707429378;0.706778398;0.006727265;-0.011114325;0.13516426;0
331;47324682;0.002182976;-0.001775491;0.707428648;0.706779167;0.007683957;0.003980263;0.14527225;0
332;47341349;0.002171677;-0.001781623;0.707432693;0.706775138;-0.013315505;3.72E-06;0.12907791;0
333;47358016;0.002170496;-0.001776467;0.707438254;0.706769587;-0.000899528;-2.28E-05;0.13788033;0
334;47374683;0.002176472;-0.001778487;0.707436136;0.706771685;-0.004332882;-0.003647805;0.12749004;0
335;47391350;0.002170352;-0.001783466;0.70743318;0.706774649;-0.005226431;-0.012875374;0.11485767;0
336;47408017;0.002163968;-0.001777399;0.707432936;0.706774928;-0.010407657;0.000498476;0.14720821;0
337;47424684;0.002151541;-0.001786542;0.707436447;0.706771429;0.005425302;-0.009354104;0.17104244;0
338;47441351;0.00215861;-0.001782277;0.707440481;0.70676738;0.018893465;-0.009639408;0.14835167;0
339;47458018;0.002165115;-0.001775085;0.707439609;0.706768251;0.005637779;-0.004214909;0.13983631;0
340;47474685;0.002160203;-0.001772426;0.707442244;0.706765635;-0.012839646;0.006646542;0.1436491;0
341;47491352;0.002153928;-0.001771561;0.707443648;0.706764252;-0.002965933;0.003820723;0.13481808;0
342;47508019;0.002150234;-0.001769581;0.707444342;0.706763573;0.000952892;-0.005653292;0.14435482;0
343;47524686;0.002144431;-0.001760563;0.707449233;0.706758717;0.000133577;-0.0041781;0.14217567;0
344;47541353;0.00214539;-0.001753266;0.707450254;0.706757711;0.002101832;-0.0024927;0.15815735;0
345;47558020;0.002151544;-0.001736644;0.70745226;0.706755725;0.005191815;-0.009048332;0.14862919;0
346;47574687;0.002153514;-0.001739434;0.70745638;0.706751588;-0.003302069;-0.003293991;0.1368885;0
347;47591354;0.002150534;-0.001741181;0.707452626;0.70675535;-0.013312097;0.010333157;0.14428806;0
348;47608021;0.002152268;-0.001733999;0.707454995;0.706752991;-0.01213192;-0.007815884;0.16488457;0
349;47624688;0.002155655;-0.001729211;0.70745538;0.706752607;-0.002085236;-0.007045949;0.1534462;0
350;47641355;0.002144762;-0.001732485;0.707457476;0.706750535;-0.009098179;-0.012238033;0.13501263;0
351;47658022;0.00214318;-0.001742155;0.7074598;0.70674819;-0.009495137;0.00423886;0.15984535;0
352;47674689;0.002126995;-0.00175325;0.707460703;0.706747307;0.006330697;-0.007863245;0.15982056;0
353;47691356;0.002113421;-0.001755867;0.707466067;0.706741972;-0.001444564;0.008321304;0.17528439;0
354;47708023;0.00210817;-0.00175856;0.70746806;0.706739986;-0.013880434;0.002641022;0.12549496;0
355;47724690;0.002105331;-0.001751269;0.707467281;0.706740792;-0.007225475;0.000170645;0.13612461;0
356;47741357;0.002115553;-0.001741526;0.707463237;0.706744833;-0.011513935;-0.005756143;0.13823128;0
357;47758024;0.002108915;-0.001737015;0.707465234;0.706742866;-0.01023871;-0.00599497;0.1644907;0
358;47774691;0.002113655;-0.001741714;0.707465747;0.706742326;0.002697494;-0.003680511;0.15572357;0
359;47791358;0.002125837;-0.001724724;0.707378022;0.706830135;-0.010246867;-0.002306063;0.16025066;0
360;47808025;0.002124261;-0.001722283;0.707376509;0.70683166;0.001079176;-0.003229567;0.15614986;0
361;47824692;0.002127872;-0.001711044;0.707382233;0.706825948;-0.008222651;-0.000919288;0.13946724;0
362;47841359;0.002136544;-0.001698037;0.707385676;0.706822507;0.015529261;-0.006434714;0.16177368;0
363;47858026;0.002132527;-0.001695983;0.707385518;0.706822683;-0.004456178;0.005463195;0.15459919;0
364;47874693;0.002127403;-0.001688511;0.707381544;0.706826693;-0.002832049;-0.007672795;0.1504221;0
365;47891360;0.002135562;-0.001685793;0.707385939;0.706822276;-0.002064897;-0.004810037;0.13620663;0
366;47908027;0.002132791;-0.00168416;0.707391499;0.706816725;-0.003153628;0.002169563;0.16541958;0
367;47924694;0.002134518;-0.001681413;0.707393481;0.706814742;0.001166738;0.005345864;0.15073013;0
368;47941361;0.002125208;-0.001683888;0.707395332;0.706812912;-0.010263519;-0.006566591;0.15544033;0
369;47958028;0.002129269;-0.001688366;0.707395338;0.706812883;0.005080422;0.001992632;0.16294003;0
370;47974695;0.002131065;-0.001694844;0.707395162;0.706813039;-0.016282806;-0.002366087;0.1502428;0
371;47991362;0.002118715;-0.001685322;0.707387939;0.706820326;-0.007559516;-0.00346648;0.12585735;0
372;48008029;0.002116981;-0.001691966;0.707384269;0.706823989;-0.005235735;-0.001431168;0.13805771;0
373;48024696;0.002122083;-0.00169778;0.707388222;0.706820004;-0.003294916;-0.007249035;0.11984539;0
374;48041363;0.002109012;-0.001708002;0.707393741;0.706814494;-0.001583031;0.011294675;0.15342808;0
375;48058030;0.002100072;-0.001715786;0.707394958;0.706813284;0.001012178;0.020946706;0.15541363;0
376;48074697;0.002104116;-0.001714751;0.707396743;0.706811489;-0.001336971;0.006016249;0.15218449;0
377;48091364;0.002102436;-0.001719042;0.707395991;0.706812236;-0.003424302;-0.005676953;0.16471195;0
378;48108031;0.002097178;-0.001720795;0.707400128;0.706808106;-0.007760398;-0.006626227;0.138834;0
379;48124698;0.002101182;-0.00172058;0.707401549;0.706806673;-0.004682568;0.011139229;0.15809917;0
380;48141365;0.002094671;-0.001716311;0.707400525;0.706807728;-0.012639462;-0.001029368;0.1475153;0
381;48158032;0.002095361;-0.00171713;0.707394924;0.70681333;-0.005995875;-0.004794849;0.15945816;0
382;48174699;0.002103881;-0.001711167;0.707390407;0.706817839;-0.000112986;0.000228395;0.13940334;0
383;48191366;0.002096138;-0.001708625;0.707390954;0.70681732;0.011246725;-0.004395501;0.1637497;0
384;48208033;0.002100547;-0.001699446;0.707390297;0.706817987;0.005725788;0.004545513;0.13023281;0
385;48224700;0.002107003;-0.001687393;0.707392383;0.706815909;-0.009707866;0.003272712;0.16017818;0
386;48241367;0.002103435;-0.001684607;0.707392297;0.706816013;0.000857424;-0.015002329;0.16658497;0
387;48258034;0.002098416;-0.001693444;0.707389838;0.706818467;-0.006936725;0.005063428;0.1292715;0
388;48274701;0.002099894;-0.001677251;0.707388319;0.706820022;0.000230721;-0.00038841;0.15729141;0
389;48291368;0.002091579;-0.001671126;0.707387276;0.706821105;-0.00431665;0.004196442;0.14850807;0
390;48308035;0.002085196;-0.001668619;0.707388387;0.706820018;0.006490984;-0.012912626;0.14374256;0
391;48324702;0.002083868;-0.001673925;0.707390619;0.706817776;0.002326127;0.000935639;0.15871239;0
392;48341369;0.002081509;-0.001666181;0.707392991;0.706815426;0.000344378;0.020728284;0.13771725;0
393;48358036;0.002090098;-0.001660636;0.707397511;0.70681089;-0.011056208;-0.003612972;0.13745022;0
394;48374703;0.002086906;-0.001657513;0.70740355;0.706804863;0.00731706;-0.009171033;0.16083431;0
395;48391370;0.002083623;-0.001649846;0.707402803;0.706805639;-0.007647747;0.006571057;0.13654423;0
396;48408037;0.002080472;-0.001649471;0.707403774;0.706804676;-0.011412096;0.01874981;0.15190506;0
397;48424704;0.002070465;-0.001654722;0.707402074;0.706806395;-0.003720178;0.014945452;0.14556122;0
398;48441371;0.002075348;-0.001644094;0.707400049;0.706808433;-0.001968395;-0.00937018;0.14053154;0
399;48458038;0.002079771;-0.001646557;0.707393126;0.706815343;-0.016361456;-0.003599564;0.14736557;0
400;48474705;0.002084936;-0.001634894;0.707397275;0.706811202;0.002151145;0.007735329;0.14150715;0
401;48491372;0.002084946;-0.001638959;0.707396113;0.706812356;-0.001713367;-0.007743827;0.14708996;0
402;48508039;0.002098642;-0.001621945;0.707397376;0.70681109;0.009501899;-0.021617562;0.16545105;0
403;48524706;0.002100506;-0.001619296;0.707403082;0.70680538;0.002617784;0.00331453;0.14857292;0
404;48541373;0.002102626;-0.001608472;0.707398691;0.706809793;-0.008497404;0.002565775;0.13418388;0
405;48558040;0.002099076;-0.001608027;0.707400597;0.706807897;-0.001068699;-0.001651048;0.13933659;0
406;48574707;0.002087632;-0.001616111;0.707398634;0.706809877;-0.001289977;0.009235038;0.1423912;0
407;48591374;0.00207784;-0.001609583;0.70739879;0.706809765;-0.015026469;0.002675981;0.14325237;0
408;48608041;0.00207043;-0.001601569;0.707401268;0.706807325;-0.003177237;-0.003710168;0.14803791;0
409;48624708;0.00206873;-0.001595906;0.707397523;0.70681109;-0.005899708;-0.008375673;0.14275932;0
410;48641375;0.00206722;-0.00158428;0.707393558;0.70681509;0.001329651;0.006578301;0.1432352;0
411;48658042;0.002057052;-0.001582986;0.707393257;0.706815423;-0.006504003;0.004112834;0.15577316;0
412;48674709;0.00205401;-0.00158269;0.707394788;0.706813901;0.002871695;-0.005936487;0.15006065;0
413;48691376;0.002049101;-0.001577291;0.707396017;0.706812697;-0.008347231;0.006255269;0.12521553;0
414;48708043;0.002055564;-0.001572338;0.707391397;0.706817313;-0.00794041;-0.008014564;0.14067364;0
415;48724710;0.002067001;-0.001562288;0.707388434;0.706820267;0.001692971;-0.003644365;0.13646412;0
416;48741377;0.002069762;-0.001558998;0.707381827;0.706826879;-0.003479175;0.012844913;0.13446712;0
417;48758044;0.002064267;-0.001552538;0.707382017;0.706826718;-0.002642454;-0.005068949;0.17057228;0
418;48774711;0.00206063;-0.001560731;0.707383578;0.706825149;0.002625886;-0.008131974;0.13468552;0
419;48791378;0.002059062;-0.001564246;0.707385544;0.706823178;0.002250105;-0.000820886;0.16037655;0
420;48808045;0.002050254;-0.001563622;0.707383335;0.706825416;0.004081598;-0.00874111;0.15785027;0
421;48824712;0.002051207;-0.001570702;0.707394275;0.706814449;-0.007754279;0.003079268;0.14565277;0
422;48841379;0.002046932;-0.001567961;0.707390522;0.706818223;0.007393669;-0.002855671;0.14913654;0
423;48858046;0.002053006;-0.001560797;0.707396643;0.706812096;-0.007164233;0.009460961;0.13157749;0
424;48874713;0.002060157;-0.001562233;0.707395703;0.706813013;0.004044858;-0.010398713;0.15201092;0
425;48891380;0.002062164;-0.001563781;0.707399474;0.706809229;-0.005744479;-0.006243206;0.132411;0
426;48908047;0.00205795;-0.001561171;0.707398841;0.70680988;-0.00465069;-0.00248734;0.13939095;0
427;48924714;0.002057453;-0.001559592;0.707407146;0.706801573;0.001755778;-0.001390013;0.15224838;0
428;48941381;0.002053791;-0.001559183;0.707403229;0.706805505;0.000492259;-0.007040599;0.16499805;0
429;48958048;0.002053705;-0.001555581;0.707401728;0.706807016;0.000992789;-0.00998365;0.14363384;0
430;48974715;0.002054353;-0.001546885;0.707402456;0.706806305;-0.00714719;-0.004573498;0.151083;0
431;48991382;0.002061699;-0.001538729;0.707407715;0.706801037;0.001442497;0.004006896;0.12860775;0
432;49008049;0.002079079;-0.001541384;0.707399149;0.706809554;-0.009901987;-0.012104051;0.15732002;0
433;49024716;0.002075039;-0.001543692;0.707396689;0.706812023;0.001938528;-0.015267269;0.14940739;0
434;49041383;0.002076074;-0.001540662;0.707385644;0.706823081;-0.010530058;-0.003294043;0.11691952;0
435;49058050;0.002106374;-0.001508541;0.707386688;0.706822015;0.007010679;-0.02049713;0.18418407;0
436;49074717;0.002078377;-0.001537049;0.707386786;0.706821939;-0.009772434;0.011465851;0.15216446;0
437;49091384;0.00206502;-0.001552362;0.707385506;0.706823225;-0.002701238;-0.005192814;0.123747826;0
438;49108051;0.002079284;-0.001539841;0.707384085;0.706824633;-0.005403398;-0.00637371;0.15789604;0
439;49124718;0.002071032;-0.00154659;0.707383672;0.706825056;-0.00776755;0.000921111;0.15022087;0
440;49141385;0.002071806;-0.001531916;0.707380239;0.706828521;0.002041176;0.002102384;0.1526432;0
441;49158052;0.002061493;-0.001535785;0.707381388;0.706827393;-0.005671166;0.000857417;0.14217281;0
442;49174719;0.002065491;-0.001531257;0.707377644;0.706831138;-0.006404205;-0.005276841;0.13863182;0
443;49191386;0.002079072;-0.001526253;0.707376734;0.70683202;-0.000848595;-0.001097672;0.15034771;0
444;49208053;0.002079092;-0.001533212;0.70737879;0.706829947;-0.002834033;0.013515884;0.14464855;0
445;49224720;0.002071703;-0.001536222;0.707375258;0.706833497;0.005989896;-0.006899649;0.12422371;0
446;49241387;0.002070143;-0.00154417;0.707376954;0.706831787;0.000732899;-0.002990446;0.15696335;0
447;49258054;0.002068033;-0.001545301;0.707372805;0.706835942;-0.019090604;-0.002189949;0.1337986;0
448;49274721;0.002063532;-0.001551316;0.707379301;0.706829441;-0.004105514;-0.003263108;0.14130211;0
449;49291388;0.002065333;-0.001548149;0.707384932;0.706823808;0.000670232;-0.017037135;0.14160919;0
450;49308055;0.002065913;-0.001542542;0.707387179;0.706821569;0.000358962;-0.011170605;0.14530659;0
451;49324722;0.002076091;-0.001544484;0.707390122;0.706818591;0.004675053;0.005025808;0.12797642;0
452;49341389;0.002069766;-0.001543911;0.707388172;0.706820562;-0.00113282;0.001303646;0.14372349;0
453;49358056;0.00206164;-0.00155412;0.707387088;0.706821648;0.000326385;-0.002001356;0.12504196;0
454;49374723;0.002069886;-0.00155132;0.707383593;0.706825128;-0.006965753;-0.0054276;0.14223099;0
455;49391390;0.002081944;-0.001556451;0.707387389;0.706821282;-0.012029775;-0.004519533;0.13810635;0
456;49408057;0.002074833;-0.001556081;0.707390267;0.706818423;0.010101975;-0.000284232;0.15393257;0
457;49424724;0.00207911;-0.001554717;0.707393258;0.70681542;-0.004036448;-0.008172087;0.15289783;0
458;49441391;0.002081095;-0.001556032;0.707388364;0.70682031;-0.004737804;-0.00669744;0.16760063;0
459;49458058;0.002076133;-0.001562796;0.707381599;0.70682708;-0.00101609;-0.005200588;0.1245842;0
460;49474725;0.00207226;-0.001571542;0.707381424;0.706827246;0.001125695;-0.000102606;0.15154552;0
461;49491392;0.002060052;-0.001565818;0.707386322;0.706822393;-0.006824297;-0.002136725;0.14933205;0
462;49508059;0.002062135;-0.001553307;0.707386949;0.706821788;-0.005268675;-0.008055358;0.14732361;0
463;49524726;0.002069588;-0.001549367;0.707392309;0.70681641;-0.003327996;-0.005930927;0.1414547;0
464;49541393;0.002072925;-0.0015525;0.707386991;0.706821716;-0.007065133;-0.004852686;0.14650154;0
465;49558060;0.002069118;-0.001552973;0.707387212;0.706821505;-0.004999231;-0.006687584;0.146842;0
466;49574727;0.002073202;-0.001544414;0.7073953;0.706813417;-0.008767799;-0.002824694;0.15779686;0
467;49591394;0.002073322;-0.001548026;0.707390912;0.7068178;-0.011644801;-0.001486878;0.14502239;0
468;49608061;0.002075647;-0.001546191;0.707387412;0.7068213;-0.012303941;-0.003040181;0.13607693;0
469;49624728;0.002074905;-0.00154457;0.707395105;0.706813607;0.004165248;-0.005986829;0.14139652;0
470;49641395;0.002073451;-0.0015329;0.70739493;0.706813812;-0.005984643;-0.012374097;0.14195347;0
471;49658062;0.002072165;-0.001526906;0.707396784;0.706811973;0.014874228;0.002428769;0.13276005;0
472;49674729;0.002072472;-0.001528488;0.707395762;0.706812992;0.001899972;-0.004019748;0.16453934;0
473;49691396;0.002063504;-0.001536297;0.707397231;0.70681153;-0.007992544;0.001337264;0.15558243;0
474;49708063;0.002061725;-0.001541981;0.707393707;0.70681505;0.003482416;0.001703853;0.14625168;0
475;49724730;0.002061759;-0.001544118;0.707397096;0.706811654;-0.005963549;-0.00689709;0.13923836;0
476;49741397;0.002057037;-0.001538901;0.707407562;0.706801203;0.007235394;-0.006359977;0.14053631;0
477;49758064;0.002058692;-0.001524733;0.707412779;0.706796008;0.009082337;0.001467663;0.13542366;0
478;49774731;0.002056536;-0.001525488;0.707417538;0.706791249;0.000749858;-0.013027777;0.14381409;0
479;49791398;0.002011507;-0.001565069;0.707391043;0.70681781;-0.006316113;-0.012238148;0.1437378;0
480;49808065;0.002009024;-0.001567519;0.707396291;0.706812559;-0.005087239;-0.015828539;0.14689255;0
481;49824732;0.002013894;-0.001562249;0.707399271;0.706809575;-0.002849092;0.000589271;0.1859932;0
482;49841399;0.002014897;-0.001562108;0.707402569;0.706806271;-0.025001908;-0.005423227;0.15968895;0
483;49858066;0.002019193;-0.001553727;0.707402756;0.706806091;-0.005218441;0.006974177;0.14925575;0
484;49874733;0.002018692;-0.001551602;0.70740195;0.706806903;-0.006287559;0.006310148;0.13548756;0
485;49891400;0.002023576;-0.001549936;0.707405273;0.706803567;-0.005333885;-0.005673936;0.14057636;0
486;49908067;0.00202419;-0.001554514;0.70740239;0.70680644;-0.012576012;-0.014507332;0.13483334;0
487;49924734;0.002030411;-0.001571527;0.707401343;0.706807433;0.007707006;-0.007740254;0.15510654;0
488;49941401;0.002032865;-0.001570877;0.707403011;0.706805758;-0.012819837;-0.010696593;0.13211346;0
489;49958068;0.002040065;-0.001572138;0.707404326;0.706804419;0.001296599;0.000725272;0.14135933;0
490;49974735;0.002035151;-0.001571663;0.707406965;0.706801793;-0.015224362;-0.008355917;0.15063572;0
491;49991402;0.002043261;-0.001566321;0.707407421;0.706801324;-0.006415884;0.000122213;0.15214157;0
492;50008069;0.002043009;-0.00155961;0.707394606;0.706814166;0.00538574;0.003276449;0.14117622;0
493;50024736;0.002040481;-0.001566197;0.707394328;0.706814437;-0.011104906;0.001326172;0.14729404;0
494;50041403;0.002028677;-0.001572696;0.707396977;0.706811806;-0.000226949;-0.004403796;0.16445637;0
495;50058070;0.002021846;-0.001565868;0.707390529;0.706818294;0.002484654;-0.003349447;0.1458044;0
496;50074737;0.002021521;-0.001569717;0.707390446;0.706818369;-0.012306344;-0.002158122;0.13108444;0
497;50091404;0.002026808;-0.001565439;0.707393584;0.706815222;0.00726459;-0.01611898;0.15066814;0
498;50108071;0.002023485;-0.001569158;0.70738831;0.706820502;-5.85E-05;0.002208553;0.15997124;0
499;50124738;0.002028772;-0.001572565;0.707388471;0.706820318;-0.000395478;-0.004712883;0.15074635;0
500;50141405;0.002030636;-0.001577545;0.707392767;0.706816002;-0.004857132;-0.006894383;0.15085983;0
501;50158072;0.002040373;-0.001578491;0.70740296;0.706805771;0.010743234;0.009126872;0.16004848;0
502;50174739;0.002032336;-0.001580644;0.707407721;0.706801024;0.000219993;-0.002187738;0.15441513;0
503;50191406;0.002037598;-0.001570858;0.707410585;0.706798164;-0.014087435;-0.007631675;0.14485836;0
504;50208073;0.00203419;-0.00158178;0.707412849;0.706795883;-0.005853134;-0.018706854;0.14083004;0
505;50224740;0.002030738;-0.001586444;0.707417596;0.706791132;-0.002295003;-0.004336549;0.11815071;0
506;50241407;0.002026952;-0.001582407;0.70742277;0.706785973;-9.12E-05;-0.010010454;0.14236546;0
507;50258074;0.002025744;-0.001576184;0.707420591;0.706788171;-0.002074647;-0.01682498;0.13644981;0
508;50274741;0.002028678;-0.001581727;0.707416681;0.706792064;0.004442153;0.001278774;0.15710068;0
509;50291408;0.002022221;-0.001588155;0.70741331;0.706795442;-0.004122166;-0.014091891;0.15239334;0
510;50308075;0.002010139;-0.001587578;0.707411575;0.706797214;-0.008217091;-0.015591502;0.13240623;0
511;50324742;0.002014971;-0.001584362;0.70740966;0.706799124;-0.01161513;0.00136322;0.130517;0
512;50341409;0.002018921;-0.0015842;0.707405091;0.706803687;-0.008697337;-0.0059807;0.15446377;0
513;50358076;0.002013224;-0.001583819;0.707408567;0.706800225;0.00421389;0.002029505;0.1446352;0
514;50374743;0.002012795;-0.001588013;0.707416197;0.70679258;-0.008146656;-0.015170142;0.15611935;0
515;50391410;0.002007855;-0.001594419;0.707419977;0.706788796;0.0003213;0.00195029;0.13934422;0
516;50408077;0.002008605;-0.001586584;0.707414854;0.706793939;0.002305732;-0.003156834;0.14292812;0
517;50424744;0.002009284;-0.001575396;0.707414;0.706794817;0.002556541;-0.004879281;0.1468525;0
518;50441411;0.002014663;-0.001570345;0.707413021;0.706795793;-0.011983787;-0.003839607;0.14073658;0
519;50458078;0.002008692;-0.001577353;0.707412025;0.706796791;0.004127446;-0.001486997;0.16864681;0
520;50474745;0.0020061;-0.001584994;0.707406148;0.706802664;-0.00369696;0.001946106;0.15719986;0
521;50491412;0.002019745;-0.001586892;0.707401851;0.706806921;-0.007827479;-0.003944057;0.14119434;0
522;50508079;0.002008692;-0.001584733;0.707404235;0.706804571;0.012965484;-0.010096157;0.15206528;0
523;50524746;0.002009235;-0.001588133;0.707405782;0.706803013;0.002407179;-0.007393341;0.15237522;0
524;50541413;0.002001183;-0.001586329;0.707397125;0.706811705;0.005962264;0.005510419;0.09008694;0
525;50558080;0.002056841;-0.001530818;0.707401382;0.706807407;-0.00479005;0.002058827;0.32369995;0
526;50574747;0.001952286;-0.001632146;0.70740799;0.706800864;-0.002493622;0.002171973;0.04109955;0
527;50591414;0.001981011;-0.001596687;0.707398547;0.706810315;-0.006002441;-0.009676605;0.06977081;0
528;50608081;0.002017895;-0.001558851;0.707395185;0.70681366;0.002962469;-0.003410214;0.21569633;0
529;50624748;0.001981329;-0.001591412;0.707398764;0.706810109;0.005283762;-0.005104184;0.12309742;0
530;50641415;0.001998508;-0.001578421;0.707401218;0.706807634;-0.008984131;-0.003902571;0.1544733;0
531;50658082;0.001991313;-0.001594082;0.707408114;0.706800717;-0.014781694;-0.015403804;0.1568346;0
532;50674749;0.00198768;-0.001603565;0.707406899;0.706801922;-0.006811781;0.017488625;0.09605408;0
533;50691416;0.002012252;-0.001579002;0.707405736;0.706803071;0.006291778;-0.003937376;0.18491364;0
534;50708083;0.00200038;-0.001572838;0.707413261;0.706795587;0.001575878;-0.011226201;0.15676022;0
535;50724750;0.00197714;-0.001588843;0.707412723;0.706796156;-0.016289484;0.002483893;0.11442089;0
536;50741417;0.001994684;-0.001572683;0.707406758;0.706802113;-0.012128791;-0.01242784;0.19474125;0
537;50758084;0.001978502;-0.001585837;0.707407988;0.706800898;-0.001772346;0.00340728;0.13842964;0
538;50774751;0.001978111;-0.001588722;0.707399819;0.706809068;-0.002682603;0.004297218;0.11357689;0
539;50791418;0.001987006;-0.001576504;0.707398139;0.706810753;-0.014379678;-0.001376323;0.17142487;0
540;50808085;0.001968534;-0.001590894;0.707401363;0.706807545;-0.008819318;-0.004046772;0.14166832;0
541;50824752;0.001970993;-0.001595632;0.707399374;0.706809519;0.004099591;0.009059064;0.13640976;0
542;50841419;0.001966959;-0.001589683;0.707397985;0.706810933;0.002191209;-0.005205533;0.15146255;0
543;50858086;0.001966618;-0.001585862;0.707393738;0.706815193;0.005448519;-0.002019733;0.11903477;0
544;50874753;0.001963854;-0.001581782;0.707394274;0.706814673;0.004912926;-0.013330801;0.14315319;0
545;50891420;0.001974143;-0.001576562;0.707394897;0.706814033;0.00391441;-0.002010604;0.17419243;0
546;50908087;0.001966826;-0.00159048;0.707391173;0.706817749;0.001253852;-0.006846729;0.14959145;0
547;50924754;0.001967049;-0.00158822;0.707390833;0.706818093;0.007461617;-0.007574135;0.14461517;0
548;50941421;0.001961596;-0.001576519;0.707388976;0.706819994;0.001487451;0.000592135;0.1671524;0
549;50958088;0.00196034;-0.001584025;0.707393105;0.706815848;-0.001136815;0.003567351;0.16099072;0
550;50974755;0.00197419;-0.001582836;0.70739205;0.706816868;-0.006636547;0.012419211;0.1390543;0
551;50991422;0.00197549;-0.001591837;0.707394554;0.706814338;0.007686191;-0.007613379;0.16706944;0
552;51008089;0.001972678;-0.001587275;0.707394354;0.706814557;-0.004186202;0.011586214;0.13752842;0
553;51024756;0.001965793;-0.001585445;0.707395886;0.706813047;0.003945786;-0.003076216;0.14088535;0
554;51041423;0.001968198;-0.001584517;0.707398205;0.706810721;-0.008575829;0.005178865;0.15470505;0
555;51058090;0.001960902;-0.001591049;0.707399727;0.706809203;-0.005449357;0.002721613;0.13972282;0
556;51074757;0.001959239;-0.00159351;0.70739613;0.706812803;-0.003620323;8.65E-05;0.16436672;0
557;51091424;0.00196027;-0.001590772;0.707397271;0.706811663;-0.015895208;-0.004954909;0.13626099;0
558;51108091;0.001954049;-0.001589406;0.707404397;0.706804552;0.000856222;-0.000749697;0.15546131;0
559;51124758;0.001954053;-0.001588711;0.707403552;0.706805399;-0.005923065;-0.00207383;0.15180016;0
560;51141425;0.001960703;-0.001586071;0.707411545;0.706797386;-0.006622409;-0.012511162;0.16358852;0
561;51158092;0.001956354;-0.00157998;0.707407452;0.706801509;-0.006481736;-0.006334399;0.15065765;0
562;51174759;0.001959419;-0.001569163;0.707416347;0.706792622;0.002461939;-0.001372062;0.14944172;0
563;51191426;0.00196015;-0.001568258;0.707415296;0.706793674;0.012843278;-0.000976654;0.13354874;0
564;51208093;0.001962069;-0.001562942;0.70742012;0.706788852;0.013133956;-0.009326002;0.1413641;0
565;51224760;0.00195869;-0.001561312;0.707417518;0.706791469;-0.001594206;-0.013590143;0.16751385;0
566;51241427;0.00195524;-0.001564795;0.707419562;0.706789425;-0.015518476;-0.006864792;0.17294121;0
567;51258094;0.001951459;-0.001572602;0.707421452;0.706787527;-0.001135586;-0.000428027;0.15143967;0
568;51274761;0.001945782;-0.001568867;0.707426655;0.706782343;0.004869313;-0.009789486;0.14873886;0
569;51291428;0.0019435;-0.001571885;0.707426472;0.706782526;-0.003939807;-0.002360045;0.15545559;0
570;51308095;0.001949814;-0.001575328;0.707424351;0.706784624;-0.006634619;-0.002894933;0.1385746;0
571;51324762;0.001954179;-0.001566133;0.707426385;0.706782596;0.000187779;-0.011030379;0.13876247;0
572;51341429;0.001946045;-0.001564011;0.707422385;0.706786627;-0.004867581;0.002682903;0.14537334;0
573;51358096;0.001942114;-0.001568377;0.707421501;0.706787512;0.000480748;-0.004180059;0.14198875;0
574;51374763;0.001935334;-0.001568352;0.707422797;0.706786234;0.012140665;0.001509111;0.16020012;0
575;51391430;0.00192303;-0.001560375;0.70742549;0.70678359;-0.001246979;-0.00985674;0.14309978;0
576;51408097;0.001927084;-0.00155243;0.707418674;0.706790418;0.015801221;-0.00934032;0.15532207;0
577;51424764;0.001923241;-0.001547447;0.707422778;0.706786332;0.007744696;-0.002317382;0.1688633;0
578;51441431;0.001926038;-0.0015453;0.707422965;0.706786143;-0.007540545;-0.00949731;0.15013313;0
579;51458098;0.001922447;-0.001552514;0.70742514;0.706783959;-0.006535798;0.002972422;0.1404295;0
580;51474765;0.001925238;-0.001545656;0.707424536;0.706784571;0.005610678;-0.011556014;0.18091488;0
581;51491432;0.001914053;-0.001539932;0.707427671;0.706781476;0.005727128;-0.00897392;0.14725113;0
582;51508099;0.001927436;-0.001540563;0.707432199;0.706776906;-0.003303717;-0.000814579;0.13187885;0
583;51524766;0.001937562;-0.001539674;0.707431436;0.706777645;-0.002327049;5.86E-05;0.14251995;0
584;51541433;0.00193427;-0.001540578;0.707432454;0.706776633;-0.003827771;-0.014938062;0.14762974;0
585;51558100;0.001930364;-0.001536668;0.707437496;0.706771605;-0.00483995;0.010903758;0.14552021;0
586;51574767;0.001930143;-0.001534556;0.70743881;0.706770295;-0.018803893;0.004983724;0.14151096;0
587;51591434;0.00192799;-0.001526997;0.707440638;0.706768487;0.003529717;0.001616383;0.15546322;0
588;51608101;0.001923312;-0.001530228;0.707433844;0.706775294;-0.012162206;-0.011936126;0.13751602;0
589;51624768;0.001928092;-0.001525804;0.707440798;0.706768329;-0.005821786;0.008907774;0.1358242;0
590;51641435;0.001934996;-0.001522424;0.707441773;0.706767342;0.000918862;-0.002420149;0.1619215;0
591;51658102;0.001939432;-0.001519194;0.707435001;0.706774115;-0.011844985;-0.005352807;0.14613914;0
592;51674769;0.001944344;-0.001518149;0.707435535;0.706773569;-6.95E-05;-0.010069657;0.16137314;0
593;51691436;0.001938563;-0.001526843;0.707442731;0.706766364;-0.012577018;-0.026379805;0.14924812;0
594;51708103;0.0019359;-0.001529191;0.707442395;0.706766702;-0.003372755;-0.005304088;0.14818764;0
595;51724770;0.001945517;-0.001534426;0.707442029;0.706767031;-0.005507471;-0.017009122;0.15178013;0
596;51741437;0.001942042;-0.001538721;0.707439795;0.706769267;0.002264382;-0.014675239;0.15385818;0
597;51758104;0.00193664;-0.001541587;0.707448116;0.706760947;-0.002056319;-0.006080349;0.1643877;0
598;51774771;0.001929837;-0.001541178;0.707449645;0.706759436;-0.007305353;-0.011807872;0.15829659;0
599;51791438;0.001924003;-0.001500459;0.707401503;0.706807725;0.000667242;-0.00297588;0.15710068;0
600;51808105;0.001928012;-0.001497787;0.707398577;0.706810649;-0.000412242;-0.004335086;0.15565014;0
601;51824772;0.001932775;-0.001491263;0.707403326;0.706805897;0.008828734;-0.002186893;0.14316654;0
602;51841439;0.001932991;-0.001491572;0.707408519;0.706800697;0.006636686;0.008863106;0.15184498;0
603;51858106;0.001927539;-0.001491706;0.707405986;0.706803247;0.004215706;0.001628585;0.15483952;0
604;51874773;0.001914126;-0.001495308;0.707405406;0.706803857;0.007905626;0.008654449;0.12552834;0
605;51891440;0.001901267;-0.001508556;0.707403309;0.706805962;0.001013464;-0.002517042;0.13884163;0
606;51908107;0.001913557;-0.001497054;0.707407184;0.706802075;-0.011617868;-0.004731054;0.14383316;0
607;51924774;0.001911847;-0.001493632;0.707407805;0.706801465;-0.009591918;0.012899184;0.14317608;0
608;51941441;0.001914487;-0.001506537;0.707414588;0.706794642;0.000495808;-0.009780623;0.13796902;0
609;51958108;0.001910441;-0.001500131;0.70742232;0.706786928;-0.00263125;0.003154047;0.13363075;0
610;51974775;0.001911347;-0.001502461;0.707423361;0.706785878;-0.007807587;-0.008308881;0.16641521;0
611;51991442;0.001906409;-0.001499977;0.707418188;0.706791075;0.002624517;-0.007094773;0.14417839;0
612;52008109;0.001902734;-0.00149515;0.707416851;0.706792433;-0.004430809;-0.015539497;0.14949226;0
613;52024776;0.001897814;-0.001496015;0.70742219;0.7067871;-0.015372857;-0.00755199;0.14593601;0
614;52041443;0.001902281;-0.001486555;0.707424357;0.706784939;0.004778456;-0.012124656;0.16002369;0
615;52058110;0.001912181;-0.001481118;0.707427977;0.706781301;0.000469908;0.008050567;0.16113663;0
616;52074777;0.001905869;-0.001479511;0.707427015;0.706782284;-0.01649492;0.013171542;0.15604877;0
617;52091444;0.001905803;-0.001478119;0.70742983;0.70677947;-0.000467114;-0.001105132;0.13423729;0
618;52108111;0.00189948;-0.001478711;0.707435619;0.706773691;-0.0056173;0.005147692;0.16236305;0
