sep=,
DeviceTag:,Xsens_2,,,,,,,,,,,,,,,,,
FirmwareVersion:,2.2.1,,,,,,,,,,,,,,,,,
AppVersion:,2023.0.0,,,,,,,,,,,,,,,,,
SyncStatus:,Un-synced,,,,,,,,,,,,,,,,,
OutputRate:,60Hz,,,,,,,,,,,,,,,,,
FilterProfile:,General,,,,,,,,,,,,,,,,,
Measurement Mode:,Sensor fusion Mode - Extended (Quaternion),,,,,,,,,,,,,,,,,
StartTime:,2023-07-11 15:23:06.899 +0200,,,,,,,,,,,,,,,,,
© Movella Technologies B. V. 2005-2023,,,,,,,,,,,,,,,,,,,

PacketCounter,SampleTimeFine,Quat_W,Quat_X,Quat_Y,Quat_Z,FreeAcc_X,FreeAcc_Y,FreeAcc_Z,Status
1, 37668746, 0.98173994, -0.013391475, 0.036960214, 0.18612231, 0.0077590845, -0.020930117, 0.23929214, 0
2, 37685413, 0.98176533, -0.013382803, 0.03705543, 0.18596977, 0.0018752178, -0.0010129607, 0.24399662, 0
3, 37702080, 0.98177105, -0.013259589, 0.0371721, 0.18592486, 0.0072271796, 0.0056605493, 0.21429157, 0
4, 37718747, 0.981794, -0.013050993, 0.03726304, 0.18580079, 0.0034242463, -0.0126851285, 0.2363615, 0
5, 37735414, 0.98182195, -0.0128603745, 0.037365414, 0.1856455, 0.025399817, -0.02497918, 0.23438168, 0
6, 37752081, 0.9818403, -0.012721559, 0.03743622, 0.18554372, 0.023528343, -0.008042667, 0.247159, 0
7, 37768748, 0.9818598, -0.012562802, 0.037515514, 0.18543524, 0.016708516, -0.021645093, 0.24930286, 0
8, 37785415, 0.9818827, -0.01240085, 0.037591066, 0.18530942, 0.024226122, -0.016382298, 0.25758934, 0
9, 37802082, 0.9819066, -0.012235717, 0.037673343, 0.18517725, 0.017270483, -0.015288384, 0.224926, 0
10, 37818749, 0.9819268, -0.0120620765, 0.03776779, 0.18506224, 0.004351853, -0.02505618, 0.27141476, 0
11, 37835416, 0.9819487, -0.011886884, 0.037875928, 0.18493539, 0.0227791, -0.029893294, 0.24353695, 0
12, 37852083, 0.9819694, -0.011710829, 0.037975606, 0.1848156, 0.03627266, -0.037433323, 0.26524448, 0
13, 37868750, 0.9819899, -0.011536227, 0.03807733, 0.18469697, 0.033931196, -0.040614296, 0.24960232, 0
14, 37885417, 0.9820131, -0.011372817, 0.038184557, 0.18456165, 0.042104337, -0.044789035, 0.24699593, 0
15, 37902084, 0.9820321, -0.011205833, 0.038266677, 0.18445377, 0.03476568, -0.0386689, 0.2379694, 0
16, 37918751, 0.982055, -0.011035069, 0.038362175, 0.18432193, 0.028219434, -0.04600332, 0.25040817, 0
17, 37935418, 0.9820749, -0.010873632, 0.038452905, 0.18420678, 0.037572306, -0.04370357, 0.26572323, 0
18, 37952085, 0.98209673, -0.010711218, 0.038552206, 0.18407968, 0.038783632, -0.049182076, 0.26582336, 0
19, 37968752, 0.9821169, -0.01054292, 0.038659588, 0.18395872, 0.046838563, -0.050225373, 0.2501278, 0
20, 37985419, 0.98213774, -0.010373188, 0.038750667, 0.18383826, 0.03667462, -0.052580368, 0.2498579, 0
21, 38002086, 0.9821575, -0.010189089, 0.03885245, 0.18372072, 0.037135698, -0.05313718, 0.23687077, 0
22, 38018753, 0.98217654, -0.01002681, 0.03895986, 0.18360552, 0.053293005, -0.055880208, 0.23071575, 0
23, 38035420, 0.9821983, -0.009854021, 0.039052103, 0.18347926, 0.061510596, -0.06283721, 0.24271297, 0
24, 38052087, 0.9822203, -0.009686026, 0.03914519, 0.1833498, 0.05752877, -0.05946173, 0.25254345, 0
25, 38068754, 0.98224163, -0.009509683, 0.039254606, 0.18322179, 0.064367235, -0.0654674, 0.2537632, 0
26, 38085421, 0.9822638, -0.0093410155, 0.03936291, 0.18308784, 0.055764556, -0.07414018, 0.24028397, 0
27, 38102088, 0.9822829, -0.009175153, 0.039454866, 0.18297426, 0.069171645, -0.06489253, 0.25681686, 0
28, 38118755, 0.98230326, -0.00900828, 0.03955652, 0.18285145, 0.06555604, -0.0765973, 0.24638844, 0
29, 38135422, 0.98232275, -0.0088381395, 0.039654218, 0.18273365, 0.07190325, -0.08255289, 0.27104473, 0
30, 38152089, 0.98234344, -0.008661868, 0.039755248, 0.18260917, 0.07446658, -0.0697406, 0.25145245, 0
31, 38168756, 0.9823636, -0.008494427, 0.03984468, 0.18248883, 0.06390646, -0.08876275, 0.22461033, 0
32, 38185423, 0.98238474, -0.008316673, 0.039934885, 0.18236351, 0.095149435, -0.08878406, 0.2566042, 0
33, 38202090, 0.9824068, -0.00815399, 0.04003531, 0.18222994, 0.07655665, -0.09158685, 0.24307537, 0
34, 38218757, 0.98242724, -0.007980957, 0.04013439, 0.18210578, 0.09413595, -0.090339795, 0.24119282, 0
35, 38235424, 0.9824483, -0.007803802, 0.04022736, 0.18197902, 0.087467715, -0.0944841, 0.24706268, 0
36, 38252091, 0.98246664, -0.007635241, 0.040332444, 0.18186384, 0.08711345, -0.10922338, 0.2662964, 0
37, 38268758, 0.9824898, -0.007461346, 0.040425554, 0.18172504, 0.10267277, -0.1008911, 0.27550602, 0
38, 38285425, 0.98250973, -0.007297767, 0.040515743, 0.18160424, 0.096893035, -0.112426266, 0.2493372, 0
39, 38302092, 0.98253065, -0.0071234824, 0.04060532, 0.18147781, 0.09782156, -0.10337178, 0.2480135, 0
40, 38318759, 0.9825525, -0.0069488925, 0.040688396, 0.18134789, 0.09150953, -0.10671465, 0.21682358, 0
41, 38335426, 0.98257256, -0.006782483, 0.040787917, 0.18122293, 0.10356071, -0.116631225, 0.25060463, 0
42, 38352093, 0.98259443, -0.0066110557, 0.040888432, 0.18108748, 0.089974724, -0.1273792, 0.22956562, 0
43, 38368760, 0.9826162, -0.006445524, 0.040983688, 0.18095428, 0.108936444, -0.12580915, 0.23090458, 0
44, 38385427, 0.9826368, -0.0062837317, 0.041076396, 0.18082748, 0.11427312, -0.11522539, 0.24813843, 0
45, 38402094, 0.9826562, -0.006117316, 0.041187637, 0.18070197, 0.102923356, -0.12911537, 0.24902439, 0
46, 38418761, 0.9826772, -0.0059555382, 0.041291494, 0.18056938, 0.11196563, -0.1317694, 0.23903084, 0
47, 38435428, 0.98269737, -0.005791484, 0.041392706, 0.18044165, 0.11017613, -0.13219641, 0.245224, 0
48, 38452095, 0.9827183, -0.005621789, 0.041482635, 0.18031266, 0.116857186, -0.13798693, 0.23840237, 0
49, 38468762, 0.98273957, -0.0054616258, 0.04158264, 0.18017814, 0.11738333, -0.13685603, 0.22202587, 0
50, 38485429, 0.98276, -0.0053042686, 0.04168933, 0.1800468, 0.10621168, -0.15437806, 0.265625, 0
51, 38502096, 0.98278105, -0.0051394347, 0.04178225, 0.17991465, 0.12038075, -0.1429763, 0.23717499, 0
52, 38518763, 0.98280275, -0.0049697305, 0.041870445, 0.17978074, 0.13813011, -0.15120287, 0.2564621, 0
53, 38535430, 0.9828242, -0.0048040813, 0.04195775, 0.17964718, 0.13473967, -0.14638771, 0.2522335, 0
54, 38552097, 0.98284465, -0.0046373704, 0.04205513, 0.17951703, 0.12589315, -0.14359733, 0.2417593, 0
55, 38568764, 0.98286515, -0.004477867, 0.04215192, 0.17938624, 0.13665946, -0.15358427, 0.25942326, 0
56, 38585431, 0.98288643, -0.0043068533, 0.04224645, 0.17925143, 0.1342725, -0.1702502, 0.22667694, 0
57, 38602098, 0.98290676, -0.004142174, 0.04235046, 0.17911911, 0.14117958, -0.15771224, 0.22357845, 0
58, 38618765, 0.9829274, -0.0039764675, 0.042435993, 0.17898926, 0.1415284, -0.14800921, 0.25214672, 0
59, 38635432, 0.9829494, -0.0038097894, 0.04252846, 0.17885035, 0.13623707, -0.16177547, 0.250453, 0
60, 38652099, 0.9829704, -0.0036427781, 0.04261319, 0.17871812, 0.15492295, -0.16333285, 0.21509457, 0
61, 38668766, 0.9829915, -0.0034840226, 0.04268996, 0.17858668, 0.14955212, -0.18213858, 0.20952606, 0
62, 38685433, 0.9830121, -0.0033303173, 0.042788383, 0.17845254, 0.14134283, -0.1881375, 0.24699879, 0
63, 38702100, 0.983036, -0.0031674537, 0.042877287, 0.17830318, 0.15177463, -0.17872794, 0.25348377, 0
64, 38718767, 0.98306, -0.0030052506, 0.042967405, 0.17815168, 0.16095726, -0.17475598, 0.25077534, 0
65, 38735434, 0.98308206, -0.0028546685, 0.04306461, 0.17800911, 0.15883552, -0.18564597, 0.25349045, 0
66, 38752101, 0.9831051, -0.002699565, 0.043146383, 0.17786354, 0.15799971, -0.19595563, 0.22898674, 0
67, 38768768, 0.98312885, -0.002551782, 0.04322388, 0.17771621, 0.15741886, -0.19167158, 0.24882412, 0
68, 38785435, 0.9831526, -0.00239016, 0.04331059, 0.17756549, 0.17237197, -0.20611024, 0.22303104, 0
69, 38802102, 0.9831753, -0.0022384631, 0.043405026, 0.17741944, 0.1661994, -0.17708705, 0.2215147, 0
70, 38818769, 0.9831987, -0.0020809742, 0.043489914, 0.1772702, 0.16981977, -0.20035823, 0.2389574, 0
71, 38835436, 0.98322135, -0.0019369593, 0.04358369, 0.17712294, 0.17553939, -0.19952121, 0.26517296, 0
72, 38852103, 0.98324585, -0.0017799143, 0.043679398, 0.17696507, 0.16493164, -0.19694763, 0.23534203, 0
73, 38868770, 0.9832685, -0.0016264053, 0.043760017, 0.17682092, 0.17019366, -0.20638514, 0.24506855, 0
74, 38885437, 0.98329365, -0.0014698339, 0.043850414, 0.17665996, 0.1665928, -0.20964299, 0.22566319, 0
75, 38902104, 0.98331696, -0.0013219325, 0.04393001, 0.17651206, 0.18432935, -0.20859835, 0.23263931, 0
76, 38918771, 0.98334074, -0.0011706036, 0.044012137, 0.17635982, 0.17167905, -0.21305676, 0.22197247, 0
77, 38935438, 0.98336554, -0.0010209917, 0.044097748, 0.1762011, 0.17173918, -0.22307669, 0.22931767, 0
78, 38952105, 0.98339134, -8.7455846E-4, 0.044177584, 0.17603765, 0.1875868, -0.20931342, 0.21745491, 0
79, 38968772, 0.98341584, -7.293441E-4, 0.04426627, 0.1758794, 0.19123453, -0.226117, 0.23939323, 0
80, 38985439, 0.9834405, -5.851397E-4, 0.044343434, 0.1757221, 0.18830505, -0.22830184, 0.23176956, 0
81, 39002106, 0.98346657, -4.4183506E-4, 0.044416137, 0.17555757, 0.17944998, -0.22524601, 0.23099232, 0
82, 39018773, 0.98349226, -2.9980773E-4, 0.04449785, 0.17539373, 0.18521121, -0.23459825, 0.23841953, 0
83, 39035440, 0.98351824, -1.5137308E-4, 0.0445847, 0.17522584, 0.19148555, -0.23282017, 0.23286629, 0
84, 39052107, 0.98354495, -1.6105329E-5, 0.044651538, 0.17505962, 0.19939241, -0.23586239, 0.23417759, 0
85, 39068774, 0.9835699, 1.2447771E-4, 0.044742215, 0.1748952, 0.20921631, -0.2391051, 0.24902439, 0
86, 39085441, 0.9835945, 2.6885624E-4, 0.04482451, 0.17473651, 0.21074493, -0.22988856, 0.24150562, 0
87, 39102108, 0.98362076, 4.0686404E-4, 0.044902783, 0.17456745, 0.20156638, -0.2508877, 0.22672462, 0
88, 39118775, 0.98364556, 5.434632E-4, 0.04497182, 0.17440991, 0.19644956, -0.24793524, 0.24535275, 0
89, 39135442, 0.9836707, 6.731372E-4, 0.045055136, 0.17424603, 0.21430025, -0.24418573, 0.23656559, 0
90, 39152109, 0.983696, 8.023265E-4, 0.045133047, 0.17408289, 0.21273962, -0.26250538, 0.2406311, 0
91, 39168776, 0.9837236, 9.323236E-4, 0.045197167, 0.17390889, 0.21037076, -0.26574275, 0.24711227, 0
92, 39185443, 0.9837506, 0.0010605443, 0.045276973, 0.1737343, 0.21351619, -0.25296053, 0.2159481, 0
93, 39202110, 0.98377573, 0.0011873255, 0.045341726, 0.17357501, 0.2136044, -0.27018347, 0.24050808, 0
94, 39218777, 0.9838014, 0.0013053304, 0.045418687, 0.17340869, 0.21239889, -0.25393638, 0.24102592, 0
95, 39235444, 0.98382777, 0.0014177382, 0.04548908, 0.17323904, 0.2169508, -0.25953278, 0.24787045, 0
96, 39252111, 0.98385555, 0.0015393269, 0.04554789, 0.17306522, 0.2216854, -0.2605839, 0.24274349, 0
97, 39268778, 0.9838838, 0.0016569264, 0.045618113, 0.1728846, 0.21516724, -0.26459038, 0.23719883, 0
98, 39285445, 0.9839104, 0.0017766225, 0.045688972, 0.17271356, 0.22622816, -0.2558641, 0.24617958, 0
99, 39302112, 0.98393977, 0.0019048228, 0.045754597, 0.1725272, 0.21455073, -0.26318654, 0.24702835, 0
100, 39318779, 0.983968, 0.0020186708, 0.045820244, 0.17234762, 0.23131794, -0.2724793, 0.23789978, 0
101, 39335446, 0.9839952, 0.0021253757, 0.045884885, 0.17217308, 0.2185183, -0.27147612, 0.25733185, 0
102, 39352113, 0.9840226, 0.0022224218, 0.045946013, 0.17199911, 0.24157174, -0.26253518, 0.24490261, 0
103, 39368780, 0.98405135, 0.0023243262, 0.04601442, 0.17181507, 0.22659302, -0.27550167, 0.22714233, 0
104, 39385447, 0.9840812, 0.0024359222, 0.0460701, 0.17162721, 0.2290461, -0.2788988, 0.24097347, 0
105, 39402114, 0.984108, 0.0025392135, 0.046139657, 0.17145337, 0.24488632, -0.27964696, 0.24548817, 0
106, 39418781, 0.98413545, 0.0026502542, 0.046202958, 0.17127699, 0.2358759, -0.28885442, 0.22308254, 0
107, 39435448, 0.98416376, 0.002752242, 0.046258792, 0.17109768, 0.23460104, -0.2843219, 0.23008633, 0
108, 39452115, 0.98419267, 0.002856856, 0.04631486, 0.17091374, 0.23639686, -0.28486905, 0.23213577, 0
109, 39468782, 0.98422295, 0.0029539012, 0.046371102, 0.17072302, 0.23664524, -0.27763355, 0.24580479, 0
110, 39485449, 0.98424995, 0.0030426134, 0.046428066, 0.17055063, 0.24623556, -0.3075106, 0.23732758, 0
111, 39502116, 0.9842791, 0.003132306, 0.04648507, 0.17036484, 0.231461, -0.27832282, 0.2482729, 0
112, 39518783, 0.9843083, 0.0032347157, 0.04654054, 0.17017885, 0.24263723, -0.3015457, 0.23044682, 0
113, 39535450, 0.98433846, 0.0033237657, 0.04658654, 0.16999024, 0.24038818, -0.28922388, 0.2623129, 0
114, 39552117, 0.984368, 0.0034048695, 0.046637416, 0.16980319, 0.24922119, -0.29364452, 0.24596024, 0
115, 39568784, 0.9843981, 0.0034959326, 0.04668558, 0.16961335, 0.2557395, -0.31854457, 0.24508095, 0
116, 39585451, 0.984427, 0.0035875293, 0.046731997, 0.16943082, 0.25572553, -0.2948682, 0.25000858, 0
117, 39602118, 0.9844566, 0.0036752427, 0.046784505, 0.16924262, 0.25093818, -0.29233828, 0.2343483, 0
118, 39618785, 0.9844862, 0.0037576165, 0.046832655, 0.16905455, 0.24472737, -0.28545392, 0.23886395, 0
119, 39635452, 0.98361045, -0.013445813, 0.036635485, 0.176033, -0.0030746441, 8.2981976E-4, 0.24729538, 0
120, 39652119, 0.9836079, -0.01345798, 0.03663517, 0.17604657, -0.011002677, 0.0072286604, 0.23977852, 0
121, 39668786, 0.9836057, -0.013462362, 0.03663853, 0.176058, -0.0066797687, -0.017744722, 0.251976, 0
122, 39685453, 0.9836025, -0.013462762, 0.0366345, 0.17607634, -6.4508634E-4, -0.0023430584, 0.2671175, 0
123, 39702120, 0.9835989, -0.013457624, 0.036639, 0.17609598, -3.850849E-4, -0.008086545, 0.25866508, 0
124, 39718787, 0.98359495, -0.01345571, 0.03663344, 0.17611933, 0.0024462375, 0.0011992587, 0.26755047, 0
125, 39735454, 0.9835928, -0.013448957, 0.03663225, 0.17613187, -5.193603E-4, -0.006983872, 0.25282764, 0
126, 39752121, 0.9835892, -0.013450588, 0.03663482, 0.17615187, -0.003783795, 0.010650379, 0.2339611, 0
127, 39768788, 0.98358417, -0.013457327, 0.036640752, 0.17617811, 0.006072987, 0.0013102469, 0.25183678, 0
128, 39785455, 0.9835804, -0.01345916, 0.036654506, 0.17619611, -0.0036283697, -0.0017866369, 0.24589539, 0
129, 39802122, 0.983577, -0.013456035, 0.03665191, 0.17621584, -0.0012619263, -0.024040146, 0.23474884, 0
130, 39818789, 0.98357385, -0.013455616, 0.03664518, 0.17623469, -0.010785674, -0.0077397926, 0.24607849, 0
131, 39835456, 0.98357236, -0.013466727, 0.036630232, 0.17624502, -0.011173915, -0.001142724, 0.23950863, 0
132, 39852123, 0.98357075, -0.013468182, 0.036630552, 0.17625384, 0.007488578, 0.0054837507, 0.2457943, 0
133, 39868790, 0.98356855, -0.013468572, 0.036622833, 0.17626767, 0.007231147, -0.010637624, 0.25453377, 0
134, 39885457, 0.98356575, -0.013471184, 0.036614798, 0.17628498, 0.0019697917, 0.001893015, 0.24124336, 0
135, 39902124, 0.9835641, -0.013476148, 0.03662136, 0.17629263, -6.538592E-4, 0.0031861353, 0.25327206, 0
136, 39918791, 0.9835588, -0.013474283, 0.036612224, 0.17632413, 0.0056343423, -0.0036959124, 0.24625874, 0
137, 39935458, 0.9835552, -0.013468691, 0.036609255, 0.1763447, -0.007040686, -0.008444264, 0.24581718, 0
138, 39952125, 0.983553, -0.013472471, 0.036607634, 0.17635752, -0.0022206572, 0.0032836986, 0.25922585, 0
139, 39968792, 0.9835513, -0.013471192, 0.03660098, 0.17636791, 0.010800481, 0.0010831857, 0.2626133, 0
140, 39985459, 0.9835479, -0.013474521, 0.036612265, 0.17638484, -0.004933629, 0.010349809, 0.25461292, 0
141, 40002126, 0.9835442, -0.013476004, 0.036614593, 0.17640501, -0.028180653, 0.009964333, 0.23407173, 0
142, 40018793, 0.9835392, -0.013485658, 0.03660858, 0.17643337, -0.009090747, 0.008109469, 0.26177597, 0
143, 40035460, 0.98353535, -0.013489566, 0.036603015, 0.17645527, -0.007170156, 0.011831267, 0.22884655, 0
144, 40052127, 0.9835321, -0.013494887, 0.03659796, 0.17647454, 0.0056449873, 0.003687852, 0.25226402, 0
145, 40068794, 0.9835297, -0.013499854, 0.036590215, 0.1764884, -5.9216964E-4, -0.0069230343, 0.24015617, 0
146, 40085461, 0.9835272, -0.013497182, 0.036589593, 0.17650323, -0.01223686, 0.00862225, 0.23701763, 0
147, 40102128, 0.9835267, -0.013497522, 0.036585417, 0.1765069, -0.0017869023, 0.010735607, 0.25306606, 0
148, 40118795, 0.9835247, -0.013495801, 0.036579885, 0.17651983, -0.008812389, -3.2306003E-4, 0.26216602, 0
149, 40135462, 0.98352075, -0.013499548, 0.03658948, 0.17653911, -0.00816518, 0.0034645766, 0.24266624, 0
150, 40152129, 0.98351693, -0.013488026, 0.036581814, 0.17656223, -0.008620643, -0.0035422193, 0.23670101, 0
151, 40168796, 0.98351365, -0.013484042, 0.03658213, 0.176581, 0.00297655, 0.012529451, 0.27292728, 0
152, 40185463, 0.9835107, -0.013489567, 0.036586616, 0.17659646, -0.017055435, 0.009582071, 0.22758484, 0
153, 40202130, 0.98350877, -0.0134866405, 0.03658071, 0.17660874, -0.0060484842, -0.007205541, 0.25301647, 0
154, 40218797, 0.9835047, -0.013489192, 0.036585078, 0.17662974, -0.012433355, -0.0058565005, 0.24110508, 0
155, 40235464, 0.98350185, -0.013492549, 0.03658873, 0.17664537, -0.011498429, 0.010847209, 0.22652245, 0
156, 40252131, 0.9835, -0.013498364, 0.03658112, 0.17665625, -0.0010066464, 0.0027910902, 0.25440407, 0
157, 40268798, 0.983498, -0.013492188, 0.036592837, 0.17666584, -0.02458081, 0.0022314836, 0.24111748, 0
158, 40285465, 0.98349637, -0.013494775, 0.036581974, 0.17667626, -0.0061562173, -0.0096377665, 0.2606058, 0
159, 40302132, 0.9834935, -0.013481615, 0.036573887, 0.17669532, -0.018902322, -0.013609718, 0.2512846, 0
160, 40318799, 0.9834903, -0.013483909, 0.036574256, 0.17671324, 0.007525346, -0.0063812807, 0.23379612, 0
161, 40335466, 0.98348683, -0.013482418, 0.03658445, 0.17673005, -0.0047081886, -0.0061080502, 0.24552345, 0
162, 40352133, 0.98348427, -0.013483491, 0.03658559, 0.17674457, -0.018054817, 2.380413E-5, 0.22687912, 0
163, 40368800, 0.9834812, -0.013478563, 0.03658461, 0.17676187, -0.01429642, -0.004016388, 0.23912716, 0
164, 40385467, 0.9834796, -0.013468306, 0.036580596, 0.17677234, -0.014317206, -5.145129E-4, 0.21934795, 0
165, 40402134, 0.98347896, -0.013471284, 0.03657605, 0.17677605, 8.088655E-4, -0.006887845, 0.24203587, 0
166, 40418801, 0.9834771, -0.013468215, 0.03657131, 0.17678802, 0.008811691, 4.0833023E-5, 0.24626923, 0
167, 40435468, 0.9834761, -0.0134687135, 0.036570843, 0.176794, -0.005247609, -0.019951213, 0.24390793, 0
168, 40452135, 0.98347306, -0.013456943, 0.03657655, 0.1768103, -0.012605041, -0.0029186043, 0.23832226, 0
169, 40468802, 0.9834708, -0.013450679, 0.036578085, 0.17682268, -0.0068926364, 0.0035892548, 0.25248146, 0
170, 40485469, 0.9834672, -0.0134596685, 0.036574148, 0.17684281, -0.020930452, 0.0028918944, 0.26135635, 0
171, 40502136, 0.9834649, -0.0134614855, 0.036571734, 0.17685652, -0.010130082, -0.0018170346, 0.2332573, 0
172, 40518803, 0.98346347, -0.013453424, 0.036565647, 0.17686641, -0.008615223, -0.028624913, 0.24260807, 0
173, 40535470, 0.9834607, -0.013457043, 0.036561012, 0.17688203, -0.006111347, -0.0043097767, 0.25255203, 0
174, 40552137, 0.98346055, -0.013453959, 0.036554657, 0.17688438, -0.016472094, -0.0011989374, 0.23399067, 0
175, 40568804, 0.98345673, -0.013459177, 0.036560766, 0.17690419, -0.0071441727, -0.00448089, 0.26471806, 0
176, 40585471, 0.98345464, -0.013459284, 0.03655893, 0.17691657, 0.0017134503, -0.019047732, 0.24690056, 0
177, 40602138, 0.98345363, -0.013452561, 0.036556724, 0.17692274, -0.011081157, 0.0070880987, 0.2471056, 0
178, 40618805, 0.98345035, -0.013450846, 0.036561288, 0.1769402, -0.013120881, 0.001335462, 0.25141048, 0
179, 40635472, 0.9834478, -0.013446067, 0.0365664, 0.17695366, -5.885934E-4, 0.0024663678, 0.24805546, 0
180, 40652139, 0.98344505, -0.013444602, 0.036565326, 0.17696914, -0.0081745675, 0.0053556776, 0.22580147, 0
181, 40668806, 0.98344404, -0.013438267, 0.036571026, 0.17697446, -0.008376064, -0.0073197978, 0.24916267, 0
182, 40685473, 0.98344195, -0.013441487, 0.036577865, 0.17698407, -0.0014236937, 0.00259655, 0.24450397, 0
183, 40702140, 0.9834388, -0.01343578, 0.03657624, 0.1770022, 0.0020917181, -0.008344227, 0.2751131, 0
184, 40718807, 0.983438, -0.013436988, 0.0365684, 0.17700824, 9.139445E-4, -0.0094384495, 0.2706766, 0
185, 40735474, 0.98343635, -0.013433359, 0.036567725, 0.17701796, -0.013739201, -0.0125201065, 0.24307919, 0
186, 40752141, 0.98343253, -0.013430582, 0.036572896, 0.17703883, -0.005163457, 0.0016739863, 0.24337006, 0
187, 40768808, 0.983431, -0.013435945, 0.036563087, 0.17704894, -0.0041207965, -0.004246299, 0.25195503, 0
188, 40785475, 0.98342943, -0.013435664, 0.03655659, 0.17705835, -0.004467409, -0.008983921, 0.2573576, 0
189, 40802142, 0.98342687, -0.013436359, 0.03654975, 0.17707418, 7.1186083E-4, 0.004737832, 0.23860073, 0
190, 40818809, 0.98342395, -0.013437049, 0.036554802, 0.17708912, -0.018449513, 0.016366087, 0.26320076, 0
191, 40835476, 0.98342013, -0.013438626, 0.036570743, 0.177107, -0.010306238, -0.011957399, 0.25606728, 0
192, 40852143, 0.9834187, -0.013435605, 0.0365744, 0.17711489, -0.0033600144, 0.005960406, 0.24246216, 0
193, 40868810, 0.98341453, -0.013438277, 0.0365792, 0.17713645, 0.0033331648, 0.0013425166, 0.24820423, 0
194, 40885477, 0.9834119, -0.013432227, 0.036567625, 0.17715412, 0.014396888, -0.0039264243, 0.25153637, 0
195, 40902144, 0.9834113, -0.013431183, 0.03656481, 0.17715745, 0.007177811, -0.0031967522, 0.24145126, 0
196, 40918811, 0.9834109, -0.013434076, 0.036572326, 0.17715807, -0.012123259, -0.0022585983, 0.25030804, 0
197, 40935478, 0.9834092, -0.013429776, 0.036570214, 0.17716825, 0.0010667715, -0.020509856, 0.22736454, 0
198, 40952145, 0.9834062, -0.013431557, 0.03656888, 0.17718586, -0.0039036816, 0.008088292, 0.25429344, 0
199, 40968812, 0.9834054, -0.013427052, 0.036564767, 0.17719047, -0.018011205, -0.0014794043, 0.25269604, 0
200, 40985479, 0.98340374, -0.013424633, 0.03656261, 0.17720065, -0.0032494033, -0.008544705, 0.26425362, 0
201, 41002146, 0.98340154, -0.013418674, 0.036559843, 0.1772142, -0.008200411, 0.0021747113, 0.24414921, 0
202, 41018813, 0.98339856, -0.013411902, 0.036554553, 0.1772325, -0.010416738, -0.0032908372, 0.23940659, 0
203, 41035480, 0.9833968, -0.013410105, 0.03654777, 0.17724325, -0.016255036, 0.0047822273, 0.25906372, 0
204, 41052147, 0.98339343, -0.013420912, 0.036557492, 0.17725949, -0.007008668, 0.0028348009, 0.23712158, 0
205, 41068814, 0.9833912, -0.013412527, 0.036552135, 0.1772738, -0.014316703, -0.0072726505, 0.25614452, 0
206, 41085481, 0.98338825, -0.013418269, 0.036555856, 0.17728868, -0.0070798006, -0.004291351, 0.24141121, 0
207, 41102148, 0.983387, -0.01341603, 0.036545902, 0.17729785, 0.0067642285, -0.0043851845, 0.24035835, 0
208, 41118815, 0.983385, -0.013412711, 0.036553025, 0.1773075, -0.005722714, -0.0087210005, 0.23627567, 0
209, 41135482, 0.9833819, -0.013418914, 0.036540896, 0.17732625, -0.01875947, -0.0017008777, 0.24676132, 0
210, 41152149, 0.9833792, -0.013418117, 0.036535233, 0.17734294, -7.216395E-4, 0.0013596014, 0.2599144, 0
211, 41168816, 0.9833748, -0.013420796, 0.036534972, 0.17736699, -0.02041612, -0.008865292, 0.24064255, 0
212, 41185483, 0.98337334, -0.013416242, 0.03653805, 0.17737488, -0.0050298516, 0.0021848392, 0.21631718, 0
213, 41202150, 0.98337245, -0.013412643, 0.03652962, 0.17738223, -0.0046492093, 8.7034545E-4, 0.2553339, 0
214, 41218817, 0.9833721, -0.013413581, 0.03652026, 0.17738593, -0.009468232, -0.008487639, 0.25040436, 0
215, 41235484, 0.9833724, -0.013414028, 0.036515012, 0.1773853, -0.006307368, -6.2583626E-5, 0.25806808, 0
216, 41252151, 0.98337054, -0.013419906, 0.03651407, 0.17739533, -0.006523952, 0.004496061, 0.23366928, 0
217, 41268818, 0.98336804, -0.013416716, 0.036512457, 0.17741023, -0.016431779, 0.0026889306, 0.24401474, 0
218, 41285485, 0.9833631, -0.013419148, 0.03651498, 0.17743662, -0.004003452, 0.007325777, 0.23999214, 0
219, 41302152, 0.9833634, -0.013420974, 0.036503572, 0.17743726, -0.006118444, 0.011046331, 0.26751423, 0
220, 41318819, 0.9833633, -0.013414452, 0.036498666, 0.17743935, -0.008003915, 0.0028160957, 0.23228359, 0
221, 41335486, 0.9833606, -0.013415327, 0.036493152, 0.17745571, -0.011222529, 0.0064677387, 0.24587536, 0
222, 41352153, 0.9833589, -0.01340985, 0.03647779, 0.17746818, -5.864421E-5, 0.005295441, 0.26525497, 0
223, 41368820, 0.98335797, -0.013402896, 0.03648166, 0.17747302, -0.009539589, -0.0018277353, 0.23728657, 0
224, 41385487, 0.98335594, -0.013407274, 0.036474865, 0.17748503, 0.0021483786, -0.00948948, 0.24599552, 0
225, 41402154, 0.9833547, -0.013408153, 0.036468096, 0.17749359, -0.0010234099, -0.007610742, 0.2297678, 0
226, 41418821, 0.9833548, -0.013407247, 0.03646619, 0.1774934, -0.011332526, 0.009400228, 0.23447514, 0
227, 41435488, 0.9833534, -0.013417213, 0.03645401, 0.17750311, -0.008831891, -0.0031667035, 0.24992561, 0
228, 41452155, 0.9833511, -0.013425308, 0.03646053, 0.17751354, -0.015499283, -7.2859635E-4, 0.2542019, 0
229, 41468822, 0.9833493, -0.01342493, 0.036463715, 0.17752281, -0.008929287, -0.010064453, 0.25789738, 0
230, 41485489, 0.98334664, -0.013417403, 0.036461633, 0.17753895, 0.003499738, 0.010262793, 0.24226189, 0
231, 41502156, 0.98334295, -0.013409059, 0.03646273, 0.17755955, -0.0024413483, -0.0054267966, 0.24884129, 0
232, 41518823, 0.98333997, -0.013400252, 0.03646873, 0.17757563, -0.0012305785, -0.009167705, 0.2537737, 0
233, 41535490, 0.98333925, -0.013394942, 0.036467023, 0.17757978, -0.009465047, -0.003410305, 0.27791882, 0
234, 41552157, 0.9833365, -0.013393069, 0.03646747, 0.17759506, -0.0037560794, -0.006151244, 0.23247147, 0
235, 41568824, 0.98333514, -0.0133970715, 0.03646854, 0.17760225, -0.006471706, -0.006833196, 0.2518282, 0
236, 41585491, 0.98333466, -0.013403746, 0.03646535, 0.17760542, -0.014981096, 5.288736E-4, 0.25584412, 0
237, 41602158, 0.98333323, -0.013396289, 0.03645239, 0.17761616, -0.009436075, -0.002976997, 0.24873638, 0
238, 41618825, 0.9833288, -0.013395271, 0.036450364, 0.17764142, -0.010424533, 0.0011893823, 0.25637054, 0
239, 41635492, 0.9833185, -0.013568776, 0.036639456, 0.17764688, -0.0019592028, 0.0033715952, 0.2558527, 0
240, 41652159, 0.9833174, -0.013575768, 0.036636345, 0.17765251, -8.316638E-4, 0.014336498, 0.26260185, 0
241, 41668826, 0.98331636, -0.013587571, 0.036633845, 0.17765762, 5.222101E-4, -0.0029107952, 0.24382877, 0
242, 41685493, 0.9833142, -0.013599498, 0.036631722, 0.17766884, 0.0069387923, -4.5973822E-4, 0.26014805, 0
243, 41702160, 0.98331344, -0.013599982, 0.036632046, 0.17767377, 0.007000789, 2.7070212E-4, 0.2607937, 0
244, 41718827, 0.9833127, -0.013609188, 0.036643416, 0.17767468, 0.004710703, 0.0016379309, 0.25430775, 0
245, 41735494, 0.98331153, -0.013608493, 0.03665603, 0.17767881, -0.0029213424, -0.007935297, 0.24615192, 0
246, 41752161, 0.9833094, -0.013601941, 0.03666711, 0.17768815, -0.015364979, -0.0025259478, 0.2532339, 0
247, 41768828, 0.98330903, -0.013595797, 0.036664568, 0.1776909, 0.0046136705, 0.009360038, 0.26604843, 0
248, 41785495, 0.9833076, -0.01360646, 0.036666665, 0.17769854, -0.01388021, 0.0039077047, 0.26521587, 0
249, 41802162, 0.983307, -0.01360587, 0.036660194, 0.17770302, 0.009523831, 4.020998E-4, 0.272295, 0
250, 41818829, 0.9833061, -0.013609867, 0.036649857, 0.17771006, -0.0060779597, 0.013690155, 0.2439785, 0
251, 41835496, 0.9833052, -0.013609895, 0.036643844, 0.17771578, -0.0019658522, -0.003102737, 0.24939632, 0
252, 41852163, 0.98330253, -0.01360685, 0.036640983, 0.17773178, -0.0049006892, -0.010042479, 0.24977016, 0
253, 41868830, 0.98330206, -0.013613599, 0.036632847, 0.17773531, -0.008492878, -1.0597308E-4, 0.24573612, 0
254, 41885497, 0.9832999, -0.013612088, 0.036636595, 0.1777465, 0.012988813, 0.01798585, 0.25357533, 0
255, 41902164, 0.9832995, -0.013612904, 0.03663, 0.17775021, -0.0040455847, 0.011380861, 0.23791409, 0
256, 41918831, 0.9832987, -0.013616604, 0.036629137, 0.17775416, 1.1189617E-4, 0.0037077167, 0.22439957, 0
257, 41935498, 0.9832969, -0.013625244, 0.03662993, 0.17776367, -0.007921802, -0.0042062486, 0.25189877, 0
258, 41952165, 0.9832935, -0.013628423, 0.03663319, 0.17778155, -0.013486828, 0.005947526, 0.23644638, 0
259, 41968832, 0.98329085, -0.013626399, 0.036640972, 0.17779504, -0.004743504, 0.0033154096, 0.23832226, 0
260, 41985499, 0.9832899, -0.013624764, 0.03665009, 0.17779876, 0.010171963, -0.0017087146, 0.2443018, 0
261, 42002166, 0.9832876, -0.01363257, 0.036643002, 0.17781183, -0.0056069903, 0.0065971944, 0.2578106, 0
262, 42018833, 0.98328596, -0.013630758, 0.036652, 0.17781931, -0.0031360264, 0.012658838, 0.2600155, 0
263, 42035500, 0.98328567, -0.013630713, 0.036645427, 0.17782228, -0.002912262, 0.0019603064, 0.24951363, 0
264, 42052167, 0.9832831, -0.013631629, 0.03665022, 0.1778349, -0.0050790524, 0.0072356313, 0.23131943, 0
265, 42068834, 0.9832827, -0.013630833, 0.036643796, 0.17783876, -0.005028734, -0.0031893484, 0.25473785, 0
266, 42085501, 0.983281, -0.013629462, 0.036651496, 0.17784658, -6.53496E-5, -0.0112784775, 0.2342186, 0
267, 42102168, 0.9832789, -0.013628033, 0.036650896, 0.17785887, -0.010701633, -0.0036096922, 0.25478268, 0
268, 42118835, 0.9832772, -0.013628965, 0.03666275, 0.17786509, -0.009446775, -0.0044085835, 0.25525188, 0
269, 42135502, 0.98327667, -0.013625766, 0.036669422, 0.17786701, -0.016711198, -0.01678961, 0.24276638, 0
270, 42152169, 0.9832747, -0.013631167, 0.036668733, 0.17787787, -0.008052864, 0.002347892, 0.240448, 0
271, 42168836, 0.983273, -0.013623992, 0.03667905, 0.17788552, -0.0047414643, 0.009126942, 0.26071453, 0
272, 42185503, 0.98326933, -0.01362808, 0.036677822, 0.17790595, 0.0012663965, -0.0072144116, 0.23260689, 0
273, 42202170, 0.9832697, -0.013625319, 0.036667164, 0.17790644, 0.0011273714, -0.013642351, 0.23996925, 0
274, 42218837, 0.98326683, -0.0136254225, 0.036659434, 0.17792408, 0.00881102, -0.008938339, 0.26479435, 0
275, 42235504, 0.98326564, -0.0136162145, 0.03665939, 0.17793137, -2.1451656E-4, -0.0028244215, 0.25797176, 0
276, 42252171, 0.9832644, -0.013616481, 0.03665518, 0.17793876, -0.010952023, 0.0012642032, 0.24327374, 0
277, 42268838, 0.9832627, -0.01362199, 0.036653373, 0.17794827, -0.0025067257, -0.0018073537, 0.24069786, 0
278, 42285505, 0.98326164, -0.013620644, 0.036645025, 0.17795585, -0.002719566, 0.008114261, 0.2363596, 0
279, 42302172, 0.9832607, -0.013623472, 0.036644705, 0.17796083, -0.0060653314, 0.0013504094, 0.2525587, 0
280, 42318839, 0.98325884, -0.013625905, 0.03663675, 0.17797254, -0.0060794964, 0.007920838, 0.24312782, 0
281, 42335506, 0.9832568, -0.013626895, 0.036632158, 0.1779848, -0.0024883698, 0.0017087566, 0.24734497, 0
282, 42352173, 0.9832551, -0.0136255305, 0.036637295, 0.17799357, -0.0068468163, 3.338725E-5, 0.25042343, 0
283, 42368840, 0.98325175, -0.013624635, 0.036650438, 0.1780087, 0.014637919, -0.0054544145, 0.23302555, 0
284, 42385507, 0.9832502, -0.013628985, 0.03666314, 0.17801453, -0.010232619, -0.0117720645, 0.24209309, 0
285, 42402174, 0.9832489, -0.01363179, 0.036652807, 0.17802371, 0.011313443, -0.0011388824, 0.24274254, 0
286, 42418841, 0.98324776, -0.013638022, 0.036654428, 0.1780292, 0.0051964247, 0.006585013, 0.2590351, 0
287, 42435508, 0.983248, -0.013635692, 0.03666419, 0.17802587, -0.00733902, -0.008920193, 0.2322321, 0
288, 42452175, 0.9832446, -0.0136374235, 0.036659084, 0.1780456, -0.007444071, 0.0054979576, 0.23895454, 0
289, 42468842, 0.9832419, -0.013635433, 0.036660425, 0.17806058, -0.008402774, 0.0078044855, 0.25394726, 0
290, 42485509, 0.9832411, -0.013638322, 0.03665786, 0.17806551, -0.006440051, 0.0047101164, 0.2614565, 0
291, 42502176, 0.98324037, -0.01364872, 0.03666187, 0.17806806, -0.009496702, -0.003708024, 0.24272537, 0
292, 42518843, 0.9832405, -0.013647018, 0.036649145, 0.17806976, -0.015032727, 0.0064964457, 0.25833702, 0
293, 42535510, 0.9832436, -0.013636075, 0.03664016, 0.17805554, -9.184706E-4, 0.0010699426, 0.24239159, 0
294, 42552177, 0.9832411, -0.013637034, 0.036643103, 0.17806792, -0.005963996, 0.0033283734, 0.24238777, 0
295, 42568844, 0.9832415, -0.013637918, 0.036646422, 0.17806506, -0.009971332, 3.403404E-4, 0.24020767, 0
296, 42585511, 0.9832395, -0.013641866, 0.036651142, 0.17807488, -0.0017029173, 0.0021237922, 0.24017239, 0
297, 42602178, 0.9832393, -0.013645079, 0.036652572, 0.17807595, 5.535019E-4, 0.004900284, 0.24831009, 0
298, 42618845, 0.9832378, -0.013650477, 0.03665537, 0.17808278, -0.0061698235, 0.0062554292, 0.24335575, 0
299, 42635512, 0.98323655, -0.013656558, 0.036651984, 0.17809036, 0.014186507, 0.0030800505, 0.23041916, 0
300, 42652179, 0.98323405, -0.013665291, 0.036662858, 0.1781015, 0.005698882, 0.0045140814, 0.2383213, 0
301, 42668846, 0.9832348, -0.013663126, 0.03666205, 0.17809696, -0.018190267, 0.006797504, 0.24926758, 0
302, 42685513, 0.98323387, -0.013669162, 0.03667305, 0.17809962, -0.012625632, 9.873406E-4, 0.25435543, 0
303, 42702180, 0.98323345, -0.013673268, 0.03666673, 0.1781026, -0.0070694075, 0.0062952284, 0.23546028, 0
304, 42718847, 0.98323053, -0.01367537, 0.03667305, 0.17811748, -0.012322102, 0.0038145, 0.2396326, 0
305, 42735514, 0.9832286, -0.013677391, 0.03666554, 0.17812948, 0.003203248, 0.0048224735, 0.2334547, 0
306, 42752181, 0.9832274, -0.013690642, 0.036664233, 0.17813542, -1.4092492E-4, 0.012804583, 0.2488985, 0
307, 42768848, 0.9832261, -0.013689199, 0.036672395, 0.17814085, 0.00885522, 3.926564E-4, 0.25970268, 0
308, 42785515, 0.9832231, -0.01369088, 0.03667218, 0.17815755, -0.011440595, 0.0010241223, 0.23406696, 0
309, 42802182, 0.9832202, -0.013690751, 0.036669113, 0.178174, 0.012800783, 0.007777748, 0.23725224, 0
310, 42818849, 0.98321867, -0.013700405, 0.03665866, 0.17818381, -0.0042424435, 0.0047279554, 0.2200737, 0
311, 42835516, 0.9832164, -0.013707128, 0.03666276, 0.1781957, 0.0042947456, -0.0010611836, 0.24173546, 0
312, 42852183, 0.98321664, -0.013694661, 0.036667764, 0.17819361, 0.005918204, 0.005241644, 0.25074768, 0
313, 42868850, 0.9832136, -0.0136926845, 0.03667584, 0.17820898, -0.007053091, -0.0026654478, 0.26428127, 0
314, 42885517, 0.9832109, -0.013696326, 0.036680475, 0.17822269, 0.012888819, -0.01779409, 0.24377441, 0
315, 42902184, 0.98321015, -0.0137000065, 0.036681812, 0.17822638, -0.007388416, 0.0125530185, 0.24763203, 0
316, 42918851, 0.9832081, -0.01370296, 0.0366843, 0.1782365, 0.0047403467, 0.0034727347, 0.25405788, 0
317, 42935518, 0.9832072, -0.013703728, 0.036679532, 0.17824258, -5.895154E-5, 0.008818215, 0.22834492, 0
318, 42952185, 0.98320645, -0.013706015, 0.036672197, 0.1782483, -0.0074163275, -5.00208E-4, 0.21448803, 0
319, 42968852, 0.9832029, -0.013702615, 0.03668131, 0.17826676, 0.0015873052, -8.8562816E-4, 0.23706341, 0
320, 42985519, 0.9832013, -0.013709061, 0.03669358, 0.17827167, -0.0051323045, 0.004227678, 0.2507019, 0
321, 43002186, 0.9831991, -0.013711082, 0.03669426, 0.17828356, -0.008265062, 0.004467912, 0.25395298, 0
322, 43018853, 0.98319614, -0.013711655, 0.036708616, 0.17829691, 0.008175266, 0.007787261, 0.24410343, 0
323, 43035520, 0.98319423, -0.013702077, 0.036715142, 0.1783069, 0.0037369411, -0.0070750513, 0.2300396, 0
324, 43052187, 0.9831935, -0.013696067, 0.03671566, 0.17831104, -0.009313505, 0.016221313, 0.24638653, 0
325, 43068854, 0.98319197, -0.013697846, 0.03672887, 0.17831749, 0.004663961, -0.0045631984, 0.23610783, 0
326, 43085521, 0.9831914, -0.013700749, 0.036738288, 0.1783186, 0.013568214, -0.0017132827, 0.22504616, 0
327, 43102188, 0.9831889, -0.0137064215, 0.03673421, 0.1783325, 0.0014079361, -2.6109107E-4, 0.24916935, 0
328, 43118855, 0.98318815, -0.013705092, 0.03674511, 0.17833436, -0.0056594317, 0.009724784, 0.26862335, 0
329, 43135522, 0.9831863, -0.013707723, 0.036744606, 0.17834397, 2.6123076E-5, -0.0066664275, 0.24523926, 0
330, 43152189, 0.983186, -0.013707514, 0.03674867, 0.17834505, -0.0033242244, -2.0248877E-4, 0.26007748, 0
331, 43168856, 0.9831837, -0.013702896, 0.036741056, 0.17835978, -0.0022336207, -2.7768692E-4, 0.2627716, 0
332, 43185523, 0.9831813, -0.013709839, 0.036739893, 0.17837243, 0.006037001, 0.003004447, 0.24874401, 0
333, 43202190, 0.98317933, -0.013715674, 0.036743008, 0.17838284, 0.0047413525, -0.008258776, 0.28431416, 0
334, 43218857, 0.98317814, -0.013718, 0.036739822, 0.1783898, -0.0057756584, 0.00867078, 0.24057579, 0
335, 43235524, 0.983177, -0.013719961, 0.036736336, 0.17839673, 0.009688113, 0.013229368, 0.23914051, 0
336, 43252191, 0.98317504, -0.013720066, 0.036724474, 0.17840965, -0.004502445, 0.016253792, 0.24884129, 0
337, 43268858, 0.98317224, -0.013724657, 0.036727335, 0.17842422, 0.006527975, 0.02100616, 0.26663017, 0
338, 43285525, 0.9831712, -0.013729664, 0.036725245, 0.17843, -0.004200004, 4.2090283E-5, 0.2355423, 0
339, 43302192, 0.9831694, -0.013727701, 0.03672511, 0.17843947, -0.009626368, 0.008708232, 0.26505756, 0
340, 43318859, 0.9831689, -0.01372769, 0.036734983, 0.17844066, -0.0018483683, 0.0056009972, 0.25021362, 0
341, 43335526, 0.983167, -0.013730873, 0.036734365, 0.17845102, 0.0018642657, 0.011005191, 0.24564266, 0
342, 43352193, 0.98316634, -0.013720755, 0.03673238, 0.1784556, 9.6278207E-4, 0.012649255, 0.24616814, 0
343, 43368860, 0.9831655, -0.013726111, 0.03673836, 0.17845853, -0.0010966663, 0.003318832, 0.23682213, 0
344, 43385527, 0.98316437, -0.013723426, 0.03673587, 0.17846568, 0.003494597, 0.009322725, 0.255023, 0
345, 43402194, 0.98316276, -0.013735317, 0.03673537, 0.17847373, 0.004006833, 0.009377975, 0.26375675, 0
346, 43418861, 0.98316187, -0.013732712, 0.03672998, 0.17848001, -0.012521895, 3.5039848E-4, 0.24100494, 0
347, 43435528, 0.9831599, -0.013731557, 0.036732405, 0.17849031, 0.016128667, 0.003011879, 0.25417137, 0
348, 43452195, 0.98315996, -0.013735315, 0.036732163, 0.17848976, 0.016391657, 0.009086863, 0.25289822, 0
349, 43468862, 0.9831566, -0.013739973, 0.036744267, 0.17850518, 0.0019093874, 0.01391554, 0.23766804, 0
350, 43485529, 0.9831546, -0.013738543, 0.03674503, 0.17851692, 0.003731409, 0.010190627, 0.24708271, 0
351, 43502196, 0.9831527, -0.013727315, 0.036747463, 0.17852747, -0.0021375383, -0.0013892448, 0.26397228, 0
352, 43518863, 0.9831529, -0.013724182, 0.036739606, 0.17852803, 1.4441731E-4, 0.003092218, 0.23564148, 0
353, 43535530, 0.9831518, -0.013721327, 0.036741246, 0.1785341, -0.0043280767, 0.011202386, 0.23285198, 0
354, 43552197, 0.9831502, -0.013721813, 0.036741935, 0.17854317, -0.006715866, 0.0066153547, 0.23837948, 0
355, 43568864, 0.98314965, -0.01372514, 0.03673732, 0.17854588, -0.007386712, 0.025329815, 0.24701023, 0
356, 43585531, 0.9831488, -0.013724627, 0.036740217, 0.17855059, -0.0076848227, -1.7674288E-4, 0.2614975, 0
357, 43602198, 0.9831468, -0.013715563, 0.03674406, 0.1785617, -0.009233013, 5.623027E-4, 0.2464552, 0
358, 43618865, 0.98314553, -0.013721717, 0.036734615, 0.17856999, 0.004157425, 0.0080494, 0.24987698, 0
359, 43635532, 0.9831527, -0.013640403, 0.03666461, 0.17855142, -0.0031239847, 0.017221576, 0.25375462, 0
360, 43652199, 0.9831515, -0.013642454, 0.03666982, 0.17855628, -0.015248501, 0.0028146289, 0.22771263, 0
361, 43668866, 0.9831488, -0.013656988, 0.036679525, 0.17856804, -0.0015804042, 0.012723489, 0.25201225, 0
362, 43685533, 0.98314744, -0.013656228, 0.036673326, 0.17857718, -0.009617986, 0.005268284, 0.23108673, 0
363, 43702200, 0.9831447, -0.013660439, 0.03667938, 0.17859067, -0.006929712, 0.011025056, 0.2406578, 0
364, 43718867, 0.98314184, -0.013667731, 0.03668497, 0.17860477, 0.0036665066, 0.004828173, 0.23536968, 0
365, 43735534, 0.98314196, -0.013664387, 0.036679175, 0.1786054, -0.006455166, -0.003030654, 0.23479652, 0
366, 43752201, 0.98314184, -0.013664144, 0.03667976, 0.17860608, -0.0020580795, 0.006689072, 0.24134064, 0
367, 43768868, 0.9831384, -0.01367048, 0.0366829, 0.1786237, -0.015493192, 0.01025761, 0.25770664, 0
368, 43785535, 0.98313516, -0.013669989, 0.03668798, 0.17864029, -0.0100159785, -4.8256447E-4, 0.22741127, 0
369, 43802202, 0.9831338, -0.013671702, 0.03668845, 0.17864864, 7.015233E-4, 7.697507E-4, 0.2498846, 0
370, 43818869, 0.9831336, -0.013674718, 0.036688913, 0.17864849, 0.00453762, 0.0047615105, 0.251544, 0
371, 43835536, 0.9831339, -0.013667735, 0.03668649, 0.17864798, 0.0040322575, -0.0056343284, 0.22486019, 0
372, 43852203, 0.98313284, -0.0136751635, 0.036692686, 0.17865251, 0.0011267568, 0.003700285, 0.23081493, 0
373, 43868870, 0.983133, -0.013672927, 0.036703095, 0.17864865, 0.009570266, 0.001358875, 0.24891186, 0
374, 43885537, 0.9831319, -0.013672712, 0.036701206, 0.17865531, -0.00242858, 0.0070208213, 0.24512959, 0
375, 43902204, 0.98313004, -0.013668718, 0.036704134, 0.17866552, -0.0013378089, 0.0020681375, 0.24262428, 0
376, 43918871, 0.9831278, -0.013667229, 0.036710218, 0.17867734, 0.010690904, 0.013348292, 0.25145054, 0
377, 43935538, 0.98312575, -0.013659592, 0.036704842, 0.17868929, 0.012893513, 0.012889727, 0.2602911, 0
378, 43952205, 0.98312366, -0.013655607, 0.036702413, 0.17870238, 0.0025300828, 0.0058210315, 0.24513912, 0
379, 43968872, 0.9831235, -0.013652724, 0.036714166, 0.1787009, 0.0092665395, 0.0021478478, 0.24631596, 0
380, 43985539, 0.9831231, -0.013645541, 0.036716085, 0.17870313, 0.008993267, -0.0045732707, 0.22358894, 0
381, 44002206, 0.9831212, -0.013644228, 0.036716785, 0.17871383, 0.0028436994, 0.0031953412, 0.25090122, 0
382, 44018873, 0.98311865, -0.013649871, 0.036725428, 0.17872572, -0.0029663802, -0.002144062, 0.2487402, 0
383, 44035540, 0.9831177, -0.013655333, 0.036722727, 0.1787305, -0.013580033, -4.5082564E-4, 0.23522854, 0
384, 44052207, 0.98311806, -0.013654445, 0.036722574, 0.17872867, 0.0012896698, 0.0034636685, 0.25057888, 0
385, 44068874, 0.98311824, -0.013653973, 0.036715183, 0.17872956, 0.0067580817, 0.016214259, 0.24401474, 0
386, 44085541, 0.9831158, -0.013647566, 0.03672511, 0.17874092, -0.018405873, 0.013346015, 0.25697327, 0
387, 44102208, 0.9831131, -0.0136569375, 0.03672666, 0.17875487, 0.0066183303, 0.009809313, 0.24143314, 0
388, 44118875, 0.9831114, -0.013656036, 0.036726188, 0.17876416, 0.011141785, 0.0016132466, 0.25720406, 0
389, 44135542, 0.9831131, -0.013660964, 0.036714315, 0.17875722, 0.0013609984, 0.0032164352, 0.23218155, 0
390, 44152209, 0.9831134, -0.013654825, 0.036720753, 0.17875488, -0.0018717534, 0.010412896, 0.2524767, 0
391, 44168876, 0.9831116, -0.013651997, 0.036715154, 0.178766, 0.009462225, 0.0015272081, 0.24486828, 0
392, 44185543, 0.9831096, -0.013650822, 0.036719535, 0.17877659, -9.362399E-5, -2.2750825E-4, 0.24307156, 0
393, 44202210, 0.9831083, -0.013647471, 0.036716465, 0.17878464, -0.005485846, 0.0073671965, 0.23317432, 0
394, 44218877, 0.9831073, -0.013657814, 0.03672839, 0.17878622, 9.0064545E-4, 0.0037104269, 0.23416233, 0
395, 44235544, 0.98310477, -0.01366455, 0.03672459, 0.17880082, 0.005538791, 0.0028770587, 0.24667263, 0
396, 44252211, 0.9831032, -0.0136606265, 0.036735304, 0.17880702, 0.0082362285, 0.0101564145, 0.24529171, 0
397, 44268878, 0.98310274, -0.013651597, 0.036732152, 0.17881131, -0.0038349794, 0.013055825, 0.23603344, 0
398, 44285545, 0.9831003, -0.013653993, 0.036733676, 0.17882411, -0.002281648, 0.0030879013, 0.23489857, 0
399, 44302212, 0.9830987, -0.01365025, 0.03673293, 0.1788338, -0.0012375074, -0.005089418, 0.25857353, 0
400, 44318879, 0.98309875, -0.013654668, 0.036739036, 0.17883168, 0.004915357, -0.0044920514, 0.24075985, 0
401, 44335546, 0.9830982, -0.0136526665, 0.03673865, 0.17883457, 0.0014369369, 0.0017302836, 0.23427677, 0
402, 44352213, 0.9830985, -0.013655892, 0.03672974, 0.1788345, 0.003524464, 0.0014585757, 0.2539034, 0
403, 44368880, 0.983099, -0.013657165, 0.036723875, 0.17883316, 0.0035005761, 0.006200305, 0.2570877, 0
404, 44385547, 0.9830979, -0.013653799, 0.036724016, 0.1788391, -0.011916705, 0.004022591, 0.24437809, 0
405, 44402214, 0.9830964, -0.013656451, 0.03672336, 0.17884707, 0.0058193556, -0.0059112613, 0.23288155, 0
406, 44418881, 0.98309416, -0.01364941, 0.036720388, 0.17886084, 0.0043936223, 8.0730085E-4, 0.24458504, 0
407, 44435548, 0.98309356, -0.013651527, 0.036724687, 0.17886317, -0.0030351663, -0.0038331912, 0.24704933, 0
408, 44452215, 0.9830922, -0.013655283, 0.036729872, 0.178869, 0.011484291, 7.859274E-5, 0.24435902, 0
409, 44468882, 0.98309094, -0.013658224, 0.03673336, 0.17887558, 0.010703812, -0.0031786615, 0.23824692, 0
410, 44485549, 0.9830901, -0.013653622, 0.03672431, 0.17888257, 0.014417703, -0.015867533, 0.24179268, 0
411, 44502216, 0.98308897, -0.013661775, 0.03672427, 0.17888796, 0.01019018, 5.6733174E-4, 0.25862312, 0
412, 44518883, 0.98308724, -0.013657795, 0.036718063, 0.17889939, 0.014467156, -9.864884E-4, 0.2405119, 0
413, 44535550, 0.98308605, -0.013659414, 0.036716454, 0.17890586, 0.0023763897, -0.0032645883, 0.23526955, 0
414, 44552217, 0.9830849, -0.013662413, 0.036707904, 0.17891389, -0.0029244714, 0.0057110074, 0.23888683, 0
415, 44568884, 0.9830829, -0.013670359, 0.03671463, 0.17892227, 0.016809124, -0.011913059, 0.2623701, 0
416, 44585551, 0.983081, -0.013669353, 0.036704883, 0.1789351, 0.0091181, 0.009901219, 0.25254154, 0
417, 44602218, 0.9830802, -0.013671199, 0.03670379, 0.17893946, 0.0044338824, 0.008620713, 0.2605362, 0
418, 44618885, 0.9830769, -0.013668357, 0.03669627, 0.17895968, -0.0063803447, -0.004050781, 0.25598526, 0
419, 44635552, 0.9830773, -0.013657211, 0.03668873, 0.17895961, 0.010251505, -0.0045457506, 0.230237, 0
420, 44652219, 0.98307663, -0.0136595545, 0.0366972, 0.17896146, -0.007101789, 0.00771807, 0.21994972, 0
421, 44668886, 0.9830759, -0.013650041, 0.03669568, 0.17896645, 5.381633E-4, 0.0010292771, 0.25733566, 0
422, 44685553, 0.9830742, -0.013664716, 0.03669237, 0.17897551, -0.0020717694, -0.006037434, 0.25052738, 0
423, 44702220, 0.983073, -0.013667093, 0.036679145, 0.17898455, -0.0057436125, -0.004727704, 0.22562313, 0
424, 44718887, 0.9830738, -0.0136658065, 0.03667903, 0.17898051, 0.0068385745, -0.002575414, 0.23029709, 0
425, 44735554, 0.9830745, -0.013663252, 0.036683634, 0.17897598, 0.0061640963, 0.008793377, 0.263299, 0
426, 44752221, 0.9830733, -0.0136771025, 0.036680512, 0.17898141, -0.0058935336, -0.007929765, 0.23594189, 0
427, 44768888, 0.9830736, -0.013672394, 0.036673177, 0.17898226, -0.016632633, 0.012991817, 0.21423817, 0
428, 44785555, 0.9830729, -0.013671004, 0.03668361, 0.17898428, -0.005512137, 0.0029395726, 0.23623848, 0
429, 44802222, 0.98307216, -0.013674691, 0.03669046, 0.17898533, 0.0050814273, -0.0010707108, 0.25498104, 0
430, 44818889, 0.9830724, -0.013675878, 0.03669296, 0.178984, 0.008076613, -1.9878684E-5, 0.2677536, 0
431, 44835556, 0.9830716, -0.013678304, 0.036688827, 0.17898892, 0.006334441, 4.0327324E-4, 0.2579546, 0
432, 44852223, 0.9830706, -0.013682266, 0.03669861, 0.1789925, -0.011414946, 0.005888016, 0.22594929, 0
433, 44868890, 0.9830695, -0.013692546, 0.03670863, 0.17899592, 0.0016609527, -0.006569325, 0.19800091, 0
434, 44885557, 0.98307073, -0.013685306, 0.03666462, 0.17899838, 0.004436369, -0.0062639364, 0.30734825, 0
435, 44902224, 0.98306626, -0.0136852255, 0.0367242, 0.17901044, -0.009753211, 0.005671879, 0.21700954, 0
436, 44918891, 0.98306537, -0.013679881, 0.036693893, 0.17902185, -0.003557069, -0.0013098837, 0.21261692, 0
437, 44935558, 0.9830658, -0.013673521, 0.036666986, 0.17902544, 0.006654791, 0.0027109329, 0.28628445, 0
438, 44952225, 0.9830635, -0.013681317, 0.03668486, 0.17903356, -0.017493661, 0.0051029404, 0.23433971, 0
439, 44968892, 0.98306394, -0.013687143, 0.036675025, 0.17903338, 0.013848332, -4.44693E-4, 0.26467705, 0
440, 44985559, 0.98306155, -0.013686486, 0.036682393, 0.17904516, -0.004327993, 0.00804324, 0.22193623, 0
441, 45002226, 0.9830626, -0.01368956, 0.036665615, 0.17904247, -0.0017380088, -0.003491496, 0.25923443, 0
442, 45018893, 0.9830607, -0.013688403, 0.036677733, 0.17905064, 0.009305543, -0.0053254757, 0.24769306, 0
443, 45035560, 0.98305935, -0.013688852, 0.036678586, 0.17905785, 0.0033503475, -0.0016450973, 0.25206375, 0
444, 45052227, 0.983059, -0.013684363, 0.036682896, 0.17905933, -0.009856279, -0.0115066, 0.2310934, 0
445, 45068894, 0.98305583, -0.013691207, 0.03667213, 0.17907868, 0.01067632, 0.007602779, 0.24127865, 0
446, 45085561, 0.9830547, -0.013691131, 0.036676724, 0.17908311, 0.0031277845, -0.0029758236, 0.26090145, 0
447, 45102228, 0.98305416, -0.013693761, 0.036686342, 0.17908418, 0.019287687, 0.0023393284, 0.25667572, 0
448, 45118895, 0.9830555, -0.013691902, 0.036675017, 0.17907941, -0.0031016893, 0.009585242, 0.24383354, 0
449, 45135562, 0.98305434, -0.013694955, 0.036667727, 0.17908697, 0.003953302, 0.012148642, 0.2476492, 0
450, 45152229, 0.9830524, -0.013695648, 0.036672812, 0.17909658, -0.0052339192, 0.0045861225, 0.24956036, 0
451, 45168896, 0.98305094, -0.013691886, 0.03667039, 0.17910522, 7.2909927E-4, -0.015440107, 0.25321102, 0
452, 45185563, 0.98304766, -0.0136972, 0.036667686, 0.17912346, 0.0010905756, 0.010402153, 0.247612, 0
453, 45202230, 0.9830461, -0.01368921, 0.036660895, 0.17913386, -2.8050876E-5, -9.657576E-4, 0.23873329, 0
454, 45218897, 0.9830465, -0.013694977, 0.036653258, 0.17913294, -0.004797957, 0.0016915461, 0.272151, 0
455, 45235564, 0.9830433, -0.0136949755, 0.036669683, 0.17914721, 0.0136852795, 0.0039054558, 0.2513237, 0
456, 45252231, 0.9830435, -0.013688016, 0.036675874, 0.17914547, -0.005108137, -0.0036739523, 0.24053478, 0
457, 45268898, 0.98304415, -0.013683047, 0.036676314, 0.17914216, -0.002420785, 0.011128905, 0.24075794, 0
458, 45285565, 0.9830434, -0.013681053, 0.036673978, 0.17914702, 8.4222475E-4, 0.011221565, 0.25094032, 0
459, 45302232, 0.9830419, -0.013680808, 0.03667552, 0.17915496, -0.0033246435, 0.006167016, 0.24263, 0
460, 45318899, 0.9830415, -0.013684812, 0.036671337, 0.17915758, -0.0032334782, -0.00417701, 0.25327682, 0
461, 45335566, 0.9830424, -0.01367265, 0.036682907, 0.17915094, 0.0077981716, 0.016126012, 0.25492764, 0
462, 45352233, 0.9830424, -0.013678711, 0.036677245, 0.17915176, 0.005719557, 0.0032820224, 0.24952793, 0
463, 45368900, 0.9830418, -0.013678543, 0.03667001, 0.17915632, -0.0062333294, 0.0015559854, 0.25680733, 0
464, 45385567, 0.9830401, -0.013681035, 0.036685597, 0.17916244, -0.0013587353, -0.008381833, 0.23204613, 0
465, 45402234, 0.9830388, -0.013673569, 0.03668019, 0.17917103, 0.0051420275, 0.009137112, 0.2537794, 0
466, 45418901, 0.983038, -0.013675546, 0.036676414, 0.1791759, -0.0016993132, 0.009496576, 0.2521267, 0
467, 45435568, 0.9830354, -0.013681898, 0.03667337, 0.17919084, -9.714991E-4, -0.0034688094, 0.2487402, 0
468, 45452235, 0.98303413, -0.013675701, 0.036681492, 0.17919649, 0.010363905, -0.0025279874, 0.23586845, 0
469, 45468902, 0.9830327, -0.013692573, 0.036683355, 0.17920233, 0.00939587, 0.006310511, 0.23767471, 0
470, 45485569, 0.9830331, -0.013697389, 0.036694165, 0.17919739, 8.7150495E-4, 0.0038692048, 0.24614906, 0
471, 45502236, 0.9830319, -0.013701639, 0.036690436, 0.17920463, -0.0075830403, -0.0039697858, 0.25244522, 0
472, 45518903, 0.983031, -0.0137107875, 0.036693137, 0.17920864, 0.002870968, 0.002673173, 0.26949215, 0
473, 45535570, 0.9830291, -0.013711377, 0.036700495, 0.1792172, 0.014705001, -0.0067880047, 0.26178265, 0
474, 45552237, 0.98302907, -0.013719259, 0.03671286, 0.17921485, 0.0044457563, 0.0044369837, 0.2591095, 0
475, 45568904, 0.983029, -0.013722367, 0.03671704, 0.17921358, -0.006103552, -0.005121492, 0.2556429, 0
476, 45585571, 0.98302704, -0.013727471, 0.036721084, 0.17922367, -7.9986907E-4, -4.0529884E-4, 0.24947357, 0
477, 45602238, 0.9830257, -0.01372902, 0.03672539, 0.17922984, -7.8835816E-4, -0.0023775352, 0.25857925, 0
478, 45618905, 0.98302567, -0.013726826, 0.036736753, 0.1792278, 0.010265755, 0.0055362904, 0.26702023, 0
479, 45635572, 0.983037, -0.013678412, 0.036687568, 0.17917961, 0.0026290433, 0.007759238, 0.23729897, 0
480, 45652239, 0.9830367, -0.013678425, 0.036681447, 0.17918248, 0.016227264, 0.0019162464, 0.24394321, 0
481, 45668906, 0.98303604, -0.013676845, 0.03668944, 0.17918451, 0.0053612376, -0.0017642855, 0.24088192, 0
482, 45685573, 0.9830373, -0.013677834, 0.03668935, 0.1791777, -0.012333054, 0.0055620503, 0.23843765, 0
483, 45702240, 0.9830373, -0.013671006, 0.036687035, 0.17917797, 0.004908764, 0.005759468, 0.23875046, 0
484, 45718907, 0.98303586, -0.013676457, 0.03669213, 0.17918487, 0.0048546456, -0.007814795, 0.24293709, 0
485, 45735574, 0.9830353, -0.013689262, 0.03669376, 0.1791866, 0.0038821406, 0.002353284, 0.23547077, 0
486, 45752241, 0.9830351, -0.013687339, 0.036691684, 0.17918827, 6.4801995E-4, 0.0041014208, 0.24744892, 0
487, 45768908, 0.98303366, -0.0136854695, 0.036698688, 0.17919473, -0.0018175235, -0.0013003425, 0.24472332, 0
488, 45785575, 0.98303384, -0.013690166, 0.03669183, 0.1791952, 4.637894E-4, 0.0077559412, 0.24582958, 0
489, 45802242, 0.98303217, -0.013700408, 0.036682725, 0.17920534, 0.0033574998, -0.0018275956, 0.28466892, 0
490, 45818909, 0.9830339, -0.01370991, 0.03668885, 0.17919376, -0.01370207, -0.0032828327, 0.22820091, 0
491, 45835576, 0.9830316, -0.0137148155, 0.03668013, 0.1792077, 0.003707633, 0.00477256, 0.23288631, 0
492, 45852243, 0.98302925, -0.013723514, 0.036690198, 0.17921767, 0.0034434965, 0.006717207, 0.24759197, 0
493, 45868910, 0.98302984, -0.013728611, 0.03668572, 0.17921525, -0.0029225715, 0.014911918, 0.24645138, 0
494, 45885577, 0.9830287, -0.013730829, 0.03667541, 0.17922334, -0.012200706, 0.016041245, 0.24412537, 0
495, 45902244, 0.9830295, -0.013732086, 0.036671296, 0.17921987, 0.007702145, 0.0013033319, 0.25927258, 0
496, 45918911, 0.98303026, -0.013728394, 0.03667652, 0.17921464, 0.010795229, 0.011591033, 0.23561287, 0
497, 45935578, 0.9830303, -0.013726556, 0.036682256, 0.17921335, 0.0076616053, 0.0044422643, 0.24323273, 0
498, 45952245, 0.98303014, -0.013727053, 0.036680516, 0.17921484, 0.0066641225, 0.007139353, 0.2516327, 0
499, 45968912, 0.98303115, -0.013722939, 0.03667479, 0.17921107, 0.006788871, 0.001900377, 0.2498684, 0
500, 45985579, 0.98303235, -0.013717078, 0.03666754, 0.17920633, -0.0025521547, -0.004023471, 0.23922443, 0
501, 46002246, 0.98303217, -0.01371456, 0.036675118, 0.17920537, 1.2656421E-5, 9.896036E-5, 0.27299118, 0
502, 46018913, 0.98303163, -0.013717951, 0.0366822, 0.17920668, -0.005721485, 0.0019544112, 0.2498169, 0
503, 46035580, 0.98302984, -0.0137124155, 0.036670726, 0.17921937, -8.6320704E-4, 0.018853158, 0.26472378, 0
504, 46052247, 0.9830299, -0.013719652, 0.036668688, 0.17921863, 0.0077774688, -0.0011492617, 0.24930477, 0
505, 46068914, 0.98303026, -0.013725996, 0.036662158, 0.17921722, 0.002570902, 0.0020294557, 0.26415634, 0
506, 46085581, 0.983029, -0.013716653, 0.036664892, 0.1792248, -0.0042573907, 0.0063849967, 0.2602644, 0
507, 46102248, 0.98302734, -0.013722555, 0.036667634, 0.17923297, -0.0077365376, -0.015677953, 0.22461987, 0
508, 46118915, 0.98302686, -0.013721961, 0.036674578, 0.17923412, -0.0044183205, 2.3875374E-4, 0.2422781, 0
509, 46135582, 0.98302597, -0.013724061, 0.03667895, 0.17923814, 9.896874E-4, 0.01313974, 0.23799896, 0
510, 46152249, 0.9830243, -0.013729665, 0.036674064, 0.17924781, 1.916903E-4, 0.01868358, 0.2559719, 0
511, 46168916, 0.98302317, -0.013734115, 0.036676828, 0.17925295, 0.00268562, 0.002478242, 0.25678062, 0
512, 46185583, 0.98302066, -0.013741621, 0.036690027, 0.17926349, -0.0041388455, -0.012863548, 0.23101044, 0
513, 46202250, 0.9830197, -0.01375143, 0.036688235, 0.17926832, 0.0041506356, -0.0020119238, 0.25042534, 0
514, 46218917, 0.9830199, -0.013758626, 0.03668394, 0.1792677, -0.011509995, -0.0015975728, 0.24637699, 0
515, 46235584, 0.98301923, -0.013755629, 0.036680616, 0.1792723, -0.0016462847, 0.004320254, 0.26449776, 0
516, 46252251, 0.9830181, -0.013761005, 0.036672287, 0.17927979, -6.7688106E-4, 0.0011326659, 0.24026203, 0
517, 46268918, 0.98301506, -0.01376052, 0.03666628, 0.17929798, 0.0016929151, 0.011826154, 0.25365925, 0
518, 46285585, 0.9830146, -0.013763105, 0.03666504, 0.17930014, 0.004387196, 0.012679275, 0.25374413, 0
519, 46302252, 0.9830141, -0.013758159, 0.03666995, 0.17930205, 0.0066136923, -0.0028907768, 0.25697708, 0
520, 46318919, 0.98301286, -0.013755692, 0.036671758, 0.17930874, -0.0030584955, -0.0077418042, 0.25677395, 0
521, 46335586, 0.9830119, -0.013753543, 0.03666512, 0.17931528, -0.007604274, 0.013476071, 0.26437283, 0
522, 46352253, 0.98301077, -0.013753146, 0.03666154, 0.17932297, -0.0039029832, 0.007189406, 0.24498653, 0
523, 46368920, 0.9830112, -0.013763808, 0.03665417, 0.17932129, -0.0040066093, -0.011094638, 0.1988039, 0
524, 46385587, 0.9830133, -0.013760006, 0.036611997, 0.17931867, -0.024751658, -0.013021683, 0.34674644, 0
525, 46402254, 0.9830101, -0.013773129, 0.03671597, 0.17931387, 0.016210752, 0.0036666603, 0.18239594, 0
526, 46418921, 0.9830113, -0.013760924, 0.036645353, 0.17932281, -0.0029194984, 0.011794541, 0.19202328, 0
527, 46435588, 0.983012, -0.01376329, 0.036620144, 0.17932346, -0.018368965, -0.002567619, 0.34422588, 0
528, 46452255, 0.98300904, -0.01376896, 0.036683917, 0.17932619, 0.0014406248, 0.021941638, 0.24812412, 0
529, 46468922, 0.98301035, -0.013764517, 0.036652736, 0.17932566, -0.0068188217, 0.0047564255, 0.23242569, 0
530, 46485589, 0.98300797, -0.013770838, 0.036663216, 0.17933606, -0.012768485, -0.004407438, 0.27856255, 0
531, 46502256, 0.9830072, -0.013781023, 0.036679532, 0.17933613, 0.007036048, 0.0049114595, 0.2117958, 0
532, 46518923, 0.98300874, -0.013776783, 0.036660872, 0.17933242, -0.0056687356, -0.0010822078, 0.2530651, 0
533, 46535590, 0.98300755, -0.013781616, 0.036659192, 0.17933899, 0.0022022452, -0.0014089698, 0.27465534, 0
534, 46552257, 0.98300695, -0.013771209, 0.03669602, 0.17933562, -0.004769264, 0.0035104665, 0.20560741, 0
535, 46568924, 0.9830056, -0.0137676345, 0.036665987, 0.17934883, -0.0148514025, 0.0074971835, 0.25940514, 0
536, 46585591, 0.98300385, -0.013762397, 0.036663435, 0.17935991, 0.004694415, -0.0077645327, 0.2615385, 0
537, 46602258, 0.98300344, -0.0137640955, 0.03667207, 0.17936036, 0.009623267, 0.01666141, 0.22821712, 0
538, 46618925, 0.98300236, -0.013772829, 0.03665731, 0.179368, -0.005099895, 0.0016584103, 0.2471857, 0
539, 46635592, 0.9830019, -0.013779895, 0.036663476, 0.17936863, -0.0046394584, 0.00265254, 0.2641449, 0
540, 46652259, 0.9830026, -0.013782183, 0.036665116, 0.1793652, -0.007397329, 0.0052788593, 0.22456646, 0
541, 46668926, 0.98300266, -0.013771896, 0.036646266, 0.17936936, -0.0068470957, 0.0053892466, 0.2596283, 0
542, 46685593, 0.9830029, -0.013775669, 0.03665053, 0.17936613, -0.0031023598, 0.0025026465, 0.24176598, 0
543, 46702260, 0.98300344, -0.013785958, 0.036647975, 0.17936333, 0.010636395, 0.008473488, 0.23764038, 0
544, 46718927, 0.98300046, -0.013783807, 0.03664874, 0.17937931, -0.0012851437, 0.0084721465, 0.27003956, 0
545, 46735594, 0.9829995, -0.013784895, 0.036659088, 0.17938255, 6.451143E-5, 0.016198318, 0.23084831, 0
546, 46752261, 0.98299855, -0.013792404, 0.036658835, 0.17938682, -4.4311444E-5, 0.014685569, 0.22739315, 0
547, 46768928, 0.98299944, -0.013799624, 0.036638636, 0.1793862, -0.005284824, -0.015240091, 0.27042484, 0
548, 46785595, 0.98299706, -0.013805702, 0.036646966, 0.17939694, 0.004894766, 0.003191318, 0.22311878, 0
549, 46802262, 0.98299503, -0.013805386, 0.036659457, 0.1794058, 0.0028207055, 7.9446286E-4, 0.2173996, 0
550, 46818929, 0.9829931, -0.013800999, 0.036665015, 0.17941536, 0.01182568, 0.0054970076, 0.2662773, 0
551, 46835596, 0.98299193, -0.013802178, 0.036658153, 0.17942265, 0.005809968, -0.0015485256, 0.23601437, 0
552, 46852263, 0.9829929, -0.013799893, 0.036633465, 0.17942275, -0.0022452434, 0.005818741, 0.23710632, 0
553, 46868930, 0.9829946, -0.013794625, 0.03663286, 0.17941356, 0.017466113, -0.00193301, 0.25728416, 0
554, 46885597, 0.98299277, -0.013798752, 0.036644753, 0.17942163, -0.012124097, 0.006036177, 0.22929478, 0
555, 46902264, 0.98299086, -0.013799212, 0.036655664, 0.17942959, -0.011534638, 0.009797565, 0.23708439, 0
556, 46918931, 0.98299056, -0.013795319, 0.03666525, 0.17942959, 0.003094006, 0.010779862, 0.2562523, 0
557, 46935598, 0.982989, -0.0137975635, 0.03667637, 0.17943567, -0.008995782, 0.0024519092, 0.25713634, 0
558, 46952265, 0.98299026, -0.013795816, 0.036666226, 0.17943113, 0.0027674537, 0.0034726928, 0.24804306, 0
559, 46968932, 0.9829872, -0.0137994, 0.036664866, 0.17944783, -0.003967746, 0.0067244293, 0.25541496, 0
560, 46985599, 0.98298603, -0.013796032, 0.03667326, 0.17945264, 0.0022521445, 0.017519519, 0.24681473, 0
561, 47002266, 0.9829857, -0.013785867, 0.036672737, 0.17945533, 0.001766842, 0.009685878, 0.27385998, 0
562, 47018933, 0.9829839, -0.013780931, 0.03666644, 0.17946672, 0.0029015893, 0.011571196, 0.27388287, 0
563, 47035600, 0.9829822, -0.013776237, 0.036671348, 0.17947517, 0.020246837, 0.012468307, 0.22506523, 0
564, 47052267, 0.9829814, -0.01376589, 0.036673434, 0.17948015, 0.0021543854, -0.0032140044, 0.25151825, 0
565, 47068934, 0.9829807, -0.013761912, 0.036679078, 0.17948288, -0.009046938, -0.002963265, 0.24949837, 0
566, 47085601, 0.98297817, -0.013759042, 0.036688887, 0.17949519, -0.0076774745, 0.0027655957, 0.24358368, 0
567, 47102268, 0.9829771, -0.013755557, 0.036676913, 0.17950383, -0.010332306, 0.0016169347, 0.2376318, 0
568, 47118935, 0.9829743, -0.013755788, 0.036685295, 0.17951724, 0.003668518, 0.0020622283, 0.23610973, 0
569, 47135602, 0.9829742, -0.013755899, 0.036680706, 0.17951912, -0.003342748, -0.00448462, 0.23536015, 0
570, 47152269, 0.9829739, -0.013751615, 0.03668152, 0.1795207, 0.0027442921, 0.013916825, 0.2623148, 0
571, 47168936, 0.9829725, -0.013756353, 0.036683425, 0.17952716, 0.0031242082, -8.6530246E-4, 0.22848701, 0
572, 47185603, 0.9829707, -0.013756229, 0.03668961, 0.17953613, 0.0011350267, 0.0051731234, 0.2473278, 0
573, 47202270, 0.9829707, -0.013756939, 0.036684074, 0.17953716, -7.7391363E-4, 0.02385479, 0.25068283, 0
574, 47218937, 0.9829708, -0.01374965, 0.03667865, 0.1795383, -0.009093569, -0.008010858, 0.23399639, 0
575, 47235604, 0.9829694, -0.013752416, 0.03668048, 0.17954545, 0.0013326121, 0.008438201, 0.22665215, 0
576, 47252271, 0.98296857, -0.013753648, 0.03668322, 0.17954923, -0.008126037, 0.0031334, 0.2643671, 0
577, 47268938, 0.9829685, -0.013758882, 0.036686163, 0.17954874, -0.006471678, -8.309234E-4, 0.24695301, 0
578, 47285605, 0.98296756, -0.013764216, 0.036694083, 0.17955187, -9.86195E-4, 0.0051463856, 0.24020481, 0
579, 47302272, 0.9829653, -0.01376748, 0.036699202, 0.17956313, -1.9750163E-4, -7.55837E-4, 0.24195099, 0
580, 47318939, 0.9829667, -0.0137653425, 0.036701422, 0.17955516, 0.007126431, 0.008358365, 0.26257038, 0
581, 47335606, 0.9829672, -0.013764469, 0.03670553, 0.17955177, 0.0048298077, -0.0020239935, 0.25344658, 0
582, 47352273, 0.9829661, -0.013768602, 0.036701977, 0.17955841, -0.011590991, 0.014534977, 0.2557602, 0
583, 47368940, 0.9829638, -0.01377359, 0.036708742, 0.17956884, 0.0066210683, 0.009796084, 0.24797821, 0
584, 47385607, 0.9829616, -0.013778219, 0.036698844, 0.17958245, 0.007915348, 0.012516558, 0.23590565, 0
585, 47402274, 0.9829606, -0.013784751, 0.036697738, 0.1795876, 0.0074270563, 0.010681852, 0.25151157, 0
586, 47418941, 0.9829604, -0.013783707, 0.03669299, 0.17959027, -0.017474746, 0.0054479046, 0.26481915, 0
587, 47435608, 0.98295903, -0.013778923, 0.036691107, 0.17959855, 1.4860817E-4, 0.010400672, 0.24902534, 0
588, 47452275, 0.9829596, -0.013775409, 0.036679316, 0.1795979, -0.0020298888, 0.004002544, 0.23394203, 0
589, 47468942, 0.98295915, -0.013773795, 0.036685858, 0.17959917, 5.20869E-4, 0.0011212109, 0.24095917, 0
590, 47485609, 0.9829565, -0.01377869, 0.036690358, 0.17961234, -0.005044855, 0.014234129, 0.26094532, 0
591, 47502276, 0.98295546, -0.013776319, 0.036678355, 0.17962123, -0.0024108386, 0.003432237, 0.23084831, 0
592, 47518943, 0.98295486, -0.0137780085, 0.03667685, 0.1796244, -0.011976718, 0.005601025, 0.24824142, 0
593, 47535610, 0.9829542, -0.01377998, 0.036671214, 0.17962825, -0.0066181347, 0.016874949, 0.2433281, 0
594, 47552277, 0.98295295, -0.013778496, 0.03665995, 0.17963733, -1.6322033E-4, 0.01935725, 0.23561859, 0
595, 47568944, 0.98295164, -0.013783242, 0.036663827, 0.17964408, -0.020236388, -0.0032673823, 0.24899197, 0
596, 47585611, 0.98295027, -0.013779194, 0.03666127, 0.1796523, -0.017476087, -0.0020703864, 0.24868488, 0
597, 47602278, 0.9829482, -0.01378476, 0.036656495, 0.17966379, -0.0017045098, 0.0022852523, 0.23830605, 0
598, 47618945, 0.9829483, -0.013793169, 0.036646433, 0.17966537, 0.0010705153, 2.9098594E-5, 0.23727608, 0
599, 47635612, 0.98295254, -0.013757289, 0.036688417, 0.17963561, -0.0013838805, -0.004179762, 0.24284935, 0
600, 47652279, 0.9829507, -0.01375799, 0.036696844, 0.17964436, -0.005763086, 0.013254682, 0.24412918, 0
601, 47668946, 0.9829499, -0.013766923, 0.036708448, 0.17964533, 0.002344595, 0.00835775, 0.25090122, 0
602, 47685613, 0.9829505, -0.013764697, 0.036704756, 0.17964265, 4.2375262E-4, 0.008114135, 0.23215294, 0
603, 47702280, 0.98295057, -0.01375614, 0.03671069, 0.17964219, 0.0015891212, 0.002679627, 0.24182796, 0
604, 47718947, 0.98295116, -0.013759692, 0.036717054, 0.17963763, 0.0037414671, 0.014263605, 0.26788998, 0
605, 47735614, 0.98295146, -0.013756905, 0.036721583, 0.1796354, 0.0051616686, -0.011867197, 0.24460316, 0
606, 47752281, 0.9829515, -0.013749904, 0.03671565, 0.17963651, 8.112682E-4, 0.023926957, 0.23568726, 0
607, 47768948, 0.9829505, -0.013762938, 0.036718275, 0.17964047, -0.0053571304, 0.013381623, 0.25722885, 0
608, 47785615, 0.98295045, -0.013767079, 0.036721997, 0.1796397, 0.0048205317, 0.0028801041, 0.24502087, 0
609, 47802282, 0.9829505, -0.013782101, 0.03670887, 0.17964098, -0.010533299, 0.0034780013, 0.23461533, 0
610, 47818949, 0.9829509, -0.01378504, 0.036693715, 0.1796418, 0.0026578763, 0.020312069, 0.25137424, 0
611, 47835616, 0.9829506, -0.013790819, 0.03669445, 0.17964306, -0.01492505, -0.0055888155, 0.24410248, 0
612, 47852283, 0.9829487, -0.013790631, 0.036695927, 0.17965254, 0.015123026, -2.6022494E-4, 0.24034691, 0
613, 47868950, 0.98294777, -0.013795034, 0.036701355, 0.17965624, 0.004811256, 0.008510843, 0.27434158, 0
614, 47885617, 0.98294777, -0.013799044, 0.036704186, 0.17965537, 0.0026655875, 0.013860136, 0.24454212, 0
615, 47902284, 0.9829461, -0.013795358, 0.036703967, 0.17966501, 0.00558855, 0.0074145393, 0.2442646, 0
616, 47918951, 0.98294574, -0.013795541, 0.03670335, 0.17966695, 0.0086626075, 0.0035655624, 0.23843384, 0
617, 47935618, 0.9829462, -0.013804905, 0.036705676, 0.17966375, -2.7967058E-5, 0.016485296, 0.2642622, 0
618, 47952285, 0.98294336, -0.013795703, 0.036708705, 0.1796792, -0.010923833, 0.01881025, 0.2457552, 0
619, 47968952, 0.98294157, -0.013797604, 0.036704436, 0.1796894, 0.0063149114, 0.010109295, 0.24029064, 0
620, 47985619, 0.9829421, -0.013798671, 0.03670325, 0.17968693, -0.004714503, 0.010634118, 0.24838352, 0
621, 48002286, 0.98294324, -0.013799296, 0.03670896, 0.1796794, 0.0035590527, -2.1722666E-5, 0.2531519, 0
622, 48018953, 0.9829412, -0.013798111, 0.036722153, 0.17968814, -0.010048975, 0.007698373, 0.23448181, 0
623, 48035620, 0.98294103, -0.013810927, 0.036719963, 0.1796887, -4.1050947E-4, 0.0075884885, 0.23328209, 0
624, 48052287, 0.9829401, -0.01381135, 0.036713485, 0.17969455, -0.0027130002, 0.010918692, 0.2519436, 0
625, 48068954, 0.9829379, -0.01381449, 0.036717728, 0.17970547, 0.0035185409, 0.011884533, 0.25034332, 0
626, 48085621, 0.98293704, -0.013816974, 0.036712725, 0.17971091, 0.014784013, 0.016722107, 0.24416733, 0
627, 48102288, 0.9829361, -0.013819322, 0.036717903, 0.17971538, 0.0027173029, 0.0037132069, 0.2320385, 0
628, 48118955, 0.9829363, -0.013809016, 0.036710996, 0.179716, 0.0061314073, 0.0018221615, 0.22550964, 0
629, 48135622, 0.9829333, -0.013815446, 0.036709957, 0.17973214, 0.0017780456, 0.01821382, 0.23810482, 0
630, 48152289, 0.98293376, -0.013812471, 0.03670932, 0.17973036, 0.0024721092, 0.013974826, 0.24673748, 0
631, 48168956, 0.9829322, -0.01381871, 0.03670828, 0.17973833, 5.546474E-4, 0.009274949, 0.2553854, 0
632, 48185623, 0.98293173, -0.013826629, 0.03671035, 0.17973983, -0.010032323, 0.016418047, 0.24378109, 0
633, 48202290, 0.982933, -0.013821581, 0.036707643, 0.17973371, -0.004520242, 0.0014427622, 0.2568884, 0
634, 48218957, 0.9829348, -0.013823132, 0.036702435, 0.17972566, -4.7057858E-4, 0.008763272, 0.23786736, 0
635, 48235624, 0.98293424, -0.013824925, 0.036707655, 0.1797269, -6.134034E-4, 0.010755261, 0.2483635, 0
636, 48252291, 0.9829344, -0.013824577, 0.036702827, 0.17972708, 3.782957E-4, 0.013657074, 0.25763035, 0
637, 48268958, 0.9829351, -0.013822854, 0.036699098, 0.179724, 0.0032718664, 0.0029755023, 0.2299223, 0
638, 48285625, 0.98293287, -0.013825496, 0.036698233, 0.1797358, -0.0051674517, -7.075861E-4, 0.24584961, 0
639, 48302292, 0.982933, -0.013825563, 0.036692083, 0.1797373, -0.0030671007, 0.008529101, 0.24044704, 0
640, 48318959, 0.98293126, -0.013837579, 0.036686625, 0.17974651, -0.009713845, 0.010049939, 0.25576115, 0
641, 48335626, 0.9829312, -0.013836704, 0.036685273, 0.17974715, 0.007960162, 0.0057609905, 0.24010944, 0
642, 48352293, 0.9829313, -0.013839347, 0.03669184, 0.17974535, 0.0017770397, 0.009030105, 0.23245049, 0
643, 48368960, 0.9829307, -0.0138425715, 0.036693078, 0.17974795, -0.0020097727, 0.0040946733, 0.265481, 0
644, 48385627, 0.98293227, -0.0138396965, 0.03669526, 0.17973945, 0.0013852215, 0.010336552, 0.24953842, 0
645, 48402294, 0.9829307, -0.013840134, 0.036698177, 0.17974734, -0.0010281317, -0.005008003, 0.24379063, 0
646, 48418961, 0.98293185, -0.013833617, 0.03670307, 0.17974028, -0.0022774853, 0.003004503, 0.26756477, 0
647, 48435628, 0.9829307, -0.013834973, 0.036707096, 0.1797455, 0.0050434303, 0.009203551, 0.25953484, 0
648, 48452295, 0.98293024, -0.013838262, 0.03670919, 0.1797473, -0.01229894, 0.016373763, 0.26438713, 0
649, 48468962, 0.9829312, -0.013845598, 0.036711495, 0.17974123, -0.0063419566, 0.0062422697, 0.20057297, 0
650, 48485629, 0.98292875, -0.013844057, 0.036706496, 0.17975542, 0.0044819657, 0.016385846, 0.24806213, 0
651, 48502296, 0.9829281, -0.013846245, 0.036714837, 0.17975801, -0.0072051357, -0.0060461652, 0.24168396, 0
652, 48518963, 0.9829271, -0.013851702, 0.036712967, 0.17976318, 4.293963E-4, 0.0021779102, 0.24052906, 0
653, 48535630, 0.982926, -0.013851143, 0.036726486, 0.17976649, 0.00966199, 0.005041684, 0.2858944, 0
654, 48552297, 0.9829246, -0.013857203, 0.03672951, 0.17977259, 9.434761E-4, -0.008208248, 0.2690773, 0
655, 48568964, 0.98292243, -0.013865214, 0.036728118, 0.17978407, -0.006508893, 0.0071555856, 0.26918316, 0
656, 48585631, 0.9829223, -0.013867452, 0.036736142, 0.17978308, 0.005256466, 0.015689101, 0.2589159, 0
657, 48602298, 0.98292285, -0.013866719, 0.036748126, 0.17977798, 0.0063681635, 0.018455312, 0.25905514, 0
658, 48618965, 0.9829216, -0.013872047, 0.036743086, 0.17978516, 0.011564141, 0.004910705, 0.2575283, 0
659, 48635632, 0.9829216, -0.01387356, 0.036739834, 0.17978597, -9.648216E-4, 0.020243756, 0.23546982, 0
660, 48652299, 0.9829213, -0.013866729, 0.036738813, 0.17978829, 8.754723E-4, 0.0147851305, 0.24897003, 0
661, 48668966, 0.9829206, -0.013865502, 0.03672485, 0.17979547, -0.008244862, 0.01640951, 0.24642086, 0
662, 48685633, 0.9829174, -0.013861592, 0.03673833, 0.17980953, 0.0064131455, -0.0018723122, 0.25856686, 0
663, 48702300, 0.9829165, -0.013852361, 0.03674623, 0.17981368, 6.180133E-5, 0.010301852, 0.24195194, 0
664, 48718967, 0.9829158, -0.013857437, 0.036735978, 0.17981893, 0.003393178, 0.005057679, 0.23831367, 0
665, 48735634, 0.9829128, -0.013860283, 0.036742456, 0.17983441, -0.0035568734, -0.0013430056, 0.23812485, 0
666, 48752301, 0.98291254, -0.013857795, 0.036734935, 0.17983736, -0.019221583, 0.007961014, 0.24978733, 0
667, 48768968, 0.9829105, -0.013857518, 0.036734156, 0.17984864, -0.01557645, 0.01230362, 0.24411392, 0
668, 48785635, 0.9829098, -0.013860652, 0.036735654, 0.17985201, 0.002004995, 0.0149632, 0.2564516, 0
669, 48802302, 0.98290896, -0.01386211, 0.036736768, 0.17985626, -0.008372516, 0.018255755, 0.25176144, 0
670, 48818969, 0.9829087, -0.0138562545, 0.036741916, 0.17985715, 0.004941173, 0.013454963, 0.23721504, 0
671, 48835636, 0.9829059, -0.0138499485, 0.036743287, 0.17987253, 2.2415555E-4, 0.009855622, 0.22996712, 0
672, 48852303, 0.9829054, -0.013854073, 0.036745317, 0.17987454, 0.0026946163, 0.008926367, 0.25566864, 0
673, 48868970, 0.9829051, -0.0138532035, 0.036740154, 0.17987722, 0.010516173, 0.0126767885, 0.20703793, 0
674, 48885637, 0.9829058, -0.013848633, 0.03670918, 0.17988, -0.03125711, 0.004249582, 0.3191681, 0
675, 48902304, 0.98290116, -0.0138557255, 0.03679404, 0.1798876, 0.020767035, 0.01642133, 0.16747093, 0
676, 48918971, 0.98290217, -0.0138578545, 0.036722753, 0.1798962, 6.8774936E-4, 0.003050784, 0.20832348, 0
677, 48935638, 0.9829034, -0.013871278, 0.03671166, 0.17989074, -0.0034145794, 0.0092780925, 0.29622364, 0
678, 48952305, 0.98290235, -0.01387745, 0.036735307, 0.17989208, 0.002165589, 0.016625704, 0.23322868, 0
679, 48968972, 0.98290074, -0.013880345, 0.036717914, 0.17990354, 0.0010260083, 0.006240789, 0.22619343, 0
680, 48985639, 0.9829008, -0.013875137, 0.036723115, 0.17990215, 0.012695927, 0.0022120797, 0.2651863, 0
681, 49002306, 0.98289984, -0.013862215, 0.036732346, 0.17990702, 0.012175337, -5.4310856E-4, 0.25713158, 0
682, 49018973, 0.98289984, -0.013859, 0.03673888, 0.17990558, -0.0038161764, 0.018664729, 0.22941875, 0
683, 49035640, 0.98289835, -0.013859053, 0.03673479, 0.1799152, 0.009585549, -0.0040500266, 0.26504612, 0
684, 49052307, 0.982897, -0.013859857, 0.03676175, 0.17991748, -0.00400443, -3.997669E-4, 0.22883797, 0
685, 49068974, 0.982895, -0.013867864, 0.036757953, 0.17992756, -0.0017171942, 0.013990095, 0.24494553, 0
686, 49085641, 0.9828939, -0.013865499, 0.036761455, 0.1799331, -2.3952207E-4, 0.0069697346, 0.25903702, 0
687, 49102308, 0.98289233, -0.013873247, 0.036775086, 0.17993829, -0.0038964455, -0.0027873463, 0.23588848, 0
688, 49118975, 0.9828927, -0.013875163, 0.03676618, 0.17993785, -8.753885E-4, 0.013575353, 0.24904919, 0
689, 49135642, 0.9828913, -0.013875995, 0.03676985, 0.17994486, 4.2355704E-4, 0.0043688263, 0.2520542, 0
690, 49152309, 0.9828888, -0.013871987, 0.03678862, 0.17995495, -0.0070642387, 0.009418473, 0.22772312, 0
691, 49168976, 0.98288846, -0.013865805, 0.03677758, 0.17995968, -0.007210556, -5.698882E-4, 0.23382664, 0
692, 49185643, 0.9828889, -0.0138619235, 0.0367796, 0.17995712, 0.010151651, 0.009689468, 0.23591423, 0
693, 49202310, 0.98288715, -0.013865447, 0.03678063, 0.17996594, 7.828541E-4, 0.021453563, 0.2358303, 0
694, 49218977, 0.98288536, -0.0138609465, 0.03677565, 0.17997758, 0.0019445907, 0.015618373, 0.25724792, 0
695, 49235644, 0.9828839, -0.013866688, 0.03679179, 0.179982, -0.0037836274, 0.010127065, 0.25837994, 0
696, 49252311, 0.98288125, -0.013871696, 0.036795888, 0.17999513, 0.005873585, 0.014647502, 0.25554562, 0
697, 49268978, 0.98288065, -0.013871922, 0.036781132, 0.18000118, -0.0023066537, 0.009788093, 0.22791195, 0
698, 49285645, 0.98287934, -0.013864625, 0.03679062, 0.1800071, 0.0010189955, 0.0046092, 0.25017166, 0
699, 49302312, 0.9828785, -0.013861654, 0.036787998, 0.18001243, 0.0053855446, 0.010203883, 0.25337887, 0
700, 49318979, 0.9828779, -0.013857099, 0.03677675, 0.18001829, 0.0035164454, 0.0039983676, 0.28796768, 0
701, 49335646, 0.9828771, -0.013860551, 0.036780156, 0.18002181, -0.0057367673, 0.0051392615, 0.24778366, 0
702, 49352313, 0.982875, -0.013858312, 0.036782, 0.18003255, -0.0045838035, 0.0037240053, 0.2341547, 0
703, 49368980, 0.9828735, -0.013857492, 0.036775604, 0.18004277, -0.010381059, -0.0046183784, 0.2306385, 0
704, 49385647, 0.98287195, -0.013853836, 0.03679082, 0.1800481, 0.005380655, 0.0020836436, 0.24927521, 0
705, 49402314, 0.9828733, -0.013856571, 0.036794655, 0.18003985, -0.003006808, 0.010115805, 0.24409676, 0
706, 49418981, 0.9828736, -0.013856093, 0.036793824, 0.18003853, -0.005288987, 0.0075445264, 0.25924683, 0
707, 49435648, 0.98287266, -0.013856144, 0.03679569, 0.18004294, -0.00357414, -0.002391924, 0.24878597, 0
708, 49452315, 0.98287266, -0.013848568, 0.036795918, 0.18004361, 0.0071055605, 0.0075218957, 0.24033642, 0
709, 49468982, 0.9828734, -0.013842138, 0.03678588, 0.18004245, -0.007231538, 0.016422978, 0.26002312, 0
710, 49485649, 0.98287326, -0.013849375, 0.036797766, 0.18004002, 0.010617815, 0.018142324, 0.24182701, 0
711, 49502316, 0.9828737, -0.01384735, 0.036802188, 0.18003699, 0.008316638, 0.011309071, 0.25481415, 0
712, 49518983, 0.9828735, -0.013861764, 0.036806285, 0.18003619, -0.008289648, 0.0028427355, 0.24257755, 0
713, 49535650, 0.98287094, -0.013864665, 0.03680504, 0.18004997, -0.0021194057, 0.01521225, 0.23042965, 0
714, 49552317, 0.9828715, -0.013865376, 0.036796812, 0.18004869, -0.0030543604, 0.007414316, 0.23788357, 0
715, 49568984, 0.9828698, -0.013856725, 0.03679713, 0.18005851, 0.0017116622, 0.009696439, 0.24859238, 0
716, 49585651, 0.982869, -0.013861662, 0.03679683, 0.18006232, -0.0042551, 0.0034146493, 0.21598434, 0
717, 49602318, 0.98286897, -0.013858976, 0.03680371, 0.18006144, -0.001256059, 0.011341006, 0.2222166, 0
718, 49618985, 0.9828659, -0.013864056, 0.036816727, 0.18007496, 0.0021670698, 0.0033362522, 0.24900913, 0
719, 49635652, 0.9828776, -0.013776915, 0.036717042, 0.1800385, -0.010485076, 0.018007768, 0.25649452, 0
720, 49652319, 0.9828769, -0.01376653, 0.03671833, 0.18004262, -6.4067193E-4, 0.0074200854, 0.24938488, 0
721, 49668986, 0.98287594, -0.013773554, 0.036711063, 0.18004893, -0.0066623064, 0.0015485396, 0.2503004, 0
722, 49685653, 0.9828768, -0.013778003, 0.036707498, 0.18004431, 0.005952653, 0.0023919658, 0.24270535, 0
723, 49702320, 0.98287547, -0.013771629, 0.03669924, 0.18005371, 0.004824499, 0.011332023, 0.25185966, 0
724, 49718987, 0.9828746, -0.013768039, 0.036703017, 0.18005791, 0.010475437, 0.011767692, 0.2704649, 0
725, 49735654, 0.9828746, -0.013774395, 0.036711983, 0.18005559, -0.008138889, 0.003924245, 0.23405743, 0
726, 49752321, 0.98287356, -0.013776423, 0.03669982, 0.18006352, -0.0051818127, 0.009317235, 0.26106834, 0
727, 49768988, 0.98287284, -0.013773596, 0.036694795, 0.1800689, 0.0027232538, 0.009081527, 0.24756527, 0
728, 49785655, 0.9828735, -0.013766383, 0.03668977, 0.18006699, 0.00986832, 0.0061102295, 0.25448513, 0
729, 49802322, 0.9828729, -0.013764776, 0.0366856, 0.1800713, -0.0061162086, 0.005823574, 0.26437092, 0
730, 49818989, 0.9828701, -0.013769763, 0.036698554, 0.18008354, 0.0014200616, 0.007886138, 0.23406982, 0
731, 49835656, 0.9828701, -0.013770558, 0.03669299, 0.18008487, -0.0077771614, 0.007312031, 0.23516369, 0
732, 49852323, 0.9828704, -0.01375873, 0.03669678, 0.1800835, 0.011091774, 0.0021184697, 0.25446224, 0
733, 49868990, 0.9828689, -0.013758479, 0.036711983, 0.18008825, 0.003148627, 0.010137891, 0.24015045, 0
734, 49885657, 0.9828674, -0.013757723, 0.03671125, 0.18009655, 0.003069755, 0.012218503, 0.25035477, 0
735, 49902324, 0.98286706, -0.013751843, 0.036708675, 0.18009911, -0.003609399, -8.220108E-4, 0.22752666, 0
736, 49918991, 0.98286843, -0.013738793, 0.0367036, 0.18009354, -0.0027450745, 0.0068380856, 0.253335, 0
737, 49935658, 0.9828689, -0.013746103, 0.03670556, 0.18009056, -0.0023520547, 0.0024216091, 0.22393036, 0
738, 49952325, 0.98286873, -0.013745359, 0.03670477, 0.18009205, 0.0036739104, -0.002293187, 0.24933338, 0
739, 49968992, 0.9828689, -0.0137565825, 0.03670299, 0.18008986, -0.0011819644, 0.0036238434, 0.22980785, 0
740, 49985659, 0.9828663, -0.013767018, 0.036710482, 0.18010189, -0.0060012112, -0.0015343745, 0.24839878, 0
741, 50002326, 0.9828656, -0.013771954, 0.036709283, 0.18010558, 0.008967843, 3.01044E-4, 0.26262188, 0
742, 50018993, 0.9828655, -0.013775695, 0.036696807, 0.1801088, 0.00442768, -0.004737329, 0.25698185, 0
743, 50035660, 0.98286533, -0.013772304, 0.03669414, 0.18010983, -0.0032352104, 0.0022059751, 0.24462223, 0
744, 50052327, 0.98286444, -0.013776441, 0.036686756, 0.18011664, -0.008000228, 0.0042686504, 0.27056885, 0
745, 50068994, 0.9828639, -0.0137776015, 0.036688786, 0.18011877, -0.007924009, 0.0034384534, 0.2513275, 0
746, 50085661, 0.9828645, -0.013779229, 0.036670104, 0.18011904, -0.003707158, -8.574376E-4, 0.23754406, 0
747, 50102328, 0.9828627, -0.0137921255, 0.036675252, 0.18012671, -0.0068221185, -0.0011175508, 0.23325539, 0
748, 50118995, 0.9828632, -0.01378841, 0.03666485, 0.1801265, 0.00427435, 9.564958E-5, 0.25540066, 0
749, 50135662, 0.9828616, -0.013779618, 0.036658812, 0.18013732, -0.012827716, 0.01225678, 0.23808193, 0
750, 50152329, 0.98286146, -0.013779496, 0.03666166, 0.1801371, 7.508079E-4, 0.0012127114, 0.2548294, 0
751, 50168996, 0.9828604, -0.013779954, 0.036664385, 0.18014234, -0.0026317253, 0.016186794, 0.25106525, 0
752, 50185663, 0.982861, -0.0137834065, 0.036666967, 0.18013808, -0.0016829128, 0.0062342933, 0.23783779, 0
753, 50202330, 0.98286027, -0.013790409, 0.036649894, 0.18014583, -0.019431211, -0.0047264886, 0.255373, 0
754, 50218997, 0.9828593, -0.013786152, 0.03665345, 0.18015046, -0.010237341, -0.0010314704, 0.23414421, 0
755, 50235664, 0.9828578, -0.01379346, 0.03665966, 0.1801568, -0.013844951, 0.009807176, 0.23470974, 0
756, 50252331, 0.98285633, -0.013792667, 0.036669675, 0.18016315, -0.0059758704, 0.0019129496, 0.25732613, 0
757, 50268998, 0.9828564, -0.013799708, 0.036666933, 0.18016198, 8.38006E-4, 0.014871784, 0.25660706, 0
758, 50285665, 0.98285574, -0.013797271, 0.036667325, 0.1801665, 0.0010938165, -0.0031265272, 0.24613476, 0
759, 50302332, 0.9828552, -0.013794705, 0.036653526, 0.18017168, 0.001282182, 0.0087339645, 0.24565029, 0
760, 50318999, 0.98285276, -0.013800912, 0.03664347, 0.18018611, 0.0043626935, 0.009243281, 0.23287773, 0
761, 50335666, 0.98285174, -0.013805562, 0.036630534, 0.18019448, 0.0018238378, 7.365171E-4, 0.25668716, 0
762, 50352333, 0.98285127, -0.013798047, 0.0366281, 0.18019837, -0.009169926, 0.0014840143, 0.2415905, 0
763, 50369000, 0.98285025, -0.013798839, 0.036636714, 0.18020214, -0.010693642, -0.005363361, 0.2533617, 0
764, 50385667, 0.9828502, -0.013791536, 0.036631543, 0.180204, -0.011673607, -0.0025921217, 0.24303532, 0
765, 50402334, 0.98284847, -0.013792132, 0.03662457, 0.18021464, 8.6362613E-4, 0.009595844, 0.24959946, 0
766, 50419001, 0.9828484, -0.013790757, 0.036642283, 0.18021105, -0.0013398484, -0.0037510642, 0.22426224, 0
767, 50435668, 0.9828462, -0.013786428, 0.036644462, 0.18022369, -0.0029967779, -4.8992643E-4, 0.24015331, 0
768, 50452335, 0.9828434, -0.013785426, 0.036650375, 0.1802378, -0.006060414, 0.0064901737, 0.24983788, 0
769, 50469002, 0.9828424, -0.01378749, 0.036661495, 0.180241, 0.005236545, 0.00452224, 0.24285698, 0
770, 50485669, 0.98284304, -0.013811815, 0.036679402, 0.18023154, -0.012588054, -0.004556158, 0.22385788, 0
771, 50502336, 0.9828468, -0.013792406, 0.03660743, 0.1802271, 0.036133412, 0.014867006, 0.33287716, 0
772, 50519003, 0.9828467, -0.013807157, 0.036660273, 0.18021554, -0.025495816, 0.0045973263, 0.21290112, 0
773, 50535670, 0.9828441, -0.013819246, 0.036647078, 0.18023217, -0.0066481694, -0.014888436, 0.26822186, 0
774, 50552337, 0.9828438, -0.0138165355, 0.036644805, 0.18023485, 0.021009324, -0.0059835394, 0.25820446, 0
775, 50569004, 0.9828425, -0.013823626, 0.0366548, 0.18023878, -0.011594455, -5.817902E-4, 0.17339802, 0
776, 50585671, 0.9828433, -0.013816654, 0.036613658, 0.18024367, 0.0060942206, 8.857399E-4, 0.27643394, 0
777, 50602338, 0.9828425, -0.013813371, 0.036615152, 0.18024768, -0.0050064106, 0.009886146, 0.28187084, 0
778, 50619005, 0.9828407, -0.013817368, 0.03664416, 0.18025115, -0.014509316, 0.01599354, 0.20359516, 0
779, 50635672, 0.98284084, -0.013808491, 0.036623113, 0.18025528, -0.00604217, 8.85251E-5, 0.25804615, 0
780, 50652339, 0.9828415, -0.013803893, 0.03663124, 0.18025033, -0.0027238405, 0.0016011909, 0.24009418, 0
781, 50669006, 0.9828385, -0.013805322, 0.036642827, 0.1802643, -0.019123405, -0.0015654708, 0.20891094, 0
782, 50685673, 0.98284, -0.013810224, 0.036628302, 0.18025854, -0.0075006755, 0.019523885, 0.26018238, 0
783, 50702340, 0.9828367, -0.013809113, 0.036640543, 0.18027422, -0.011606413, 0.008317574, 0.24452496, 0
784, 50719007, 0.9828366, -0.013809421, 0.036652043, 0.18027258, -0.0018396234, -3.298213E-4, 0.21265602, 0
785, 50735674, 0.9828358, -0.013803304, 0.036628954, 0.18028183, -0.007731481, -0.0032020325, 0.27559853, 0
786, 50752341, 0.9828336, -0.01380919, 0.036667027, 0.18028553, 0.0050443523, 0.010283021, 0.22271824, 0
787, 50769008, 0.9828333, -0.013806131, 0.036665123, 0.1802886, -0.013456877, 0.00356573, 0.24250507, 0
788, 50785675, 0.9828322, -0.013807756, 0.03665663, 0.18029614, 0.0063369833, -0.0063678143, 0.25884342, 0
789, 50802342, 0.9828321, -0.013815651, 0.036664955, 0.18029462, -0.013875294, -2.0172044E-4, 0.2296009, 0
790, 50819009, 0.9828328, -0.013813449, 0.036661725, 0.18029143, -0.007942282, 0.0129103875, 0.25130463, 0
791, 50835676, 0.98283213, -0.013809705, 0.036653522, 0.18029626, -0.0037458257, 0.013146222, 0.26594543, 0
792, 50852343, 0.9828307, -0.013811299, 0.036675364, 0.18029995, -0.011308024, 0.0039340514, 0.22264099, 0
793, 50869010, 0.98283184, -0.013816023, 0.036652956, 0.18029788, 2.0677742E-4, 0.006819618, 0.2277441, 0
794, 50885677, 0.9828319, -0.013814747, 0.036663927, 0.18029536, 0.0056397626, -0.0014431254, 0.26528072, 0
795, 50902344, 0.98283106, -0.013825428, 0.036680784, 0.18029581, -0.0027615584, 0.0021371332, 0.21995068, 0
796, 50919011, 0.9828304, -0.013823967, 0.036672853, 0.18030086, -0.014466066, 0.022986917, 0.23801517, 0
797, 50935678, 0.98282945, -0.013826631, 0.03668727, 0.1803027, -0.006991569, 0.010995133, 0.2419405, 0
798, 50952345, 0.98282737, -0.013836128, 0.036693495, 0.18031263, -0.010532573, -1.1478787E-4, 0.2298727, 0
799, 50969012, 0.9828286, -0.013833869, 0.03668925, 0.18030667, -0.0026238465, -0.004373045, 0.25044537, 0
800, 50985679, 0.98282856, -0.013830991, 0.036697887, 0.18030557, 0.002006392, 0.0060657086, 0.25807953, 0
801, 51002346, 0.9828292, -0.013827649, 0.036701873, 0.18030152, 0.0101716, 0.0069592996, 0.23916435, 0
802, 51019013, 0.98282963, -0.013823405, 0.036687102, 0.18030208, -0.012617921, 0.0039484543, 0.23888683, 0
803, 51035680, 0.9828283, -0.013822824, 0.03669344, 0.18030794, -0.015396746, 0.0083900755, 0.25949097, 0
804, 51052347, 0.982826, -0.013830048, 0.036707748, 0.18031742, -0.009281208, 0.0015591566, 0.22848892, 0
805, 51069014, 0.9828269, -0.013828919, 0.036696605, 0.18031485, 0.0037811408, 0.014512892, 0.25815678, 0
806, 51085681, 0.98282456, -0.013826309, 0.03669351, 0.18032801, 0.0046173586, 0.004609256, 0.25254726, 0
807, 51102348, 0.9828245, -0.013828002, 0.036697265, 0.1803282, 0.0037293416, -1.6366736E-4, 0.22412014, 0
808, 51119015, 0.98282534, -0.013827451, 0.03668267, 0.18032621, 0.007060439, 0.009055795, 0.24198818, 0
809, 51135682, 0.9828229, -0.013830233, 0.036684256, 0.1803387, 0.013636498, 0.0073301913, 0.26382732, 0
810, 51152349, 0.98282117, -0.013827127, 0.03668923, 0.1803478, -0.0013795778, 0.005460673, 0.24892712, 0
811, 51169016, 0.98282033, -0.013826106, 0.036688626, 0.1803522, -0.0032323047, -8.082927E-4, 0.24329758, 0
812, 51185683, 0.98281795, -0.013830503, 0.036679275, 0.18036705, -0.011851886, 0.012267956, 0.23410416, 0
813, 51202350, 0.98281807, -0.013825093, 0.036672357, 0.18036842, -0.0061542615, 0.016125705, 0.24747849, 0
814, 51219017, 0.98281723, -0.013828908, 0.036683556, 0.18037029, -0.002437744, 0.003074658, 0.23909378, 0
815, 51235684, 0.98281753, -0.013833618, 0.03669162, 0.18036698, 0.004040863, 0.003949907, 0.25610065, 0
816, 51252351, 0.98281676, -0.013827009, 0.036696482, 0.18037067, 0.005981123, 0.0056046015, 0.25351048, 0
817, 51269018, 0.98281705, -0.013828898, 0.03670195, 0.18036698, -0.0014012307, 0.008483602, 0.22340775, 0
818, 51285685, 0.98281676, -0.0138259195, 0.03670176, 0.1803694, 0.006485033, 0.003988393, 0.2540779, 0
819, 51302352, 0.9828153, -0.013826889, 0.036701478, 0.18037733, -0.0037927355, 0.00265437, 0.2299633, 0
820, 51319019, 0.9828149, -0.013833303, 0.03669757, 0.18038003, 0.004052178, 0.012869108, 0.24596691, 0
821, 51335686, 0.9828133, -0.013830206, 0.036698464, 0.18038897, -0.008439262, -0.0066324957, 0.22954655, 0
822, 51352353, 0.98281235, -0.013829338, 0.03669763, 0.18039428, -0.004632194, 0.00996756, 0.22840118, 0
823, 51369020, 0.9828114, -0.013822867, 0.03669281, 0.18040088, 0.0023604645, 0.009606028, 0.26254845, 0
824, 51385687, 0.9828101, -0.013827937, 0.036697518, 0.18040682, -0.009885475, 0.008686217, 0.23221684, 0
825, 51402354, 0.98280966, -0.013829123, 0.036696553, 0.18040918, -0.012195342, 0.009584599, 0.24442673, 0
826, 51419021, 0.9828092, -0.013835898, 0.036700025, 0.18041044, 0.0022118562, 0.004269768, 0.2486496, 0
827, 51435688, 0.98280865, -0.013838569, 0.036698747, 0.18041286, 0.005435975, 0.00930775, 0.25126934, 0
828, 51452355, 0.9828079, -0.013844066, 0.03670158, 0.18041612, 0.0024367382, 0.0043247244, 0.24272346, 0
829, 51469022, 0.9828086, -0.013842834, 0.0367071, 0.18041134, -0.017617235, 0.01972138, 0.23042297, 0
830, 51485689, 0.98280746, -0.013846751, 0.03671999, 0.18041474, 0.0032159882, 0.019005852, 0.23462868, 0
831, 51502356, 0.9828069, -0.013847047, 0.036715776, 0.18041869, -0.008716307, 0.0124668125, 0.24306107, 0
832, 51519023, 0.98280656, -0.013848061, 0.036720563, 0.180419, 0.0063115307, 0.009408219, 0.23261547, 0
833, 51535690, 0.9828057, -0.013845837, 0.036724295, 0.18042399, 0.005928737, 0.0058134184, 0.23652554, 0
834, 51552357, 0.98280567, -0.013845283, 0.036712743, 0.18042609, 4.1500767E-4, -0.00641559, 0.24597263, 0
835, 51569024, 0.98280567, -0.013847453, 0.03671728, 0.18042512, 0.010796151, 0.011224555, 0.2569914, 0
836, 51585691, 0.98280656, -0.013858037, 0.036717862, 0.1804193, -0.008775789, -9.878994E-4, 0.23536491, 0
837, 51602358, 0.98280543, -0.013856246, 0.03671678, 0.18042584, -1.9023746E-4, 0.019799225, 0.2614441, 0
838, 51619025, 0.98280597, -0.01385274, 0.036723364, 0.1804216, -0.0065471134, 0.0017703902, 0.24002266, 0
839, 51635692, 0.9828202, -0.013816475, 0.036707655, 0.18034984, 0.009145703, 0.006124059, 0.24963951, 0
840, 51652359, 0.9828206, -0.013811525, 0.036700327, 0.18034972, -6.8724644E-4, 0.003678311, 0.23420429, 0
841, 51669026, 0.9828172, -0.013812927, 0.036702063, 0.18036808, -8.247628E-4, -0.0016926636, 0.2614603, 0
842, 51685693, 0.9828159, -0.013802918, 0.0366982, 0.18037654, -0.003209646, 0.0074719125, 0.25406456, 0
843, 51702360, 0.98281544, -0.013800263, 0.0367042, 0.18037835, -0.002194143, -0.005574357, 0.21539211, 0
844, 51719027, 0.98281443, -0.013806172, 0.03670105, 0.18038322, -0.0017728489, 0.0054182056, 0.24628353, 0
845, 51735694, 0.9828138, -0.0137960585, 0.036696963, 0.18038918, -5.3355336E-4, -0.0050579864, 0.25567913, 0
846, 51752361, 0.98281246, -0.013800244, 0.036706105, 0.18039407, 0.007200721, 0.0070557455, 0.24934006, 0
847, 51769028, 0.98281103, -0.013792385, 0.03670374, 0.18040295, 0.0014131607, 0.009000573, 0.2457552, 0
848, 51785695, 0.98281085, -0.013798269, 0.03670086, 0.18040419, 0.0063585243, 0.020738734, 0.26469135, 0
849, 51802362, 0.98280966, -0.013798143, 0.036708556, 0.18040879, 1.4385853E-4, 0.014996099, 0.24003124, 0
850, 51819029, 0.98280907, -0.01379979, 0.036705658, 0.18041267, 0.0032709446, 0.0026451221, 0.2426014, 0
851, 51835696, 0.9828095, -0.013795346, 0.036701173, 0.18041167, -0.005350649, -0.0012424387, 0.25300312, 0
852, 51852363, 0.9828094, -0.013794827, 0.03671262, 0.1804098, 7.21863E-4, 0.008263595, 0.2537117, 0
853, 51869030, 0.9828082, -0.013790556, 0.036698304, 0.18041894, 0.006211034, -4.151334E-4, 0.23243618, 0
854, 51885697, 0.9828075, -0.013792414, 0.03669073, 0.1804243, 0.009068703, 0.022075746, 0.2311182, 0
855, 51902364, 0.9828082, -0.013794304, 0.036689524, 0.18042108, 0.007152163, 0.018143203, 0.2417574, 0
856, 51919031, 0.9828081, -0.013797102, 0.03668983, 0.18042104, -0.0056906957, 0.00175765, 0.22296429, 0
857, 51935698, 0.98280597, -0.0137967095, 0.036686458, 0.18043348, -0.0018869522, 0.005343678, 0.24428368, 0
858, 51952365, 0.9828063, -0.013802183, 0.036691807, 0.18042989, -0.0076586995, 0.011569254, 0.25363827, 0
859, 51969032, 0.9828063, -0.013811143, 0.03669567, 0.1804287, -0.0025018922, 0.008285304, 0.212286, 0
860, 51985699, 0.9828077, -0.013809032, 0.036678452, 0.18042512, -0.023255993, -0.015029053, 0.28359032, 0
861, 52002366, 0.98280513, -0.013809837, 0.03672427, 0.18042965, 0.018170206, 0.027301403, 0.24567986, 0
862, 52019033, 0.9828054, -0.013801169, 0.036693286, 0.18043497, -0.010658607, 7.297698E-5, 0.21689415, 0
863, 52035700, 0.9828038, -0.013802007, 0.036689013, 0.18044434, -0.007937867, 0.0017859943, 0.25746346, 0
864, 52052367, 0.98280346, -0.013805214, 0.036692433, 0.1804454, 0.0044727176, 0.020530572, 0.22778606, 0
865, 52069034, 0.9828053, -0.0138116805, 0.03667631, 0.18043803, -0.0041960087, 0.009532814, 0.24339962, 0
866, 52085701, 0.98280615, -0.013820516, 0.03667742, 0.18043254, -0.012065592, -0.0036744692, 0.2677288, 0
867, 52102368, 0.98280376, -0.013822435, 0.036694746, 0.1804418, -0.011082051, 0.008456669, 0.21896553, 0
868, 52119035, 0.98280275, -0.013824912, 0.036706712, 0.18044458, 0.004357916, 0.002411565, 0.24021244, 0
869, 52135702, 0.98280245, -0.013812919, 0.036695786, 0.18044922, 0.012541312, 0.012249124, 0.2620201, 0
870, 52152369, 0.9827995, -0.013818849, 0.03671994, 0.18046044, 0.0013984926, 0.021417318, 0.21400547, 0
871, 52169036, 0.9827996, -0.01381166, 0.0367086, 0.18046275, -0.0026691917, -0.005524779, 0.25584793, 0
872, 52185703, 0.9827987, -0.013809163, 0.03671683, 0.1804661, 0.0050570644, 0.0034908394, 0.25892925, 0
873, 52202370, 0.98279744, -0.01381501, 0.036712237, 0.18047334, 0.008295432, -6.923454E-4, 0.23052788, 0
874, 52219037, 0.98279905, -0.013812571, 0.03670076, 0.18046711, -0.0066468283, 3.0256668E-4, 0.2590685, 0
875, 52235704, 0.9827976, -0.013808219, 0.03670739, 0.1804739, 0.0015672449, 0.0045462255, 0.23467445, 0
876, 52252371, 0.9827987, -0.013807717, 0.03670341, 0.18046886, 0.009215159, -0.0030914217, 0.24286747, 0
877, 52269038, 0.9827984, -0.013813477, 0.036702823, 0.18047056, -0.0039771893, -0.003165237, 0.25490856, 0
878, 52285705, 0.9827971, -0.013822254, 0.036716893, 0.18047369, 0.009333147, 0.012320984, 0.2462616, 0
879, 52302372, 0.9827979, -0.013816758, 0.036706284, 0.18047172, 5.825027E-4, 0.004423042, 0.24655151, 0
880, 52319039, 0.9827976, -0.013816574, 0.036701255, 0.18047446, 0.0032552986, 0.0036709209, 0.24476528, 0
881, 52335706, 0.98279566, -0.013815355, 0.03670411, 0.18048424, 0.0071837623, 0.017865796, 0.23998165, 0
882, 52352373, 0.9827972, -0.013823281, 0.03669244, 0.18047829, -0.0020874154, 0.012908376, 0.23400688, 0
883, 52369040, 0.98279464, -0.013820775, 0.036704708, 0.18048929, -0.009853485, 0.0037068645, 0.27394676, 0
884, 52385707, 0.98279184, -0.013819119, 0.036720745, 0.18050137, -0.002529999, -0.0022067854, 0.22095871, 0
885, 52402374, 0.982792, -0.0138195325, 0.036715586, 0.18050201, -0.0014486713, -9.510756E-4, 0.25455475, 0
886, 52419041, 0.98279166, -0.013812566, 0.036709305, 0.18050599, 0.002603926, -0.0015232827, 0.27206802, 0
887, 52435708, 0.9827918, -0.013806737, 0.03671241, 0.18050446, -3.2970955E-4, -0.0067867613, 0.24440575, 0
888, 52452375, 0.982794, -0.013818294, 0.03670363, 0.18049374, -6.8459223E-4, 0.0014173236, 0.25209808, 0
889, 52469042, 0.98279357, -0.013818824, 0.03670174, 0.18049592, 0.014932537, 4.0626273E-4, 0.22305965, 0
890, 52485709, 0.98279536, -0.01381597, 0.036701106, 0.18048656, -0.0015432731, 0.008849045, 0.24585533, 0
891, 52502376, 0.9827968, -0.013812683, 0.03670337, 0.180479, 0.0034869977, -0.0027070772, 0.2636509, 0
892, 52519043, 0.9827949, -0.013822749, 0.036729593, 0.18048339, -0.024428764, -0.0062277415, 0.20320892, 0
893, 52535710, 0.9827984, -0.013803369, 0.0366768, 0.18047605, 0.031146446, 0.013481547, 0.31362247, 0
894, 52552377, 0.98279774, -0.013795953, 0.036712173, 0.18047296, -0.011303358, -0.005337084, 0.21619606, 0
895, 52569044, 0.98279744, -0.013794236, 0.03671487, 0.18047446, -0.014940528, -0.0010682942, 0.24105072, 0
896, 52585711, 0.9827974, -0.013787604, 0.036711954, 0.18047601, 0.015918983, 0.009922885, 0.21827221, 0
897, 52602378, 0.98279494, -0.013787541, 0.036719274, 0.18048781, -0.008627432, 0.0033913201, 0.2023449, 0
898, 52619045, 0.9827951, -0.013788312, 0.03668557, 0.18049343, 0.011402793, -0.010852573, 0.25163937, 0
899, 52635712, 0.98279405, -0.013793636, 0.036694005, 0.1804972, 0.0031545223, 0.017374793, 0.24539852, 0
900, 52652379, 0.982795, -0.013799713, 0.03669795, 0.18049061, -0.013332073, 0.0151563715, 0.22750473, 0
901, 52669046, 0.98279554, -0.013798393, 0.036688834, 0.18048984, -0.010202304, -2.4195277E-4, 0.27312946, 0
902, 52685713, 0.9827934, -0.013792471, 0.036709398, 0.18049775, -0.0069749174, 0.0031904099, 0.24852848, 0
903, 52702380, 0.98279434, -0.013795843, 0.036703058, 0.18049344, -0.008782551, 4.6454373E-4, 0.2299509, 0
904, 52719047, 0.982795, -0.0137919355, 0.036695044, 0.18049185, 0.008276182, -0.0020180007, 0.24829292, 0
905, 52735714, 0.9827957, -0.013789954, 0.036710516, 0.18048485, 0.0015392778, 0.0010500778, 0.23979378, 0
906, 52752381, 0.98279405, -0.013791394, 0.036707148, 0.18049456, -5.899904E-4, 0.0059571373, 0.22284031, 0
907, 52769048, 0.98279375, -0.013792788, 0.03670044, 0.18049724, 0.010194705, 0.0039727474, 0.24744034, 0
908, 52785715, 0.9827933, -0.013792664, 0.0366974, 0.18050046, 0.0036047332, -0.003853154, 0.2176485, 0
909, 52802382, 0.9827943, -0.0137952315, 0.036692675, 0.1804958, -0.0011768516, 0.007544289, 0.24324417, 0
910, 52819049, 0.9827949, -0.013795572, 0.036703013, 0.18049043, 0.005480454, 0.004010004, 0.24075222, 0
911, 52835716, 0.98279387, -0.013794132, 0.036720466, 0.18049274, -0.008608545, 0.009341906, 0.22716331, 0
912, 52852383, 0.98279274, -0.013794804, 0.0367167, 0.18049964, -0.005053516, 0.005501017, 0.23772812, 0
913, 52869050, 0.98279244, -0.013798663, 0.03672108, 0.18050008, 0.0013114902, 0.013772938, 0.23671532, 0
914, 52885717, 0.98279226, -0.0138073815, 0.03671957, 0.18050072, -0.007768668, -0.003250479, 0.228055, 0
915, 52902384, 0.9827917, -0.013811477, 0.036724094, 0.18050222, 9.381118E-4, -0.014334235, 0.2290926, 0
916, 52919051, 0.9827908, -0.01380899, 0.0367142, 0.18050899, 0.0023533679, 0.0041828356, 0.2522936, 0
917, 52935718, 0.9827906, -0.013811011, 0.036714174, 0.18051054, 0.0013306285, 0.0052620396, 0.23857403, 0
918, 52952385, 0.9827889, -0.013804907, 0.036709983, 0.1805208, 0.0037145617, 0.007394954, 0.2247839, 0
919, 52969052, 0.9827877, -0.013795788, 0.036714975, 0.18052682, 0.0036563645, -0.0021810813, 0.24078655, 0
920, 52985719, 0.9827879, -0.01379654, 0.036720354, 0.18052508, 0.0020428805, 0.003711321, 0.22451401, 0
921, 53002386, 0.9827869, -0.013788771, 0.03671844, 0.1805316, 0.013970762, 0.0033268787, 0.24970627, 0
922, 53019053, 0.9827849, -0.013786891, 0.03672465, 0.180541, -0.0020983117, 0.028466268, 0.2523651, 0
923, 53035720, 0.98278546, -0.013786519, 0.036721915, 0.1805386, 8.323623E-4, 0.0054141823, 0.21534157, 0
924, 53052387, 0.9827838, -0.013791049, 0.03672207, 0.18054701, 0.006846984, 6.139202E-4, 0.2390852, 0
925, 53069054, 0.9827822, -0.01379853, 0.03672783, 0.18055442, 0.009804117, 0.011957566, 0.25013542, 0
926, 53085721, 0.98278403, -0.013810327, 0.036734432, 0.1805423, 0.0067590876, -0.010250695, 0.24429989, 0
927, 53102388, 0.98278505, -0.0138093, 0.03673771, 0.18053605, -0.0018163222, 0.008071849, 0.23962688, 0
928, 53119055, 0.98278403, -0.013807097, 0.036734786, 0.18054245, -0.006268393, -0.0021443833, 0.27445984, 0
929, 53135722, 0.98278314, -0.013813679, 0.036736242, 0.18054672, -1.5346958E-4, -0.006352937, 0.26299572, 0
930, 53152389, 0.9827831, -0.01382035, 0.036738586, 0.1805461, -4.542901E-5, 0.021633575, 0.23999119, 0
931, 53169056, 0.9827821, -0.013830381, 0.03673364, 0.18055144, -0.0023159853, 0.013603026, 0.23438168, 0
932, 53185723, 0.982783, -0.01382903, 0.036731724, 0.1805467, -0.0074968482, -0.0017180183, 0.23005962, 0
933, 53202390, 0.98278344, -0.013822329, 0.036733374, 0.18054488, 0.007034232, 0.0018304314, 0.24555969, 0
934, 53219057, 0.98278356, -0.013829462, 0.036737062, 0.18054333, -0.007070162, 0.011667223, 0.24819088, 0
935, 53235724, 0.9827839, -0.01383783, 0.036744386, 0.18053849, -7.0602156E-4, 0.01292792, 0.16258621, 0
936, 53252391, 0.9827867, -0.013826141, 0.036661576, 0.18054116, -0.0038046655, 0.009785914, 0.3869295, 0
937, 53269058, 0.98278075, -0.013843873, 0.036810588, 0.18054192, -0.0033379425, 0.014059203, 0.16777039, 0
938, 53285725, 0.982784, -0.013840024, 0.03674098, 0.18053915, 0.0017917916, 2.7517238E-4, 0.2166853, 0
939, 53302392, 0.9827843, -0.0138363745, 0.03669835, 0.18054587, 0.0040238756, -0.0038202135, 0.30694294, 0
940, 53319059, 0.9827811, -0.013844407, 0.03676028, 0.18055002, -0.0080925105, 0.015854053, 0.19445038, 0
941, 53335726, 0.9827825, -0.013842676, 0.036706198, 0.18055359, -0.004835312, 0.0137942275, 0.24587059, 0
942, 53352393, 0.9827804, -0.013845572, 0.036725003, 0.18056045, 5.2525545E-5, 0.009286642, 0.2724886, 0
943, 53369060, 0.9827799, -0.013849463, 0.036739375, 0.18056086, -0.0023725622, 0.014799226, 0.1885395, 0
944, 53385727, 0.98277944, -0.01385052, 0.036710247, 0.18056923, -0.001695681, -0.0051608165, 0.24482536, 0
945, 53402394, 0.9827806, -0.013848255, 0.036713578, 0.18056266, 0.0072089075, 0.0032351965, 0.28961277, 0
946, 53419061, 0.9827779, -0.013862136, 0.036731146, 0.18057257, -0.0037307106, 0.0034677058, 0.18333244, 0
947, 53435728, 0.98277956, -0.013858248, 0.036704917, 0.18056913, -0.016321056, -6.788647E-4, 0.24301815, 0
948, 53452395, 0.9827788, -0.013851589, 0.036710646, 0.18057278, -0.0028956383, 0.017753411, 0.2622118, 0
949, 53469062, 0.9827784, -0.013845885, 0.036729757, 0.18057145, -3.2956986E-4, 0.0069990847, 0.2122612, 0
950, 53485729, 0.98277944, -0.013849485, 0.036709417, 0.18056946, -0.011719483, 0.009328355, 0.26292706, 0
951, 53502396, 0.9827778, -0.013840258, 0.036726467, 0.18057606, -0.010080043, 0.0070423484, 0.23465252, 0
952, 53519063, 0.98277664, -0.013837178, 0.036726866, 0.18058188, -0.002617253, 0.007726941, 0.23034191, 0
953, 53535730, 0.98277676, -0.013841476, 0.036720116, 0.18058239, 0.004995431, 0.0056439396, 0.26766968, 0
954, 53552397, 0.9827753, -0.0138457455, 0.036732867, 0.18058804, 0.0096424045, 0.0057478035, 0.23738194, 0
955, 53569064, 0.98277414, -0.013854235, 0.036733814, 0.1805925, -0.005718607, -0.0037654948, 0.21329117, 0
956, 53585731, 0.9827746, -0.013853278, 0.036713433, 0.18059394, -0.009245614, 0.012948217, 0.28786564, 0
957, 53602398, 0.98277485, -0.013856979, 0.036729872, 0.18058982, -0.004436425, 0.013436565, 0.23070621, 0
958, 53619065, 0.9827745, -0.013860533, 0.03672763, 0.1805917, -0.0020012232, 0.0039942604, 0.22811031, 0
959, 53635732, 0.98277694, -0.013838194, 0.036713563, 0.18058315, 0.007845668, 0.005183601, 0.24846554, 0
960, 53652399, 0.9827768, -0.013836475, 0.036726654, 0.18058075, 0.0053242743, 0.0032898453, 0.21665096, 0
961, 53669066, 0.98277617, -0.013828785, 0.03672441, 0.18058564, 7.442702E-4, 0.0039306288, 0.21342468, 0
962, 53685733, 0.9827754, -0.013829741, 0.036720995, 0.18059042, 3.4412614E-4, 0.0052052396, 0.24918747, 0
963, 53702400, 0.982774, -0.013829858, 0.036732163, 0.18059514, -0.0070790467, -0.0033012724, 0.24265957, 0
964, 53719067, 0.98277295, -0.013829819, 0.036726926, 0.18060221, -0.0019070964, 7.1479444E-4, 0.20927525, 0
965, 53735734, 0.98277175, -0.013828812, 0.036734313, 0.18060794, 0.0026557809, -0.009386972, 0.23262882, 0
966, 53752401, 0.98277086, -0.013832237, 0.03673758, 0.18061168, 0.0070786276, -0.004082171, 0.2196064, 0
967, 53769068, 0.9827722, -0.013830555, 0.036734745, 0.18060514, -5.091625E-4, 0.015537699, 0.25114632, 0
968, 53785735, 0.98277205, -0.013834693, 0.03672092, 0.18060817, 0.015819045, 0.0047231503, 0.24853516, 0
969, 53802402, 0.9827708, -0.013834191, 0.036731504, 0.18061283, 0.0024783395, 0.015591258, 0.24760056, 0
970, 53819069, 0.98277044, -0.013824541, 0.036719915, 0.18061788, -0.002206967, 0.010851526, 0.25036335, 0
971, 53835736, 0.98276997, -0.013829498, 0.036717996, 0.18062048, -0.009255337, -0.006219988, 0.26165867, 0
972, 53852403, 0.98276955, -0.013834126, 0.0367174, 0.18062283, 0.007880955, -0.0052378024, 0.24543571, 0
973, 53869070, 0.98276746, -0.013822088, 0.03671083, 0.18063603, 0.004031587, -0.006813555, 0.24841213, 0
974, 53885737, 0.982766, -0.013820389, 0.03671643, 0.18064398, -0.018569876, -0.0021608116, 0.24044323, 0
975, 53902404, 0.9827659, -0.013823269, 0.03672685, 0.18064126, -0.005365596, 0.0019300483, 0.23575687, 0
976, 53919071, 0.9827679, -0.013816407, 0.036732364, 0.18062994, 0.0033224642, 0.015790436, 0.22862625, 0
977, 53935738, 0.98276705, -0.013820054, 0.036730163, 0.18063456, -0.009497428, 0.0027207534, 0.2687006, 0
978, 53952405, 0.982769, -0.013811984, 0.03672422, 0.1806258, 0.019516062, -0.0033720422, 0.2422266, 0
979, 53969072, 0.98276645, -0.013810841, 0.03673037, 0.18063857, -0.007173145, -0.008280484, 0.2382307, 0
980, 53985739, 0.9827678, -0.013808366, 0.03673226, 0.1806312, -0.0012560032, 0.008552542, 0.22795677, 0
981, 54002406, 0.98276865, -0.013801516, 0.036741365, 0.1806254, 0.0028566353, -0.0101198, 0.23748302, 0
982, 54019073, 0.9827702, -0.013796896, 0.036727894, 0.18062042, -0.0031231744, -5.8106385E-4, 0.23089695, 0
983, 54035740, 0.9827707, -0.013800162, 0.036717337, 0.18061888, -0.004370405, -3.532343E-4, 0.24135494, 0
984, 54052407, 0.9827699, -0.013791604, 0.03672721, 0.18062183, -0.001781929, 0.014472171, 0.24122047, 0
985, 54069074, 0.98277014, -0.013793729, 0.03672523, 0.18062045, -0.012002842, -0.0012797514, 0.23422337, 0
986, 54085741, 0.98276913, -0.013792296, 0.036722846, 0.18062662, 0.0019481389, 0.0055845273, 0.21453571, 0
987, 54102408, 0.98277044, -0.013794323, 0.036704317, 0.18062375, -0.02577747, 0.0070959916, 0.30597878, 0
988, 54119075, 0.98276716, -0.013786094, 0.03673962, 0.18063532, 0.03639263, 0.0106059, 0.24392223, 0
989, 54135742, 0.98276824, -0.013787215, 0.03673395, 0.1806299, -0.00790476, -0.0022679581, 0.1811676, 0
990, 54152409, 0.98276734, -0.01378482, 0.036718465, 0.18063839, -0.015706452, -0.008696596, 0.29808903, 0
991, 54169076, 0.9827653, -0.013784146, 0.036754392, 0.18064249, 0.004780579, 0.0017321975, 0.22809124, 0
992, 54185743, 0.98276424, -0.013783396, 0.036758393, 0.18064673, -0.011626502, -0.0025546553, 0.15580368, 0
993, 54202410, 0.98276585, -0.0137877045, 0.03671173, 0.18064788, 0.0044934484, 0.006284905, 0.2929201, 0
994, 54219077, 0.9827671, -0.013783219, 0.036741134, 0.18063506, 0.008592676, 0.016727136, 0.25048065, 0
995, 54235744, 0.98276603, -0.013785599, 0.036754016, 0.18063831, -0.008260955, 0.0074283835, 0.207098, 0
996, 54252411, 0.9827669, -0.013789607, 0.03672041, 0.18064007, -0.0029712974, 4.342717E-4, 0.28082085, 0
997, 54269078, 0.98276526, -0.01379376, 0.03676112, 0.18064022, -0.002596494, 0.013509919, 0.22076035, 0
998, 54285745, 0.98276573, -0.01379116, 0.036755767, 0.18063888, 0.001595184, -2.4104475E-4, 0.2382431, 0
999, 54302412, 0.9827644, -0.013792507, 0.03674487, 0.18064795, -0.001976916, 0.005100258, 0.2792778, 0
1000, 54319079, 0.982763, -0.013789448, 0.03677029, 0.18065104, 0.008613546, 0.017491706, 0.22066021, 0
1001, 54335746, 0.9827645, -0.013795641, 0.036760975, 0.18064412, -0.011327189, -0.0046884916, 0.22765446, 0
1002, 54352413, 0.9827649, -0.013798074, 0.03675451, 0.18064319, 0.0025436892, 0.003818719, 0.2929201, 0
1003, 54369080, 0.982764, -0.013793358, 0.036769696, 0.1806452, -5.8610685E-4, 1.7540179E-4, 0.21387482, 0
1004, 54385747, 0.9827638, -0.013799159, 0.036754616, 0.18064898, -0.0068463692, 0.0017165376, 0.24471378, 0
1005, 54402414, 0.9827642, -0.013792127, 0.03675364, 0.18064795, -0.003583276, 0.010069398, 0.266037, 0
1006, 54419081, 0.98276174, -0.013796342, 0.03676444, 0.18065855, -0.0029582218, 0.0071888613, 0.22673702, 0
1007, 54435748, 0.98276246, -0.013790431, 0.036756765, 0.18065663, -8.0766407E-4, 0.006738175, 0.23968124, 0
1008, 54452415, 0.982762, -0.013790316, 0.036768474, 0.18065713, 0.010205294, 0.00948128, 0.24011135, 0
1009, 54469082, 0.9827621, -0.013790413, 0.03677456, 0.18065502, -0.01499107, 0.007774032, 0.20658875, 0
1010, 54485749, 0.9827621, -0.013792003, 0.036746535, 0.18066064, 0.0042579216, 2.6990587E-4, 0.25709438, 0
1011, 54502416, 0.98276126, -0.013789684, 0.036766168, 0.18066107, 0.0015211174, 0.005197598, 0.25490093, 0
1012, 54519083, 0.98275924, -0.013787796, 0.036784682, 0.1806683, 0.0074336776, 0.001131241, 0.2175932, 0
1013, 54535750, 0.98275846, -0.01378406, 0.036775585, 0.18067513, 0.003011446, 0.005655241, 0.24897099, 0
1014, 54552417, 0.98275745, -0.01379256, 0.036786087, 0.18067764, 0.003965986, 0.01043832, 0.25504684, 0
1015, 54569084, 0.982758, -0.013790458, 0.03678963, 0.18067425, -0.0051374175, 0.014631591, 0.21113205, 0
1016, 54585751, 0.9827588, -0.013791839, 0.03678727, 0.18067007, 0.00365846, 0.0040266416, 0.23648548, 0
1017, 54602418, 0.9827569, -0.013796871, 0.03680419, 0.18067671, 0.006320751, 0.0069841095, 0.24932289, 0
1018, 54619085, 0.9827559, -0.013808185, 0.0368131, 0.18067946, 0.0011806234, 0.0072730975, 0.2302866, 0
1019, 54635752, 0.98275506, -0.013815013, 0.036805525, 0.18068512, 0.007734051, -0.0021935143, 0.25251675, 0
1020, 54652419, 0.9827537, -0.013808584, 0.03681314, 0.1806916, 0.0060358276, -0.0010249466, 0.25023842, 0
1021, 54669086, 0.9827535, -0.013812966, 0.03681961, 0.18069096, -0.0041600512, -0.0066504325, 0.23174477, 0
1022, 54685753, 0.982754, -0.01382343, 0.036810555, 0.1806892, -0.008350276, 0.00748496, 0.21073914, 0
1023, 54702420, 0.9827532, -0.013826201, 0.0368241, 0.18069027, 0.016026577, 0.008083737, 0.22736263, 0
1024, 54719087, 0.9827512, -0.013829146, 0.036819596, 0.18070187, -0.0016674066, -0.0046063927, 0.23806953, 0
1025, 54735754, 0.98274976, -0.013837675, 0.03682164, 0.18070847, 0.006109615, 0.0012333305, 0.2485838, 0
1026, 54752421, 0.98274946, -0.013837146, 0.036832668, 0.18070814, 0.020601245, -0.0016820608, 0.23118496, 0
1027, 54769088, 0.9827488, -0.013836672, 0.03683404, 0.18071121, -0.009106337, 9.3906175E-4, 0.24401188, 0
1028, 54785755, 0.9827473, -0.013835685, 0.036840495, 0.18071844, 0.009446636, 0.010954384, 0.23428535, 0
1029, 54802422, 0.9827464, -0.013842413, 0.036847334, 0.18072136, 0.0010170119, 0.011850517, 0.2354002, 0
1030, 54819089, 0.9827476, -0.0138388835, 0.036840525, 0.18071681, -0.011154414, 0.0032653147, 0.22556782, 0
1031, 54835756, 0.9827475, -0.013833057, 0.036835495, 0.180719, 0.005877273, 0.0090704635, 0.23812294, 0
1032, 54852423, 0.9827476, -0.013838025, 0.03683549, 0.18071793, 0.004017869, 0.0018913387, 0.25364685, 0
1033, 54869090, 0.9827465, -0.013842753, 0.03683329, 0.18072374, -0.009790733, -0.0049318555, 0.2627411, 0
1034, 54885757, 0.9827458, -0.013846195, 0.036836214, 0.18072656, 0.0054424847, 0.006510122, 0.24846649, 0
1035, 54902424, 0.9827454, -0.0138479415, 0.036840685, 0.18072785, -0.0032519458, 0.00879557, 0.23168755, 0
1036, 54919091, 0.9827454, -0.01384902, 0.03683899, 0.18072815, 0.0128932055, 0.006750776, 0.2395668, 0
1037, 54935758, 0.982746, -0.013836816, 0.036827754, 0.18072781, 0.0041459138, -0.0067599677, 0.24143791, 0
1038, 54952425, 0.9827463, -0.013829218, 0.036834717, 0.18072537, -0.0025689462, 0.007933648, 0.2252512, 0
1039, 54969092, 0.9827454, -0.013839475, 0.03683268, 0.18073007, -0.003504292, 0.015209135, 0.23233032, 0
1040, 54985759, 0.9827434, -0.013835407, 0.036849875, 0.18073802, 0.013977131, -0.0034234081, 0.25270367, 0
1041, 55002426, 0.98274356, -0.013828133, 0.03685547, 0.18073636, 0.006633334, -9.70619E-4, 0.2135315, 0
1042, 55019093, 0.98274624, -0.01384039, 0.03684352, 0.18072331, 0.008337089, -0.0033915855, 0.25726128, 0
1043, 55035760, 0.9827474, -0.013849626, 0.036837973, 0.18071753, 0.0059532956, 0.016595166, 0.24490547, 0
1044, 55052427, 0.98274785, -0.013853482, 0.036844637, 0.18071291, 0.011144915, 2.5752882E-4, 0.23175907, 0
1045, 55069094, 0.9827468, -0.013858537, 0.036841262, 0.18071914, -0.0060882415, 0.0028545258, 0.2395029, 0
1046, 55085761, 0.98274714, -0.013862936, 0.036826313, 0.18072064, 0.00694234, 0.012394366, 0.25765133, 0
1047, 55102428, 0.98274654, -0.0138688935, 0.036819335, 0.18072413, -0.0010815792, 0.0021689138, 0.24265003, 0
1048, 55119095, 0.9827462, -0.013881173, 0.036818895, 0.18072574, 0.006031497, 8.891485E-4, 0.22671413, 0
1049, 55135762, 0.9827451, -0.0138937505, 0.036810145, 0.18073197, -0.0023118784, 0.007788714, 0.25994396, 0
1050, 55152429, 0.9827445, -0.013886306, 0.03682356, 0.1807332, 0.005053097, -0.002367505, 0.25961113, 0
1051, 55169096, 0.982743, -0.013904188, 0.036840893, 0.18073627, -0.0019204513, -0.008417051, 0.15970135, 0
1052, 55185763, 0.9827464, -0.0138899535, 0.036728688, 0.18074188, 0.0065428386, 0.0029900027, 0.41372395, 0
1053, 55202430, 0.9827376, -0.01390625, 0.03689667, 0.18075433, 0.007832592, 0.004746884, 0.13894367, 0
1054, 55219097, 0.98273903, -0.013912869, 0.03683242, 0.1807591, -0.012431093, -0.0051442203, 0.18927002, 0
1055, 55235764, 0.98273957, -0.013907706, 0.036799874, 0.18076329, 0.006876879, 0.009105974, 0.32986736, 0
1056, 55252431, 0.98273647, -0.013918153, 0.03687675, 0.18076353, 0.006382021, 0.010057496, 0.16448307, 0
1057, 55269098, 0.9827381, -0.013921443, 0.036818236, 0.18076618, -0.017484358, -0.009981879, 0.2040739, 0
1058, 55285765, 0.98273724, -0.013918728, 0.036818933, 0.18077101, 0.007832173, 0.0055733654, 0.30806065, 0
1059, 55302432, 0.9827362, -0.013920709, 0.03686291, 0.18076773, 0.0056922045, 0.016689992, 0.2146492, 0
1060, 55319099, 0.9827372, -0.013923353, 0.03685241, 0.18076421, 0.0012004601, 0.0085424, 0.20575905, 0
1061, 55335766, 0.98273647, -0.013918802, 0.03684152, 0.18077101, -0.004912703, 0.0063536074, 0.2845316, 0
1062, 55352433, 0.98273444, -0.01392212, 0.03687881, 0.18077424, -0.008827784, 0.01781098, 0.18204021, 0
1063, 55369100, 0.9827359, -0.013918531, 0.03684837, 0.18077251, 0.01283688, -1.1769354E-4, 0.25467587, 0
1064, 55385767, 0.9827345, -0.013916213, 0.036862805, 0.18077694, -0.011000441, 0.0023681896, 0.24292278, 0
1065, 55402434, 0.9827332, -0.013917857, 0.03688058, 0.18078093, 0.0028844348, 0.024888545, 0.20141792, 0
1066, 55419101, 0.9827333, -0.013915165, 0.036863077, 0.18078433, -0.0059225624, 0.004943366, 0.26949215, 0
1067, 55435768, 0.9827308, -0.013907691, 0.036879066, 0.18079427, 6.576869E-5, 0.005202376, 0.2663803, 0
1068, 55452435, 0.9827305, -0.013906803, 0.036885317, 0.1807949, -0.010221415, 0.006036582, 0.21123314, 0
1069, 55469102, 0.9827303, -0.013907563, 0.036858846, 0.18080139, -3.9821627E-4, -1.9303137E-4, 0.25035858, 0
1070, 55485769, 0.98272866, -0.013911643, 0.03686626, 0.18080854, 0.0034191336, 0.0048284945, 0.24945259, 0
1071, 55502436, 0.9827265, -0.01390833, 0.036873404, 0.18081902, -0.003333528, -0.002373917, 0.21047497, 0
1072, 55519103, 0.9827264, -0.013906454, 0.03685589, 0.18082358, 0.007920293, 0.0013548657, 0.27690125, 0
1073, 55535770, 0.98272604, -0.013910801, 0.036874224, 0.1808212, -0.0015736709, 0.02015241, 0.20749283, 0
1074, 55552437, 0.9827254, -0.013921854, 0.03686025, 0.18082674, 0.0024319326, -0.007805575, 0.23957348, 0
1075, 55569104, 0.9827249, -0.013916492, 0.036860224, 0.18082988, 0.012454729, -0.0025285042, 0.27738667, 0
1076, 55585771, 0.98272437, -0.013917097, 0.036875807, 0.18082961, 0.0035272022, -0.0066640107, 0.20973587, 0
1077, 55602438, 0.9827249, -0.0139176035, 0.03686349, 0.18082891, 0.0055793864, 0.012082621, 0.2190218, 0
1078, 55619105, 0.98272514, -0.01391592, 0.03685662, 0.18082891, 0.005536556, 0.011821265, 0.26606083, 0
1079, 55635772, 0.9827358, -0.013876675, 0.036726397, 0.18080112, 0.0040209144, -0.009724658, 0.21905613, 0
1080, 55652439, 0.98273504, -0.0138695575, 0.036715813, 0.18080787, -0.0057408744, 0.008389433, 0.24098969, 0
1081, 55669106, 0.9827347, -0.013863824, 0.036700025, 0.1808135, 2.0814645E-5, 8.497683E-5, 0.25993824, 0
1082, 55685773, 0.9827315, -0.013862124, 0.036714, 0.18082798, -0.01440731, 0.007191362, 0.22982216, 0
1083, 55702440, 0.9827317, -0.013859824, 0.03670725, 0.1808284, -0.011476636, 0.0091372095, 0.22730923, 0
1084, 55719107, 0.9827326, -0.013863229, 0.03669354, 0.1808261, 0.005543093, 0.012417388, 0.25964165, 0
1085, 55735774, 0.98273313, -0.013861333, 0.036708817, 0.18082027, 0.0036751397, 0.0034231148, 0.24032688, 0
1086, 55752441, 0.98273206, -0.013864234, 0.036719833, 0.18082371, -0.0021670698, 0.0064590774, 0.22471714, 0
1087, 55769108, 0.9827324, -0.013866593, 0.036715467, 0.18082236, -0.003782482, 8.8953966E-4, 0.25980663, 0
1088, 55785775, 0.98273134, -0.013863755, 0.036724415, 0.18082654, 0.0029864684, 0.011992616, 0.21453953, 0
1089, 55802442, 0.98273003, -0.01386653, 0.036723305, 0.18083344, 4.3355927E-4, 0.015098803, 0.23437023, 0
1090, 55819109, 0.9827281, -0.013871091, 0.036725428, 0.18084323, 0.006723689, 0.0066085937, 0.23264694, 0
1091, 55835776, 0.98272777, -0.013877337, 0.036731303, 0.18084373, 0.005092715, 0.0060114926, 0.23306656, 0
1092, 55852443, 0.98272717, -0.013880951, 0.0367262, 0.18084775, 0.0011247451, 0.019024333, 0.25539017, 0
1093, 55869110, 0.9827271, -0.01388133, 0.036728635, 0.18084745, 0.005789712, 0.0021958752, 0.22542858, 0
1094, 55885777, 0.9827267, -0.013882523, 0.036726143, 0.18085025, -0.009905089, 0.011131518, 0.2238512, 0
1095, 55902444, 0.98272645, -0.013884407, 0.036737476, 0.18084933, -9.096977E-5, 0.023758058, 0.21557522, 0
1096, 55919111, 0.98272836, -0.013879249, 0.03674003, 0.18083866, 0.0056237816, 0.00220645, 0.24205685, 0
1097, 55935778, 0.98272806, -0.0138743045, 0.036745124, 0.18083957, -0.0076259547, 0.004634611, 0.23791695, 0
1098, 55952445, 0.9827269, -0.013867121, 0.03673633, 0.18084843, -0.010639915, 0.006783576, 0.25335598, 0
1099, 55969112, 0.9827263, -0.0138621405, 0.036742542, 0.18085058, -0.010282407, 0.0080712065, 0.24628544, 0
1100, 55985779, 0.9827253, -0.013862061, 0.036747593, 0.18085493, 0.0016832481, -0.005969528, 0.22832394, 0
1101, 56002446, 0.98272496, -0.013864142, 0.03673452, 0.18085931, -0.0043296693, -4.3226007E-4, 0.24101257, 0
1102, 56019113, 0.9827237, -0.013871288, 0.03673424, 0.18086551, -0.0073325383, 0.019456035, 0.22047615, 0
1103, 56035780, 0.982721, -0.01388162, 0.036745124, 0.18087709, -0.017353099, 0.002266114, 0.18417263, 0
1104, 56052447, 0.982723, -0.013866936, 0.036671665, 0.1808819, 0.03550738, 0.0023591234, 0.37365818, 0
1105, 56069114, 0.98271936, -0.013876467, 0.036773685, 0.18088083, -0.010928415, 0.0146363685, 0.19439888, 0
1106, 56085781, 0.9827205, -0.013886231, 0.036746867, 0.18087967, 0.006833769, 0.009799297, 0.23959732, 0
1107, 56102448, 0.9827209, -0.013882758, 0.03673091, 0.18088022, 0.016071672, -0.0039371387, 0.2925434, 0
1108, 56119115, 0.98271763, -0.01389125, 0.036774382, 0.18088879, 0.0033026275, -0.0015794822, 0.16626453, 0
1109, 56135782, 0.98272, -0.013885158, 0.036709305, 0.18088956, -0.0014447877, -0.008197589, 0.29019833, 0
1110, 56152449, 0.9827172, -0.013892884, 0.036751628, 0.18089561, 0.0068541924, 0.016214706, 0.29911995, 0
1111, 56169116, 0.9827138, -0.0139050055, 0.03676864, 0.18090959, -0.008007798, -0.0016854693, 0.21042824, 0
1112, 56185783, 0.9827144, -0.013904046, 0.0367424, 0.18091173, 0.004839754, -6.3315633E-4, 0.26411915, 0
1113, 56202450, 0.982715, -0.013902909, 0.036753595, 0.18090631, 8.4272766E-4, 0.008938115, 0.24974346, 0
1114, 56219117, 0.9827145, -0.013901606, 0.036774203, 0.18090521, -0.01016319, 0.013367262, 0.20585728, 0
1115, 56235784, 0.98271495, -0.013895989, 0.03675005, 0.1809078, 0.004707071, 0.008771431, 0.27516365, 0
1116, 56252451, 0.98271513, -0.013900481, 0.03677027, 0.18090251, 0.006409234, 0.008228085, 0.25201607, 0
1117, 56269118, 0.9827144, -0.013899051, 0.036770802, 0.18090653, -0.0056950822, 0.021208655, 0.23757076, 0
1118, 56285785, 0.9827129, -0.01390177, 0.03674937, 0.18091871, 0.008324796, 0.00325555, 0.25203896, 0
1119, 56302452, 0.98271227, -0.01390102, 0.036759757, 0.18092047, -7.98975E-4, 0.018746493, 0.21379185, 0
1120, 56319119, 0.98271245, -0.013901677, 0.03674559, 0.18092255, -0.0056646005, 0.0075492617, 0.246027, 0
1121, 56335786, 0.98271245, -0.013898291, 0.03674435, 0.18092284, -0.0036118017, 4.649768E-4, 0.2494049, 0
1122, 56352453, 0.9827116, -0.013897881, 0.036753993, 0.1809252, -0.004020104, 0.011224122, 0.21489906, 0
1123, 56369120, 0.98270994, -0.013898843, 0.036743574, 0.18093607, -0.002407961, -0.002420701, 0.26022816, 0
1124, 56385787, 0.9827106, -0.013898986, 0.03674239, 0.18093264, 0.008318286, 0.020031497, 0.2598734, 0
1125, 56402454, 0.9827104, -0.013902159, 0.036755435, 0.1809313, -0.0041227243, 0.011506181, 0.21517181, 0
1126, 56419121, 0.9827109, -0.013904203, 0.03675211, 0.18092903, 0.00135379, 0.01867596, 0.25201035, 0
1127, 56435788, 0.9827083, -0.013903195, 0.036744468, 0.18094504, -0.002799444, 0.009538695, 0.24614048, 0
1128, 56452455, 0.9827089, -0.013904058, 0.036747396, 0.18094116, -0.0013520857, 0.0134165045, 0.21912384, 0
