"sep=,",,,,,,,,,
"DeviceTag:,Xsens_2,,,,,,,,,,,,,,,,,",,,,,,,,,
"FirmwareVersion:,2.2.1,,,,,,,,,,,,,,,,,",,,,,,,,,
"AppVersion:,2023.0.0,,,,,,,,,,,,,,,,,",,,,,,,,,
"SyncStatus:,Un-synced,,,,,,,,,,,,,,,,,",,,,,,,,,
"OutputRate:,60Hz,,,,,,,,,,,,,,,,,",,,,,,,,,
"FilterProfile:,General,,,,,,,,,,,,,,,,,",,,,,,,,,
"Measurement Mode:,Sensor fusion Mode - Extended (Quaternion),,,,,,,,,,,,,,,,,",,,,,,,,,
"StartTime:,2023-07-13 15:13:43.893 +0200,,,,,,,,,,,,,,,,,",,,,,,,,,
"© Movella Technologies B. V. 2005-2023,,,,,,,,,,,,,,,,,,,",,,,,,,,,
PacketCounter,SampleTimeFine,Quat_W,Quat_X,Quat_Y,Quat_Z,FreeAcc_X,FreeAcc_Y,FreeAcc_Z,Status
1,472768465,0,3.00093374924775e-17,-0.707106781186547,-0.707106781186547,-0.007931427,0.21469784,-0.000977310400000001,0
2,472785132,4.43611635911031e-05,-1.08885065509381e-06,0.707274139982264,0.706939381378099,-0.0153372675300518,0.219000446042419,0.0115822248549713,0
3,472801799,0.000450047204586298,-0.000254000927880234,0.707496620037907,0.70671653834899,0.00826659635952408,0.230970767854666,0.0360656476578929,0
4,472818466,0.000510459090751018,-0.000298697434722709,0.707827795801263,0.70638478303435,0.000682325681013543,0.212868406653575,0.0527468696811377,0
5,472835133,0.000732713303102299,-0.000540819840692116,0.708215183690261,0.705996051147374,0.0038272703266992,0.252913090643781,0.00793865178555573,0
6,472851800,0.000760146511736409,-0.000641055962982376,0.708523730775703,0.705686285931796,-0.0230559944595812,0.251574364265121,-0.103989600350558,0
7,472868467,0.000842848815528079,-0.00084247538739013,0.708648407246427,0.705560780335896,-0.0314142318144029,0.254002128147338,-0.106078075640167,0
8,472885134,0.000988843183860374,-0.00109943819132794,0.708688999523031,0.705519464919194,-0.0180733802766923,0.217803197901327,-0.0374572220327748,0
9,472901801,0.000948098825505634,-0.00114049468703537,0.708740922866045,0.705467295227407,-0.0120155897218663,0.226200704239224,0.00915928819060761,0
10,472918468,0.0010449855053164,-0.00132899299067058,0.708851122814386,0.705356099759341,-0.0113830542306065,0.219875209712148,-0.0112830697005071,0
11,472935135,0.00110446991337321,-0.00145912583351141,0.708983660119841,0.705222532808678,-0.0243460174349446,0.265921013867383,-0.0659506236298746,0
12,472951802,0.0012203882566568,-0.00165273211386196,0.709097869578535,0.705107077321059,-0.022159303108201,0.225534212210774,-0.0934323558765142,0
13,472968469,0.00135865331090485,-0.001859147563595,0.709201905913935,0.705001669699839,-0.0367491937667939,0.23328060140296,-0.0923526374874256,0
14,472985136,0.00142227621892888,-0.00199965453661814,0.70928957528821,0.704912956966718,-0.0303542201216262,0.216402137511556,-0.0399868714418084,0
15,473001803,0.00157134271510055,-0.0022203475630286,0.709393168118304,0.704807728366998,-0.0245513243866459,0.24778062296325,-0.0136337418858295,0
16,473018470,0.00163978089393165,-0.0023639367023989,0.709512461727436,0.704687015330466,0.0101788124489835,0.240841287466022,-0.0399306752493389,0
17,473035137,0.00173182729638421,-0.00255999629131737,0.709642687536448,0.704554968202802,0.00223657803201602,0.240235228879188,-0.0975508966310108,0
18,473051804,0.00172285256319074,-0.00264158305081671,0.709762832939408,0.704433655354326,-0.0405399408443544,0.219130020037934,-0.10595290744675,0
19,473068471,0.00190428347167295,-0.00292765689493999,0.709878184755886,0.704315813635654,-0.0667034546057553,0.25685359426271,-0.0575364587355771,0
20,473085138,0.00209035098959558,-0.00319041662748272,0.70999864968897,0.704192707370875,-0.0672010617520969,0.231952044774376,-0.0321896988204779,0
21,473101805,0.00218607968193267,-0.00334435300463164,0.710127818553058,0.704061444531427,-0.0474287273902796,0.225845404765222,-0.039122924490118,0
22,473118472,0.00223712999766163,-0.00346016871393936,0.710259840610126,0.703927539806707,-0.0185951288580559,0.239280917631973,-0.0793354936519696,0
23,473135139,0.00236178529659957,-0.00366849448798399,0.710389195325493,0.703795535140145,-0.0394653370107193,0.233852729902426,-0.119022452779888,0
24,473151806,0.00233430523288226,-0.00371860042782849,0.710518480617965,0.703664843324062,-0.080981579589452,0.246095493443617,-0.130783996292149,0
25,473168473,0.00241334325727082,-0.00387491072831595,0.71064787237964,0.703533057022526,-0.0662012050627761,0.232579333211715,-0.0917714607249023,0
26,473185140,0.00248644252865555,-0.00402011494513131,0.710777193714875,0.703401334356274,-0.0438186370405082,0.245783727144249,-0.0608425518544468,0
27,473201807,0.00256024516081668,-0.00416324171011699,0.710903328345832,0.703272756695436,-0.024250830958558,0.234210135390708,-0.0759763155077164,0
28,473218474,0.00251280421419881,-0.00420667587171545,0.711035032403332,0.703139511326369,-0.0443961387608129,0.242818016277283,-0.118579774855099,0
29,473235141,0.00257895687664317,-0.00434496656124161,0.71116647412376,0.703005488121814,-0.0739552381008357,0.22724094225592,-0.136206295216442,0
30,473251808,0.00263189182622701,-0.00448326298624562,0.711291910557076,0.702877508158054,-0.0768339778371453,0.247817100855482,-0.1167098577739,0
31,473268475,0.00267331002997151,-0.00460375830262472,0.711413069779431,0.702753941981104,-0.0779278739458731,0.224701970784467,-0.0838477046804542,0
32,473285142,0.00272301718249639,-0.00473478158880223,0.711537389874127,0.702627006193077,-0.0405278688688258,0.230045564982007,-0.0857558468775936,0
33,473301809,0.00279608154183201,-0.00487983177250479,0.711670531658858,0.702490870786434,-0.0476194230074262,0.222775061939457,-0.105086627544901,0
34,473318476,0.00290552959132256,-0.00507058812462414,0.711798616651699,0.702359292931041,-0.0759920127907734,0.228442857230716,-0.124723828992798,0
35,473335143,0.00297878249850258,-0.00522496409301681,0.711928875978105,0.702225819913798,-0.0785223940467545,0.21443996545091,-0.15159158461265,0
36,473351810,0.00305306031100218,-0.00538411582877595,0.712058646693314,0.702092710251834,-0.0755909716649629,0.223495630255601,-0.128534047855789,0
37,473368477,0.00303998465587269,-0.00546059394382039,0.712187219541648,0.701961754462883,-0.068327652264084,0.233937958284824,-0.115339806413364,0
38,473385144,0.00310769938017394,-0.00562666971935599,0.712312852354637,0.70183266037057,-0.0511971363502524,0.237311763924381,-0.114368119220846,0
39,473401811,0.00316329725793639,-0.00576335975806831,0.712441425028537,0.701700786046349,-0.0708085349988329,0.221698655449469,-0.155765854114564,0
40,473418478,0.00321469495048606,-0.00589909321185243,0.712568525677703,0.701570354739392,-0.0955168316669272,0.234873184586091,-0.166863827458225,0
41,473435145,0.00327561553476282,-0.00605712291691156,0.712706406902662,0.701428655790975,-0.106235003240466,0.225764513814609,-0.149957249787493,0
42,473451812,0.00335625964913481,-0.00622459165767649,0.71283188250312,0.701299292219036,-0.0674965819781319,0.217044051163183,-0.111903949766145,0
43,473468479,0.00342111048353835,-0.00637026934284352,0.712964122140903,0.701163230789672,-0.0632585812133713,0.212418383612214,-0.126690677532121,0
44,473485146,0.00349841089059467,-0.00653581132524462,0.713084001593381,0.701039407567886,-0.0730679070561892,0.22581770752937,-0.148540863683023,0
45,473501813,0.00355350233038906,-0.00666314797620228,0.713213752750545,0.700905926617631,-0.106046760299917,0.232186482130171,-0.155342968556955,0
46,473518480,0.00362410113434387,-0.00680815744769685,0.713342193598984,0.700773451062842,-0.105770671932741,0.233976983787375,-0.188334219164188,0
47,473535147,0.0036562070358844,-0.0069271137472368,0.713474585068015,0.700637326801297,-0.0949954896494991,0.247946530778889,-0.18741922676271,0
48,473551814,0.00370393565775155,-0.00707346364408053,0.713605670135764,0.700502101726188,-0.0657361038801288,0.23859588352446,-0.17217383871228,0
49,473568481,0.00377699689509792,-0.00723779733932106,0.71372734140823,0.700376063776076,-0.119557669249037,0.24184646341497,-0.120347972440237,0
50,473585148,0.0038318088906278,-0.0073907401939663,0.713857752178831,0.700241246895809,-0.15217939866431,0.235495144544184,-0.145591247060816,0
51,473601815,0.00386536923233157,-0.00752168882234629,0.713983270632469,0.700111685643741,-0.0793354294001432,0.228122675652281,-0.257463693526302,0
52,473618482,0.00390561740180774,-0.00767886365431733,0.714111404199833,0.699979059399231,-0.0722500622983155,0.216886759968755,-0.221341289625972,0
53,473635149,0.00396704422113909,-0.00783203597266435,0.714239023908332,0.699846796448439,-0.112091476409684,0.225612276260095,-0.129332071279364,0
54,473651816,0.0040076748267015,-0.00797840522468206,0.714360567270837,0.699720846853259,-0.123065083975221,0.241789271639438,-0.139877601140062,0
55,473668483,0.00405471485114868,-0.00811063679595214,0.714483463153841,0.699593566106732,-0.111379158543088,0.235167236176721,-0.185669331639958,0
56,473685150,0.00412297004548715,-0.00829117664895065,0.714604531346868,0.699467384004646,-0.0997117638231802,0.246040384374132,-0.212003089077182,0
57,473701817,0.00417812998983846,-0.00843425060659359,0.714728001813763,0.699339180991455,-0.11308284851415,0.211821978635592,-0.236041733663305,0
58,473718484,0.00423423595373796,-0.0085891675245931,0.714848620975043,0.699213663008098,-0.130378387700613,0.222784820545629,-0.248297621501483,0
59,473735151,0.00429144950417681,-0.00874175803001735,0.714974973400808,0.699082221586425,-0.134003841620479,0.228101552765286,-0.157942844101183,0
60,473751818,0.004356729930772,-0.0088959211545086,0.715099761293384,0.698952225040645,-0.116842201262689,0.203651415965295,-0.129186475346213,0
61,473768485,0.00439223099740859,-0.00902452725185659,0.715216749218414,0.698830643183447,-0.0944724105629889,0.23862281031755,-0.198971600785449,0
62,473785152,0.00445884013200937,-0.00918122868313335,0.715338512228073,0.698703539927966,-0.118298379964463,0.229526727893342,-0.295114564736931,0
63,473801819,0.00450827815348222,-0.00930316577298565,0.71545599161379,0.698581312803756,-0.123334015381198,0.212472470156419,-0.265096939916262,0
64,473818486,0.00457163879982987,-0.00942830160670607,0.715579959470921,0.698452238060049,-0.124010474000191,0.221181533910784,-0.190845737534332,0
65,473835153,0.00463210915921719,-0.00954511543593641,0.715696456274322,0.698330879177221,-0.0940274402080132,0.239191231793241,-0.189042184539137,0
66,473851820,0.00471571245349616,-0.00968859867369018,0.715815111477313,0.698206716734033,-0.109973319996923,0.239111067257433,-0.215817631046825,0
67,473868487,0.00479827391571257,-0.00985947978670472,0.715934635741677,0.698081201989566,-0.135166128862281,0.216559983118996,-0.230760368733482,0
68,473885154,0.00486586479378146,-0.0100095263264911,0.716054047212963,0.697956111952939,-0.143751823704483,0.2298538897534,-0.272523155634137,0
69,473901821,0.00494557515040541,-0.0101594314156386,0.716169504843293,0.697834914268593,-0.140136470652455,0.221977759641947,-0.288901920523717,0
70,473918488,0.00508116349615124,-0.0102888649707137,0.71629034639934,0.697708005321892,-0.0814168515221208,0.131089640586036,-0.241503692243251,0
71,473935155,0.00514180944895692,-0.010427209657156,0.716414581942312,0.697577939641714,-0.172036370335403,0.349458744752545,-0.132009043085701,0
72,473951822,0.0051824162962636,-0.0105641531596098,0.716526395942668,0.69746072659811,-0.279119856546528,0.148533846070725,-0.181031113032041,0
73,473968489,0.00521470828193698,-0.0106894088668566,0.71664379277072,0.697337950809225,-0.193307953676562,0.213567073656881,-0.383564038591054,0
74,473985156,0.005310330785874,-0.0108586751903567,0.716747167386088,0.69722836115872,-0.030630467640444,0.251720834708205,-0.324265280314971,0
75,474001823,0.0053813931384935,-0.01104536476955,0.716855266415101,0.697113740746753,-0.0313675202476423,0.225256728594294,-0.14013110351148,0
76,474018490,0.00541266015607437,-0.0111787281827525,0.716960331750714,0.697003315517334,-0.162759668359934,0.270756528475214,-0.164949934065755,0
77,474035157,0.0055157742249058,-0.0113466146105248,0.717074334909383,0.696882507160171,-0.286149725380214,0.226449285298698,-0.312264428396704,0
78,474051824,0.00559566512234605,-0.0115063860764328,0.717188794690055,0.696761454432092,-0.204170530878709,0.238343469109096,-0.267262543900447,0
79,474068491,0.00563736576237764,-0.0116225590704882,0.717295834482226,0.696648994876445,-0.037781959458102,0.235736936569426,-0.239978092897219,0
80,474085158,0.00570332033504983,-0.0117770295236372,0.71740711278895,0.696531268668233,-0.0401648327249212,0.222610049113318,-0.316942519593296,0
81,474101825,0.0057984308854718,-0.0119249875515939,0.717513760355775,0.696418104712447,-0.178533204051723,0.23710838987763,-0.301214717147289,0
82,474118492,0.00588068109947246,-0.0120804716119604,0.717621530031638,0.696303683338304,-0.271720131314036,0.219543404444189,-0.163699503963473,0
83,474135159,0.00594261931104991,-0.0122220281659824,0.717734869088717,0.696183858615982,-0.212354808880508,0.241529826257282,-0.250869638928415,0
84,474151826,0.00599861176442515,-0.012367947494396,0.717842293397441,0.696070034078165,-0.0847748080241923,0.206920719396172,-0.412969283949851,0
85,474168493,0.00610077161711381,-0.0125296403905634,0.717949146968542,0.695956041043184,-0.0523810423362321,0.233027510812614,-0.349214035229752,0
86,474185160,0.00617287986362894,-0.0126507962506213,0.718052317143789,0.695846766718686,-0.136288312377338,0.228813232050568,-0.161820693600041,0
87,474201827,0.00624077349756556,-0.0127798205493491,0.718148188961356,0.695744858137236,-0.23769233902886,0.220068247024849,-0.233232620167361,0
88,474218494,0.00632749852506479,-0.0129080480049034,0.718255760534921,0.695630654526898,-0.218693798282471,0.233540433830933,-0.356958267970609,0
89,474235161,0.00641351275318885,-0.0130538016083906,0.718355231796126,0.695524425213714,-0.129257475669656,0.21413987346057,-0.327921050426044,0
90,474251828,0.00650576087477162,-0.0131731796062236,0.718449132261832,0.69542432137992,-0.0823143482956991,0.215621017957004,-0.265144058099599,0
91,474268495,0.0065791470436663,-0.0132806485229848,0.718544377486017,0.695323174345728,-0.143494964409055,0.224220845344236,-0.303805331431003,0
92,474285162,0.00667719905049668,-0.0134193902118512,0.71863649076568,0.69522437322002,-0.236928536348505,0.217966311293113,-0.303154009514141,0
93,474301829,0.00675242923649575,-0.0135559522297216,0.718724363655346,0.695130153242377,-0.207422049451487,0.219087279557379,-0.240463480349619,0
94,474318496,0.00683382384320822,-0.0137091941085488,0.718812561736909,0.695035148706737,-0.154904228980585,0.231517271515865,-0.291546245499832,0
95,474335163,0.0069122483033808,-0.0138382873912762,0.718902199518547,0.694939098161029,-0.130004907863633,0.213945209811477,-0.409427493554461,0
96,474351830,0.0070192116172098,-0.0139888806626042,0.718994673755454,0.694839334664762,-0.17452276405855,0.21026376365458,-0.354509410741067,0
97,474368497,0.00710844109099119,-0.0141197005713747,0.719086226136249,0.694741033408966,-0.210239972975127,0.228613378117197,-0.217518152792274,0
98,474385164,0.00719446729180438,-0.0142625162984606,0.719171748389047,0.694648700127097,-0.183655524250341,0.219716223819462,-0.259523132718146,0
99,474401831,0.00728447497374581,-0.0144076499682673,0.719254406593462,0.694559180086647,-0.151656682919902,0.230343500374175,-0.379623407826816,0
100,474418498,0.00738985972641797,-0.0145592018940666,0.719338600304673,0.694467708194662,-0.14449926622461,0.226204120539279,-0.357195359988335,0
101,474435165,0.00747866767736485,-0.0146924845545512,0.719414509750676,0.694385313487822,-0.168448927829629,0.227520425172147,-0.283164978753854,0
102,474451832,0.00754892868745227,-0.014816538315293,0.719493297257523,0.694300280188278,-0.218133735148281,0.215232586042108,-0.321233150670951,0
103,474468499,0.00764796404848013,-0.0149513440618759,0.719573786840689,0.694212886115208,-0.194378576272619,0.215190099316904,-0.351504714867372,0
104,474485166,0.00774700076352332,-0.0150903424174075,0.719646201546011,0.694133712007488,-0.158179476859631,0.215666661570474,-0.295214293594216,0
105,474501833,0.00782796726367417,-0.0152265911583803,0.719732178701123,0.694040679493896,-0.153120919033801,0.21658332970996,-0.311306792407509,0
106,474518500,0.00789705878542694,-0.0153362688134452,0.719814933582578,0.693951653008284,-0.182650199282277,0.199663107122025,-0.423064851572157,0
107,474535167,0.00799357048213008,-0.0154649192013317,0.719884329422236,0.693875703103475,-0.214538871489715,0.229152947476866,-0.383175843907879,0
108,474551834,0.00808542666495464,-0.0156018700329989,0.719951888948641,0.693801473857185,-0.225785864200464,0.209357616632297,-0.263163222208494,0
109,474568501,0.00816955636377522,-0.0157367074599362,0.720015607099809,0.693731316807764,-0.180961268020595,0.239910935497423,-0.286445629404612,0
110,474585168,0.00825832508904787,-0.0158715106691252,0.72008510303485,0.693655058082253,-0.161149673242039,0.229518106972972,-0.392379237671044,0
111,474601835,0.00836443396903175,-0.0160217796416105,0.720150645723957,0.693582285157905,-0.178793658135643,0.215808434186717,-0.356582496196318,0
112,474618502,0.00845238499262617,-0.0161521153679822,0.720215982469257,0.693510349564387,-0.202915851422321,0.234059128959578,-0.316629575282572,0
113,474635169,0.00854213048847269,-0.0162835222579128,0.720283528967855,0.693436022144225,-0.205112395619826,0.212259100339672,-0.362599664511383,0
114,474651836,0.00863407592714287,-0.0164128262471482,0.720349362304678,0.69336344588874,-0.191268634543601,0.21349884241478,-0.349678505937426,0
115,474668503,0.00874376790541918,-0.0165469141564313,0.72040925502882,0.693296654703841,-0.171795546864289,0.235074548354244,-0.304299039166779,0
116,474685170,0.00883315833092648,-0.0166779948035371,0.720464039970698,0.693235448395661,-0.165516546331144,0.225824506996927,-0.312018264537765,0
117,474701837,0.00892348839385997,-0.0167816821191915,0.720527307369236,0.693166030497293,-0.210650252480399,0.201821996209528,-0.406345891843857,0
118,474718504,0.00902228428303963,-0.0169065483048305,0.720585756070112,0.693100955965001,-0.211069266608361,0.217989402048031,-0.392346490705959,0
119,474735171,0.0091125860544974,-0.0170231600439564,0.720642585282015,0.693037832355183,-0.210634672410725,0.224852985928911,-0.309814305105002,0
120,474751838,0.00919491849166582,-0.0171325755143718,0.72069756538323,0.692976873770591,-0.197923788539583,0.203710318287372,-0.33597519121988,0
121,474768505,0.00928829405973285,-0.0172539943444609,0.720746060209324,0.692922177423525,-0.181322645867276,0.211763198892391,-0.387161086146975,0
122,474785172,0.00938936647470451,-0.0173679840735892,0.720794981862393,0.692867077474761,-0.176159275167146,0.212102603941224,-0.370837503130592,0
123,474801839,0.00948264198416805,-0.0175049726507724,0.720843936547764,0.692811427861738,-0.19543727047483,0.224791186831476,-0.326988170109588,0
124,474818506,0.00958129721824068,-0.0176355118524148,0.720891613406741,0.692757150223038,-0.22021718143067,0.207679878602534,-0.382817292118317,0
125,474835173,0.009670950056327,-0.017763236759191,0.720930091595066,0.692712597819308,-0.204649806700867,0.210976429125228,-0.411644292154038,0
126,474851840,0.0097749948388678,-0.0178862771942959,0.720978066371828,0.692658038554934,-0.185451724508139,0.230191736195263,-0.349415409578479,0
127,474868507,0.00986973535976313,-0.0180084484500275,0.721023249215326,0.692606495926312,-0.19921250565563,0.214744178874958,-0.331129540795794,0
128,474885174,0.0099651932897617,-0.0181230149411469,0.721069483108743,0.692554006400534,-0.206660037813142,0.234813726381548,-0.398402212087023,0
129,474901841,0.0100704577028018,-0.0182487039755249,0.721107990633995,0.692509087686705,-0.22217270192314,0.227966370893824,-0.399954116254775,0
130,474918508,0.010171580968358,-0.0183801791844407,0.72114485200684,0.692465746718049,-0.214506329085443,0.219885961358553,-0.338309618262583,0
131,474935175,0.0102480399060553,-0.0184900824453255,0.721181558680793,0.692423464325113,-0.181058494061115,0.196909913849799,-0.353418175100653,0
132,474951842,0.0103382438112845,-0.0186116075867781,0.721213552187904,0.692385543551018,-0.183300232673424,0.20549895233414,-0.398645467927139,0
133,474968509,0.0104378226251406,-0.0187353013955448,0.721248177400359,0.69234464462226,-0.203077030012779,0.224589392084994,-0.373511880922733,0
134,474985176,0.0105112945704911,-0.0188332807213341,0.721275889170664,0.692312004752765,-0.210776438746404,0.229764382451553,-0.326630701741581,0
135,475001843,0.0106209564861943,-0.0189477347387024,0.721308419963357,0.692273314465866,-0.217696199656485,0.237571944298146,-0.378519020429147,0
136,475018510,0.010710491516438,-0.0190582658202905,0.721340901446311,0.692235055292653,-0.188967508326768,0.225756042991595,-0.431855555923977,0
137,475035177,0.0108146720664076,-0.0191783557429801,0.721361019379153,0.692209154273014,-0.186189849515415,0.227718676655182,-0.372168214896581,0
138,475051844,0.0109016638903604,-0.0192802384197134,0.721386950638162,0.692177934912602,-0.200616085054906,0.239034105396388,-0.34265876249252,0
139,475068511,0.0109813229988449,-0.0193830856482985,0.721414416063805,0.692145177568453,-0.217170766868945,0.213066115998876,-0.377181825825686,0
140,475085178,0.01109041181057,-0.0195042554928089,0.721438249404132,0.692115192059995,-0.221834378257811,0.23310306832004,-0.405090673395199,0
141,475101845,0.0111933049598925,-0.0196253270344973,0.72145889399126,0.692088593132247,-0.202880684530865,0.214376195397742,-0.351641835000678,0
142,475118512,0.0112938102526074,-0.0197282412430538,0.721474640196905,0.692067619456495,-0.201838150368518,0.225268057350179,-0.366780922205471,0
143,475135179,0.0113950870336522,-0.0198389500255719,0.721494450375787,0.692042141874553,-0.204444018619106,0.223649929583261,-0.410058016029139,0
144,475151846,0.0114861467384537,-0.0199605202956178,0.721513361874073,0.69201742369669,-0.221795199373248,0.181349820158601,-0.379091811255069,0
145,475168513,0.0116023823700747,-0.0200897959895685,0.72153439621704,0.691989811988694,-0.202607531758958,0.204170415965479,-0.351577798265807,0
146,475185180,0.0116633046138676,-0.0201768960409028,0.72154817254254,0.691971888801965,-0.213086929733232,0.220203958248423,-0.391358136779677,0
147,475201847,0.0117779038472611,-0.0202997173880044,0.721561601309854,0.691952352384246,-0.208967361547736,0.192275144960336,-0.413454910510134,0
148,475218514,0.0118854737594861,-0.0203986037428092,0.721569042710709,0.691939844986836,-0.200882747258368,0.244286606421294,-0.37288514911826,0
149,475235181,0.0119747407249274,-0.0204995342995633,0.721578753791113,0.691925195924629,-0.213594909740528,0.221361741001526,-0.360736878430809,0
150,475251848,0.0120649016588594,-0.0206058288321348,0.721582561530301,0.69191650136521,-0.222587945057963,0.224490987919186,-0.399700379481567,0
151,475268515,0.0121693257796124,-0.0207078355863111,0.721594062280911,0.69189963313788,-0.217107496188481,0.213616293808814,-0.401527649754964,0
152,475285182,0.0122599821047668,-0.0208079327384068,0.721599680347794,0.691889170384901,-0.211260593576351,0.216525451746218,-0.373019996185921,0
153,475301849,0.0123400994627959,-0.02089101944196,0.721602342801089,0.691882465535804,-0.215709009112063,0.221195999398136,-0.376747394262269,0
154,475318516,0.0124182914302709,-0.020980586359983,0.721606143242645,0.691874392551437,-0.211061697846817,0.213399819414081,-0.401321022364459,0
155,475335183,0.0125076716316468,-0.021077132682862,0.721608180457472,0.691867723286092,-0.208548615172778,0.221039005173639,-0.388643981806843,0
156,475351850,0.0125958638947389,-0.0211732630564064,0.72161134694702,0.69185988545485,-0.202982826200828,0.238855888660258,-0.355538497027858,0
157,475368517,0.0126887625799846,-0.0212692014592357,0.721610746957744,0.691855871008234,-0.209099708140392,0.200409575042647,-0.372863743861697,0
158,475385184,0.0127789510456734,-0.0213731390707397,0.721606954678592,0.691854963338359,-0.224699384930341,0.232363790920419,-0.414124919801422,0
159,475401851,0.0128686967285986,-0.0214633421252054,0.721599192240705,0.691858603579435,-0.220665759577952,0.217552553430619,-0.388504255500085,0
160,475418518,0.0129629021958554,-0.0215542343768161,0.721591382988549,0.691862164122134,-0.217007317050043,0.211427654811307,-0.348487335493384,0
161,475435185,0.0130663953315321,-0.0216654756371642,0.721585793917297,0.69186257197163,-0.208453918414607,0.217466610483679,-0.378983303089974,0
162,475451852,0.0131671150325271,-0.0217545419496991,0.721576049381228,0.691868030729603,-0.208115629443346,0.22910272926864,-0.398884320403009,0
163,475468519,0.0132644356881145,-0.0218463637452507,0.721568504665895,0.691871147115711,-0.216611010683116,0.221132436214046,-0.377483748213753,0
164,475485186,0.013345817861515,-0.0219143519725233,0.721555361713179,0.691881138857098,-0.214905738437459,0.222101969984954,-0.37611037585004,0
165,475501853,0.0134539596744715,-0.0220064813545825,0.721543134916306,0.691888871281088,-0.226192617480304,0.209463436705122,-0.399518497031968,0
166,475518520,0.0135420324312931,-0.0220855653411172,0.721524766291105,0.691903788680015,-0.211008258282407,0.213930469276829,-0.387582994833003,0
167,475535187,0.0136432250333033,-0.0221747207680172,0.721507985681769,0.691916447822269,-0.213134175721916,0.232412522449173,-0.352422282615054,0
168,475551854,0.0137423919573739,-0.0222562903816905,0.721488738414427,0.691931936351326,-0.212171265317857,0.232434185504608,-0.369783348202346,0
169,475568521,0.0138249407914965,-0.0223342835263253,0.721468798239536,0.691948570313052,-0.218355708139106,0.218097848418075,-0.396335031407792,0
170,475585188,0.0139363233241077,-0.0224290498821758,0.721455493812758,0.691957142503045,-0.215172464224247,0.236641990027382,-0.378863852895256,0
171,475601855,0.0140054454296627,-0.0224921262900926,0.721440050795976,0.691969800541011,-0.20454270032985,0.22503333252461,-0.360679567869783,0
172,475618522,0.0140747527774551,-0.0225673675861439,0.721424826970709,0.691981816440843,-0.208074423220835,0.223011464572396,-0.397116613141253,0
173,475635189,0.0141370539184094,-0.022630276549294,0.721406657598319,0.691997434000035,-0.202435134312838,0.241512515454317,-0.398491175985677,0
174,475651856,0.0142342900898091,-0.0227186078925654,0.721386583597437,0.692013473023958,-0.218424325760828,0.225967252178407,-0.361660273432277,0
175,475668523,0.0143317871703358,-0.022812899696018,0.721361906627969,0.692034082361573,-0.205461077652254,0.225860885708367,-0.351143700872767,0
176,475685190,0.0144165133325879,-0.0228963372234229,0.72133327183347,0.692059414234864,-0.218712159956773,0.217870430656686,-0.377648927113708,0
177,475701857,0.0145043976581619,-0.0229686450654173,0.721305782449192,0.69208383307067,-0.198200836735714,0.205310292197912,-0.396941863153591,0
178,475718524,0.0145751567767888,-0.0230354196847828,0.721285063768265,0.692101720146459,-0.196886605114832,0.217404660953217,-0.365006210164059,0
179,475735191,0.0146539742433846,-0.0230930820075601,0.721255765894067,0.692128666338008,-0.209294254854451,0.209295300178874,-0.372450104944543,0
180,475751858,0.014734334160748,-0.0231615310549368,0.721228203117788,0.692153394778582,-0.214509859568715,0.219894761040578,-0.398715313249104,0
181,475768525,0.0148151299554226,-0.0232270364732672,0.721200088851309,0.692178769207737,-0.214033143470494,0.201387528217658,-0.383341359301015,0
182,475785192,0.0149163615502207,-0.023313503512355,0.721176284392666,0.692198489988002,-0.207918147139649,0.230971446118999,-0.375698804484178,0
183,475801859,0.014995179919201,-0.0233698078737294,0.721150781571749,0.692221457986959,-0.202712088773531,0.22535696659701,-0.381811361329394,0
184,475818526,0.0150897528775764,-0.0234423602981395,0.721121264313412,0.692247699351014,-0.188620979880572,0.206276543481715,-0.395197064760387,0
185,475835193,0.0151600753446033,-0.0235028790205348,0.721085142561981,0.692281737423182,-0.211149876052764,0.231117125320619,-0.371778815840697,0
186,475851860,0.0152534402261241,-0.0235777899110086,0.721054681329844,0.692308866703654,-0.194221702542185,0.231938901513222,-0.370392859579191,0
187,475868527,0.0153298332107648,-0.0236246993308495,0.721024318383931,0.69233720259296,-0.229265234057441,0.213388458820607,-0.379920523416655,0
188,475885194,0.0154262164756816,-0.023691708755153,0.720990222851641,0.692368278688335,-0.19808865576084,0.217117142045109,-0.37242815390136,0
189,475901861,0.0155275053869994,-0.0237754046642854,0.720953566633431,0.69240131532807,-0.205767169224348,0.200743365299555,-0.345632962001865,0
190,475918528,0.0156040505719936,-0.0238311242110009,0.720917504702188,0.692435226240374,-0.202493324600389,0.196299393407424,-0.373136351617679,0
191,475935195,0.0156801344976928,-0.0238824319859703,0.720882584375342,0.692468094838236,-0.193682748533106,0.213385043796242,-0.385820068421017,0
192,475951862,0.0157523484119864,-0.0239234397139634,0.720844837099102,0.692504334556347,-0.205590836524473,0.219658518333583,-0.363023903108224,0
193,475968529,0.0158221480353927,-0.0239612379891289,0.720810100699874,0.69253759279523,-0.197311073347129,0.225016285563297,-0.340693920150608,0
194,475985196,0.0158769459184844,-0.0239997806449749,0.72077194475675,0.692574715658078,-0.207223166152777,0.22292206224379,-0.372168419164184,0
195,476001863,0.0159607009519223,-0.0240583278905853,0.720732782062371,0.692611514302836,-0.208625307035113,0.191494129223433,-0.374690798699009,0
196,476018530,0.0160396711327479,-0.0241046685623627,0.720690139142659,0.692652450544995,-0.193581210472825,0.221992541174313,-0.357034904055691,0
197,476035197,0.0161164986419517,-0.0241606662943552,0.720646986227805,0.692693613307152,-0.196844965079204,0.236139463402286,-0.347110552293092,0
198,476051864,0.0161879424680392,-0.0242220183183307,0.720606095299775,0.692732343523853,-0.194482060633287,0.246088615172287,-0.380232227685466,0
199,476068531,0.0162671072657498,-0.024289513549881,0.720562066846259,0.692773923134353,-0.21523382478667,0.225193798325759,-0.372691720674959,0
200,476085198,0.0163359993751263,-0.0243484129848845,0.720525057228469,0.692808726717155,-0.212149695189131,0.216486384239106,-0.36265688434299,0
201,476101865,0.0164104117353742,-0.0244004657520173,0.720482062574027,0.692849848933256,-0.19892499090088,0.207238835683231,-0.365631105655465,0
202,476118532,0.0164661818573332,-0.0244424708534158,0.720438714238092,0.692892119669856,-0.185475844354235,0.198715471104913,-0.362710463732602,0
203,476135199,0.0165418886800849,-0.0244953935131187,0.720399306294473,0.692929420003203,-0.19624324969829,0.235289235521301,-0.343890243601815,0
204,476151866,0.016631164513881,-0.0245514447632012,0.720353974634704,0.692972425248607,-0.191001350015759,0.216509656943646,-0.348493742330498,0
205,476168533,0.0166986483236762,-0.0246048762459587,0.720310822327914,0.693013762090167,-0.192860030229681,0.222218871316218,-0.349310118251538,0
206,476185200,0.0167451553916609,-0.0246447967399633,0.720261275536179,0.693062716301744,-0.184181769785811,0.221117408110568,-0.365778436341501,0
207,476201867,0.0168270466173874,-0.0247014006082314,0.720218214981466,0.69310346566659,-0.199714240237448,0.232875640605306,-0.336332690657328,0
208,476218534,0.0168937346727857,-0.0247497804429417,0.720170168369563,0.693150040530466,-0.185070438736842,0.224263473470037,-0.3322990614471,0
209,476235201,0.0169685144811181,-0.0247875723118407,0.720123202342773,0.693195657244605,-0.18726195262782,0.216580041381069,-0.352722848941405,0
210,476251868,0.0170462100275022,-0.0248420259633059,0.720070654261307,0.693246387182386,-0.181819222377252,0.229217999333645,-0.346616131291914,0
211,476268535,0.0171045267055168,-0.0248695409429767,0.720018806817588,0.693297814022547,-0.201773469498148,0.241431960199572,-0.354863810255238,0
212,476285202,0.017191484658029,-0.0249179546292892,0.719971127847583,0.69334343831771,-0.185448092115631,0.209414970359673,-0.346195448274764,0
213,476301869,0.0172686826623619,-0.0249606358393478,0.719926332557522,0.69338649752348,-0.190350972497163,0.203788172555245,-0.339367086820857,0
214,476318536,0.0173462249308909,-0.0249960664681591,0.719882204909776,0.693429099617262,-0.186183372770767,0.217370973300229,-0.331936709538474,0
215,476335203,0.0174016426845311,-0.025029001174773,0.719834956257846,0.693475571077552,-0.186367753708867,0.224992187616766,-0.343774286300209,0
216,476351870,0.0174684747976625,-0.0250550120469779,0.719782916143783,0.693526965868756,-0.197397081232574,0.211929094861904,-0.338723680826835,0
217,476368537,0.017535662028462,-0.0250857163030193,0.719730733335599,0.693578314890964,-0.194336612416991,0.22463165849963,-0.347940172963814,0
218,476385204,0.0175874348891199,-0.0251118530780252,0.719681260925622,0.693627392510933,-0.172152929018017,0.237190106212622,-0.338666981759893,0
219,476401871,0.0176638624907604,-0.0251603881616679,0.719636085597009,0.693670560955325,-0.177277091039356,0.224779570636833,-0.332288668432011,0
220,476418538,0.0177255636460131,-0.0252011696508961,0.719586337280461,0.693719113648275,-0.203323129453348,0.216440854891612,-0.354697142203267,0
221,476435205,0.0177875436782496,-0.0252476395804785,0.71954255065702,0.693761254164211,-0.164226979265797,0.211544103934404,-0.340327498050457,0
222,476451872,0.0178326291534147,-0.0252691695661902,0.719489146766397,0.69381469722994,-0.189519134729373,0.214185355598581,-0.324390746808201,0
223,476468539,0.0178942877872696,-0.0252912272530411,0.71943874211991,0.693864572251346,-0.174058961731697,0.229362461090457,-0.317675018455749,0
224,476485206,0.0179592067991769,-0.0253242863804022,0.719392176410629,0.69390996817285,-0.179200436628073,0.234495600721643,-0.342979937227928,0
225,476501873,0.0180063138483698,-0.0253429206021651,0.719336274810034,0.693966017020553,-0.16204648757696,0.234643094906997,-0.343591645930742,0
226,476518540,0.0180713107974986,-0.0253786386739009,0.719285488410391,0.694015661629725,-0.175064959908798,0.211933798421641,-0.326232828555135,0
227,476535207,0.0181194324596918,-0.0253953972774918,0.719234428406798,0.694066709300197,-0.181714583015965,0.245576057305999,-0.320424850855739,0
228,476551874,0.0181825358810297,-0.0254388579102176,0.719183040749503,0.694116714822124,-0.197998835866013,0.231537767087678,-0.330071548605528,0
229,476568541,0.0182291264794085,-0.0254518245836451,0.71913420136617,0.694165617125051,-0.179570766400914,0.210617372743952,-0.32517957129483,0
230,476585208,0.0182930434560438,-0.0254810248572361,0.719084072316224,0.694214793039197,-0.154246811065415,0.21765918251591,-0.309654020821902,0
231,476601875,0.0183670457348089,-0.0255157608079569,0.719026194858174,0.69427150934569,-0.162607042400888,0.235378141741971,-0.324423528319235,0
232,476618542,0.0184184688273396,-0.0255383597659041,0.718968774227763,0.694328779377574,-0.18714605963722,0.233775686926829,-0.317465994330318,0
233,476635209,0.0184653741155698,-0.0255558798917547,0.718913975248267,0.694383628230436,-0.194887419632072,0.232307664406923,-0.304799264675667,0
234,476651876,0.0185095547269701,-0.0255774554584025,0.718866718535009,0.694430580503761,-0.171937719375438,0.237493200484759,-0.305740766606167,0
235,476668543,0.0185584114321257,-0.0256151081899136,0.718811656165367,0.694484884326748,-0.141717465052638,0.222595732528662,-0.30740167603473,0
236,476685210,0.0185974848275005,-0.0256141247052502,0.718760037663169,0.69453729808565,-0.155479310593698,0.201647826147188,-0.32421232140085,0
237,476701877,0.0186328005635876,-0.0256014687099272,0.71870732159141,0.694591368672225,-0.174057002483656,0.222103869578947,-0.329615936117874,0
238,476718544,0.0186656271976635,-0.025603021511177,0.718646897941064,0.694652946247622,-0.191329109825448,0.221218452554554,-0.33166650123012,0
239,476735211,0.0171207382876429,-0.0155031353611302,0.706983171532215,0.70685311648511,0.0196214859122865,0.225612654441592,-0.0151142124676028,0
240,476751878,0.0171155507123174,-0.0155238132609407,0.706983468723471,0.706852491045609,0.0419720693969852,0.254536684851695,0.0141842708200245,0
241,476768545,0.0170695053230797,-0.0154931712775963,0.706984838837575,0.706852906399624,0.036550142894211,0.233206840637497,-0.000800381827740532,0
242,476785212,0.0170369552513893,-0.0154574542390188,0.706988079485089,0.706851232389247,0.0152646807852249,0.244044231498701,-0.0125526965255427,0
243,476801879,0.0170137111592735,-0.0154376172763345,0.706986381934255,0.706853923639765,-0.00138846705500712,0.228147491994577,-0.0133345002387847,0
244,476818546,0.0169716195263476,-0.0154002469380164,0.706984800434178,0.706857332479437,0.0213898496580482,0.231600917342242,-0.019365432935462,0
245,476835213,0.0169370388095582,-0.0153704717149139,0.706983125419285,0.706860485306686,0.0525453065345344,0.238455242987277,0.0151898011458306,0
246,476851880,0.0168899831741373,-0.0153493429225425,0.706983265179166,0.706861930575434,0.0444492995464707,0.237434677338386,0.0178287048382693,0
247,476868547,0.0168464833863938,-0.015315101905023,0.706985304086334,0.70686167208097,0.0105176932559906,0.227554886765726,-0.0164198653911623,0
248,476885214,0.0167981757522541,-0.0152776258640931,0.70698340997915,0.706865527136248,-0.00110209003336577,0.236702152233574,-0.0137934704827709,0
249,476901881,0.0167636844506505,-0.0152514363711795,0.706986767557863,0.706863553361141,0.0140500299093401,0.217906241532585,-0.00538393080703427,0
250,476918548,0.0167245210531653,-0.0152244068898208,0.706985399671999,0.706866431853302,0.0347945336121998,0.246264346212885,0.00425464309822939,0
251,476935215,0.0166873492746708,-0.0151998628557867,0.706982528195954,0.706870710504408,0.0340317596125005,0.236382350553002,0.0120500752767683,0
252,476951882,0.0166363282492168,-0.0151722369633891,0.706982866268692,0.706872168507444,0.021007663814311,0.251958507413601,0.0208165590896705,0
253,476968549,0.0166021831657133,-0.0151356579485925,0.706979081209398,0.706877541095281,0.0028503264150483,0.233888127963973,-0.0177234388393781,0
254,476985216,0.016557121251852,-0.0151099866513934,0.706972405733327,0.706885823574698,0.0113875824403883,0.246607671573839,-0.0183785643538192,0
255,477001883,0.016513188555656,-0.0150684924841883,0.706971656527496,0.706888486258439,0.0135549475615168,0.233680142712659,-0.00173115416816602,0
256,477018550,0.0164834626089616,-0.0150398808284978,0.706971127308273,0.706890318647493,0.0314406611738534,0.232784078935154,0.00576055459261103,0
257,477035217,0.01645235119989,-0.0150123639524048,0.706964674372552,0.706898081945246,0.0213064235284416,0.235224038126313,0.0155612720091305,0
258,477051884,0.0164105373706602,-0.0149784511132842,0.706963863597589,0.706900584122423,0.0267592982975606,0.226036544969848,0.0124944926658802,0
259,477068551,0.0163824648318905,-0.0149413197397959,0.706966206812081,0.706899677631984,0.0159890530650955,0.221317649709575,-0.0123413206475276,0
260,477085218,0.0163458499589537,-0.014915919502386,0.706966571688893,0.706900696738213,0.0222791157861566,0.225698468822417,-0.0266367971717558,0
261,477101885,0.0163113268583674,-0.0148871670832292,0.706972682348141,0.706895989015237,0.0274759139093079,0.229510432701204,0.00284415275476724,0
262,477118552,0.0162805812239251,-0.0148559167590351,0.706967154972266,0.706902883147805,0.0230516697422159,0.221784374266301,-0.00124914445515555,0
263,477135219,0.0162494620614763,-0.0148275198956866,0.706974839687543,0.706896509883327,0.0210103778034476,0.230010140948894,0.0177304407182657,0
264,477151886,0.0162208613039214,-0.0148009649440559,0.706978707547195,0.706893854952907,0.00792132116506868,0.22049385675191,0.0152361226923968,0
265,477168553,0.0161976731266269,-0.01476959472115,0.706976566775085,0.706897183816692,0.0168929987461196,0.256147997082295,0.00179844942534173,0
266,477185220,0.0161630330008237,-0.0147219730644255,0.706980747488151,0.706894788886154,0.00823350864350124,0.237909376408958,-0.00740099968527207,0
267,477201887,0.0161289249805797,-0.0146911061197186,0.706982530886081,0.70689442648946,0.0119754000399653,0.224356842699887,0.00247780115577468,0
268,477218554,0.0160892556121359,-0.0146590729601164,0.706979669214656,0.706898857511407,0.0278187731046999,0.23373697317339,-0.000203166718729329,0
269,477235221,0.0160594048721771,-0.0146264911052817,0.706982059040029,0.706897821094831,0.0409640425283264,0.216338616087872,0.00287130284917431,0
270,477251888,0.0160201005405717,-0.0145926150620417,0.70698209384242,0.706899378236047,0.00926193324576904,0.230880300617317,0.000831972485997257,0
271,477268555,0.0160019742993607,-0.0145601104131769,0.706985962608314,0.706896589805096,-0.00153600656561672,0.228972952487287,0.00361721178835863,0
272,477285222,0.0159698936110524,-0.0145377870978953,0.706986362602232,0.706897374686605,0.0207213750953717,0.240675097154744,0.00205060418617275,0
273,477301889,0.0159562581353268,-0.0145019113347852,0.706992240655593,0.706892540664238,0.0226442857403778,0.226183008211385,-0.00140755353209064,0
274,477318556,0.015925687096861,-0.0144743411337768,0.706989283191136,0.706896752993051,0.00910565401738247,0.223039096150661,0.013347226667578,0
275,477335223,0.0158899161544253,-0.0144394601464245,0.706990966390372,0.706896587909217,0.0150789427468657,0.237857061619749,0.0106107689451061,0
276,477351890,0.0158589982716288,-0.0144083043318206,0.706989408637186,0.706899475890981,0.0059131400575243,0.215246149801048,0.000307262657660008,0
277,477368557,0.015835770007696,-0.0143715793108026,0.706987579078828,0.706902573997743,0.00469278788077161,0.208474199000692,-0.0194199139338612,0
278,477385224,0.0158093057424888,-0.0143366817094769,0.706990169834583,0.706901283891018,0.0235757093855563,0.236695246168147,0.0109851344791586,0
279,477401891,0.0157789237951907,-0.0142938324999997,0.70698565043594,0.706907350360709,0.00999734778188125,0.226414284829964,0.0106902962704633,0
280,477418558,0.0157575156722348,-0.0142499989093146,0.706985780129456,0.706908583146129,-0.0156631311952412,0.239534379084957,-0.00531680803424162,0
281,477435225,0.015729946866041,-0.0142101452484741,0.706980977308508,0.706914802693731,0.0153487762028909,0.2234730481345,-0.00861419025224277,0
282,477451892,0.0157017056099341,-0.0141848947140268,0.706977629283028,0.70691928598408,0.0168811091812002,0.240874230719508,-0.00910122291021087,0
283,477468559,0.0156586306943549,-0.0141558664983255,0.706977760555964,0.706920692021201,0.0243306506048008,0.229774078939874,-0.00535640449143475,0
284,477485226,0.0156264410313506,-0.0141237734440757,0.706988924112865,0.706910881615305,0.020735560287344,0.247374056936081,0.00983814612813674,0
285,477501893,0.0155890968445734,-0.0141011332254316,0.706992660106446,0.70690842169049,0.0194600587063466,0.219725106526872,0.0110919305899426,0
286,477518560,0.0155690792125519,-0.0140871509510209,0.706989660998862,0.706912141069362,0.014005725748814,0.244040230792679,0.00965412684104015,0
287,477535227,0.0155473468452172,-0.0140688020169335,0.706984174143949,0.706918472191724,0.00886830573665821,0.211888874522006,-0.010121630909408,0
288,477551894,0.0155315622958238,-0.0140311917277331,0.706985059924897,0.706918680807305,0.00649128583791328,0.229073034994983,-0.0109768412970601,0
289,477568561,0.0155118892614832,-0.0140011912105526,0.706979412058415,0.70692535593354,0.0235927131203824,0.229927425793763,0.00142821695925899,0
290,477585228,0.0154930784084345,-0.0139624280920863,0.706977059666882,0.706928887673981,0.010739943696727,0.211603010988039,0.0291589654348093,0
291,477601895,0.015456481508544,-0.0139434205977659,0.706972713547468,0.706934410324424,0.000156801873848071,0.255318319649335,0.0205051359853727,0
292,477618562,0.0154306245340103,-0.013909860585924,0.706971536358238,0.706936813572644,0.0137724037993124,0.217540239306674,-0.00454615473609017,0
293,477635229,0.0154109243235781,-0.0138688782570633,0.706973074820307,0.706936509954397,0.0308347476230407,0.241121717564852,0.00113536366318127,0
294,477651896,0.0153767899661707,-0.0138354369576435,0.706975320475061,0.706935662740049,0.0181300677159084,0.229871688586547,0.00107064947684442,0
295,477668563,0.0153428709730569,-0.0138035092156101,0.706971408762457,0.706940935747864,0.00719129691666513,0.252082040257188,-0.00770083427840418,0
296,477685230,0.0153090667242851,-0.0137778420110054,0.706971648379225,0.706941929675636,0.0129924263317971,0.222685791963065,0.00533993124665521,0
297,477701897,0.0152839498726117,-0.0137561740199501,0.706973111345128,0.706941432077378,0.0212796276669886,0.249950252442265,-0.000786849225672236,0
298,477718564,0.0152510183925823,-0.013720424954952,0.706977908047373,0.706938041068668,0.00925827091692736,0.247993003957913,-0.015399404208096,0
299,477735231,0.0152286711227369,-0.0136870598027196,0.706975414663625,0.706941663103108,0.0257436362773257,0.251682394702957,-0.015018634653868,0
300,477751898,0.0152076460811968,-0.0136592822524957,0.706975050828444,0.706943016809088,0.0103331956017519,0.238210431886824,0.00283242179229877,0
301,477768565,0.0151745243601537,-0.0136444731786166,0.706974342903391,0.706944722477252,0.0184059763549737,0.233921047312745,0.00171914613375445,0
302,477785232,0.0151494371490202,-0.0136103391868978,0.706978913074953,0.706941348124894,0.0194733083879551,0.232618478977868,-0.00599470403435096,0
303,477801899,0.0151215487986878,-0.0135788544597318,0.706978691268943,0.706942772482428,0.00164612698954655,0.223053649426322,-0.00225128959983808,0
304,477818566,0.0151037845986057,-0.0135532568657103,0.706973168505807,0.706949166441259,0.0073752925262486,0.250917131911572,-0.00292196384748251,0
305,477835233,0.015077215737222,-0.0135238332732644,0.706971126879725,0.706952338745423,0.0168066425240048,0.227622944872766,0.00466653291719514,0
306,477851900,0.0150485942207876,-0.013493411052534,0.706967339168771,0.706957317678213,0.00895540327525115,0.245117161847934,0.0175313632899301,0
307,477868567,0.015022552243925,-0.0134575472173302,0.706963349205711,0.706962545137163,0.0208445554437775,0.238766847016521,-0.00521542476260378,0
308,477885234,0.0150026591934558,-0.0134249606156302,0.70696296892238,0.706963967414215,0.0196951641460265,0.259655463848106,-0.000113292768775536,0
309,477901901,0.0149712988115773,-0.0133939261109392,0.706966021546881,0.706962168247639,0.0257155036469625,0.237681699064482,0.00109467252842046,0
310,477918568,0.0149465499535139,-0.0133720649458641,0.706968965212073,0.706960162067525,0.000482455412870742,0.233717984619158,0.00721404092878837,0
311,477935235,0.0149271867803268,-0.0133559879181391,0.706969190128472,0.706960650171315,0.00971455612744333,0.230916655636171,0.00582642805770994,0
312,477951902,0.0148911206013499,-0.0133339031790468,0.706977602122623,0.706953415473886,0.0158417047262673,0.219701858868141,0.0141784317112064,0
313,477968569,0.0148608712988302,-0.0133037797553371,0.706975866259269,0.706956355424731,0.0124077817289229,0.24501468779591,-0.0051056792099289,0
314,477985236,0.0148255309809501,-0.013276167537685,0.70698082690736,0.706952655693456,0.0303121524432888,0.226354551225412,-0.011382508450612,0
315,478001903,0.0147903830790826,-0.0132469450615806,0.706989581757478,0.706945184792495,0.00764925193978687,0.241383440899432,-0.00157259098942377,0
316,478018570,0.0147757075115435,-0.0132247363598215,0.706996515795159,0.70693897294551,0.0092628495516596,0.219619846589867,0.00274778527337536,0
317,478035237,0.0147575078399523,-0.0131991366173252,0.706997135712509,0.706939211565761,0.0243694664344849,0.242204768279706,0.00590772033657423,0
318,478051904,0.0147292475172538,-0.0131776739919707,0.706993512582511,0.706943824742801,0.0146710153537526,0.214419010015469,0.00208573536807371,0
319,478068571,0.0147067865676359,-0.0131591320305392,0.706991056429684,0.706947094061145,0.012442934952927,0.235331613153355,-0.0161564127399732,0
320,478085238,0.0146760456649345,-0.0131376861636962,0.706992859692481,0.706946328393996,0.014591029203394,0.234496153032882,-0.00804358224951654,0
321,478101905,0.0146400249073755,-0.0131213630406717,0.707002527522195,0.706937709830148,-0.00784823772052366,0.230055262263795,-0.00184487718118227,0
322,478118572,0.0146215551607446,-0.0130973088758344,0.707003354913911,0.706937710668604,0.00550661851187956,0.246193954894339,0.0219249903237058,0
323,478135239,0.0145964327170444,-0.0130724225611118,0.707006342449942,0.706935702632054,0.0239923096926343,0.237508506805973,0.00777343731237019,0
324,478151906,0.0145810350919317,-0.0130560763913073,0.707008340393343,0.706934324318153,0.0187171738110434,0.268332805948416,0.000904447059469993,0
325,478168573,0.014559366308866,-0.0130284492193909,0.70700499716117,0.706938624176637,0.0152480314931704,0.25100909365413,0.0132158293917891,0
326,478185240,0.0145385246809647,-0.0130108782157621,0.707001051742726,0.706943322468524,0.0261114686411478,0.23771151862744,-0.00814567671484581,0
327,478201907,0.0145193944648179,-0.0129866923661476,0.707004043197973,0.706941168632498,0.0256509259049429,0.234508464593616,0.00588152977702515,0
328,478218574,0.0144823949266862,-0.0129635495524891,0.70700509634385,0.706941299093503,0.0185754465899769,0.247271583393236,0.00672215829541683,0
329,478235241,0.0144507810030848,-0.0129368202388,0.707003173929283,0.706944358252069,0.0200646982181592,0.235766941511252,0.00162098108860264,0
330,478251908,0.0144311156378247,-0.0129118732938709,0.707005137854027,0.7069432519499,0.0135949727516492,0.225583302546391,0.00618958677683105,0
331,478268575,0.0143972301481257,-0.0128798240661144,0.707002573499346,0.706947092052432,-0.00286552061923674,0.233190856952744,-0.000737306763655937,0
332,478285242,0.0143641319414966,-0.0128565482831168,0.707001363897822,0.706949398702927,0.0106968759560884,0.235800292275725,-0.00555492581553037,0
333,478301909,0.0143253614153836,-0.0128297414465034,0.70700000994936,0.706952026439093,0.0170255032057368,0.234875586001009,-0.00673282249052006,0
334,478318576,0.0143062940556192,-0.0128041111792604,0.707003970523582,0.706948916366093,0.0225170400811794,0.245102092408214,0.00209655687072915,0
335,478335243,0.01428603078699,-0.0127726354108501,0.70700971370877,0.706944151846847,0.0132511286072989,0.244303697631298,-0.00954004841943713,0
336,478351910,0.014257703804575,-0.012737027841654,0.707010153040561,0.706944926781107,0.0153844483034026,0.255001134754852,0.0116047899925285,0
337,478368577,0.0142347319311608,-0.0127002148263496,0.707014245483356,0.706941959169078,0.0269135419451112,0.24257337116376,-0.00114344560854368,0
338,478385244,0.0142172876705034,-0.0126686342143427,0.707020843245729,0.706936278355084,0.0204651547018879,0.225853269150039,0.00629690155047959,0
339,478401911,0.0141872245915136,-0.0126457252266626,0.707021872119178,0.706936263489838,0.0171534241868153,0.251113542445938,-0.00208974644203814,0
340,478418578,0.0141722595157277,-0.0126143811607337,0.707016037145831,0.70694295927377,0.00626351430994284,0.231890511811208,-0.0106375793719301,0
341,478435245,0.01414693205714,-0.0125906894178455,0.707012208356361,0.706947718072853,0.0144975004801262,0.24328380792385,0.00522815670512265,0
342,478451912,0.014126507999319,-0.012568078864045,0.707010070589651,0.706950666772604,0.00530031443148176,0.248034988925733,0.00538476636251654,0
343,478468579,0.0140990819784381,-0.0125345896114398,0.707008962912359,0.706952916616254,0.015340540059772,0.227565422469722,-0.00517700130798399,0
344,478485246,0.0140666489025191,-0.0124991204941249,0.707009284258431,0.706953869320982,0.0234954195819902,0.244510302704024,-0.00341429261946652,0
345,478501913,0.0140461337325773,-0.0124767190459029,0.707003753365223,0.706960204209899,0.0205250032713285,0.233313675827102,0.0122959124042037,0
346,478518580,0.014024882575306,-0.0124584129728864,0.707002348123166,0.706962354275867,0.0196764414679178,0.21563995547301,-0.00644729632920804,0
347,478535247,0.0140031939756237,-0.0124319076643927,0.70700211667992,0.706963482253799,0.0173886629795392,0.227694462191333,0.0046515747733314,0
348,478551914,0.0139771226682765,-0.0124120961512197,0.707004275804316,0.706962187040767,0.00628594151231768,0.229161903679794,0.000609888801984259,0
349,478568581,0.0139446640704255,-0.0123890935012371,0.707008963151238,0.70695854385529,0.0139371851540377,0.221246701507244,-0.00129188535254648,0
350,478585248,0.0139060354622308,-0.0123772160638608,0.707016294759969,0.706952180592236,0.0207898905487283,0.234732842966281,-0.0157875552717979,0
351,478601915,0.0138799897571073,-0.0123477687398702,0.707018061285471,0.706951440699872,0.0146129799543794,0.237837490819215,-0.0103337556223387,0
352,478618582,0.0138407863264495,-0.0123206746424227,0.707018720395421,0.70695202285632,0.018902323690541,0.221433214909343,0.0126089690376441,0
353,478635249,0.0138177849576632,-0.012284538183738,0.707018561363982,0.706953260709137,0.0102237164897147,0.248651021276458,0.00867362946606443,0
354,478651916,0.0137904544954135,-0.0122691438663946,0.707018947824373,0.706953675208575,0.0131161555648024,0.236250061293168,-0.00392585646198864,0
355,478668583,0.0137627925647559,-0.0122394739781373,0.707022006108437,0.706951669985975,0.0270439250005014,0.235451047111182,-0.00894194716985721,0
356,478685250,0.0137528481131025,-0.0122187043816827,0.707022295819781,0.706951933051842,0.029472842422043,0.24457741892558,-0.0132766331806211,0
357,478701917,0.0137376244746032,-0.0122039528029799,0.70702670823367,0.706948070974126,0.01784768134494,0.250562225334256,0.00496898813617009,0
358,478718584,0.0137255406100077,-0.0121857153914037,0.707023804437842,0.706951524387353,0.0128362884348326,0.240792365164457,0.0067601558852874,0
359,478735251,0.0137278250626723,-0.0122027362047817,0.707001049386645,0.706973943094332,0.0221070545252384,0.258532392518173,0.0130238123864321,0
360,478751918,0.0137116661890917,-0.0121904406224801,0.7070071283778,0.70696838952723,0.0204653144281013,0.270734044959282,0.00867002826631169,0
361,478768585,0.0136781365414321,-0.0121567770300591,0.707013708486801,0.706963038188515,0.0223170084315068,0.227934643186815,-0.00701187165338056,0
362,478785252,0.0136623539236784,-0.0121391592052601,0.707016713061815,0.706960641302132,0.0349289195732089,0.240981407868979,0.00336302905921585,0
363,478801919,0.0136457809095286,-0.0121185175684883,0.70701808510438,0.70695994337066,0.0116705840912808,0.241904528442207,-0.00423998246258458,0
364,478818586,0.0136273836126604,-0.012099104338834,0.707020488942375,0.706958226704914,0.000805706224683392,0.24744922554734,-0.00983823221959754,0
365,478835253,0.0135881236773184,-0.0120699522058276,0.70701705891041,0.70696291102034,0.00800803613760111,0.242928473211265,0.0133497094986321,0
366,478851920,0.0135495221614081,-0.0120512951455112,0.707016076582127,0.706964952588832,0.0153020306096617,0.220523977525946,0.00566024590243812,0
367,478868587,0.0135213170533239,-0.0120328180187684,0.70701430130069,0.706967582730615,0.016505143828247,0.241265918894412,0.0108299576264234,0
368,478885254,0.0134930997221679,-0.0120170858969567,0.707015503538454,0.706967187118822,0.0143764613652725,0.248882684640342,-0.000540369837175284,0
369,478901921,0.0134558525036758,-0.0119690725154502,0.707021290758742,0.70696292388665,0.00134814769814686,0.256832106969993,-0.00763422844671761,0
370,478918588,0.0134304728223727,-0.0119479077904076,0.707025762596579,0.706959292267897,0.0137117687893434,0.247303734479167,0.00636225042531187,0
371,478935255,0.0134078033869412,-0.0119231448257018,0.707026726655,0.706959176488515,0.0210545338981268,0.238489659547237,0.0193346872618748,0
372,478951922,0.0133822323668034,-0.0118911324973129,0.707025312263611,0.706961614688772,0.0157681965770788,0.225154797169804,0.00113699308845058,0
373,478968589,0.0133576903440133,-0.0118594674572858,0.707027857768814,0.706960064981852,0.0187927578519992,0.235496029324938,-0.0108697866220126,0
374,478985256,0.0133228755507357,-0.011845007683674,0.707033636583629,0.70695518494411,-0.00348803110370314,0.249253735674403,0.0059227167175855,0
375,479001923,0.0133126424073783,-0.0118360099150002,0.707036032894728,0.706953131834007,0.0114398509383968,0.242299580116654,0.00532566396009908,0
376,479018590,0.0132955756405819,-0.0118125617239863,0.70703846390486,0.706951413898408,0.0216626943427345,0.218914646925069,0.00409935872927728,0
377,479035257,0.0132692805134865,-0.011793889739262,0.707036973781021,0.706953709988178,0.0233466776896974,0.233182673276243,0.00293867467081836,0
378,479051924,0.0132448834174824,-0.0117701160515932,0.707036867640009,0.706954669854577,0.011157123381199,0.235120465990674,-0.00245821460155665,0
379,479068591,0.0132319635097758,-0.0117331321251905,0.707035794408813,0.706956599924569,-0.00584211251019176,0.248640665893719,0.00224883214668333,0
380,479085258,0.0132037468589011,-0.0117050433388361,0.707031182498302,0.706962205499258,-0.00608354692615544,0.218974908232094,-0.0068370249624425,0
381,479101925,0.0131598285024501,-0.011659823144758,0.707039151849052,0.70695580144065,0.0110770559493052,0.229184329523289,-0.0134221465401734,0
382,479118592,0.0131390350870977,-0.0116477533792596,0.70703984031773,0.706955698613197,0.0454680454338912,0.248187127455385,-0.00173451894969486,0
383,479135259,0.0131203788139423,-0.0116301130051573,0.707031724483562,0.706964452221656,0.0193764418172747,0.239765884457638,0.00915474561863978,0
384,479151926,0.0130933720975449,-0.0116011060362711,0.707030921935659,0.706966232130406,0.00147799731844426,0.237072023371108,-0.00154050113786012,0
385,479168593,0.0130674652066501,-0.0115796515008781,0.707033980441169,0.706964004405958,-0.00376153341945864,0.264567233984479,-0.011463866873869,0
386,479185260,0.013054711825143,-0.0115565152900484,0.707033168169939,0.706965430951961,0.0197589376376411,0.229073966014109,-0.00373131273616605,0
387,479201927,0.0130262247863397,-0.0115394017818764,0.707036329889077,0.706963073923466,0.0362110122469388,0.218881432600451,0.00249878293945007,0
388,479218594,0.0129992534954716,-0.0115102720733757,0.707041979399079,0.706958395107371,0.00890911778412427,0.253728130050736,0.0018144782761743,0
389,479235261,0.0129864894218526,-0.0115021817212471,0.707045255947185,0.706955484419442,0.0133905325442172,0.23362677201851,0.0119744144428595,0
390,479251928,0.012954799958815,-0.0114859862230482,0.70704801575511,0.706953568981211,0.0174118048072815,0.241268177676335,-6.76061079860936e-06,0
391,479268595,0.0129245559960836,-0.0114602742350934,0.707045837229946,0.706956718634575,0.0203472459529379,0.239363473111239,-0.0016862439370106,0
392,479285262,0.0129103560827585,-0.0114487522913991,0.707048811173688,0.706954190449891,0.0163288717012283,0.247995973504885,-0.0246006029443599,0
393,479301929,0.0128869940078806,-0.0114329483371417,0.707050089683518,0.706953593778468,0.0156378929327168,0.221258911684033,-0.014165153070084,0
394,479318596,0.0128665631687503,-0.0114109138903901,0.707047457112244,0.706956954833546,0.0227261017716702,0.252987198576303,-0.00525686869630686,0
395,479335263,0.0128563503624727,-0.0113980469285266,0.707041057953839,0.706963748115197,0.00309276567688644,0.226951441188422,-0.00698745303973512,0
396,479351930,0.0128302274396202,-0.0113844727838878,0.707041429937786,0.706964069380341,0.00967255697717352,0.249291771356756,0.0102171316844587,0
397,479368597,0.012807353428039,-0.0113498232029135,0.707045816822712,0.706960653873281,0.0112760594679779,0.222941275850597,-0.00633006843376093,0
398,479385264,0.012780420443928,-0.0113194147844358,0.707050102643072,0.706957342457546,0.0335625266233485,0.236197602484961,0.00160350892729163,0
399,479401931,0.0127546460923773,-0.0112835713343903,0.707055094879711,0.706953388014827,0.0242914559926276,0.239432289914003,-0.00952405204049799,0
400,479418598,0.0127343200149205,-0.0112573457052498,0.707054895667916,0.706954371776186,0.0103593649345856,0.246496057863886,0.000890030538094862,0
401,479435265,0.0127120399111165,-0.0112376913372934,0.70706090607469,0.706949074145758,0.0117537137563586,0.227214960456718,0.0109264325687781,0
402,479451932,0.0126953563160103,-0.0112182499173984,0.707063177932977,0.706947410496791,0.00805816084341281,0.223629318502124,-0.000323212731826156,0
403,479468599,0.012682483243816,-0.0111890553221441,0.707064523036332,0.7069467589028,0.0178785061639792,0.232462193687105,-0.00652311967426242,0
404,479485266,0.0126580339065288,-0.0111563782594737,0.7070627738873,0.70694946296362,0.0089466298932689,0.240262250124256,0.0103879418443443,0
405,479501933,0.0126385121317623,-0.0111377701516674,0.707063736318507,0.706949143058011,0.0135806090300297,0.226929783138934,0.00359680443171844,0
406,479518600,0.0126111430592797,-0.011108982325062,0.707068306413447,0.706945513917487,0.00425677660143399,0.239411491505231,-0.00735120978554953,0
407,479535267,0.0125934996525809,-0.011090780155017,0.707061561062436,0.706952860684504,0.0157594885674137,0.23703080993948,0.00500486505433115,0
408,479551934,0.0125829408887852,-0.0110750582956893,0.707064313482982,0.706950542316205,0.0176713484925922,0.218659723210109,-0.00309717358805739,0
409,479568601,0.0125605867095809,-0.0110548145060519,0.707066621410754,0.706948948386324,0.0246726394222951,0.234613920283402,-0.0150561563121412,0
410,479585268,0.0125638619697989,-0.0110507485392152,0.707065600652035,0.706949974682583,0.0109568011299076,0.229603360005582,-0.00160300077547435,0
411,479601935,0.012546686707825,-0.0110169215941961,0.70707261583061,0.706943791283085,0.021870569916944,0.242640267231833,0.000858751483846721,0
412,479618602,0.0125366279501657,-0.0110011165294562,0.707068343956627,0.706948488483552,0.00950290362454682,0.231439477690168,-0.00434551260530314,0
413,479635269,0.0125128128070622,-0.0109757602922547,0.707072489729201,0.706945158035481,0.0165829334606892,0.23905769574379,-0.00388310532618884,0
414,479651936,0.0124994113914535,-0.0109490734036743,0.707072366823122,0.706945931865809,0.0180470443572658,0.234581286794504,-0.00512720870396487,0
415,479668603,0.0124925706044739,-0.0109238822575111,0.707072394517823,0.706946414791778,0.0196532193445435,0.236477742211345,-0.0041683647454205,0
416,479685270,0.0124739835253296,-0.0108996208382784,0.707073236457227,0.706946275389081,0.0171597354153972,0.210842448043146,0.00356069159955317,0
417,479701937,0.0124614919698274,-0.0108840913220907,0.707074604952102,0.706945366210011,0.0281509059877897,0.230032353217968,0.00794237897730748,0
418,479718604,0.012436985326228,-0.0108696851160618,0.707076811991741,0.706943811971693,0.0194713216654314,0.216636465769011,0.00623144022425067,0
419,479735271,0.0124236424818741,-0.0108527153523985,0.707073269657783,0.706947850277808,0.01337656145375,0.228643890801637,-0.00627999487481799,0
420,479751938,0.0123998186351521,-0.0108450511240895,0.707073091172392,0.706948564680522,0.0125726319993025,0.220632165935396,-0.00436078581094852,0
421,479768605,0.0123649500335298,-0.0108170301600944,0.707065790957567,0.706956906131296,0.00798572529401407,0.240056139903567,-0.0176898645386535,0
422,479785272,0.0123383449871082,-0.010787910954387,0.707064435297395,0.706959171775708,0.00989289300547073,0.226995000432885,-0.0128379090630091,0
423,479801939,0.012308958927984,-0.0107637553673826,0.707061229978394,0.706963257999977,0.0162922595226906,0.232170117770567,0.0101693549636828,0
424,479818606,0.0122849687347116,-0.0107457330298965,0.707066634321838,0.706958544324648,0.0152324647880166,0.232142389339237,0.00274561455531761,0
425,479835273,0.0122591733602983,-0.0107293530808319,0.707068191156426,0.706957683815494,0.0140384079177644,0.247451438720838,-0.011817717491568,0
426,479851940,0.0122464698153367,-0.0107210850320603,0.707077774930519,0.706948444026935,0.0210829044697067,0.236631561754773,0.00284359123016851,0
427,479868607,0.0122024835855658,-0.010688240695061,0.707075141304675,0.706952336055382,-0.00439490474737237,0.236384642551351,-0.00841770902080964,0
428,479885274,0.0121693509399328,-0.0106658944539008,0.707073963544361,0.706954422626287,-0.00194427388235215,0.235545971041541,0.00381835652634733,0
429,479901941,0.0121533529231639,-0.0106431158710871,0.707078227503027,0.706950776425387,0.0212404955874763,0.235697464587273,0.00279057093363543,0
430,479918608,0.0121443005086918,-0.0106305672450034,0.707076573713967,0.706952774879709,0.0291939173557486,0.225955615607763,0.000633911828974639,0
431,479935275,0.0121239655759996,-0.0105971728067205,0.707069980165719,0.706960219910333,0.00864214846047318,0.232749351722929,0.00323063839184632,0
432,479951942,0.0121037056816152,-0.010591983198159,0.707066670582427,0.706963954917211,0.0163385416315405,0.216832763123929,-0.00726541289103619,0
433,479968609,0.0120919067755266,-0.010592526723262,0.707065459904616,0.706965359531868,-0.000869559686640054,0.244649166753107,0.00492656241185676,0
434,479985276,0.0120739572317271,-0.0105696289236703,0.707068300894659,0.706963167619871,0.0172756985615724,0.240340203054906,0.0116732011891484,0
435,480001943,0.0120523876348718,-0.0105566013415134,0.707065440558387,0.706966591069471,0.0176244891498945,0.231711076064845,0.00554800984211702,0
436,480018610,0.0120301725050967,-0.0105254086138735,0.707063179301496,0.706969696096707,0.0321200069602176,0.2275992013391,-0.00578696723935447,0
437,480035277,0.0120104901935865,-0.0105130126973438,0.707063449791822,0.70696994466372,0.00487704611488199,0.231811861412678,-0.0179706426308783,0
438,480051944,0.0119983731505512,-0.0105028072177709,0.707066223436635,0.706967528078441,0.0104308125409476,0.226907689112667,0.0158546771031497,0
439,480068611,0.0119691388002068,-0.0104859014337403,0.707071258760711,0.706963238522377,0.00113734417947136,0.205617180617524,-0.0156072576448422,0
440,480085278,0.0119503817536566,-0.0104862829426188,0.707079938619295,0.706954868890599,0.00998219261320098,0.24522982342636,0.0118586526773729,0
441,480101945,0.0119194753016678,-0.0104684339400232,0.707082350837306,0.706953242537132,0.0182145386014894,0.232010523469002,-0.0124956563653245,0
442,480118612,0.011903156599988,-0.0104497204337298,0.70708065469487,0.706955490792799,0.0046592384708613,0.241548104715628,-0.00654282958523637,0
443,480135279,0.011884080491509,-0.010437741294588,0.707079444455353,0.706957199140265,0.000775382171723725,0.242592342515321,0.00912373295711634,0
444,480151946,0.0118665036836059,-0.0104187315705529,0.707077238890579,0.706959980738417,0.0154742440679351,0.232958027857471,0.000843230575180693,0
445,480168613,0.0118565347043728,-0.0103930102355015,0.707083335959053,0.706954428469096,0.0208069333898172,0.245943446811927,0.00443346522671711,0
446,480185280,0.011848471769018,-0.0103822501310922,0.707076192473729,0.706961866465093,0.017402026419745,0.231831929405891,0.00270312006990861,0
447,480201947,0.0118218212080413,-0.0103509438288294,0.707067479485296,0.706971485959291,0.00350609351344356,0.235661461799607,-0.00878258339432393,0
448,480218614,0.011814935088622,-0.0103356946934075,0.707063579998015,0.706975724169117,0.000538684056699422,0.236329983221669,-0.0107104422776269,0
449,480235281,0.0118036410121312,-0.0103221108883789,0.707067411684483,0.706972279102561,0.00482116857176799,0.211799590955258,0.00689367473643588,0
450,480251948,0.0117812843181254,-0.0103166672440696,0.70706966988251,0.706970472968305,0.000582024570095113,0.232584162988366,-0.00665369284202457,0
451,480268615,0.0117580380111752,-0.0102956359900665,0.707073603186434,0.706967232690909,-0.00420544852442378,0.248530058089261,0.00385232035073877,0
452,480285282,0.0117540068289677,-0.0102815757678826,0.707074853816715,0.706966253525064,0.0111572376754633,0.230470893146328,0.00332549937388753,0
453,480301949,0.0117357981719216,-0.010262186555278,0.707078511854998,0.706963179126957,0.00165944136577012,0.223185950206407,-0.0108831237604283,0
454,480318616,0.0117156857655478,-0.0102479585075834,0.707081746568648,0.706960483848214,0.0114345441435578,0.246185776124221,0.00369107002592014,0
455,480335283,0.0117024132009692,-0.0102386421697633,0.707081956812663,0.706960628381644,0.00468152456980932,0.230450402280957,-0.00103416895927039,0
456,480351950,0.0116744293796882,-0.0102237674126103,0.707080512180045,0.706962751192563,0.00902030744020313,0.229292245980897,-0.00581669071981279,0
457,480368617,0.0116535486385623,-0.0102079758783514,0.707079591628712,0.706964244594286,-0.000522018402225203,0.232238868030666,0.0132084138586968,0
458,480385284,0.0116393963645033,-0.0102002688853588,0.707084154957418,0.706960024877708,0.00422377716243763,0.263480372109027,-0.00423427778632435,0
459,480401951,0.0116182266488144,-0.0102005950713016,0.707078155318759,0.70696636903091,0.00764483197806662,0.238636271364242,-0.00153857583911805,0
460,480418618,0.0115926591048171,-0.0101752466676822,0.707079597233783,0.706965711888379,0.0172496851298485,0.238055826759218,0.00619075015553707,0
461,480435285,0.0115650482774008,-0.01016223703245,0.707081385175293,0.706964562998336,-0.00114166701646599,0.239922676739812,-0.00360006763892,0
462,480451952,0.0115470005441294,-0.0101385863358702,0.707083091377943,0.706963491089147,0.00368576866133745,0.235263050769452,-0.000346720059682851,0
463,480468619,0.0115304771417876,-0.0101343319695701,0.70708301224595,0.70696390092112,0.00823896227284544,0.231172364776145,-0.00493157220657122,0
464,480485286,0.0114997018425855,-0.0101264133425383,0.707081842557142,0.70696568554375,0.0205375497783666,0.245457666758612,-0.00741519944695054,0
465,480501953,0.011488448447367,-0.0101034214661646,0.707081545317893,0.706966494749086,0.00585586528969741,0.231719160400565,0.00325502827085259,0
466,480518620,0.01146182515097,-0.0100976379120245,0.707082889656315,0.706965664956993,0.00625003279933258,0.21621087158367,-0.00288051146856231,0
467,480535287,0.0114566940978176,-0.010081166917646,0.707080009721462,0.706968863590346,0.00438315923899001,0.238507376938339,0.00125357324488958,0
468,480551954,0.0114440263895579,-0.0100587198870626,0.707082049429567,0.706967348460105,-0.00115977976763677,0.221078157052731,0.0143227244141148,0
469,480568621,0.0114337600348285,-0.0100355998092237,0.707082232482957,0.706967660062929,0.0204000715407382,0.246342191053946,0.0101833920657674,0
470,480585288,0.0114086698025442,-0.0100091548098252,0.707088005153754,0.706962666652925,0.0154966381574023,0.257866911095218,-0.00387576661265777,0
471,480601955,0.0113955290282065,-0.0099985407646082,0.707086045823013,0.706964988456375,0.00932345657509906,0.233739509590547,-0.00535713711253468,0
472,480618622,0.0113734101965003,-0.00996403761749364,0.707089203471932,0.706962673574982,0.00838900693434321,0.223517319704998,-0.0123249291022927,0
473,480635289,0.0113506001946244,-0.00993742743386121,0.707088287295594,0.706964331052566,0.00377665523396841,0.248240610819908,0.0143620524580779,0
474,480651956,0.0113150239902778,-0.00991202321816741,0.707094980169623,0.706958563882454,-0.0143442905870509,0.233214214383604,0.005451583316386,0
475,480668623,0.0112996441538111,-0.00989426280416375,0.707093372516228,0.706960666620984,0.00142588437070722,0.265184393541607,0.000878861866988286,0
476,480685290,0.0112892468083811,-0.00988644427146236,0.7070940258545,0.706960288649258,0.00764364056609613,0.23559355982365,-0.0105733888115812,0
477,480701957,0.0112777207197321,-0.00986811863402354,0.707093483128992,0.706961271475674,0.0065177142774845,0.199061274342547,-0.00681963883884912,0
478,480718624,0.0112560017628472,-0.0098384515984064,0.707096483418214,0.70695903023588,-0.00806073746817128,0.24255135877398,0.00911510055203175,0
479,480735291,0.0112343810377083,-0.00979721761504799,0.707044732000745,0.707011704400781,-0.00584008476492644,0.241384117621488,-0.000175259851155957,0
480,480751958,0.0112172223089297,-0.00978698399560458,0.70705041074686,0.707006439525581,0.00261563109310419,0.23133907982987,-0.00622001035170896,0
481,480768625,0.0111911728183,-0.00975743482745089,0.707053720947617,0.707003950350115,0.00427411679789949,0.232480305290852,0.00301460054800274,0
482,480785292,0.0111787857579923,-0.00974748372405847,0.707048086953454,0.707009917925829,0.0124578324336508,0.230954679523287,-0.00373219598113426,0
483,480801959,0.0111598570604447,-0.00972857145555993,0.707051859044689,0.707006705137422,0.00165854389011785,0.217902567856029,0.00179924698795773,0
484,480818626,0.01113276297864,-0.0097051765836684,0.707047411162904,0.707011901953408,0.00688413202014581,0.254531638370155,-0.00268806554085689,0
485,480835293,0.0111181501491015,-0.00969267751276108,0.707048724567512,0.707010989891494,0.00845123969512582,0.199132855857802,-0.00746959017324914,0
486,480851960,0.0111032834983225,-0.00967420941891903,0.707044621433959,0.707015579792259,0.0134353401851982,0.221551066607508,-0.0082114332251199,0
487,480868627,0.0111001525331691,-0.00965121309514563,0.70704538981461,0.707015174831091,0.00492043233543051,0.248016151428782,0.00486038281260599,0
488,480885294,0.0110854262521209,-0.00962519927511576,0.70705242502377,0.707008724933242,-0.00481371477927923,0.227896188049277,-0.00256683252945583,0
489,480901961,0.0110706958090296,-0.00959542004531328,0.707047485318291,0.707014300501439,0.0176501448283434,0.223072956516003,0.0145878334939681,0
490,480918628,0.0110594365714495,-0.00958349580575538,0.70704747590916,0.707014647854872,0.00828009008081502,0.239874386298619,-0.0122819499107947,0
491,480935295,0.0110403940369787,-0.00955929620903619,0.707043199848564,0.707019549307796,0.00771630296437895,0.217479327791781,0.0114140712413036,0
492,480951962,0.0110307849829417,-0.00954377278839849,0.707041261787725,0.707021847125848,0.00218219262652357,0.242325886697188,-0.00303729194163265,0
493,480968629,0.0110125589541394,-0.00951757083850234,0.707034635268119,0.707029111085175,0.00560463744952177,0.24143060558777,-0.00353875980070099,0
494,480985296,0.010996577887626,-0.00949437472101547,0.707030789886483,0.707033517080989,0.0103744787713162,0.213624872316083,-0.00243638022607774,0
495,481001963,0.0109719572755998,-0.00947682885839671,0.707025406749226,0.707039518046497,0.0177533918114861,0.23174657531252,-0.00855388716532472,0
496,481018630,0.0109505199649755,-0.0094613778724451,0.70701520778186,0.707050255926991,0.00837829377769915,0.233076355797956,0.00323095822366738,0
497,481035297,0.0109262781018969,-0.00943354115130194,0.707016238215646,0.707049972524986,-2.30621906187287e-05,0.25310907951457,0.00378462766308582,0
498,481051964,0.0109073465905967,-0.009413912699954,0.707018528061582,0.707048236696525,0.00634073556308209,0.242966187403121,-0.0062635994371073,0
499,481068631,0.010888319409544,-0.00939982530065136,0.707022193409998,0.707045052178762,0.00357211292323542,0.236817491399374,0.00403366877416477,0
500,481085298,0.0108859943597554,-0.00938452067841107,0.707027199324491,0.707040285495673,0.00669733980161969,0.259362851530928,0.00237945768441508,0
501,481101965,0.0108602204903345,-0.00936102422321617,0.707029749054119,0.707038443642821,0.0140001684454977,0.251643611024877,0.0180921483798198,0
502,481118632,0.0108492606687065,-0.00933431250282019,0.707029842436771,0.707038871673175,0.0132338892676221,0.221928560865416,0.000544701831714206,0
503,481135299,0.0108371572314231,-0.00931687663618459,0.707030839723833,0.707038289990224,-0.00287198331926536,0.246721445358113,0.00503267622205174,0
504,481151966,0.0108219450878349,-0.00929112070848782,0.707028653249091,0.70704104835948,0.00531267407542713,0.244073308207416,-0.0140519884416325,0
505,481168633,0.0107978701670002,-0.00927343774448425,0.70702932865529,0.70704097319286,0.00648066961235762,0.229536896575189,-0.000911439699147466,0
506,481185300,0.0107714174171296,-0.00923819310633838,0.707019950858638,0.707051215572681,0.0180755971865691,0.250047041990764,-0.00854809979462231,0
507,481201967,0.0107512210628549,-0.00921377380221741,0.707016500858558,0.707055291424722,0.0162567646102711,0.240181948598834,-0.0110299254328086,0
508,481218634,0.0107403861269177,-0.00920969324436679,0.707019742753006,0.707052267526003,0.0063563041495263,0.242253018164981,0.0139573926672407,0
509,481235301,0.0107255376485604,-0.00919952320792756,0.7070140527658,0.707058314997125,0.00333176380379071,0.223877322290667,-0.0130010050758475,0
510,481251968,0.0107030382410605,-0.00917382127467326,0.707011878843615,0.707061163655346,0.011063445582932,0.232582496994917,-0.00183810836548605,0
511,481268635,0.0106897863077909,-0.009154414314716,0.707010517589548,0.707062976816781,0.0169167265696332,0.232432764744915,-0.00297831265111937,0
512,481285302,0.0106652418501078,-0.00913941071979768,0.707015884012786,0.707058175500143,0.0129777385182253,0.222467094620459,0.00215104957119627,0
513,481301969,0.0106511795017041,-0.00913030516519856,0.707015719010811,0.707058670107678,0.0090119433256571,0.252106709495568,0.0118766836103967,0
514,481318636,0.0106368168212533,-0.00911441718451475,0.70701833988534,0.707056470582849,-0.00212060570938094,0.22374153960316,0.0264080509763829,0
515,481335303,0.0106217033843016,-0.0090936211754338,0.707014409480253,0.707060895721452,-0.000527004104268188,0.248519628422575,-0.00109273482750401,0
516,481351970,0.0106050191392296,-0.00907660050970822,0.707022153875886,0.707053620895153,0.0116833192519023,0.216933618215432,-0.0103729328654637,0
517,481368637,0.010586026400773,-0.00904679625390081,0.707024733153597,0.707051708315359,0.018088528817372,0.231920586892547,-0.00844092877741101,0
518,481385304,0.0105657376832602,-0.00903514711353507,0.707030858980367,0.707046035101908,0.0179506811923783,0.240694046800846,-0.000329985635287968,0
519,481401971,0.0105494178492514,-0.00901500011529583,0.70703056186549,0.707046833062798,0.00324483264341786,0.23960524474035,0.003992315318208,0
520,481418638,0.0105375107003669,-0.00901187676898043,0.707032128639211,0.707045483697652,0.00776087587468935,0.233119962954239,-0.00445907593400706,0
521,481435305,0.010534604529026,-0.00899932948148803,0.707034451278861,0.70704336421545,0.0261767728608651,0.228958946549931,0.00157284203481848,0
522,481451972,0.0105221330882732,-0.00898399938513556,0.707039462865082,0.70703873332497,0.0300730684343779,0.257291685662342,0.013678445983216,0
523,481468639,0.0105150954230466,-0.00897179741857839,0.707043503875588,0.70703495192717,0.0180133399383611,0.236760761208066,-0.000681109819792999,0
524,481485306,0.0105121126750367,-0.00896429025949704,0.707048253917811,0.707030341370882,0.00539729466667519,0.235061623280969,0.00229096244167629,0
525,481501973,0.010508163015973,-0.00896038164245167,0.707049847750124,0.707028855752986,0.0113247724952139,0.252539689039075,-0.004695355347681,0
526,481518640,0.010474099673506,-0.00894463451119636,0.707046406762637,0.707033001658009,0.0194206152482795,0.225632326021915,-0.00146044902740646,0
527,481535307,0.0104617702295233,-0.00892331499691484,0.707043637918526,0.707036222475247,0.015890390663125,0.203328285686005,-0.00348358296293043,0
528,481551974,0.0104349300557292,-0.00890773285706023,0.707036219791143,0.707044233717756,0.0241816972264401,0.248544898912644,-0.00238113767051911,0
529,481568641,0.0104184630008872,-0.00888986260652252,0.707039651502369,0.707041269782001,0.0150170851745019,0.210874973960572,-0.00580536859148418,0
530,481585308,0.0104014655110722,-0.00887625722723903,0.707037619996657,0.707043722468647,0.015600244503914,0.241982984193378,-0.0170097426281287,0
531,481601975,0.0103917225646127,-0.00886599380162548,0.707042992152841,0.707038622356379,0.00302149191308245,0.245976917359425,-0.010637679279476,0
532,481618642,0.0103822583776781,-0.00886092379184602,0.707042476387754,0.707039340718751,0.00726873549003184,0.233952613314227,0.000558586906622926,0
533,481635309,0.0103744743927335,-0.00886376681968573,0.70704664391817,0.70703525176818,0.00993600688670761,0.229819433203598,0.00882406845630399,0
534,481651976,0.0103589297291614,-0.00885664125524892,0.70704407749308,0.707038135437193,0.0193448128592952,0.236749082856094,0.0151005881113717,0
535,481668643,0.0103406672528829,-0.00884967687217817,0.707045802527348,0.70703676491996,0.0214212398125162,0.240293899547466,-0.0132240015738623,0
536,481685310,0.0103171989927748,-0.00884211733757145,0.707043940656684,0.707039064229551,0.0124068929066959,0.248728358021911,0.00163836374914589,0
537,481701977,0.010307825829269,-0.00883290153323867,0.707049623204232,0.70703363350263,0.00419074849479638,0.236229359804065,-0.000626743409426337,0
538,481718644,0.0102962537873896,-0.00883162894759319,0.70705479667551,0.707028644388777,0.03149829370746,0.231076076317691,-0.00214603720712259,0
539,481735311,0.0102858317625158,-0.00880617008967322,0.707056423001807,0.707027487248688,0.0223350801621899,0.215651101060183,0.0146079533368278,0
540,481751978,0.0102648126527208,-0.00878385783099928,0.707058780115625,0.707025713057321,0.0163807318275597,0.231362237350277,0.00320833710335728,0
541,481768645,0.0102421545123776,-0.008779684129545,0.707064038894956,0.707020834430699,0.0213109042138195,0.270169301447889,-0.0120482304361667,0
542,481785312,0.0102181467123134,-0.00877085963458763,0.707063572427257,0.707021757830295,0.0149923482244604,0.219353781040793,-0.0178368021555286,0
543,481801979,0.0102068267205371,-0.00875072477984195,0.707058237089727,0.707027506443484,0.00278842602578327,0.245712470394414,0.0100118295099208,0
544,481818646,0.0101739214955209,-0.00873600691634441,0.707065034476129,0.707021364971265,0.00248068880318956,0.230655292292959,-0.00960707291034501,0
545,481835313,0.0101498849803105,-0.00871839139146279,0.707065203172691,0.70702175917633,0.0150401144551937,0.21531520616815,-0.00556291746766355,0
546,481851980,0.0101239118339708,-0.00869571748745878,0.707067276626107,0.707020337211807,0.0298682550254494,0.225836907909997,0.00994110276772128,0
547,481868647,0.0101207672129629,-0.00869040832920961,0.707072323999705,0.707015399767041,0.0195035251044304,0.217103621560365,0.0113724580083123,0
548,481885314,0.0101033281246217,-0.00867940817722402,0.707071846865937,0.707016261484905,0.0115188106930838,0.247192773144071,-0.000320945868664467,0
549,481901981,0.0100857843582069,-0.00866266327020321,0.707070090908095,0.707018473423549,0.00670831675690059,0.246606684826916,-0.00831537330131608,0
550,481918648,0.0100655257143457,-0.00864595656765989,0.70707282252571,0.70701623480133,0.00948017693374897,0.227085601861067,-0.00722642635091551,0
551,481935315,0.0100476337128261,-0.00862696541695906,0.707072319655576,0.707017224190013,0.0131673487511371,0.248788076802073,0.00855447294747972,0
552,481951982,0.0100238521407902,-0.00860858845053124,0.707078768399622,0.707011336451985,0.0164898780024003,0.253290713386554,-0.0143586532532772,0
553,481968649,0.0100048925423346,-0.00860517984894337,0.707074194949087,0.707016220352889,0.0138609069317409,0.242717540379148,-0.001236040821295,0
554,481985316,0.00999127423451447,-0.00859755607647082,0.707072744173433,0.707017956572344,0.0139510547035642,0.239026140010831,-0.0130570555808523,0
555,482001983,0.00996562328310674,-0.00857250885941869,0.70707458727016,0.707016779490535,0.0113292508310167,0.230419282801036,0.00192273630275308,0
556,482018650,0.00995052237780345,-0.0085568274323189,0.707074769707175,0.70701699969113,-0.00785254623979092,0.223894799684682,-0.00612870597686062,0
557,482035317,0.00992373486434212,-0.00854412538196593,0.707073709301722,0.707018590294557,0.0118960014783076,0.219121441110046,-0.0050527914314668,0
558,482051984,0.00990600341325887,-0.00851583185883863,0.707072560432563,0.707020329260389,0.00418317139755916,0.228519178488336,0.0122384974187655,0
559,482068651,0.00988382673364209,-0.00849449130420085,0.707075859080293,0.707017597441852,0.00320267018722304,0.227001689489723,0.00610015785806954,0
560,482085318,0.00986418628666306,-0.00846891090797456,0.707071517042817,0.707022520973486,0.000191573847980922,0.252426957312653,0.00353523765982528,0
561,482101985,0.00985089704911548,-0.00846188085474425,0.707068649912343,0.707025657745788,0.0167780321550885,0.225694665152169,0.00404061489289981,0
562,482118652,0.00983642890914924,-0.00845260475867775,0.707067660618478,0.70702695949067,0.0286313508662242,0.216776175820406,-0.00615002203834082,0
563,482135319,0.00981573534144242,-0.00845167830999685,0.707068548637537,0.70702637008888,0.0180727730574515,0.226311602279026,0.00691655411024711,0
564,482151986,0.00980067055649004,-0.00843482544266735,0.707076179000575,0.707019149433976,0.00868911541649977,0.214334954637933,-0.0031948847866543,0
565,482168653,0.00977675482003618,-0.00841218689488818,0.707078151192283,0.707017777911799,0.0155537583627645,0.211426287722864,-0.00678827297056995,0
566,482185320,0.0097654548907791,-0.00839438781547995,0.707078420561183,0.707017876238418,-0.00022099360194427,0.25000886089847,-0.0112801333755003,0
567,482201987,0.00975457575262652,-0.00837422971275446,0.707080010764897,0.707016675125359,-0.00186408467636383,0.226306921766627,-0.00181452153804038,0
568,482218654,0.0097440918718444,-0.00836052817213611,0.707082896363698,0.707014095978433,0.00182289766154205,0.245824827310243,-0.00571209954662221,0
569,482235321,0.00973377124836809,-0.00834732929520825,0.707083153404357,0.707014137031695,0.0176617066953469,0.225040170963589,-0.00830845981869261,0
570,482251988,0.00972722822974095,-0.00833113617854808,0.707081550859874,0.707016020776429,-0.000699522148422144,0.224909335436221,-0.00977863274751719,0
571,482268655,0.0097032091764236,-0.00831394523123794,0.707082572476616,0.707015531474537,0.00809015992104144,0.240099929693249,-0.0242331622000161,0
572,482285322,0.00967259428581104,-0.00829524013133153,0.70707724314316,0.707021500479309,0.0134349929442018,0.21827715226758,-0.000286515859390018,0
573,482301989,0.00965229731997402,-0.00828514075720693,0.707076771947679,0.707022367518263,0.0195190282498861,0.233528426033001,-0.000854091019351546,0
574,482318656,0.00963556488890629,-0.00826764815396086,0.70707913087228,0.707020441407584,0.0216992227414191,0.244091486788322,-0.00519493494684925,0
575,482335323,0.00962592485920655,-0.00825913667809949,0.707080678306648,0.707019124633379,0.00609695904954075,0.250127785244625,0.0023622020739486,0
576,482351990,0.00960057150628511,-0.0082453555482313,0.707079045237441,0.707021263417689,0.00402241385245613,0.226251031918136,-0.00178851780105165,0
577,482368657,0.00958906658227603,-0.00824153670203839,0.707082412402275,0.707018096618643,0.0182240468775474,0.223173911957728,-0.0103858704707921,0
578,482385324,0.00956759254030724,-0.00822632988082682,0.70708495603946,0.707016020760739,0.0182728751632134,0.222181560348601,0.00138806960061688,0
579,482401991,0.00954570752584288,-0.00821184664524693,0.707080873010153,0.707020568346993,0.0102351991902604,0.242596862174919,0.00111816889178534,0
580,482418658,0.00953832114877669,-0.00818599252884642,0.707075087635394,0.707026753667342,0.0196847092764648,0.215343344241362,-0.010269280804978,0
581,482435325,0.0095243959699669,-0.00816293734698628,0.707075102417332,0.707027193166426,0.00186622577797364,0.246582173282831,0.0019892097274478,0
582,482451992,0.00952302682408512,-0.00814661398354604,0.707066430112206,0.707036072664678,0.0106649280109035,0.249071927556853,-0.00386733071474564,0
583,482468659,0.00951274738075903,-0.00813770231442813,0.70706593470022,0.707036809101773,0.0223896566307772,0.238264807164779,0.0133019944668462,0
584,482485326,0.00950291481093576,-0.00812431777135116,0.707069092808684,0.707033936997052,0.023345287902104,0.250429205000635,-0.00780218293291557,0
585,482501993,0.00949367918915388,-0.00810911328865319,0.707073063009266,0.70703026519649,0.0330566444097633,0.232101516921378,0.00141675170151498,0
586,482518660,0.00947772219739333,-0.0080976303568297,0.707076500882289,0.707027172790842,0.0186745421126293,0.223122692205975,-0.00418341678853153,0
587,482535327,0.00946567817102281,-0.00808632516207053,0.707069976710782,0.707033988091344,-0.00801051004675154,0.222534463632465,-0.0147376669630962,0
588,482551994,0.00947002652663582,-0.00808193068383234,0.707069793238765,0.70703416358992,0.0125827378962449,0.216529097874019,-0.0106777133472191,0
589,482568661,0.00945292861886401,-0.00806490875344215,0.707071554833086,0.707032825074796,0.00835997066733968,0.242014958558911,-0.00127219950573692,0
590,482585328,0.00943966781840365,-0.00804514408055153,0.707074743078171,0.707030038986421,0.0206405496523698,0.227925729658792,0.00419125805044142,0
591,482601995,0.00942717997321407,-0.00802319406677939,0.70707592343888,0.707029274590363,0.0155754178380996,0.233271281129825,-0.00121088648256248,0
592,482618662,0.00941403554464252,-0.00800529245856398,0.707078578545912,0.707026997355058,-0.000779589646360012,0.238047956856839,-0.00500521396685974,0
593,482635329,0.00940061607460612,-0.00798771686087466,0.707077057111309,0.707028896229553,-0.00745482817028344,0.229913545227509,-0.00628821101198642,0
594,482651996,0.00939227894043111,-0.00798272434965978,0.707068420300614,0.707037700707577,0.00227465552399335,0.250822441812994,0.00581197631269764,0
595,482668663,0.00936875846217136,-0.00796553789685311,0.707072445625354,0.707034181074912,0.0122719550092505,0.222694135743061,-0.002772886436088,0
596,482685330,0.00935707419029213,-0.0079571163551706,0.707080404194755,0.707026471545224,0.0302619010706411,0.237031923938853,0.00223801635589974,0
597,482701997,0.00934808977886072,-0.0079364834254082,0.707078454208807,0.707028772428682,-0.00117395202661416,0.227643056013507,0.0151159329485572,0
598,482718664,0.00933882352978808,-0.00792440556953139,0.707082204795923,0.707025279486091,-0.00277608041293741,0.23290164572406,-0.00404232719656806,0
599,482735331,0.00939917773974488,-0.0080235893866507,0.707070445659394,0.707035121013233,0.00466754943576442,0.228636006115269,0.00172999684420905,0
600,482751998,0.0093882796200883,-0.00799788857440241,0.70706819636006,0.707037806400943,0.00981436632886257,0.226122775527484,0.0199841135364741,0
601,482768665,0.00937300709275958,-0.0079826784861593,0.707072620129941,0.707033756934423,0.0126134915840711,0.248333463712949,0.00493227157135365,0
602,482785332,0.00936480979851668,-0.00797046693570178,0.70706788387527,0.707038739805969,-0.000394915218400835,0.250549210675796,-0.00721325808616245,0
603,482801999,0.00934176601473662,-0.00794875806353797,0.707064444811419,0.707042728225454,0.00257767882868118,0.229968273405807,-0.00569947070334735,0
604,482818666,0.00933623414337869,-0.00793673074180694,0.707060011846591,0.707047369477217,0.000788983690085445,0.241724438134927,0.0109009609656844,0
605,482835333,0.00931272919568081,-0.00791870601718885,0.707058880576969,0.707049012846482,0.0200188036246499,0.23893958258196,-0.00262974384930946,0
606,482852000,0.00930577075520256,-0.00790404423319219,0.707062211076361,0.70704593795822,0.00546301672087873,0.237514177062554,0.000526501065140159,0
607,482868667,0.00930008660295429,-0.00789050401585865,0.707063365649661,0.707045009381813,0.0065883542350677,0.218730904028501,0.0168594493624173,0
608,482885334,0.00928279744647043,-0.00785670212166776,0.707058705542892,0.707050273190916,0.00287738273501554,0.23312813752564,0.0133440019196155,0
609,482902001,0.00927577025482154,-0.00785022788762619,0.70706203375581,0.707047109059495,0.0102178891429709,0.25110845706696,-0.0017446826805914,0
610,482918668,0.00925824391036958,-0.00783476630791677,0.707063048283751,0.707046495718836,0.00486411403124614,0.24265877241436,-0.00533835139508033,0
611,482935335,0.00923856987139952,-0.00782391822660554,0.707064360973373,0.707045560463843,0.0143190649083148,0.225935038765005,0.00693430392651065,0
612,482952002,0.0092357908710248,-0.0078134100380614,0.707062621786643,0.707047452200177,0.0124157924164842,0.209055457838117,-0.0159706014712778,0
613,482968669,0.00922610993171788,-0.0078027321519382,0.707066584365822,0.707043733823971,0.00741873258952966,0.247692839743021,-0.00785444618770127,0
614,482985336,0.0092163499364602,-0.00778771740348015,0.707062142589659,0.707048468542301,-0.000419711615663389,0.241465445633406,0.00885024971274878,0
615,483002003,0.00920315898419621,-0.00777119923918218,0.707055360164619,0.707055604595266,0.00565608893015561,0.243869038904439,0.00902951690115419,0
616,483018670,0.00919355353463858,-0.00776072183877615,0.707062367456371,0.707048837278543,0.00274557836842098,0.249287943583039,0.00939325522064272,0
617,483035337,0.00918060615732702,-0.00774911873505374,0.707062163148344,0.70704933708575,0.0143156668108354,0.244222003319216,-0.0116498344847088,0
618,483052004,0.00918313355986775,-0.00776195367635934,0.707067869511106,0.707043456965817,0.0128578000575336,0.226340132304711,-0.0103989457987687,0
619,483068671,0.00915334905662617,-0.00773330222462895,0.707066805709075,0.70704522097396,0.0176965358668732,0.260230415456794,0.0113499173862929,0
620,483085338,0.0091411532938519,-0.00771921936525422,0.707072216124128,0.707040122025734,0.00614130408388237,0.223831315976494,0.010148864668506,0
621,483102005,0.00914076639505406,-0.00770433805064912,0.707068511193227,0.707043994418952,0.0088942964038722,0.234969479340856,-0.00173452794205513,0
622,483118672,0.00912161391046089,-0.00768841748336704,0.707061344503057,0.70705158192723,0.0132884139056221,0.211665485524873,0.00175133590442667,0
623,483135339,0.00910361942931233,-0.00767374529567829,0.7070604344631,0.707052883286162,0.0111193113151072,0.252638620172993,-0.0190116603595956,0
624,483152006,0.00909653371219666,-0.00766846782047919,0.707058059415241,0.707055406804631,0.0108983985484256,0.240795736681547,-0.0166277162901139,0
625,483168673,0.00909449558765014,-0.00766321862425995,0.707064925980968,0.707048623276965,0.0146327626388633,0.230882430707756,-0.00400469386040625,0
626,483185340,0.00908165277798744,-0.00764693273386406,0.70706148771239,0.707052403005976,0.0252696477075792,0.229068471407206,0.0125604860095144,0
627,483202007,0.00907966210518543,-0.00762569277148346,0.707062662218741,0.707051483445129,0.0164951417321278,0.229278762085764,-0.00685182472310585,0
628,483218674,0.00906929208004249,-0.00760981206121856,0.707062062517584,0.70705238734477,0.0259510748135722,0.24262761698278,-0.0085021232004608,0
629,483235341,0.00906119426626233,-0.0075828292931593,0.707069883026205,0.707044960363688,-0.00465073942502647,0.219560519807049,0.00452933426426374,0
630,483252008,0.00904217510680704,-0.00756675771782546,0.707068341654812,0.707046917450668,0.00263617657874148,0.23996654370063,0.00520296739959775,0
631,483268675,0.00902441058886798,-0.00755506194478127,0.707066645795983,0.707048965387371,0.00592438106952291,0.220394328574461,0.00523109354008936,0
632,483285342,0.00902149885396014,-0.00753756668592801,0.707067022671197,0.707048812386933,0.00581572753677621,0.230703502235094,-0.00036488419421897,0
633,483302009,0.00901358401876351,-0.00752505662744873,0.707066320330755,0.707049748942616,0.0202182484213258,0.20761338890372,0.00651298196789162,0
634,483318676,0.00899506188847272,-0.00751685379360934,0.707060736440763,0.707055656051569,0.0239105590583923,0.249449458101377,-0.0139733029730763,0
635,483335343,0.00899670750480012,-0.00750632486701729,0.707056273777063,0.707060209638159,0.00720680435389189,0.220652154007932,-0.00517868590779447,0
636,483352010,0.00898736739678957,-0.00749578065606457,0.707054210352869,0.707062503688261,0.0111011650325274,0.262716237021177,-0.00757672920855948,0
637,483368677,0.00897672619288852,-0.00747611514170145,0.707048646738739,0.707068410575783,0.0383177712573445,0.22878146811669,0.00102341816649847,0
638,483385344,0.00896965339224491,-0.00745664263958528,0.707051539923174,0.70706581284265,0.0235251360110372,0.222321085573095,0.005683076496557,0
639,483402011,0.00896292206790605,-0.00744018034417673,0.707055464034756,0.707062147567698,0.0216152335770413,0.218060063352024,-0.00887398575290676,0
640,483418678,0.00894864182402691,-0.00744233226696752,0.707054933837468,0.707062835988448,0.0144796554544859,0.227365505616438,0.0126899253458432,0
641,483435345,0.00893313607121978,-0.00743698357589514,0.70705905149042,0.70705897070944,0.00364719159172528,0.212536900412184,0.000129526073583876,0
642,483452012,0.00892800711902272,-0.00742188265693689,0.70705775153088,0.707060494121123,0.00815336217780272,0.226382704007555,0.0100793752480112,0
643,483468679,0.0088901744075133,-0.00738895752145481,0.70706326094665,0.707055806231191,0.0216726421193469,0.251399250843771,0.00585284960495161,0
644,483485346,0.00888538342663385,-0.00736803009734865,0.707069406951671,0.707049938722052,0.022837053061309,0.230214078703839,-0.00256276206297128,0
645,483502013,0.00888002201083683,-0.00735274849874743,0.707065310827588,0.707054261370998,0.0148708176526922,0.22820675961515,0.00204648562645183,0
646,483518680,0.008857464014465,-0.00733633846942594,0.707061779907816,0.707058245735587,0.008594494174552,0.221259398291127,0.00320970562160746,0
647,483535347,0.00885616353899482,-0.00732216529697498,0.707065914497888,0.707054274308556,0.0115972826781264,0.227519051851647,-0.0147694196025066,0
648,483552014,0.00884274285625085,-0.00730329750427741,0.707071142410627,0.707049409386977,0.0077330376287942,0.244944817030759,0.00121549764137657,0
649,483568681,0.0088284552602652,-0.0072938685852319,0.707068396622205,0.707052431122957,0.0220834848745637,0.238303220409122,-0.00179141177175308,0
650,483585348,0.0088130526356918,-0.00726599335548415,0.707067799130815,0.707053507788557,0.0324584342276679,0.238874605868934,-0.0110332347378884,0
651,483602015,0.00879112526796406,-0.00725598914358724,0.707063187746363,0.70705849494368,0.0240649232569086,0.207639209733626,-0.00935641991124438,0
652,483618682,0.00877709280564926,-0.00724507190377756,0.707067002507503,0.707054966420606,-0.00250044206372986,0.231868350598271,0.0113303402748567,0
653,483635349,0.00877563110403118,-0.00724298189378513,0.707070906502263,0.707051101894396,0.0187697350717701,0.219274093459558,0.000520127455611617,0
654,483652016,0.00876828968731874,-0.00721714034023683,0.707067091867054,0.707055271941265,0.0203188381092604,0.236171632171994,-0.00962485651023306,0
655,483668683,0.00875768015880989,-0.00721022312583188,0.707072101855894,0.707050463897592,0.0185165363055275,0.233801567763655,-0.0143076897082087,0
656,483685350,0.00874302023492161,-0.00720093991796317,0.707075550949419,0.707047290717562,0.016208928005773,0.195387978525281,-0.00143841475818466,0
657,483702017,0.00873148954229338,-0.00719683521098648,0.707076563099679,0.707046462807406,0.0155273716333304,0.235166370198096,-0.0115258736671319,0
658,483718684,0.00871239855270423,-0.00718858315891337,0.707078237546148,0.707045107735185,0.00399510570637684,0.227789621368403,0.000792222469459104,0
659,483735351,0.00869003675107989,-0.00717628612500245,0.707076196377816,0.707047549104441,0.0110461489029474,0.24265647172152,-0.00281502906969199,0
660,483752018,0.0086812739717822,-0.00716668487348141,0.707077662311822,0.707046288138054,0.00536027504221344,0.215393075057235,-0.00641456305530874,0
661,483768685,0.00866735960653265,-0.00716479161577033,0.707080196537786,0.707043943685708,0.00366537109139048,0.220554018378683,-0.0106728461531364,0
662,483785352,0.0086537971130362,-0.0071561274288358,0.707079605742666,0.707044788382281,0.0154157437160419,0.223027047105344,-0.00639888356698268,0
663,483802019,0.00864079114823401,-0.00714840988216171,0.70707550584965,0.707049125586017,0.00673147976633306,0.243448132716443,0.00510465270029119,0
664,483818686,0.00863846881771857,-0.00713399728619939,0.707076779273795,0.707048026056931,0.0161404353797384,0.234313250296301,-0.0033191240879818,0
665,483835353,0.0086414074310337,-0.00712080821476538,0.707078858753425,0.707046043530359,0.000887733817639919,0.229872181971892,0.00519702513164927,0
666,483852020,0.00862906771747229,-0.00709897922520591,0.707079211529095,0.707046060951959,0.0223182052734556,0.223685374131684,-0.0116761810567487,0
667,483868687,0.00860581930210965,-0.00709011555766606,0.707077988816671,0.707047656008059,0.00834884735106776,0.247902799521189,-0.00933819066406625,0
668,483885354,0.00860015783803635,-0.00708277906877488,0.707072174226219,0.707053613215314,0.00933872775422487,0.247502425339196,-0.00349776757146367,0
669,483902021,0.0086020433446126,-0.00706730898033245,0.707068118109372,0.70705780127748,0.00768798896883028,0.23764960569811,0.0134104636269632,0
670,483918688,0.00858275433628475,-0.00705063657059506,0.707068842017837,0.707057478214825,0.0158777382155222,0.235515249292032,0.000892226469085723,0
671,483935355,0.00857236286212107,-0.00703897993958895,0.707071986981405,0.707054575391842,0.019708097852469,0.247751180521558,0.00500812678155714,0
672,483952022,0.00855392585258949,-0.00702367942761424,0.707077187078982,0.707049750577907,0.0249851785734395,0.232028838027748,-0.00189758848062662,0
673,483968689,0.00855527627659591,-0.00701003676129472,0.707074414274333,0.70705264253169,0.0132219149295343,0.212192116170801,-0.00456647521929032,0
674,483985356,0.00855693433619749,-0.00699928762278051,0.707070580607958,0.707056562720597,0.0179570149202111,0.231100641969628,0.00658600551205174,0
675,484002023,0.00854357091119786,-0.00697751894160942,0.707073639882863,0.707053880131001,0.0130903596915285,0.210070997796858,0.00265387647841097,0
676,484018690,0.0085318280894358,-0.00697167214437277,0.707075454821649,0.707052264606883,0.0263991183712414,0.215607303996896,0.00590976151406973,0
677,484035357,0.00852255625901896,-0.00696091329453136,0.7070783163682,0.707049620778365,0.00835593005821849,0.231608198090393,-0.00865713733275032,0
678,484052024,0.00851065735328502,-0.00694937617273113,0.70707446040037,0.707053733694796,-0.00820089275014148,0.242805411008335,-0.0122378641442309,0
679,484068691,0.00849318169952352,-0.00693640336827271,0.707074628160768,0.707053903450255,0.000887735920168574,0.247465180593683,-0.0144857663904124,0
680,484085358,0.00849370025099734,-0.00692364744008733,0.707071453211196,0.707057197273303,0.0171615155585952,0.222925673345718,-0.000323107786310336,0
681,484102025,0.0084844931129942,-0.00691031958419339,0.707073704366645,0.707055186992564,0.0328087081545671,0.223055676505466,0.00490292995488524,0
682,484118692,0.00847625220928464,-0.00689056477808844,0.707078313013517,0.707050869832916,0.0237523304005401,0.226031486177177,-0.0059166183504899,0
683,484135359,0.00847577020736765,-0.00687598765534465,0.707077658228645,0.707051672331699,0.00252319988802893,0.221645032519678,-0.00385566901347279,0
684,484152026,0.00846389698740274,-0.00687430592271366,0.707078430590616,0.707051058523625,0.00696469560632465,0.219976484456548,-0.000746373238821338,0
685,484168693,0.00843625850837277,-0.00686392312961748,0.707079963521326,0.707049956713336,0.00979511341348463,0.232997393873043,-0.0047882404491958,0
686,484185360,0.00841766962252211,-0.00684796818954228,0.707085425857416,0.707044870365267,0.0152733588627107,0.221582299430666,0.00264829357243127,0
687,484202027,0.0084076396514399,-0.00684088711492771,0.707079537363481,0.707050947033393,0.00298085724381973,0.221939131174436,-0.00130400890798232,0
688,484218694,0.0083999706760875,-0.00683768311851175,0.707081394812224,0.707049211648391,0.00506260969854868,0.234958168735821,-0.0132115232501712,0
689,484235361,0.00839384659172272,-0.00683295686566327,0.707079997870811,0.70705072707047,0.0140755229463627,0.238999240245873,-0.000766744345999023,0
690,484252028,0.00838832860671382,-0.00682343932446338,0.707080272062527,0.707050610267012,0.0166037159804273,0.263886439953257,-0.0206530034604791,0
691,484268695,0.00838530658747676,-0.00681792621110237,0.70708206613852,0.707048905140864,0.0218283657129314,0.233203351571243,0.0013491372383576,0
692,484285362,0.00837551820085091,-0.00680489717411625,0.707081754645572,0.707049458182845,0.0234442665087369,0.23654275278802,0.00999744901856014,0
693,484302029,0.00836350123245751,-0.0067890030461091,0.707082674199631,0.707048833625707,0.00336423631623239,0.247678397244933,-0.0113975678100794,0
694,484318696,0.00835019858890811,-0.00677106979568404,0.707081747239937,0.707050089822118,0.0055043840030805,0.22902680919781,-0.0168351656471928,0
695,484335363,0.00833219631573225,-0.00674809206698215,0.707087671165915,0.707044597633823,0.0061409045692144,0.238733323575919,-0.0140242659073008,0
696,484352030,0.00831516569689525,-0.00671662096973613,0.707090197516243,0.707042571277446,0.015577230435026,0.23553627458817,0.00152649851166468,0
697,484368697,0.00830657140610906,-0.00669042294148212,0.707089737829113,0.707043380401157,0.0102042285737714,0.219448726378196,-0.00295793938074775,0
698,484385364,0.00829450903209647,-0.0066730233350386,0.707086411894318,0.70704701257689,0.0260532244509218,0.235235065747236,-0.00191364101473758,0
699,484402031,0.00828139110649508,-0.00665979081816619,0.707090914985113,0.707042787738561,0.0119164102745331,0.24330292354821,0.0005091411173674,0
700,484418698,0.0082756681377933,-0.00664412866046945,0.707095678341812,0.707038238387111,0.0109486855098841,0.227500620000286,0.00143894288269111,0
701,484435365,0.00826480404790582,-0.00663326300641894,0.707087562415382,0.707046583976905,0.019917736973964,0.238488164215277,-0.00511696557510165,0
702,484452032,0.00825995048472258,-0.00662719084131808,0.707089495096211,0.707044764837509,0.0249095739330019,0.241929688536909,0.0013697090219845,0
703,484468699,0.00825810182906026,-0.00660858796983549,0.707093625776284,0.70704082958891,0.0210599180109257,0.218359290916951,0.00037851163834251,0
704,484485366,0.00825191798891446,-0.0065889048748189,0.707094193276637,0.707040517945412,0.011655801814018,0.24020457533535,-0.00167294394960054,0
705,484502033,0.00823427223498138,-0.00658526724466853,0.707093825680032,0.707041125183856,0.0119969500447584,0.22973835274776,-0.0120472593003506,0
706,484518700,0.00822664160672002,-0.00657403158344199,0.707095400688066,0.707039743439079,0.0187729711515044,0.231526362815037,-0.00480840379540483,0
707,484535367,0.00822041709806289,-0.00657396282703404,0.707099356897147,0.707035859932948,0.0170627289401563,0.241283013320548,-0.0178702035513034,0
708,484552034,0.00820563851152303,-0.00657341577365622,0.707104263715036,0.707031129397923,0.0114698369347963,0.246669844289602,-0.00357349308352904,0
709,484568701,0.00819551010147621,-0.00656872695705159,0.707106712101792,0.707028841802748,0.00729661409573205,0.240370592960539,-0.0171259655414423,0
710,484585368,0.00818547942768976,-0.00655272318498706,0.707105535729421,0.707030283005055,0.0196539512843659,0.247949933500081,-0.0082605725277633,0
711,484602035,0.00817872303073826,-0.0065498705115474,0.707100292120222,0.707035631753708,0.00135042352042052,0.244517133680138,0.00363506275815351,0
712,484618702,0.0081673634764656,-0.00653801762262309,0.707100479531171,0.70703568534141,0.0104669218462538,0.264524889841146,-0.00573200241337198,0
713,484635369,0.00816834149107701,-0.00652944566981451,0.707104470035455,0.707031762364612,0.0109051069090698,0.245047511237317,-0.00928251523924665,0
714,484652036,0.00816473820128958,-0.00650785901438224,0.707108617065219,0.707027855528526,0.0230789589141966,0.238838238070772,-0.00809040052521186,0
715,484668703,0.00814341766233843,-0.00649074819301484,0.707108563043372,0.707028312733945,0.0092920147338595,0.214918697534653,-0.0100667789168175,0
716,484685370,0.00814538895179695,-0.00648311593255045,0.707109767950447,0.707027155005869,0.0026601215139019,0.219887781146972,-0.00418858831323073,0
717,484702037,0.00814107327854307,-0.00648226885020676,0.707106121010904,0.707030859825326,-0.00201765341383848,0.260176334084764,0.00951958076819472,0
718,484718704,0.00813431757976632,-0.00647300597157679,0.707105344662689,0.707031798875173,0.0148249130269763,0.232545273757139,-0.0204371500767496,0
719,484735371,0.007975946307193,-0.00680029299477148,0.707047056246143,0.707088820834663,0.0204027273183233,0.239955656607928,-0.0136487180104433,0
720,484752038,0.00796167616444069,-0.00679567845101259,0.707046645656577,0.707089436586933,0.011422044738279,0.234001983510635,0.0029119671986652,0
721,484768705,0.00795515382813785,-0.0067847970538914,0.707050178710795,0.70708608163472,-0.0107848011367104,0.239117949426419,-0.00545137165889446,0
722,484785372,0.00796165602539363,-0.00677963551962198,0.707045999378049,0.707090237055392,-0.000427671578036619,0.232766958932709,0.00567446167816645,0
723,484802039,0.00794969496376146,-0.00678703924137878,0.707042303326527,0.707093996407152,0.00561491604912798,0.219441421816944,0.00541662049594355,0
724,484818706,0.00795040469553521,-0.00678266736921741,0.707036420085912,0.707099913138613,-0.010986571695179,0.240651094131549,-0.0177993146877218,0
725,484835373,0.00795061536518368,-0.00676900606912211,0.70703666490583,0.707099796882302,0.0107235930287243,0.233620094984143,-0.0153356008337887,0
726,484852040,0.00794010941961543,-0.00676159495875159,0.707039744758216,0.707096906249953,0.00610389427242967,0.24797646336938,-0.00607811542502097,0
727,484868707,0.00794041939274934,-0.00675520492864397,0.707047379763896,0.707089329374478,-0.00419683948163116,0.245959739842607,0.0105158989275609,0
728,484885374,0.00792923720849379,-0.00673806939292592,0.707049218157718,0.707087780067445,0.0132704587642797,0.238450071843342,-0.011465848918307,0
729,484902041,0.00792872739039025,-0.00672377883175748,0.707049115822847,0.707088024148565,0.0146163242942514,0.225208105172617,-0.0169610016174263,0
730,484918708,0.00792360250705469,-0.00670255595212426,0.707053117206033,0.707084281904392,0.0124312102576808,0.252006154741802,-0.0152849965559115,0
731,484935375,0.00791909643916954,-0.00669410904122134,0.707059055890647,0.707078473932532,0.0116409300019217,0.226990563356577,-0.00715279336060088,0
732,484952042,0.00790950953880782,-0.00668492991047219,0.70705546810068,0.707082255752381,0.0177743917252029,0.23210247692485,-0.000444984504746635,0
733,484968709,0.00789162720830264,-0.00667968157837994,0.707058703536626,0.707079269832685,0.00526653541054472,0.238057463337348,0.0146160903959453,0
734,484985376,0.00789382588446896,-0.00667626570277339,0.707060499683896,0.707077481451595,0.00751370078425171,0.221846766885509,0.00644360241126047,0
735,485002043,0.0078802982968431,-0.0066656523623875,0.707059694938267,0.707078537201591,0.0187659791828952,0.223200405039407,0.00425566874572722,0
736,485018710,0.00786686269059028,-0.00666499608343645,0.707060551598459,0.707077836360254,0.00776793959519805,0.232536885849113,-0.0108965889982794,0
737,485035377,0.00786350326428626,-0.00665827376434749,0.707056958131338,0.707081530422731,0.00336862272669483,0.249634780048166,0.000967873130936001,0
738,485052044,0.00784447548577231,-0.00666387491912858,0.707052019723929,0.707086627210364,0.00412175574187887,0.245800631491663,0.0162153802716561,0
739,485068711,0.00782961194263321,-0.00664678861723675,0.707054919905696,0.707084052722911,0.0171671706672042,0.235512908440922,-0.00640567417551594,0
740,485085378,0.00781104065534707,-0.00662845343124056,0.707057379849912,0.707081970388701,0.0113997348324599,0.242850612704146,-0.0012291166086252,0
741,485102045,0.00780297166252291,-0.00661532653417873,0.707062164331224,0.707077398068503,0.0150739416833213,0.229698557581331,-0.0140351260912828,0
742,485118712,0.00779826952045144,-0.0066022114215626,0.707060299756916,0.707079437053923,0.00226230939208297,0.245647725537745,0.0149186424565665,0
743,485135379,0.00778800577499648,-0.00658585011064418,0.707057680331264,0.707082322101847,0.0122690736251911,0.235536937955692,0.00994793443769863,0
744,485152046,0.00777804335864439,-0.0065729194958142,0.707060896763726,0.707079335745635,0.00312187975112503,0.229812388601351,-0.00663739821264954,0
745,485168713,0.00774944055535588,-0.00656375594227939,0.707062902973586,0.707077728766487,0.0223457968320867,0.225426634209266,-0.00716229152195019,0
746,485185380,0.00775082938117019,-0.00655370185633257,0.707055146137418,0.707085563391359,0.00457410251122666,0.249193375508112,-0.00717062746554253,0
747,485202047,0.00773579549960781,-0.00653977078170084,0.707053554288802,0.707087448788113,0.0202998517444438,0.237116346933234,0.011228244934006,0
748,485218714,0.0077250251041938,-0.00652733913304263,0.707052224543679,0.707089011086169,0.0198071667471827,0.254376787961073,0.00751300037834742,0
749,485235381,0.00771704309041488,-0.00653222652782684,0.707051166262934,0.707090111335716,0.00918408615416156,0.241830780196069,0.00139075535134798,0
750,485252048,0.00770786501079773,-0.0065269444297916,0.707050505715552,0.707090920731392,0.0192246329737497,0.228419464464562,0.00442103888910877,0
751,485268715,0.00770395463473358,-0.00651832323462266,0.707052603551632,0.707088945151919,0.0272157731814378,0.241729166975246,0.012140934796434,0
752,485285382,0.00769856022625127,-0.00650439922060911,0.707046870321398,0.707094865014546,0.000820474005163433,0.242290555975757,0.0048481959200207,0
753,485302049,0.00766785916381399,-0.00649274953243594,0.707041656010687,0.707100519590403,0.00423346275790355,0.223994061531128,0.0065249138828982,0
754,485318716,0.00765827583636077,-0.00649827492212147,0.707043501896262,0.707098726954392,0.00896850255019411,0.229676121351267,-0.0183638809640848,0
755,485335383,0.00764573419201749,-0.00650516058358717,0.707041384495634,0.707100916591786,0.0194024013496648,0.242035846982176,-0.0105302531594818,0
756,485352050,0.00763148589900499,-0.00649982968208088,0.707039537013443,0.707102966856238,0.0070049823498919,0.252057912367487,0.0197184637658095,0
757,485368717,0.00763149437801878,-0.00648968160082248,0.707034404955424,0.707108191534795,-0.0206789777952278,0.262540098427155,0.0199262355022548,0
758,485385384,0.00762669599767101,-0.00646932691662872,0.707035567189143,0.707107267709031,-0.00690689454552187,0.250978109053092,-0.00614692778661221,0
759,485402051,0.00760832181890959,-0.00646714098023967,0.70703850248643,0.707104550634762,0.0214623828584268,0.227814627754216,0.00255565081155653,0
760,485418718,0.00760381441311229,-0.00645625848767286,0.707037533630904,0.707105667329741,0.0151398053196338,0.236770880502772,0.00923282712159144,0
761,485435385,0.00759565264366436,-0.00645187140447654,0.707033985032668,0.707109343330381,0.00425412944292618,0.240495083724724,0.00777968628230444,0
762,485452052,0.00758036522821028,-0.00643910393159096,0.707039551130558,0.707104058212555,-0.00646089045536326,0.220143000386923,-0.00715322759971369,0
763,485468719,0.00757414134766876,-0.00642697253104139,0.70703936981115,0.707104416577908,-0.0176418091365131,0.226889538561218,-0.00647857653337305,0
764,485485386,0.00755784370326422,-0.0064144579983617,0.707033839024401,0.707110234830159,0.00871826643799624,0.232371463412386,-0.00466463361383969,0
765,485502053,0.00755546019564003,-0.00640738701061268,0.707031826414798,0.707112336796272,0.0144238318545319,0.224025697856795,-0.00495438151216769,0
766,485518720,0.0075459685482435,-0.00640702430337499,0.707037585725785,0.707106682735567,0.0351595775640225,0.239212865715796,0.0109542904025184,0
767,485535387,0.00755150508230876,-0.0064044387943481,0.707044816727044,0.707099416683497,0.00331959761085608,0.241273416905802,0.0376870020009565,0
768,485552054,0.00755046615448755,-0.00640228897707196,0.70705232575248,0.707091938721348,0.00340514100088392,0.238127603259338,0.0175586811882901,0
769,485568721,0.00755809630948539,-0.00639203791082035,0.70705099259847,0.707093283023564,-0.00450884642028386,0.247374750685128,-0.000567452483963842,0
770,485585388,0.00755892792433427,-0.00638573561777063,0.707054819435279,0.707089504449472,0.012576239662952,0.236669550881497,-0.00521000536505352,0
771,485602055,0.00755705593288735,-0.00636972671478036,0.707050607286969,0.707093880769969,0.0164116164011898,0.235075865158816,-0.000234914677817228,0
772,485618722,0.00755283746775071,-0.00635068242197391,0.707049711297922,0.707094993075532,0.0175912709791545,0.223986261264193,0.0074049892711643,0
773,485635389,0.00754251784987626,-0.00634472353058509,0.707044833465531,0.707100034208388,0.0140102898967009,0.227308972981404,0.0157714058033957,0
774,485652056,0.00753148443681333,-0.00634207650199866,0.707047854844043,0.707097154405431,0.014367604100224,0.253356036124754,0.0132711739968494,0
775,485668723,0.00753404309834241,-0.00632955881235752,0.70704287089387,0.707102222877278,-0.0129604295372575,0.225659286058062,0.00734101392586644,0
776,485685390,0.00752345191204914,-0.00632141644399005,0.707045775888872,0.707099503721485,-0.0111792187920139,0.240457170807921,0.00437405119168824,0
777,485702057,0.00752599520513893,-0.00631200933300685,0.707048638719994,0.707096698067921,0.0116165186009438,0.234535548457832,-0.00992298814130606,0
778,485718724,0.00751392918890676,-0.00631472557377931,0.707051551296234,0.70709388974779,0.00432051887968293,0.245747699591888,0.00410047695252847,0
779,485735391,0.0075029410589708,-0.00629745776095008,0.707047883578284,0.707097827905505,0.0142237490849202,0.252810684425013,0.0124374980846697,0
780,485752058,0.00748956738218529,-0.00628867966655383,0.707046384303904,0.707099546974297,0.0116885644884382,0.234023397495324,0.0121469245779853,0
781,485768725,0.00747596951643165,-0.00628109847994539,0.707049285841084,0.707096856925053,-0.00659763577810476,0.251864983868108,0.0106583708505029,0
782,485785392,0.00746551630956072,-0.00628346742926167,0.707049171526908,0.70709706062634,0.00790277262869358,0.250788381963942,-0.00148761535096077,0
783,485802059,0.00745382197841361,-0.00627938958170191,0.707051632009898,0.707094759898937,0.00645099500048417,0.237783208738393,-0.0160091828751036,0
784,485818726,0.00745172177953366,-0.00627479700820975,0.707049049847198,0.707097404800217,0.00896760913509949,0.250966409889279,-0.0119935832556857,0
785,485835393,0.00743345763324941,-0.00628103018053111,0.707049141090808,0.707097450462266,0.00115637752238971,0.256487808364442,0.00775847540628537,0
786,485852060,0.00742270783385285,-0.00626898077776314,0.707048980747695,0.707097830651507,-0.00538438220787641,0.2338535820984,0.0189853246874504,0
787,485868727,0.00741662619200541,-0.00626649740663531,0.707051543157396,0.707095354237975,0.0207308271699309,0.212095099859057,-0.00334190085895536,0
788,485885394,0.00740907720014471,-0.00625796154609183,0.707054126769541,0.707092925512972,0.00652351922615643,0.22768241606705,-0.011741340281118,0
789,485902061,0.00741582170755718,-0.00625317192754583,0.707055849902317,0.707091174141043,0.00268916711342401,0.203823272466278,-0.00781439357126832,0
790,485918728,0.00739218641585502,-0.00625036096972046,0.70705145043241,0.707095845702099,0.00625427423318152,0.230250344086008,-0.0115023827223934,0
791,485935395,0.00738764497431787,-0.00623804125391344,0.707059246572745,0.707088206222555,0.0186230680857277,0.237029724339561,0.00560873552611831,0
792,485952062,0.00737203345411539,-0.00623283185181132,0.707057828380814,0.707089833228612,0.0155288682604328,0.21984007785445,0.00536172280362791,0
793,485968729,0.0073570063145503,-0.0062190866612708,0.707051493288794,0.707096445513109,0.00219670298311373,0.245903149242504,0.00672516178540426,0
794,485985396,0.00733877600117794,-0.00620694090224048,0.707047518961029,0.707100715727607,0.00511372575586511,0.227079037550833,-0.00465964752905265,0
795,486002063,0.00733093942971541,-0.0062022539825669,0.70704439399902,0.707103962856363,0.00443175632381072,0.214922578398419,0.000550992577709724,0
796,486018730,0.00730628602986943,-0.00618682279083249,0.707044758530578,0.707103988705086,0.00535952386274968,0.243606723182341,-0.00813760695342149,0
797,486035397,0.00729097599274686,-0.00617470295374424,0.70704126857764,0.707107742314159,0.00159140773533844,0.227150788100289,0.0055345483352268,0
798,486052064,0.0072842529519025,-0.00617054630797809,0.707045821331958,0.707103295533411,0.0109840769977405,0.234853449824592,0.000519281229501895,0
799,486068731,0.00728457673561996,-0.00617397684638951,0.707038728081251,0.707110354856249,0.0144447852935551,0.23209671473142,-0.00216375202539021,0
800,486085398,0.00727219558101699,-0.00616166358642439,0.707038449208945,0.707110868544311,-0.00596499830127013,0.220442848307037,-0.00374814041831159,0
801,486102065,0.00725079836919009,-0.00615490606290457,0.707037544464983,0.707112051779132,-0.00766563105051576,0.242607550830966,0.00874873705848771,0
802,486118732,0.0072393088187564,-0.00615530033488566,0.707040185501144,0.707109525301507,0.00741283326047311,0.236477414804644,0.00695901433866762,0
803,486135399,0.00723847103097338,-0.00615568744447027,0.707034295655912,0.707115419726913,-0.00674663657318946,0.217786052371046,0.0121196964853444,0
804,486152066,0.00723038451094648,-0.00615915172025912,0.707037674927427,0.707112093393352,0.00321466083824336,0.22333088679684,0.000377258394202547,0
