sep=,
DeviceTag:,Xsens_4,,,,,,,,,,,,,,,,,
FirmwareVersion:,2.2.1,,,,,,,,,,,,,,,,,
AppVersion:,2023.0.0,,,,,,,,,,,,,,,,,
SyncStatus:,Un-synced,,,,,,,,,,,,,,,,,
OutputRate:,60Hz,,,,,,,,,,,,,,,,,
FilterProfile:,General,,,,,,,,,,,,,,,,,
Measurement Mode:,Sensor fusion Mode - Extended (Quaternion),,,,,,,,,,,,,,,,,
StartTime:,2023-07-13 15:13:43.892 +0200,,,,,,,,,,,,,,,,,
© Movella Technologies B. V. 2005-2023,,,,,,,,,,,,,,,,,,,

PacketCounter,SampleTimeFine,Quat_W,Quat_X,Quat_Y,Quat_Z,FreeAcc_X,FreeAcc_Y,FreeAcc_Z,Status
1, 456491169, 0.6927167, 0.0043865787, 0.0012167365, -0.7211954, -0.0047231736, 0.0020671003, 0.44243717, 0
2, 456507836, 0.69281024, 0.004532881, 0.0012346023, -0.7211047, -0.010870707, 0.0035378854, 0.41275215, 0
3, 456524503, 0.6928767, 0.004652877, 0.0012887376, -0.72103995, 0.01992193, -0.005338696, 0.424407, 0
4, 456541170, 0.6928483, 0.0048546726, 0.0012046113, -0.721066, 0.038527444, -0.0117413, 0.39789963, 0
5, 456557837, 0.69313765, 0.0051127193, 0.0010460003, -0.72078645, -0.02024126, -0.025927799, 0.4388895, 0
6, 456574504, 0.69329596, 0.0052687177, 9.577614E-4, -0.7206332, -0.083809525, -0.012000088, 0.46555614, 0
7, 456591171, 0.6933896, 0.0053119757, 9.991718E-4, -0.72054267, -0.1034787, -0.0045981016, 0.4499588, 0
8, 456607838, 0.69362, 0.0052996455, 0.0011045072, -0.7203209, -0.017941333, -0.016056752, 0.47149658, 0
9, 456624505, 0.69367504, 0.0053320224, 0.0011703575, -0.72026753, 0.02828229, -0.0088266, 0.418787, 0
10, 456641172, 0.69368523, 0.005386984, 0.0011546592, -0.7202574, 0.004376118, 0.0011423677, 0.4547882, 0
11, 456657839, 0.69380736, 0.005516553, 0.0011610325, -0.72013867, -0.048059244, -0.01708983, 0.42940235, 0
12, 456674506, 0.69385284, 0.0056217085, 0.001162615, -0.720094, -0.08566787, 3.903933E-4, 0.4104147, 0
13, 456691173, 0.69387823, 0.005699625, 0.0011806192, -0.7200689, -0.048461854, -0.029656533, 0.46091938, 0
14, 456707840, 0.69380826, 0.0057820547, 0.0011953538, -0.7201356, -0.02253384, -0.030538134, 0.4298296, 0
15, 456724507, 0.69385356, 0.0058968873, 0.0012137145, -0.720091, -0.0013152986, -0.010117136, 0.45938396, 0
16, 456741174, 0.6938801, 0.0059992736, 0.0012123615, -0.7200647, -0.021683093, 0.01064543, 0.44804573, 0
17, 456757841, 0.6938882, 0.0061261505, 0.0012142531, -0.7200557, -0.07774546, 0.018563386, 0.47902775, 0
18, 456774508, 0.69458956, 0.0062396796, 0.0012329482, -0.7193782, -0.07675703, -0.035702918, 0.40706062, 0
19, 456791175, 0.6943531, 0.0063322685, 0.001216141, -0.7196056, -0.039046902, -0.07074159, 0.4266281, 0
20, 456807842, 0.6943649, 0.0064245122, 0.0012194889, -0.7195934, -0.00614557, -0.064312056, 0.46260262, 0
21, 456824509, 0.6943902, 0.0065566166, 0.001216592, -0.7195679, 5.608167E-5, -0.048773754, 0.40730667, 0
22, 456841176, 0.6943738, 0.006672164, 0.0011930523, -0.71958274, -0.05059086, -0.021186031, 0.44729805, 0
23, 456857843, 0.6945105, 0.0067908717, 0.001174525, -0.71944964, -0.09210553, -0.025628377, 0.42126465, 0
24, 456874510, 0.69446474, 0.006908249, 0.0011619267, -0.7194927, -0.08292664, -0.0649515, 0.4719324, 0
25, 456891177, 0.69460225, 0.007016168, 0.00114404, -0.7193589, -0.056920514, -0.04859472, 0.4352169, 0
26, 456907844, 0.694598, 0.0071321134, 0.0011301036, -0.7193619, -0.006994954, -0.052212104, 0.4375267, 0
27, 456924511, 0.6948088, 0.0072531076, 0.0011125461, -0.71915716, -0.039259024, -0.029289784, 0.42922306, 0
28, 456941178, 0.69492954, 0.0073686466, 0.0010930856, -0.7190394, -0.08627816, -0.03065939, 0.46302986, 0
29, 456957845, 0.6949734, 0.007472808, 0.0010697533, -0.71899587, -0.10274658, -0.06300372, 0.4325037, 0
30, 456974512, 0.69497234, 0.0075764414, 0.0010524185, -0.7189958, -0.062080808, -0.07643017, 0.44840622, 0
31, 456991179, 0.6950194, 0.0076936707, 0.0010396341, -0.71894914, -0.017744254, -0.04749799, 0.4426775, 0
32, 457007846, 0.69514763, 0.0078075663, 0.0010250002, -0.7188239, -0.017031254, -0.025075192, 0.43938732, 0
33, 457024513, 0.6953066, 0.007922526, 0.00100353, -0.7186688, -0.05597335, -0.03351923, 0.4376335, 0
34, 457041180, 0.6953256, 0.008042308, 9.820507E-4, -0.7186492, -0.09292376, -0.04389543, 0.44493008, 0
35, 457057847, 0.6954266, 0.008158794, 9.6769957E-4, -0.71855015, -0.098067716, -0.058912944, 0.44192982, 0
36, 457074514, 0.69549346, 0.008276801, 9.372366E-4, -0.7184841, -0.054028217, -0.05986356, 0.4240589, 0
37, 457091181, 0.6954891, 0.0083999345, 9.1634924E-4, -0.71848696, -0.04467759, -0.054488372, 0.45585918, 0
38, 457107848, 0.69560343, 0.008535223, 9.086449E-4, -0.7183747, -0.06365179, -0.04774639, 0.42774487, 0
39, 457124515, 0.6956843, 0.008664045, 8.93489E-4, -0.7182949, -0.10535354, -0.057053626, 0.44175816, 0
40, 457141182, 0.6956964, 0.008792583, 8.784703E-4, -0.7182816, -0.106634505, -0.06444366, 0.42213058, 0
41, 457157849, 0.69581294, 0.008917626, 8.710902E-4, -0.71816725, -0.07344011, -0.064977914, 0.42040157, 0
42, 457174516, 0.6958007, 0.009030252, 8.595111E-4, -0.7181776, -0.070130005, -0.05141926, 0.44319057, 0
43, 457191183, 0.69592553, 0.009159023, 8.502363E-4, -0.7180551, -0.06658904, -0.05026524, 0.449605, 0
44, 457207850, 0.6961211, 0.009289137, 8.415433E-4, -0.7178638, -0.09448801, -0.070946336, 0.42910767, 0
45, 457224517, 0.6961998, 0.009420176, 8.279417E-4, -0.7177858, -0.095417276, -0.08398873, 0.4553337, 0
46, 457241184, 0.6962332, 0.009546337, 8.080854E-4, -0.7177517, -0.11827996, -0.09156512, 0.43807983, 0
47, 457257851, 0.69622815, 0.009667435, 7.9503295E-4, -0.71775514, -0.106945194, -0.070278, 0.43235302, 0
48, 457274518, 0.69641227, 0.009795178, 7.9454656E-4, -0.7175748, -0.08460106, -0.063219845, 0.42094135, 0
49, 457291185, 0.696238, 0.00992769, 7.910519E-4, -0.71774197, -0.048612796, -0.12482872, 0.4331007, 0
50, 457307852, 0.6963635, 0.010045842, 7.8771054E-4, -0.7176185, -0.10657687, -0.11820808, 0.463686, 0
51, 457324519, 0.6963865, 0.0101810675, 8.024688E-4, -0.7175944, -0.18259504, -0.034551587, 0.4317894, 0
52, 457341186, 0.6963238, 0.010299545, 7.950734E-4, -0.71765345, -0.10733442, -0.07276227, 0.43672466, 0
53, 457357853, 0.69631517, 0.010431321, 8.008969E-4, -0.71765995, -0.05822458, -0.09820845, 0.4603157, 0
54, 457374520, 0.69642556, 0.010565928, 7.97449E-4, -0.7175508, -0.07442011, -0.09611451, 0.44947052, 0
55, 457391187, 0.69658226, 0.010687396, 7.896426E-4, -0.717397, -0.10647528, -0.0879518, 0.4303589, 0
56, 457407854, 0.6966993, 0.010811752, 7.9300825E-4, -0.71728146, -0.120305866, -0.08436088, 0.46105957, 0
57, 457424521, 0.6967698, 0.01092903, 7.9202425E-4, -0.7172112, -0.16083898, -0.07537053, 0.4572096, 0
58, 457441188, 0.6966871, 0.011059427, 8.006964E-4, -0.7172895, -0.15216906, -0.09805308, 0.43446255, 0
59, 457457855, 0.69689083, 0.01120351, 8.157696E-4, -0.71708935, -0.0830792, -0.11094375, 0.44638443, 0
60, 457474522, 0.6969772, 0.011335143, 8.1936305E-4, -0.7170032, -0.042752974, -0.11433836, 0.4516468, 0
61, 457491189, 0.69705755, 0.011457912, 8.245357E-4, -0.7169232, -0.14986017, -0.06658287, 0.4681759, 0
62, 457507856, 0.6970745, 0.011566793, 8.0092787E-4, -0.716905, -0.20695786, -0.0746266, 0.46814537, 0
63, 457524523, 0.6971358, 0.011659748, 7.8128756E-4, -0.7168439, -0.16511014, -0.10561284, 0.45702553, 0
64, 457541190, 0.6971843, 0.01175121, 7.451721E-4, -0.7167953, -0.090697534, -0.10955503, 0.46430302, 0
65, 457557857, 0.69721633, 0.011846557, 7.067207E-4, -0.7167627, -0.10863267, -0.08876451, 0.42106056, 0
66, 457574524, 0.69726586, 0.011959037, 6.8517827E-4, -0.7167126, -0.11017482, -0.08698528, 0.46203136, 0
67, 457591191, 0.6972486, 0.012071745, 6.741932E-4, -0.7167276, -0.14270438, -0.11923009, 0.40269566, 0
68, 457607858, 0.6974143, 0.0121685555, 6.657725E-4, -0.7165647, -0.18880619, -0.11207262, 0.443923, 0
69, 457624525, 0.69745046, 0.012271552, 6.4964197E-4, -0.7165278, -0.17396946, -0.09234537, 0.43784618, 0
70, 457641192, 0.69753027, 0.012320161, 5.712613E-4, -0.71644926, -0.11460566, -0.0829217, 0.28604507, 0
71, 457657859, 0.69761956, 0.012483793, 6.204276E-4, -0.71635944, -0.034147765, -0.21497747, 0.29685783, 0
72, 457674526, 0.6976892, 0.012672236, 6.933907E-4, -0.7162883, -0.16888507, -0.26013538, 0.47720337, 0
73, 457691193, 0.69780636, 0.012816248, 7.237315E-4, -0.7161715, -0.30159786, -0.056512494, 0.5095997, 0
74, 457707860, 0.69786274, 0.012910052, 7.1339327E-4, -0.71611494, -0.15396833, 0.038527858, 0.55644894, 0
75, 457724527, 0.6978633, 0.012987229, 6.933995E-4, -0.716113, -0.002270434, -0.05411616, 0.43279076, 0
76, 457741194, 0.6979338, 0.0130835185, 6.6158973E-4, -0.7160425, -0.12880766, -0.18295364, 0.529274, 0
77, 457757861, 0.6980132, 0.013164548, 6.2207365E-4, -0.7159637, -0.23778339, -0.22776401, 0.4923315, 0
78, 457774528, 0.698038, 0.013257816, 6.1129505E-4, -0.7159378, -0.15377475, -0.1314808, 0.44291115, 0
79, 457791195, 0.69813555, 0.013339208, 5.825827E-4, -0.7158412, -0.11110424, -0.04159516, 0.4683876, 0
80, 457807862, 0.69820946, 0.013441846, 5.754468E-4, -0.7157672, -0.2102092, -0.0037477117, 0.42514133, 0
81, 457824529, 0.69827706, 0.013532502, 5.553216E-4, -0.71569955, -0.16469999, -0.173865, 0.45380116, 0
82, 457841196, 0.6983568, 0.013637534, 5.541824E-4, -0.7156197, -0.064496025, -0.2688594, 0.44065857, 0
83, 457857863, 0.6983319, 0.013733039, 5.283061E-4, -0.7156422, -0.18255675, -0.1571982, 0.45755005, 0
84, 457874530, 0.69841015, 0.013819018, 5.2139914E-4, -0.71556413, -0.28442568, -0.001377217, 0.42417622, 0
85, 457891197, 0.6984703, 0.013904468, 5.0796353E-4, -0.7155039, -0.15805839, -0.035169665, 0.45495796, 0
86, 457907864, 0.6985811, 0.013993862, 4.8513E-4, -0.715394, -0.04395949, -0.18447532, 0.44630718, 0
87, 457924531, 0.69867384, 0.014083167, 4.7426383E-4, -0.7153015, -0.1613663, -0.19654341, 0.4435444, 0
88, 457941198, 0.6987255, 0.014166059, 4.636122E-4, -0.71524954, -0.26333946, -0.1379053, 0.41750145, 0
89, 457957865, 0.698758, 0.014250729, 4.4500682E-4, -0.71521616, -0.18385705, -0.08619058, 0.42862892, 0
90, 457974532, 0.6988053, 0.014335553, 4.262458E-4, -0.7151682, -0.12666059, -0.08765, 0.4314432, 0
91, 457991199, 0.6988749, 0.014414375, 4.0203298E-4, -0.71509856, -0.19426389, -0.11786615, 0.4668169, 0
92, 458007866, 0.6989294, 0.014501903, 3.8384105E-4, -0.71504354, -0.18625599, -0.19113258, 0.46077156, 0
93, 458024533, 0.6989912, 0.014588447, 3.7667798E-4, -0.7149815, -0.11078125, -0.18538715, 0.45387077, 0
94, 458041200, 0.6990907, 0.014669791, 3.689934E-4, -0.7148824, -0.17742531, -0.09693134, 0.43302536, 0
95, 458057867, 0.6991887, 0.014752332, 3.6277447E-4, -0.7147849, -0.27883437, -0.06363575, 0.4239607, 0
96, 458074534, 0.69923997, 0.014836576, 3.55206E-4, -0.71473306, -0.1929878, -0.15305543, 0.4325924, 0
97, 458091201, 0.6993981, 0.014913684, 3.5727568E-4, -0.71457666, -0.09807008, -0.2033078, 0.43559265, 0
98, 458107868, 0.6994912, 0.014995353, 3.4662787E-4, -0.7144838, -0.17604397, -0.15824874, 0.4267168, 0
99, 458124535, 0.69962734, 0.015064216, 3.4417835E-4, -0.7143492, -0.25914958, -0.09941024, 0.43185043, 0
100, 458141202, 0.6997009, 0.015144394, 3.5159255E-4, -0.7142753, -0.17900412, -0.10659055, 0.44766712, 0
101, 458157869, 0.69976646, 0.015217213, 3.4610424E-4, -0.7142096, -0.14501758, -0.16638473, 0.46755505, 0
102, 458174536, 0.69988525, 0.015283813, 3.2718485E-4, -0.7140917, -0.21656753, -0.17367804, 0.43822002, 0
103, 458191203, 0.69995046, 0.015350923, 3.1781953E-4, -0.71402633, -0.19284527, -0.16833341, 0.45911217, 0
104, 458207870, 0.70001173, 0.015411531, 3.0105433E-4, -0.713965, -0.14932144, -0.14933419, 0.43907833, 0
105, 458224537, 0.7000468, 0.015479164, 2.9589282E-4, -0.7139292, -0.20062353, -0.118694305, 0.42685795, 0
106, 458241204, 0.70010823, 0.015543827, 2.79513E-4, -0.7138676, -0.28212497, -0.13798994, 0.42110443, 0
107, 458257871, 0.70016617, 0.015611081, 2.8020728E-4, -0.7138092, -0.22370218, -0.18238242, 0.43550396, 0
108, 458274538, 0.70029527, 0.015680727, 2.8506666E-4, -0.7136811, -0.11153043, -0.2063323, 0.43592358, 0
109, 458291205, 0.7003651, 0.015754532, 2.8284083E-4, -0.7136109, -0.15909548, -0.14382133, 0.46030617, 0
110, 458307872, 0.7004129, 0.015825499, 2.7701273E-4, -0.7135625, -0.25321332, -0.108277455, 0.4331007, 0
111, 458324539, 0.7004547, 0.015895536, 2.7791233E-4, -0.7135198, -0.20089842, -0.15650983, 0.45062542, 0
112, 458341206, 0.7005211, 0.015957743, 2.8118872E-4, -0.71345323, -0.16601704, -0.19453906, 0.4289341, 0
113, 458357873, 0.700652, 0.01602738, 2.8036695E-4, -0.7133231, -0.22388016, -0.15530775, 0.42854118, 0
114, 458374540, 0.7007469, 0.016093027, 2.790369E-4, -0.7132284, -0.1971744, -0.1410759, 0.45420837, 0
115, 458391207, 0.70080656, 0.016143627, 2.712721E-4, -0.71316874, -0.13865629, -0.15364781, 0.43963432, 0
116, 458407874, 0.7008886, 0.01620114, 2.6817608E-4, -0.71308684, -0.17595643, -0.15238269, 0.44197083, 0
117, 458424541, 0.70098126, 0.016247919, 2.627964E-4, -0.71299464, -0.2697037, -0.16199234, 0.42853355, 0
118, 458441208, 0.7010482, 0.016293742, 2.639025E-4, -0.7129279, -0.22407214, -0.190945, 0.453537, 0
119, 458457875, 0.7011144, 0.016342308, 2.5409058E-4, -0.71286154, -0.16279413, -0.19335774, 0.43944263, 0
120, 458474542, 0.7012191, 0.016382499, 2.3972394E-4, -0.71275777, -0.19260404, -0.14938061, 0.4370308, 0
121, 458491209, 0.70125896, 0.01642964, 2.2848177E-4, -0.7127175, -0.24835421, -0.13207066, 0.44180298, 0
122, 458507876, 0.70131147, 0.016472049, 2.2110155E-4, -0.7126646, -0.20425102, -0.15425694, 0.4330845, 0
123, 458524543, 0.7013853, 0.016505616, 2.2060194E-4, -0.7125911, -0.18066044, -0.18198399, 0.4468546, 0
124, 458541210, 0.7014359, 0.016550645, 2.2478634E-4, -0.7125403, -0.24815747, -0.1568157, 0.44182777, 0
125, 458557877, 0.7015411, 0.016594635, 2.230672E-4, -0.7124358, -0.23027651, -0.1483761, 0.42299747, 0
126, 458574544, 0.7016123, 0.016630657, 2.2305654E-4, -0.71236485, -0.17500697, -0.1641409, 0.44217682, 0
127, 458591211, 0.70166093, 0.016676974, 2.0949851E-4, -0.71231586, -0.1719371, -0.16440432, 0.45467186, 0
128, 458607878, 0.70175487, 0.016715523, 2.0242922E-4, -0.7122224, -0.24276711, -0.18068637, 0.4459877, 0
129, 458624545, 0.701816, 0.016756067, 2.0800892E-4, -0.7121611, -0.23160857, -0.18845624, 0.47753716, 0
130, 458641212, 0.7019317, 0.016800262, 2.0737684E-4, -0.7120462, -0.15895282, -0.19444853, 0.45223618, 0
131, 458657879, 0.70201266, 0.016833115, 2.0480264E-4, -0.71196556, -0.21111096, -0.16044456, 0.43134594, 0
132, 458674546, 0.7020849, 0.016865522, 2.0448181E-4, -0.7118935, -0.24415067, -0.16054736, 0.45468807, 0
133, 458691213, 0.7021707, 0.016885575, 2.001495E-4, -0.7118084, -0.19115, -0.17586346, 0.43099785, 0
134, 458707880, 0.7022219, 0.016913038, 2.0249608E-4, -0.71175724, -0.17668298, -0.18620959, 0.43753052, 0
135, 458724547, 0.7022877, 0.016932549, 2.0399687E-4, -0.7116918, -0.2290165, -0.16563283, 0.44155407, 0
136, 458741214, 0.7023729, 0.016972374, 2.0630968E-4, -0.71160674, -0.2633028, -0.14869842, 0.41815853, 0
137, 458757881, 0.70243394, 0.016998317, 2.0654309E-4, -0.7115459, -0.19357379, -0.1570046, 0.44058037, 0
138, 458774548, 0.70254964, 0.01702272, 2.1113903E-4, -0.7114311, -0.18576503, -0.17916304, 0.42822266, 0
139, 458791215, 0.70264417, 0.017044937, 2.1560838E-4, -0.7113372, -0.23564859, -0.17387858, 0.4630642, 0
140, 458807882, 0.7026477, 0.017071994, 2.2521065E-4, -0.7113331, -0.2385035, -0.17306148, 0.4419155, 0
141, 458824549, 0.7027128, 0.017093014, 2.2658173E-4, -0.7112683, -0.19367386, -0.17095514, 0.4468174, 0
142, 458841216, 0.70279765, 0.017109908, 2.3259154E-4, -0.711184, -0.21323918, -0.16633363, 0.40547085, 0
143, 458857883, 0.70283693, 0.017123261, 2.3123478E-4, -0.7111449, -0.25141343, -0.17088129, 0.43352413, 0
144, 458874550, 0.70294255, 0.017145898, 2.3429347E-4, -0.71104, -0.20780574, -0.1835131, 0.44970036, 0
145, 458891217, 0.7029789, 0.017153, 2.4585266E-4, -0.71100384, -0.1820115, -0.19339056, 0.43579292, 0
146, 458907884, 0.7030863, 0.017160205, 2.4259197E-4, -0.71089745, -0.2375856, -0.16879006, 0.44741535, 0
147, 458924551, 0.70313364, 0.017181192, 2.5129234E-4, -0.7108501, -0.24984565, -0.16664532, 0.45412064, 0
148, 458941218, 0.7031657, 0.017187035, 2.5033878E-4, -0.7108182, -0.19181281, -0.18760057, 0.45406628, 0
149, 458957885, 0.7032141, 0.017190328, 2.4758826E-4, -0.71077025, -0.19620755, -0.17659888, 0.447155, 0
150, 458974552, 0.7033369, 0.017205248, 2.5088267E-4, -0.7106485, -0.24394019, -0.19023694, 0.42782116, 0
151, 458991219, 0.70339423, 0.017204762, 2.5952462E-4, -0.7105917, -0.23435353, -0.17621796, 0.43484116, 0
152, 459007886, 0.7034751, 0.017209185, 2.6084905E-4, -0.71051145, -0.1931746, -0.18660049, 0.4320116, 0
153, 459024553, 0.70356864, 0.017212031, 2.697335E-4, -0.7104188, -0.19613595, -0.18244582, 0.43399048, 0
154, 459041220, 0.7036472, 0.017210104, 2.6841462E-4, -0.71034116, -0.23062313, -0.16937186, 0.44655228, 0
155, 459057887, 0.703706, 0.017209435, 2.602093E-4, -0.7102828, -0.21196762, -0.18756875, 0.44403648, 0
156, 459074554, 0.70378584, 0.017211678, 2.602E-4, -0.71020365, -0.19358975, -0.19118915, 0.46705818, 0
157, 459091221, 0.70384526, 0.017213747, 2.6141384E-4, -0.71014476, -0.22291431, -0.16661078, 0.43323326, 0
158, 459107888, 0.7039208, 0.017207902, 2.6590232E-4, -0.71007013, -0.24061598, -0.16679145, 0.43506527, 0
159, 459124555, 0.7040001, 0.01721012, 2.7033052E-4, -0.70999134, -0.20262638, -0.19355835, 0.4362936, 0
160, 459141222, 0.70407873, 0.017203616, 2.6274024E-4, -0.7099135, -0.18809475, -0.19000328, 0.450737, 0
161, 459157889, 0.7041556, 0.01720287, 2.5659963E-4, -0.70983726, -0.23290148, -0.15977201, 0.44174576, 0
162, 459174556, 0.7041909, 0.01718429, 2.5484717E-4, -0.7098027, -0.23098513, -0.17480569, 0.43272114, 0
163, 459191223, 0.7042793, 0.017179042, 2.6020748E-4, -0.7097152, -0.1857526, -0.16662428, 0.4525299, 0
164, 459207890, 0.70432603, 0.017163236, 2.5920273E-4, -0.70966905, -0.21643542, -0.17604814, 0.45188904, 0
165, 459224557, 0.70439655, 0.017144633, 2.6962167E-4, -0.70959955, -0.2475468, -0.1837476, 0.45516205, 0
166, 459241224, 0.7044319, 0.01712988, 2.659621E-4, -0.7095648, -0.21586132, -0.17607552, 0.46831226, 0
167, 459257891, 0.70457834, 0.017121099, 2.8631903E-4, -0.70941967, -0.18218622, -0.18873158, 0.4482565, 0
168, 459274558, 0.7046513, 0.017112158, 2.9130705E-4, -0.7093475, -0.22206938, -0.16502674, 0.4440298, 0
169, 459291225, 0.7047091, 0.017107394, 2.916312E-4, -0.70929015, -0.24383627, -0.18554163, 0.43199825, 0
170, 459307892, 0.7047595, 0.01709133, 2.809793E-4, -0.7092404, -0.2135375, -0.17954928, 0.45697308, 0
171, 459324559, 0.70481306, 0.01707737, 2.8853005E-4, -0.70918745, -0.20746222, -0.1819859, 0.43455124, 0
172, 459341226, 0.70489335, 0.017057337, 3.0260638E-4, -0.7091081, -0.24206004, -0.16347106, 0.43732357, 0
173, 459357893, 0.70495677, 0.017029237, 3.0866524E-4, -0.7090458, -0.21920162, -0.16193496, 0.42681313, 0
174, 459374560, 0.70500016, 0.017013073, 3.1192257E-4, -0.70900303, -0.20064037, -0.18324101, 0.4482584, 0
175, 459391227, 0.70503575, 0.016990054, 3.1489535E-4, -0.7089681, -0.20227994, -0.19244155, 0.4474659, 0
176, 459407894, 0.70505184, 0.016959468, 3.1551498E-4, -0.7089529, -0.23154095, -0.17135395, 0.4471426, 0
177, 459424561, 0.70514536, 0.016932756, 3.1050923E-4, -0.7088606, -0.21399009, -0.17169775, 0.45681286, 0
178, 459441228, 0.7051969, 0.01690487, 3.1113406E-4, -0.7088099, -0.20604405, -0.16415948, 0.446949, 0
179, 459457895, 0.7052597, 0.016877176, 3.180181E-4, -0.7087481, -0.19950448, -0.1728539, 0.43294716, 0
180, 459474562, 0.7053409, 0.016856, 3.2468612E-4, -0.7086678, -0.24520975, -0.1737978, 0.42067528, 0
181, 459491229, 0.7053918, 0.01682462, 3.3048514E-4, -0.70861787, -0.19847147, -0.16931888, 0.42901325, 0
182, 459507896, 0.70544815, 0.016794773, 3.3517415E-4, -0.70856243, -0.19981572, -0.17420703, 0.44696522, 0
183, 459524563, 0.7055874, 0.01677185, 3.3731302E-4, -0.70842445, -0.22855748, -0.15228647, 0.4504919, 0
184, 459541230, 0.7056863, 0.016742101, 3.465055E-4, -0.7083266, -0.22667328, -0.15986991, 0.4196806, 0
185, 459557897, 0.7057351, 0.016718958, 3.5226648E-4, -0.7082784, -0.21066205, -0.17662618, 0.4443121, 0
186, 459574564, 0.7058212, 0.016684957, 3.6210852E-4, -0.7081935, -0.20202053, -0.17898262, 0.42538738, 0
187, 459591231, 0.70582664, 0.016655477, 3.602886E-4, -0.7081887, -0.21046486, -0.1798207, 0.44434547, 0
188, 459607898, 0.7058574, 0.016620615, 3.6798982E-4, -0.70815885, -0.18752076, -0.16142519, 0.44566345, 0
189, 459624565, 0.70591944, 0.016595747, 3.7512628E-4, -0.7080977, -0.18624902, -0.1739999, 0.4451933, 0
190, 459641232, 0.7059538, 0.016556904, 3.7813897E-4, -0.70806426, -0.20579341, -0.16957827, 0.43970394, 0
191, 459657899, 0.7060033, 0.016518507, 3.8476984E-4, -0.7080158, -0.22537659, -0.15977164, 0.43671227, 0
192, 459674566, 0.70605296, 0.016485965, 3.8660108E-4, -0.70796716, -0.20522276, -0.16861102, 0.45126724, 0
193, 459691233, 0.7060594, 0.01644894, 3.9911096E-4, -0.7079615, -0.19410998, -0.17348573, 0.42592525, 0
194, 459707900, 0.70613736, 0.016413447, 3.9509454E-4, -0.70788467, -0.2093472, -0.18022448, 0.4443159, 0
195, 459724567, 0.70614517, 0.016383134, 4.0079825E-4, -0.7078775, -0.20689104, -0.1811096, 0.4573393, 0
196, 459741234, 0.70623296, 0.016346304, 4.0624003E-4, -0.7077908, -0.18789685, -0.16673401, 0.4518366, 0
197, 459757901, 0.70627475, 0.016315214, 4.1869885E-4, -0.7077498, -0.17559887, -0.15362763, 0.42449284, 0
198, 459774568, 0.70628417, 0.01627416, 4.2159762E-4, -0.7077414, -0.21167995, -0.15505674, 0.44279766, 0
199, 459791235, 0.7063746, 0.016230162, 4.3330318E-4, -0.7076521, -0.22172485, -0.17185627, 0.42978382, 0
200, 459807902, 0.7064144, 0.01619583, 4.3559054E-4, -0.7076132, -0.200587, -0.17076115, 0.4308777, 0
201, 459824569, 0.7065056, 0.016154429, 4.3984028E-4, -0.70752305, -0.20710915, -0.16278203, 0.4190836, 0
202, 459841236, 0.7065173, 0.016111322, 4.424378E-4, -0.70751244, -0.19682382, -0.15570451, 0.4439478, 0
203, 459857903, 0.706518, 0.016061554, 4.477578E-4, -0.7075128, -0.16810416, -0.15810612, 0.46344852, 0
204, 459874570, 0.7065387, 0.01601453, 4.5026606E-4, -0.70749325, -0.190119, -0.15805656, 0.41687202, 0
205, 459891237, 0.7065877, 0.015961971, 4.5669297E-4, -0.7074453, -0.20767376, -0.17565356, 0.4442587, 0
206, 459907904, 0.7065991, 0.015924474, 4.5863815E-4, -0.7074348, -0.21466962, -0.15470298, 0.45288754, 0
207, 459924571, 0.7066821, 0.015877653, 4.6858288E-4, -0.707353, -0.18062447, -0.16699617, 0.4645815, 0
208, 459941238, 0.7067384, 0.015835335, 4.7973538E-4, -0.7072977, -0.17819533, -0.16409898, 0.42984104, 0
209, 459957905, 0.7067579, 0.015789157, 4.8265894E-4, -0.70727926, -0.18709913, -0.15879346, 0.4354782, 0
210, 459974572, 0.70679194, 0.015740762, 4.88562E-4, -0.70724636, -0.20491342, -0.16395117, 0.4542284, 0
211, 459991239, 0.70685244, 0.015697835, 4.984547E-4, -0.70718676, -0.18378443, -0.15864687, 0.45683956, 0
212, 460007906, 0.7068463, 0.015654054, 4.9955206E-4, -0.70719385, -0.19750445, -0.15221341, 0.42042255, 0
213, 460024573, 0.70692754, 0.015609861, 5.0585717E-4, -0.7071137, -0.17694137, -0.16489427, 0.40800667, 0
214, 460041240, 0.70699793, 0.015559042, 5.2453997E-4, -0.70704424, -0.17993101, -0.15381101, 0.45612907, 0
215, 460057907, 0.7070746, 0.0155122215, 5.2854774E-4, -0.7069687, -0.17777437, -0.16779858, 0.4387207, 0
216, 460074574, 0.70703626, 0.015459028, 5.281404E-4, -0.70700824, -0.19671005, -0.15143622, 0.43235302, 0
217, 460091241, 0.707067, 0.015415494, 5.277348E-4, -0.7069784, -0.18464711, -0.15133424, 0.454669, 0
218, 460107908, 0.70709914, 0.015373771, 5.319306E-4, -0.70694727, -0.18348603, -0.14361578, 0.45871353, 0
219, 460124575, 0.70712566, 0.015336855, 5.3985644E-4, -0.7069214, -0.17385134, -0.1717311, 0.44473934, 0
220, 460141242, 0.7071255, 0.0152808605, 5.486076E-4, -0.70692277, -0.20119569, -0.14171478, 0.44331646, 0
221, 460157909, 0.7071632, 0.015233067, 5.585317E-4, -0.7068862, -0.19726235, -0.15910889, 0.45018196, 0
222, 460174576, 0.70719063, 0.015181939, 5.570488E-4, -0.7068598, -0.18940994, -0.15934289, 0.4403801, 0
223, 460191243, 0.70718634, 0.015135064, 5.62932E-4, -0.70686513, -0.17295659, -0.13778597, 0.43779945, 0
224, 460207910, 0.7072841, 0.015080922, 5.670325E-4, -0.70676845, -0.18428923, -0.12888494, 0.44375038, 0
225, 460224577, 0.7073608, 0.01503025, 5.715717E-4, -0.7066927, -0.19312403, -0.13007185, 0.43283367, 0
226, 460241244, 0.7073875, 0.01498841, 5.684671E-4, -0.7066668, -0.16824712, -0.13862234, 0.43903828, 0
227, 460257911, 0.70743024, 0.014934358, 5.704072E-4, -0.7066253, -0.17971212, -0.15022579, 0.42731667, 0
228, 460274578, 0.7074484, 0.014888132, 5.7378603E-4, -0.7066081, -0.18306178, -0.15250795, 0.4369793, 0
229, 460291245, 0.7074451, 0.014844066, 5.768778E-4, -0.70661235, -0.1693235, -0.14664498, 0.45823574, 0
230, 460307912, 0.70743644, 0.014789128, 5.7563774E-4, -0.7066221, -0.1656539, -0.13509235, 0.4590683, 0
231, 460324579, 0.70747596, 0.014745585, 5.793565E-4, -0.70658344, -0.17612065, -0.1382929, 0.45610332, 0
232, 460341246, 0.70755035, 0.01470151, 5.9414713E-4, -0.70650977, -0.17411612, -0.1512378, 0.42948627, 0
233, 460357913, 0.70749485, 0.0146553125, 5.9500866E-4, -0.7065664, -0.16850615, -0.1744531, 0.43276405, 0
234, 460374580, 0.7075442, 0.014605349, 6.013215E-4, -0.706518, -0.16114697, -0.13333091, 0.44064236, 0
235, 460391247, 0.7075673, 0.014558622, 5.989412E-4, -0.70649594, -0.15859732, -0.12771992, 0.45366096, 0
236, 460407914, 0.70756507, 0.01449708, 6.0232886E-4, -0.70649934, -0.1779625, -0.12271607, 0.45594501, 0
237, 460424581, 0.70759463, 0.014458191, 5.918806E-4, -0.70647055, -0.19855435, -0.1475652, 0.44024563, 0
238, 460441248, 0.70762163, 0.0144073535, 6.0188456E-4, -0.7064445, -0.20756513, -0.16150866, 0.45279026, 0
239, 460457915, 0.7076287, 0.003209319, 0.001996725, -0.7065744, 0.006220431, -0.012362982, 0.45161533, 0
240, 460474582, 0.7076442, 0.003216747, 0.0019935966, -0.7065588, 0.034258585, 0.025338404, 0.44733238, 0
241, 460491249, 0.7076517, 0.0032163225, 0.0019873402, -0.70655143, 0.013097744, 0.008275255, 0.411767, 0
242, 460507916, 0.7076582, 0.0032157667, 0.0019804793, -0.706545, -0.01751465, -0.014433509, 0.43664455, 0
243, 460524583, 0.7076695, 0.0032202962, 0.0019810775, -0.7065336, -0.007392147, -0.02497941, 0.43588257, 0
244, 460541250, 0.7076812, 0.003227368, 0.0019930091, -0.70652175, 0.019308578, -0.009984433, 0.43575382, 0
245, 460557917, 0.70769656, 0.0032270735, 0.0019971314, -0.7065064, 0.013904799, 0.03432948, 0.41673183, 0
246, 460574584, 0.7077053, 0.0032296297, 0.001998268, -0.70649755, 0.0068020136, 0.020865727, 0.4607134, 0
247, 460591251, 0.7077173, 0.003224151, 0.0019960385, -0.7064855, -0.0033142073, 0.0030379689, 0.43845272, 0
248, 460607918, 0.7077245, 0.003221156, 0.0019964748, -0.7064784, -0.020922806, -0.02370085, 0.43998718, 0
249, 460624585, 0.7077264, 0.0032227333, 0.001994549, -0.70647645, 0.018277308, -0.01600963, 0.44161892, 0
250, 460641252, 0.70773745, 0.00322351, 0.0020112125, -0.7064654, 0.00663891, 0.0084650135, 0.45573902, 0
251, 460657919, 0.7077387, 0.0032289915, 0.0020169632, -0.7064642, 0.027128099, 0.015172875, 0.4397688, 0
252, 460674586, 0.7077421, 0.0032307527, 0.0020252133, -0.70646065, 0.028898207, -0.0095214145, 0.4446993, 0
253, 460691253, 0.70775026, 0.0032406093, 0.002033041, -0.7064524, 0.0029275203, -0.0045298813, 0.43962193, 0
254, 460707920, 0.7077585, 0.0032368489, 0.0020276057, -0.7064442, -0.015273144, 0.0052620415, 0.4559164, 0
255, 460724587, 0.70776236, 0.0032447674, 0.002020163, -0.70644027, -0.0073521426, 0.01617612, 0.44227695, 0
256, 460741254, 0.7077572, 0.0032354067, 0.0020207812, -0.70644546, 0.025836922, 0.007835638, 0.43489075, 0
257, 460757921, 0.7077633, 0.003230911, 0.002017486, -0.70643944, 0.030606236, -1.6946997E-4, 0.4392233, 0
258, 460774588, 0.7077721, 0.0032392503, 0.0020143613, -0.7064307, 0.014050394, -0.005265539, 0.4488516, 0
259, 460791255, 0.70777, 0.0032458347, 0.0020142833, -0.70643276, -0.0061009293, -0.0049529667, 0.4463911, 0
260, 460807922, 0.70777667, 0.0032479085, 0.0020194612, -0.70642596, -0.0011036607, 0.0026590552, 0.43138885, 0
261, 460824589, 0.70777833, 0.003245861, 0.0020280776, -0.7064243, 0.018470252, 0.013672071, 0.42547417, 0
262, 460841256, 0.7077883, 0.0032316118, 0.0020211402, -0.7064144, 0.031188292, 8.1844155E-5, 0.45435238, 0
263, 460857923, 0.70779276, 0.0032218327, 0.0020159483, -0.70641, 0.013007809, 0.001450833, 0.42378998, 0
264, 460874590, 0.70779216, 0.0032290062, 0.0020136314, -0.7064106, 0.016065106, -0.008048132, 0.42735386, 0
265, 460891257, 0.7077915, 0.003217863, 0.002014075, -0.70641124, -0.0047072144, -0.003475129, 0.4448595, 0
266, 460907924, 0.7077906, 0.003213895, 0.0020109115, -0.70641214, 0.014897648, 0.005147444, 0.4289255, 0
267, 460924591, 0.70779175, 0.0032110428, 0.0020108472, -0.706411, 0.02102285, 0.009793945, 0.42888546, 0
268, 460941258, 0.70779085, 0.003213622, 0.002015691, -0.7064119, 0.01703029, 0.018495154, 0.46209145, 0
269, 460957925, 0.70779145, 0.0032120608, 0.0020118463, -0.7064113, 0.01187198, -0.0011029666, 0.44364357, 0
270, 460974592, 0.7077942, 0.0032026742, 0.0020046562, -0.70640856, 0.00835159, 0.0025745514, 0.4207325, 0
271, 460991259, 0.70779413, 0.0031933833, 0.002002582, -0.70640874, 0.016392734, -0.001756756, 0.43899155, 0
272, 461007926, 0.707798, 0.0031902397, 0.0020001095, -0.70640486, 0.014689882, 2.3076315E-4, 0.43331528, 0
273, 461024593, 0.70779157, 0.0031759585, 0.0019966203, -0.7064114, 0.0068644336, 0.005523885, 0.45837688, 0
274, 461041260, 0.70779276, 0.0031774512, 0.0020050623, -0.7064102, 0.012583976, 2.898544E-4, 0.45967388, 0
275, 461057927, 0.70779365, 0.003167801, 0.0020058858, -0.70640934, 0.0036625322, -0.0031137015, 0.415946, 0
276, 461074594, 0.70779574, 0.0031564543, 0.001998661, -0.7064073, 0.0079070525, -0.0048829233, 0.4451294, 0
277, 461091261, 0.70780194, 0.0031581358, 0.0019954243, -0.70640105, 0.008038929, 0.0013970362, 0.45466137, 0
278, 461107928, 0.70780087, 0.003131123, 0.0019878796, -0.7064023, 0.019194776, 0.006513077, 0.44290257, 0
279, 461124595, 0.7078047, 0.00312395, 0.0019777871, -0.70639855, 0.007895788, -0.009083301, 0.43437672, 0
280, 461141262, 0.70780724, 0.0031263921, 0.0019808395, -0.706396, 0.0037184437, -0.0049609207, 0.44082928, 0
281, 461157929, 0.7078076, 0.0031148794, 0.0019571132, -0.70639575, -0.011149593, -3.0156612E-4, 0.42823315, 0
282, 461174596, 0.7078075, 0.0031305905, 0.0019704767, -0.70639575, 0.017234992, 0.005720971, 0.41159344, 0
283, 461191263, 0.70781285, 0.0031444214, 0.0019813974, -0.70639026, 0.022004725, -0.0032286725, 0.43666267, 0
284, 461207930, 0.7078198, 0.0031624031, 0.0019848754, -0.7063831, 0.023851331, 0.007855489, 0.44382954, 0
285, 461224597, 0.7078209, 0.003162666, 0.0019922575, -0.70638216, 0.02193116, 0.006326934, 0.45142555, 0
286, 461241264, 0.70781237, 0.0031595025, 0.0019791666, -0.70639074, 0.007815098, -0.0038300988, 0.44011784, 0
287, 461257931, 0.70781875, 0.0031581277, 0.0019695063, -0.70638436, 0.0057497653, 0.0010009399, 0.4503584, 0
288, 461274598, 0.7078185, 0.0031562964, 0.0019529324, -0.7063846, 6.0060114E-4, 0.0028580374, 0.46943092, 0
289, 461291265, 0.707818, 0.0031531667, 0.0019405698, -0.7063852, 0.017190816, -0.0063091195, 0.44497204, 0
290, 461307932, 0.70782185, 0.0031592061, 0.0019338721, -0.7063813, 0.047500458, -0.017260995, 0.44171715, 0
291, 461324599, 0.70782334, 0.0031608497, 0.0019380281, -0.70637983, 0.010843988, -0.011087271, 0.44107056, 0
292, 461341266, 0.7078217, 0.0031575777, 0.0019340088, -0.70638144, 0.015545442, 0.002718656, 0.4608345, 0
293, 461357933, 0.70782423, 0.0031540643, 0.0019337706, -0.70637894, 0.0028721946, -0.0065317852, 0.4443941, 0
294, 461374600, 0.70782554, 0.0031530133, 0.0019271508, -0.7063776, 0.024432758, -0.0023838058, 0.44027996, 0
295, 461391267, 0.7069934, 0.003156098, 0.0019262682, -0.70721054, 0.011282371, 0.0072627547, 0.4441862, 0
296, 461407934, 0.7066775, 0.0031557332, 0.0019266574, -0.7075262, 0.0081925625, -0.006759248, 0.43827152, 0
297, 461424601, 0.7064871, 0.0031454961, 0.0019243434, -0.7077163, 0.006077218, 0.004035425, 0.42790222, 0
298, 461441268, 0.70617235, 0.0031490163, 0.0019260582, -0.70803034, 5.8617233E-4, 0.0051430543, 0.46293545, 0
299, 461457935, 0.7060852, 0.0031626995, 0.0019171666, -0.7081172, 0.008674451, -9.1766036E-5, 0.45732212, 0
300, 461474602, 0.7060197, 0.0031660062, 0.0019089279, -0.7081827, 0.012470338, -0.0069683883, 0.42988586, 0
301, 461491269, 0.7059092, 0.0031583905, 0.0018992426, -0.7082928, 0.01918557, 0.010348743, 0.45227242, 0
302, 461507936, 0.7058541, 0.0031639412, 0.0018916313, -0.7083477, -0.00662668, 0.009033433, 0.4350891, 0
303, 461524603, 0.7058284, 0.0031588748, 0.0018882953, -0.7083733, 0.0116844755, -0.0039985073, 0.42933083, 0
304, 461541270, 0.70574963, 0.0031569945, 0.0018966697, -0.7084518, 0.009561903, -0.009043757, 0.4284277, 0
305, 461557937, 0.70569503, 0.0031482042, 0.0018989336, -0.7085062, 0.027832529, 0.006670194, 0.45074368, 0
306, 461574604, 0.7056669, 0.003138056, 0.0018978821, -0.7085343, 0.008814911, 0.013013296, 0.4334259, 0
307, 461591271, 0.7056083, 0.0031347487, 0.001898139, -0.70859265, 0.010901677, 0.009374606, 0.4423399, 0
308, 461607938, 0.7055485, 0.0031431594, 0.0018920426, -0.7086521, -0.0016962258, 0.012312257, 0.45009708, 0
309, 461624605, 0.70546454, 0.003142845, 0.0018827497, -0.70873576, 0.0016271786, -0.0012832473, 0.4272232, 0
310, 461641272, 0.7054105, 0.003143196, 0.0018816645, -0.7087896, 0.021388127, -0.017428806, 0.44094467, 0
311, 461657939, 0.70535433, 0.0031477194, 0.0018822734, -0.70884544, 0.022400245, -0.0032348314, 0.46224976, 0
312, 461674606, 0.705304, 0.0031442868, 0.0018835878, -0.70889544, 0.011380533, 0.0025523417, 0.4362545, 0
313, 461691273, 0.7052649, 0.0031443161, 0.001886756, -0.70893437, 0.0049342834, 0.01432839, 0.44304943, 0
314, 461707940, 0.7052323, 0.0031422477, 0.0018799915, -0.7089669, 0.0014523985, -0.0017180044, 0.44735813, 0
315, 461724607, 0.7051935, 0.0031386374, 0.0018758615, -0.7090054, 0.012309728, 0.0018770775, 0.43371964, 0
316, 461741274, 0.7051473, 0.0031408716, 0.0018647193, -0.7090514, 0.02102737, -8.742133E-4, 0.41984558, 0
317, 461757941, 0.7051005, 0.0031370413, 0.0018626105, -0.7090981, 0.014763956, 0.012432614, 0.4566536, 0
318, 461774608, 0.7050656, 0.0031310164, 0.0018604465, -0.7091328, 0.009869479, 0.008121978, 0.4331627, 0
319, 461791275, 0.7050359, 0.0031252026, 0.0018515221, -0.70916235, 0.0037539813, 0.010581588, 0.45484924, 0
320, 461807942, 0.7050046, 0.003118433, 0.0018566742, -0.7091935, 0.0025990594, -4.942622E-4, 0.4524927, 0
321, 461824609, 0.7049659, 0.003115767, 0.001859872, -0.70923203, 0.021013413, 0.0061423318, 0.44933224, 0
322, 461841276, 0.7049291, 0.00311514, 0.0018575061, -0.70926857, 0.0049769734, 0.012196896, 0.42214298, 0
323, 461857943, 0.704893, 0.0031202117, 0.0018553444, -0.7093044, 0.011591284, 0.012783065, 0.44004345, 0
324, 461874610, 0.704865, 0.0031161918, 0.0018522268, -0.7093323, 0.0023073277, 0.0029335062, 0.47354698, 0
325, 461891277, 0.70483625, 0.0031164114, 0.0018515685, -0.7093608, 0.002753773, -0.016679743, 0.45427895, 0
326, 461907944, 0.70481116, 0.0031140721, 0.001854962, -0.7093857, 0.008675025, -8.6800905E-4, 0.43580055, 0
327, 461924611, 0.7047716, 0.0031214317, 0.0018480645, -0.7094251, 0.017408954, -0.0015615086, 0.42668533, 0
328, 461941278, 0.7047461, 0.0031254059, 0.001856932, -0.7094504, -0.0029416557, 0.0018116999, 0.46485996, 0
329, 461957945, 0.7047134, 0.0031163725, 0.0018654197, -0.70948285, 0.010456904, 0.025907207, 0.44867706, 0
330, 461974612, 0.7046853, 0.0031238208, 0.0018709044, -0.7095108, 0.009936872, 0.015363096, 0.4401083, 0
331, 461991279, 0.7046562, 0.0031229453, 0.0018735188, -0.7095396, 0.0031180896, -0.0064069917, 0.44182968, 0
332, 462007946, 0.7046141, 0.0031212715, 0.0018861502, -0.70958143, 0.0077443146, -0.0025885124, 0.43723774, 0
333, 462024613, 0.70455515, 0.0031215558, 0.0018755759, -0.70963997, 0.005949479, 0.0087311305, 0.45573807, 0
334, 462041280, 0.7045303, 0.003122826, 0.0018748611, -0.70966464, 0.016363708, -0.0026355444, 0.438159, 0
335, 462057947, 0.7044988, 0.003133665, 0.0018817597, -0.7096959, 0.016634211, -0.0058973613, 0.45915794, 0
336, 462074614, 0.70446545, 0.0031258736, 0.0018825161, -0.7097289, 0.016623493, 0.004127046, 0.4527998, 0
337, 462091281, 0.7044153, 0.0031263412, 0.0018824004, -0.7097786, 0.009953177, 0.010979965, 0.46381283, 0
338, 462107948, 0.7043776, 0.003129532, 0.0018747366, -0.7098161, 0.0072286655, 0.0064952937, 0.45457935, 0
339, 462124615, 0.70433563, 0.0031103147, 0.0018792661, -0.7098578, 0.0160226, 0.009470136, 0.45625973, 0
340, 462141282, 0.7043054, 0.0031058944, 0.0018747607, -0.7098878, 0.010126266, 0.0015429466, 0.45367813, 0
341, 462157949, 0.70425826, 0.0030973926, 0.0018779378, -0.70993465, 0.032240264, -0.012164894, 0.456151, 0
342, 462174616, 0.7042268, 0.0030918708, 0.0018770635, -0.7099659, 0.022290591, 0.0074737878, 0.43944836, 0
343, 462191283, 0.70420593, 0.0030894515, 0.0018775003, -0.70998657, 0.017297003, 0.0036073315, 0.4587307, 0
344, 462207950, 0.7041409, 0.0030975312, 0.0018827963, -0.71005106, 0.019991772, 4.7876826E-4, 0.43861294, 0
345, 462224617, 0.70406663, 0.003100175, 0.0018767737, -0.71012473, -0.0017204665, -2.0074083E-4, 0.4391966, 0
346, 462241284, 0.70403755, 0.0031026693, 0.0018810745, -0.7101536, 0.0107277855, -0.0014480724, 0.45225143, 0
347, 462257951, 0.7040119, 0.0031037645, 0.0018735335, -0.7101789, 0.007854796, 0.01001909, 0.45971298, 0
348, 462274618, 0.70396906, 0.0031019663, 0.0018751362, -0.7102214, 0.027863627, 0.0013233154, 0.45043755, 0
349, 462291285, 0.70394397, 0.0030969905, 0.0018788412, -0.7102463, 0.0104511455, 0.003943996, 0.4364376, 0
350, 462307952, 0.7039102, 0.003086562, 0.0018772167, -0.7102798, 0.0078064194, 0.01066278, 0.42472172, 0
351, 462324619, 0.70385224, 0.003083838, 0.0018706247, -0.7103373, 0.019544698, 0.008573066, 0.42751503, 0
352, 462341286, 0.7038217, 0.003086137, 0.0018740754, -0.71036756, 0.0089107575, 0.004955991, 0.44672203, 0
353, 462357953, 0.70380133, 0.0030873443, 0.0018581538, -0.71038777, 0.020583944, -0.0073971576, 0.43297672, 0
354, 462374620, 0.7037717, 0.003081788, 0.0018596465, -0.71041715, 0.023151377, 0.012606135, 0.4568863, 0
355, 462391287, 0.70374644, 0.003079152, 0.0018550361, -0.7104422, -0.0051289066, 0.011217857, 0.45788002, 0
356, 462407954, 0.703716, 0.003082488, 0.001849416, -0.71047235, 0.014367986, 0.002580031, 0.4622202, 0
357, 462424621, 0.7036949, 0.00308323, 0.0018601182, -0.71049327, 0.01656106, 0.01430195, 0.42236137, 0
358, 462441288, 0.703669, 0.0030807208, 0.0018636835, -0.71051884, 0.01451605, -0.0038420567, 0.45815945, 0
359, 462457955, 0.7035185, 0.00317157, 0.0019254719, -0.7106673, 0.009565778, -0.009332579, 0.4546728, 0
360, 462474622, 0.70347923, 0.003172698, 0.001925878, -0.7107062, 0.014540581, 0.0015111833, 0.44318676, 0
361, 462491289, 0.70344573, 0.003175353, 0.0019228456, -0.7107394, 7.8488496E-4, 0.02442072, 0.4239397, 0
362, 462507956, 0.70341706, 0.003172324, 0.0019272876, -0.7107677, 0.004767507, -0.0011300099, 0.44154453, 0
363, 462524623, 0.7033819, 0.0031717122, 0.0019255475, -0.7108025, 0.004717179, -0.015337345, 0.43643188, 0
364, 462541290, 0.703341, 0.003174552, 0.0019374132, -0.71084285, 0.006081027, -0.007552419, 0.44608116, 0
365, 462557957, 0.7032995, 0.0031834007, 0.0019481799, -0.71088386, 0.009159177, 0.0012633388, 0.43069935, 0
366, 462574624, 0.7032868, 0.0031939812, 0.0019436503, -0.71089643, 0.0014908375, 0.004673315, 0.45125484, 0
367, 462591291, 0.7032547, 0.0031869186, 0.0019421071, -0.7109282, 0.011666893, 0.0058002556, 0.45425034, 0
368, 462607958, 0.70323735, 0.0031898255, 0.0019374706, -0.71094537, 0.02668596, -0.004836735, 0.4528246, 0
369, 462624625, 0.7032033, 0.0031867512, 0.0019417618, -0.71097904, 0.0014531573, -0.0059389295, 0.4334278, 0
370, 462641292, 0.7031623, 0.003185683, 0.0019416895, -0.71101964, 7.6034304E-4, 0.0062569673, 0.4320345, 0
371, 462657959, 0.7031243, 0.003186467, 0.001938432, -0.71105725, 0.023573719, 0.0068502375, 0.45168972, 0
372, 462674626, 0.7030953, 0.0031807534, 0.0019457841, -0.7110859, 0.007929966, 0.0015413419, 0.45407963, 0
373, 462691293, 0.70309806, 0.0031728882, 0.0019431477, -0.71108323, 0.0037339183, 0.0061681685, 0.43883514, 0
374, 462707960, 0.70304507, 0.0031814415, 0.0019420142, -0.71113557, 0.0040486595, -0.009228483, 0.4281788, 0
375, 462724627, 0.70301235, 0.0031936301, 0.0019458403, -0.7111679, 0.010352514, -0.0036674042, 0.44398594, 0
376, 462741294, 0.7029793, 0.003192372, 0.0019440877, -0.71120054, 0.008338144, 0.0054483865, 0.438159, 0
377, 462757961, 0.70294774, 0.0031965012, 0.0019480443, -0.71123165, 0.0053870105, 0.010682765, 0.44299412, 0
378, 462774628, 0.7029282, 0.0031983242, 0.001949926, -0.71125096, 0.014762908, 0.0049267197, 0.45154953, 0
379, 462791295, 0.7028992, 0.0031913228, 0.0019439219, -0.7112797, 0.013235316, -0.008010528, 0.44162464, 0
380, 462807962, 0.7028848, 0.0031888536, 0.0019385705, -0.7112939, 0.0015590386, -0.0035959864, 0.42684078, 0
381, 462824629, 0.70284915, 0.003194116, 0.0019393716, -0.7113292, 0.0038903486, 5.7548477E-4, 0.4324255, 0
382, 462841296, 0.70280933, 0.0031910317, 0.0019417619, -0.7113685, 0.013396421, 0.007115996, 0.43932152, 0
383, 462857963, 0.7027795, 0.0031930462, 0.001945452, -0.711398, 0.012982373, 0.0048763365, 0.46340466, 0
384, 462874630, 0.7027618, 0.0031918597, 0.00193333, -0.71141547, 0.0076409755, -0.0052503454, 0.4211645, 0
385, 462891297, 0.70273244, 0.0031969845, 0.0019285787, -0.7114445, 0.016664505, -0.011153852, 0.44280243, 0
386, 462907964, 0.70268005, 0.0031921775, 0.0019209484, -0.7114963, 0.010245935, -0.0041858335, 0.4188776, 0
387, 462924631, 0.702652, 0.0031935151, 0.001922648, -0.711524, 0.008936101, -6.22845E-4, 0.44015408, 0
388, 462941298, 0.70263726, 0.003186077, 0.0019259973, -0.71153855, 0.022797853, -0.0050982432, 0.44989586, 0
389, 462957965, 0.70260626, 0.0031880988, 0.0019268066, -0.71156913, 0.013087879, -0.0075598108, 0.43809605, 0
390, 462974632, 0.7025951, 0.0031978204, 0.001926535, -0.7115801, 0.0045538703, -0.0011386274, 0.4460249, 0
391, 462991299, 0.70257396, 0.0031969387, 0.0019227944, -0.71160096, 0.0095660975, -0.0068834815, 0.43598652, 0
392, 463007966, 0.702557, 0.0031982353, 0.0019220699, -0.71161777, 0.008005724, 0.0066061052, 0.4430437, 0
393, 463024633, 0.7025291, 0.0032016702, 0.0019217678, -0.71164536, 0.021284824, 0.0017911682, 0.45378876, 0
394, 463041300, 0.70249987, 0.0032057636, 0.0019163637, -0.7116741, 0.008280807, -0.003260778, 0.43411922, 0
395, 463057967, 0.7024676, 0.0032087776, 0.0019139044, -0.71170586, 0.022253795, -0.0072885794, 0.43156147, 0
396, 463074634, 0.70243245, 0.003200564, 0.0019089087, -0.7117407, 0.007478343, 3.0822787E-4, 0.43902302, 0
397, 463091301, 0.702402, 0.0031903647, 0.001901071, -0.7117708, 0.011702846, 0.015400104, 0.44393253, 0
398, 463107968, 0.7023716, 0.0031903544, 0.0019059095, -0.7118008, 0.011485153, 0.0021820783, 0.4539051, 0
399, 463124635, 0.7023537, 0.0032019487, 0.0019105324, -0.7118184, 0.007951078, 0.006966724, 0.44132042, 0
400, 463141302, 0.7023046, 0.003196959, 0.0019061853, -0.7118668, 0.012351719, 0.004247413, 0.44193745, 0
401, 463157969, 0.7022738, 0.0032018917, 0.0018970947, -0.71189725, -0.0059777517, 0.010266974, 0.447361, 0
402, 463174636, 0.7022254, 0.0032039178, 0.0018904321, -0.711945, 0.007471796, 2.1350726E-4, 0.45562077, 0
403, 463191303, 0.7022019, 0.0032066605, 0.0018813342, -0.7119682, 0.008734528, 0.0020036749, 0.4316597, 0
404, 463207970, 0.7021791, 0.0032179486, 0.0018882611, -0.71199065, 0.012842778, -0.0060775704, 0.45030594, 0
405, 463224637, 0.70215976, 0.0032168138, 0.0018863523, -0.7120097, 0.019207513, -4.177457E-4, 0.4637699, 0
406, 463241304, 0.7021377, 0.0032149632, 0.0018916548, -0.7120315, 0.006205414, -4.6084356E-4, 0.4686365, 0
407, 463257971, 0.70211166, 0.0032179486, 0.0018912746, -0.7120572, 0.010880745, -0.007078474, 0.42848873, 0
408, 463274638, 0.70208335, 0.003216164, 0.0018835418, -0.712085, 0.00865308, -0.0056019644, 0.4437294, 0
409, 463291305, 0.70207, 0.0032238623, 0.0018997618, -0.71209806, 0.013407108, -0.009033309, 0.45248032, 0
410, 463307972, 0.70205057, 0.0032290127, 0.0018988965, -0.7121172, 0.010032167, 0.0115015125, 0.4485531, 0
411, 463324639, 0.7020279, 0.00323033, 0.0018981232, -0.71213955, 0.012676219, -0.003819194, 0.43870258, 0
412, 463341306, 0.70200247, 0.0032347704, 0.001902611, -0.71216464, 0.013863866, 5.862832E-4, 0.4400921, 0
413, 463357973, 0.70199406, 0.0032387786, 0.0018899266, -0.71217287, 0.02140438, -7.1051973E-4, 0.44730186, 0
414, 463374640, 0.70198053, 0.0032399755, 0.0018870725, -0.71218634, 0.015064925, 0.0065642945, 0.43600273, 0
415, 463391307, 0.70196265, 0.0032295804, 0.0018865747, -0.712204, 0.0030429875, 0.00484933, 0.45398712, 0
416, 463407974, 0.7019416, 0.0032415632, 0.0018976174, -0.7122246, 0.008399594, -7.316644E-4, 0.43470192, 0
417, 463424641, 0.7019121, 0.003243406, 0.001903006, -0.7122537, 0.007907207, -0.013622245, 0.4393139, 0
418, 463441308, 0.7018507, 0.0032361303, 0.0019122167, -0.7123142, 0.016612584, -0.008555496, 0.43130016, 0
419, 463457975, 0.7018417, 0.003236868, 0.0019152882, -0.712323, 0.009397225, 5.6126894E-4, 0.44258595, 0
420, 463474642, 0.7018179, 0.0032402382, 0.001914719, -0.7123465, 0.0105801495, 0.0075151273, 0.4328699, 0
421, 463491309, 0.7017674, 0.0032313573, 0.0019137486, -0.71239626, -0.007995213, 0.011632659, 0.4307928, 0
422, 463507976, 0.70174533, 0.00322004, 0.0019020028, -0.71241814, 0.014790479, 0.002582378, 0.4357624, 0
423, 463524643, 0.70172036, 0.0032188413, 0.0018996007, -0.71244264, 0.012293699, -0.0061577717, 0.44232178, 0
424, 463541310, 0.70171213, 0.0032214257, 0.0018996209, -0.7124508, 0.022964256, -0.0045034178, 0.44889164, 0
425, 463557977, 0.70169836, 0.003217015, 0.001887708, -0.7124644, 0.019053474, 0.0017288815, 0.43865395, 0
426, 463574644, 0.70167017, 0.003225606, 0.001891014, -0.71249217, 0.0016887381, -0.008454224, 0.4524002, 0
427, 463591311, 0.70164627, 0.0032062756, 0.0018893795, -0.71251583, 0.007835966, -0.0011927349, 0.42905903, 0
428, 463607978, 0.7016076, 0.003201589, 0.0018946438, -0.7125538, 0.005226042, -8.19168E-4, 0.4666729, 0
429, 463624645, 0.70157725, 0.0031971077, 0.0019002344, -0.7125837, 0.018155333, 0.0078308815, 0.42948532, 0
430, 463641312, 0.7015498, 0.0031999773, 0.0019012677, -0.7126107, 0.017718336, 0.001568944, 0.44475174, 0
431, 463657979, 0.7015178, 0.0032024945, 0.0018999322, -0.71264225, 0.02645089, 0.008304087, 0.46207714, 0
432, 463674646, 0.7014897, 0.0032018817, 0.0018983679, -0.71266997, 0.021484101, -0.00981838, 0.4560938, 0
433, 463691313, 0.7014574, 0.003192132, 0.0018963993, -0.7127018, 0.009390885, 0.008577752, 0.47324562, 0
434, 463707980, 0.70144004, 0.003188905, 0.001896693, -0.71271884, 0.004858275, -0.0052698767, 0.43860626, 0
435, 463724647, 0.70140654, 0.003188956, 0.001896475, -0.7127518, 0.004642268, 0.006464452, 0.4560194, 0
436, 463741314, 0.70137835, 0.0031796598, 0.0019009026, -0.7127796, 0.00535992, -0.004846468, 0.45274448, 0
437, 463757981, 0.7013648, 0.0031835793, 0.0019155458, -0.7127928, 0.0033046512, 0.0027410877, 0.44921494, 0
438, 463774648, 0.7013429, 0.0031915188, 0.00191217, -0.71281445, 0.009347106, -0.0059219864, 0.45092583, 0
439, 463791315, 0.7013125, 0.0031903698, 0.0019028027, -0.71284425, 0.012766545, 0.0014084267, 0.45330238, 0
440, 463807982, 0.7013065, 0.0031837174, 0.0019050062, -0.7128502, 0.0040619937, 0.0036676398, 0.4578333, 0
441, 463824649, 0.7012889, 0.0031842254, 0.0019069837, -0.71286756, -9.181563E-4, 0.016741777, 0.43192768, 0
442, 463841316, 0.70126826, 0.003169505, 0.0019008449, -0.7128879, 0.001109356, -0.013996755, 0.44355583, 0
443, 463857983, 0.70124716, 0.0031664243, 0.0019061435, -0.7129086, 0.008355314, 0.01930021, 0.4336481, 0
444, 463874650, 0.7012143, 0.0031559365, 0.0019090835, -0.71294105, 0.016791036, -0.0028123483, 0.4316597, 0
445, 463891317, 0.70120007, 0.0031523611, 0.0019120303, -0.71295506, 0.020451192, -0.0013086981, 0.45413208, 0
446, 463907984, 0.70117426, 0.0031455625, 0.001909033, -0.7129805, -0.0010324151, 8.281958E-4, 0.46122932, 0
447, 463924651, 0.70115864, 0.0031465155, 0.0018996915, -0.7129958, -0.0016949057, -0.0022141351, 0.40357685, 0
448, 463941318, 0.7011196, 0.0031436547, 0.0019041883, -0.7130343, 0.004986079, -0.010406049, 0.44370937, 0
449, 463957985, 0.7010903, 0.0031416793, 0.0018941489, -0.7130631, 0.0035365678, 0.015155655, 0.42699814, 0
450, 463974652, 0.7010604, 0.0031358625, 0.0018894364, -0.7130925, 0.020023175, 0.010658067, 0.44009113, 0
451, 463991319, 0.70105726, 0.0031361568, 0.0018923494, -0.7130956, 0.020454908, -0.009257542, 0.43473434, 0
452, 464007986, 0.7010267, 0.003140394, 0.0018957884, -0.71312565, 0.006859093, -7.736028E-4, 0.47122002, 0
453, 464024653, 0.7010133, 0.0031338078, 0.0018942127, -0.71313876, 9.749792E-5, -0.005796817, 0.43622112, 0
454, 464041320, 0.7009963, 0.0031417725, 0.0018947895, -0.71315557, 0.008195036, -0.0010920546, 0.45733643, 0
455, 464057987, 0.7009749, 0.0031331019, 0.0019008538, -0.71317667, 0.013092272, 0.005178935, 0.45075798, 0
456, 464074654, 0.70094466, 0.0031332863, 0.0018961845, -0.7132064, 0.012966495, -0.0044737495, 0.44818878, 0
457, 464091321, 0.7009422, 0.0031275614, 0.0019061966, -0.7132088, 0.005510831, -0.009693243, 0.44426727, 0
458, 464107988, 0.7009218, 0.0031236096, 0.0019046975, -0.71322876, 0.0047419094, 0.007729258, 0.45223618, 0
459, 464124655, 0.70089555, 0.003125172, 0.0019132982, -0.71325463, 0.011370737, 0.018186389, 0.4356985, 0
460, 464141322, 0.7008766, 0.0031278182, 0.0019205988, -0.71327317, 0.020229312, 0.0075201774, 0.452878, 0
461, 464157989, 0.70086104, 0.0031262652, 0.0019206445, -0.7132884, 0.006104488, -0.003549342, 0.44967842, 0
462, 464174656, 0.70083475, 0.003127187, 0.0019217607, -0.7133143, 0.014108906, -0.0067141247, 0.42428493, 0
463, 464191323, 0.70081264, 0.003129934, 0.0019255886, -0.71333605, 0.004144523, 0.009177774, 0.46566296, 0
464, 464207990, 0.70080525, 0.0031499423, 0.0019128711, -0.71334326, 0.0037413607, 0.009016072, 0.44228458, 0
465, 464224657, 0.70078313, 0.0031551041, 0.0019179613, -0.7133649, 1.772449E-4, 0.008145228, 0.4634571, 0
466, 464241324, 0.70075166, 0.0031369398, 0.0019204736, -0.713396, 0.013408421, -0.008664777, 0.42898464, 0
467, 464257991, 0.70072204, 0.0031416148, 0.0019212492, -0.713425, 0.021420889, 0.0063497936, 0.4552822, 0
468, 464274658, 0.7007016, 0.0031417897, 0.0019189789, -0.71344507, 0.004898999, 0.004344746, 0.47565937, 0
469, 464291325, 0.7006825, 0.0031400062, 0.0019249514, -0.71346366, 0.015254927, -0.0050678174, 0.45139408, 0
470, 464307992, 0.70065075, 0.0031397205, 0.0019190897, -0.7134949, 0.01920315, 0.0012629232, 0.46523666, 0
471, 464324659, 0.70063937, 0.0031363843, 0.0019104333, -0.71350604, 0.016446052, 0.0021315278, 0.46798134, 0
472, 464341326, 0.70062166, 0.0031325007, 0.0019105584, -0.7135236, 0.013328158, 9.801672E-4, 0.42956924, 0
473, 464357993, 0.70059925, 0.0031331703, 0.001905137, -0.7135455, 0.012001266, 0.004509126, 0.43972683, 0
474, 464374660, 0.7005808, 0.003129851, 0.0019040206, -0.7135638, 0.011176204, -0.009465489, 0.44112396, 0
475, 464391327, 0.70056796, 0.003131179, 0.001901629, -0.7135763, 0.012269406, -0.0066823126, 0.43868637, 0
476, 464407994, 0.70053005, 0.0031347536, 0.0019102322, -0.71361357, 0.016188739, 0.012642574, 0.45011425, 0
477, 464424661, 0.70050794, 0.0031325168, 0.0018985784, -0.7136353, -0.0076761213, 0.025824957, 0.43896294, 0
478, 464441328, 0.70048386, 0.00313202, 0.0018977337, -0.7136588, 0.013108897, -0.001280118, 0.4476738, 0
479, 464457995, 0.70045686, 0.003211201, 0.0018736159, -0.71368515, 3.2262088E-4, 0.012136712, 0.43612957, 0
480, 464474662, 0.70043886, 0.003205371, 0.0018727802, -0.7137028, 0.002262062, 0.011402632, 0.44251537, 0
481, 464491329, 0.7004165, 0.0032035809, 0.0018724581, -0.71372473, 0.017618526, 1.1107546E-4, 0.42860508, 0
482, 464507996, 0.7004221, 0.0032021406, 0.0018738586, -0.7137192, 0.013754216, 0.0061264937, 0.43165016, 0
483, 464524663, 0.7004026, 0.003200748, 0.0018776575, -0.7137383, 0.0030520223, -0.00293092, 0.45481205, 0
484, 464541330, 0.700384, 0.0032133858, 0.0018823334, -0.7137565, -0.009907169, 0.0052820845, 0.46112823, 0
485, 464557997, 0.700371, 0.0032258655, 0.0018920859, -0.7137692, 0.009564942, -0.0012384714, 0.47006607, 0
486, 464574664, 0.70034724, 0.0032288278, 0.0018922978, -0.7137925, -5.276713E-4, 0.006243707, 0.44345856, 0
487, 464591331, 0.70032763, 0.0032365622, 0.0018931619, -0.71381176, -0.0011596917, 0.004344416, 0.43622112, 0
488, 464607998, 0.700318, 0.003236364, 0.0018938936, -0.7138212, 0.02007158, 0.008920966, 0.4243698, 0
489, 464624665, 0.7002919, 0.00324038, 0.0019002155, -0.71384686, 0.0023217103, 0.007267819, 0.42572212, 0
490, 464641332, 0.70027655, 0.0032497495, 0.0018889604, -0.7138618, 0.013283331, 0.008466115, 0.4502735, 0
491, 464657999, 0.7002672, 0.00326006, 0.0018892622, -0.713871, 0.018215373, 0.0074634207, 0.45102692, 0
492, 464674666, 0.700251, 0.003261006, 0.0018841265, -0.7138868, 0.012499232, -0.0057474943, 0.46443558, 0
493, 464691333, 0.700239, 0.003267077, 0.0018798707, -0.71389854, 4.6535835E-4, -0.0017835548, 0.44597816, 0
494, 464708000, 0.7002191, 0.003273864, 0.0018735355, -0.71391803, -0.0011054331, -0.0077936016, 0.4688959, 0
495, 464724667, 0.7001866, 0.0032766263, 0.0018801332, -0.71394986, 0.019658377, -0.0011964439, 0.43126583, 0
496, 464741334, 0.70016986, 0.0032692302, 0.0018788608, -0.7139663, 0.025213325, 0.00407461, 0.42294598, 0
497, 464758001, 0.70014256, 0.003270932, 0.0018814832, -0.71399313, 0.018420706, 4.83469E-4, 0.45218658, 0
498, 464774668, 0.70012337, 0.003271934, 0.0018866638, -0.71401197, 0.0024661617, -0.0050831614, 0.4457245, 0
499, 464791335, 0.70011276, 0.0032805826, 0.0018736138, -0.71402234, 0.010136101, -0.009364725, 0.45490074, 0
500, 464808002, 0.7001055, 0.003281828, 0.0018732242, -0.7140295, 0.009739907, 0.0062233866, 0.41870975, 0
501, 464824669, 0.70008314, 0.003290834, 0.0018666319, -0.7140513, 0.016614875, 0.004443394, 0.4520235, 0
502, 464841336, 0.7000197, 0.0032857438, 0.0018700853, -0.71411353, 0.008087964, -0.0041356096, 0.43850708, 0
503, 464858003, 0.7000055, 0.0032891044, 0.001864967, -0.7141275, 0.016717205, 0.005991457, 0.4468403, 0
504, 464874670, 0.6999827, 0.003281408, 0.0018634826, -0.71414983, 0.011324976, -7.6143356E-4, 0.45192719, 0
505, 464891337, 0.69996274, 0.0032951967, 0.0018651809, -0.7141693, 0.008347501, 0.017529933, 0.4477024, 0
506, 464908004, 0.69993293, 0.0032905794, 0.0018679935, -0.7141985, 0.008388254, -9.0988283E-4, 0.44779682, 0
507, 464924671, 0.69991446, 0.0032891673, 0.0018664756, -0.71421665, 0.032916307, 0.00314602, 0.44907475, 0
508, 464941338, 0.699905, 0.003294238, 0.0018710138, -0.71422595, 0.011645333, -0.00915195, 0.44904995, 0
509, 464958005, 0.69988, 0.0033011143, 0.0018759717, -0.71425045, -0.006628544, -0.008914096, 0.44613075, 0
510, 464974672, 0.6998627, 0.0033012195, 0.0018752153, -0.7142674, 0.015888456, 0.0028700496, 0.45447636, 0
511, 464991339, 0.69985104, 0.0032899596, 0.0018748274, -0.7142788, 0.012307674, 0.0068636113, 0.4615221, 0
512, 465008006, 0.69984007, 0.003296268, 0.0018712811, -0.71428955, -0.0029956936, -0.0045645223, 0.4375496, 0
513, 465024673, 0.69981974, 0.0033033942, 0.0018785093, -0.7143094, 0.01003504, -0.014759972, 0.44874096, 0
514, 465041340, 0.6998018, 0.0033097682, 0.0018860032, -0.7143269, 0.009787039, -0.008405694, 0.43632126, 0
515, 465058007, 0.6997911, 0.0033071884, 0.0018819149, -0.7143374, -0.013149431, -0.003356852, 0.46551895, 0
516, 465074674, 0.6997832, 0.0032956072, 0.0018880598, -0.7143453, -0.003976135, 0.013397347, 0.44138813, 0
517, 465091341, 0.6997706, 0.003288481, 0.0018876069, -0.71435755, 0.009142173, 0.008259937, 0.458066, 0
518, 465108008, 0.6997506, 0.0033006591, 0.0018934322, -0.7143771, 0.018289581, -0.0029792758, 0.446908, 0
519, 465124675, 0.69974667, 0.003298379, 0.001886549, -0.714381, -0.0028144864, -0.00363292, 0.45376492, 0
520, 465141342, 0.699744, 0.003308367, 0.0018812359, -0.71438354, 0.008688259, -0.018312305, 0.44117737, 0
521, 465158009, 0.699721, 0.0033169666, 0.0018831836, -0.7144062, 0.0048322724, 0.003500927, 0.4239664, 0
522, 465174676, 0.69970685, 0.0033164273, 0.0018884434, -0.71441996, 0.012001833, 0.010644763, 0.44676685, 0
523, 465191343, 0.6996833, 0.0033175529, 0.0018813364, -0.7144431, 0.006470121, -6.128603E-4, 0.45801067, 0
524, 465208010, 0.6996635, 0.0033262994, 0.0018818531, -0.7144624, 0.0053055864, -0.0070353285, 0.41769123, 0
525, 465224677, 0.69964767, 0.0033256232, 0.0018859741, -0.7144779, -0.002192703, -5.096549E-4, 0.44169998, 0
526, 465241344, 0.6996449, 0.0033226146, 0.001880357, -0.7144806, 0.004110527, 0.0041890624, 0.42985725, 0
527, 465258011, 0.69962305, 0.0033249115, 0.0018662695, -0.71450186, 0.004959743, -0.0040310053, 0.46706867, 0
528, 465274678, 0.6996089, 0.0033235813, 0.0018637135, -0.7145158, 0.0021488029, 0.0024654788, 0.4429531, 0
529, 465291345, 0.6995875, 0.003325134, 0.0018538869, -0.7145368, 0.00544756, 0.0037749785, 0.44640255, 0
530, 465308012, 0.6995808, 0.0033175305, 0.0018559579, -0.7145434, -0.010864644, -5.624494E-6, 0.44994736, 0
531, 465324679, 0.699562, 0.003324417, 0.0018530908, -0.7145618, -0.022033352, 0.0141023155, 0.4378481, 0
532, 465341346, 0.69954675, 0.003319554, 0.0018493289, -0.71457684, 0.01060084, 0.0075431536, 0.43108463, 0
533, 465358013, 0.69952434, 0.0033159782, 0.001853876, -0.7145987, 0.00902315, -0.005751067, 0.46409893, 0
534, 465374680, 0.6995097, 0.0033178644, 0.0018571146, -0.7146131, 0.008360491, 0.0067001674, 0.41789627, 0
535, 465391347, 0.6994867, 0.0033173384, 0.0018542835, -0.7146356, 0.014487427, 0.012840587, 0.46117496, 0
536, 465408014, 0.69947404, 0.0033135086, 0.0018525415, -0.714648, -0.003581459, -0.012880086, 0.43471527, 0
537, 465424681, 0.6994628, 0.0033227438, 0.0018470368, -0.714659, -0.007980697, -0.006990221, 0.4398632, 0
538, 465441348, 0.6994539, 0.003327186, 0.0018537074, -0.7146676, 3.647068E-4, -0.017763967, 0.4090519, 0
539, 465458015, 0.69942003, 0.0033223645, 0.0018543688, -0.71470076, 0.025405223, -0.008278753, 0.44184017, 0
540, 465474682, 0.6994014, 0.0033302808, 0.0018527712, -0.714719, 0.012293197, 0.011486708, 0.45656013, 0
541, 465491349, 0.6993881, 0.0033268894, 0.0018497176, -0.71473205, 0.008369188, 0.0058500185, 0.44791603, 0
542, 465508016, 0.6993676, 0.00332493, 0.0018511137, -0.7147521, -0.0032028167, 0.010300121, 0.43489265, 0
543, 465524683, 0.69934696, 0.0033237955, 0.0018511344, -0.7147722, 0.013127911, 0.0025915261, 0.4420538, 0
544, 465541350, 0.6993253, 0.00331898, 0.0018430165, -0.7147935, 0.011460884, -0.008289732, 0.46463394, 0
545, 465558017, 0.69931746, 0.0033234286, 0.001855281, -0.71480113, 0.0052037598, 0.0023396707, 0.4362383, 0
546, 465574684, 0.69930434, 0.0033172856, 0.0018363813, -0.71481407, 4.468958E-4, 0.008507499, 0.4276743, 0
547, 465591351, 0.699281, 0.0033219594, 0.0018357682, -0.71483696, 0.0031624953, 0.0076961447, 0.4412918, 0
548, 465608018, 0.69926125, 0.0033226022, 0.0018415567, -0.71485627, 0.0046749036, 3.5674762E-5, 0.4209261, 0
549, 465624685, 0.69924456, 0.0033258325, 0.0018464619, -0.71487254, 0.0023917782, -0.0030215145, 0.44227123, 0
550, 465641352, 0.69922394, 0.0033292887, 0.0018490911, -0.71489275, 0.008964613, -9.0712734E-4, 0.44277477, 0
551, 465658019, 0.69919455, 0.0033286293, 0.0018453536, -0.71492136, 0.003747743, 7.899908E-4, 0.43300438, 0
552, 465674686, 0.699194, 0.0033253233, 0.0018448108, -0.71492195, -0.004339415, 0.008154838, 0.42027378, 0
553, 465691353, 0.69917923, 0.0033236193, 0.0018439747, -0.7149364, -6.9660344E-4, -9.7193215E-6, 0.45901394, 0
554, 465708020, 0.6991628, 0.0033221638, 0.0018485729, -0.7149525, -8.6997007E-4, -0.009285121, 0.43669987, 0
555, 465724687, 0.6991527, 0.0033281036, 0.0018575145, -0.7149622, 0.00856783, -0.012596887, 0.42414284, 0
556, 465741354, 0.69913477, 0.0033316726, 0.0018543135, -0.71497977, -0.011844672, -0.016442299, 0.43358898, 0
557, 465758021, 0.6991344, 0.0033367833, 0.0018504382, -0.7149801, 6.071424E-4, -0.0027650998, 0.4315195, 0
558, 465774688, 0.69911534, 0.003339631, 0.0018555248, -0.7149987, 0.0102767395, 0.0034962979, 0.45073795, 0
559, 465791355, 0.69910043, 0.0033357635, 0.001852799, -0.71501327, 0.0045849765, -0.0024447567, 0.45568943, 0
560, 465808022, 0.6990806, 0.003335523, 0.0018494197, -0.7150328, -1.2282298E-4, -0.0026844516, 0.42961407, 0
561, 465824689, 0.6990589, 0.0033458422, 0.001864793, -0.71505386, 0.001465805, 0.014575043, 0.4308195, 0
562, 465841356, 0.6990348, 0.0033464378, 0.0018650233, -0.71507734, 0.004791635, 0.010227199, 0.431427, 0
563, 465858023, 0.69901466, 0.0033426252, 0.0018554437, -0.71509707, 0.006552262, -0.010913187, 0.43287373, 0
564, 465874690, 0.6989996, 0.0033564954, 0.0018666305, -0.71511173, 0.004727207, -0.0025356847, 0.4524355, 0
565, 465891357, 0.69899285, 0.0033588288, 0.0018700338, -0.71511835, 0.016840842, -0.0049680034, 0.44843102, 0
566, 465908024, 0.69898045, 0.0033560242, 0.001870253, -0.7151305, 0.00614048, 0.011091116, 0.43720436, 0
567, 465924691, 0.6989686, 0.0033602822, 0.0018716125, -0.71514213, 0.006136158, -6.5863505E-4, 0.41359615, 0
568, 465941358, 0.6989594, 0.0033505766, 0.0018795764, -0.71515113, 0.01571191, 0.005993327, 0.44642544, 0
569, 465958025, 0.6989496, 0.0033432147, 0.0018697154, -0.71516067, -2.7282463E-4, 0.008713718, 0.42843533, 0
570, 465974692, 0.69894034, 0.0033345318, 0.0018674694, -0.7151698, 0.014039254, -0.0046998854, 0.4397688, 0
571, 465991359, 0.6989178, 0.0033331267, 0.0018623244, -0.71519184, -0.0017775653, -0.008984, 0.4522457, 0
572, 466008026, 0.6989072, 0.0033449703, 0.0018646596, -0.71520215, 0.017854083, -0.004147536, 0.4559784, 0
573, 466024693, 0.6988852, 0.0033451507, 0.001865865, -0.7152236, 6.3334143E-4, 0.0037149878, 0.44385815, 0
574, 466041360, 0.6988632, 0.0033479347, 0.0018681955, -0.7152451, 0.0076208995, -0.0023664609, 0.4549942, 0
575, 466058027, 0.6988452, 0.00333905, 0.0018637107, -0.71526283, 0.011421436, 0.006028005, 0.44611073, 0
576, 466074694, 0.69882447, 0.003349168, 0.0018600507, -0.7152829, 0.01917899, -0.012956052, 0.43664074, 0
577, 466091361, 0.6988098, 0.003352719, 0.0018568484, -0.7152973, 0.019546155, 0.0024530827, 0.43800354, 0
578, 466108028, 0.6987964, 0.0033455256, 0.0018468146, -0.71531045, -0.0036159174, 0.0042401715, 0.44265938, 0
579, 466124695, 0.6987845, 0.0033505082, 0.0018455344, -0.71532214, -0.00528111, 0.013645269, 0.43074512, 0
580, 466141362, 0.6987692, 0.0033481785, 0.0018407109, -0.71533704, 0.016660772, 0.0017834326, 0.44953632, 0
581, 466158029, 0.6987544, 0.0033441102, 0.0018406122, -0.7153515, 0.0022609497, -0.0034317952, 0.4831047, 0
582, 466174696, 0.6987479, 0.0033347828, 0.0018428256, -0.7153579, -0.007061319, -0.01819781, 0.455822, 0
583, 466191363, 0.69873685, 0.0033341406, 0.0018341781, -0.7153686, -7.297279E-4, 0.00812484, 0.42883587, 0
584, 466208030, 0.69872135, 0.0033295648, 0.0018348198, -0.7153839, 0.016991364, 0.0133298375, 0.45878506, 0
585, 466224697, 0.69870716, 0.0033338892, 0.0018360864, -0.7153978, 0.009464866, 0.0013185344, 0.43453312, 0
586, 466241364, 0.69870216, 0.003334189, 0.0018249158, -0.71540266, 0.0068231137, -0.0064122234, 0.44641972, 0
587, 466258031, 0.698687, 0.003337046, 0.0018250291, -0.71541744, 0.00232824, -0.011280253, 0.4312744, 0
588, 466274698, 0.69867307, 0.0033473282, 0.0018349367, -0.715431, -0.004913805, -0.0111670345, 0.46891117, 0
589, 466291365, 0.6986625, 0.0033472383, 0.0018335662, -0.7154413, 0.01598586, -0.0034157373, 0.43204784, 0
590, 466308032, 0.6986565, 0.0033415637, 0.0018312188, -0.7154471, -0.0016401267, 0.0077122324, 0.44476414, 0
591, 466324699, 0.69864756, 0.0033371926, 0.0018196324, -0.7154559, 0.0021062875, -0.022164604, 0.44352722, 0
592, 466341366, 0.69863975, 0.0033511254, 0.0018326092, -0.7154634, 0.011551156, -0.017354287, 0.44842434, 0
593, 466358033, 0.69862425, 0.0033636636, 0.0018385681, -0.71547854, 0.01379748, 0.0032679113, 0.42937374, 0
594, 466374700, 0.6986111, 0.0033673923, 0.0018451867, -0.7154914, -0.0056599057, 0.007939299, 0.49017143, 0
595, 466391367, 0.69860053, 0.0033653448, 0.0018408645, -0.71550167, 0.001710329, 5.3226465E-4, 0.46217155, 0
596, 466408034, 0.6985778, 0.0033666797, 0.0018215023, -0.71552384, 0.010712059, 0.0074054785, 0.43364906, 0
597, 466424701, 0.6985706, 0.0033679425, 0.0018020979, -0.71553093, 9.841075E-4, -0.012324445, 0.4352808, 0
598, 466441368, 0.69854957, 0.003371024, 0.0018020407, -0.7155515, 0.0027844973, 0.005732117, 0.42443848, 0
599, 466458035, 0.6984984, 0.0032333499, 0.0018642581, -0.71560186, 0.017683046, 0.0018556919, 0.45763016, 0
600, 466474702, 0.6984845, 0.003224439, 0.0018706622, -0.7156156, 0.024727082, 0.008537195, 0.43789577, 0
601, 466491369, 0.69847476, 0.0032170753, 0.0018716117, -0.715625, 0.017016327, -0.0034223134, 0.46309566, 0
602, 466508036, 0.69845814, 0.0032010328, 0.0018550182, -0.71564144, 0.017598152, -0.0047658007, 0.43330765, 0
603, 466524703, 0.6984425, 0.0031924366, 0.0018510324, -0.7156566, 0.00960032, -0.0013015387, 0.42925644, 0
604, 466541370, 0.6984336, 0.0031900944, 0.0018451943, -0.71566546, -0.009908315, -0.005445221, 0.45836258, 0
605, 466558037, 0.6984262, 0.003187411, 0.0018459744, -0.7156727, 0.014360566, -0.0104338, 0.45331478, 0
606, 466574704, 0.698409, 0.0031866033, 0.0018429065, -0.7156894, 0.025487375, -0.004208342, 0.45161438, 0
607, 466591371, 0.6983952, 0.0031971226, 0.0018438933, -0.7157029, 0.038985565, -0.012951874, 0.45157528, 0
608, 466608038, 0.69838715, 0.0032034155, 0.0018503659, -0.7157107, 0.03818869, -0.013653773, 0.42803097, 0
609, 466624705, 0.69838166, 0.00321155, 0.0018472683, -0.715716, 0.008747431, 0.0075052176, 0.44314766, 0
610, 466641372, 0.6983648, 0.003211292, 0.0018540465, -0.7157325, 0.0040082685, -0.001025336, 0.45315075, 0
611, 466658039, 0.6983661, 0.003218721, 0.0018579162, -0.71573126, 0.004917519, 0.005734562, 0.450572, 0
612, 466674706, 0.69836044, 0.0032064659, 0.0018490354, -0.71573675, 0.010218712, 0.0033628119, 0.4329567, 0
613, 466691373, 0.6983558, 0.0032023238, 0.0018432727, -0.7157413, 0.01162413, -0.00550749, 0.47568607, 0
614, 466708040, 0.6983317, 0.0032059893, 0.0018432079, -0.71576476, 0.024673073, -0.010205544, 0.46195412, 0
615, 466724707, 0.69832045, 0.003207873, 0.0018399124, -0.7157758, -0.0015239768, -0.0029870672, 0.45317364, 0
616, 466741374, 0.6983054, 0.0032081327, 0.0018355453, -0.7157904, -0.005367234, 0.0019465691, 0.4506178, 0
617, 466758041, 0.69829094, 0.0032084521, 0.0018363772, -0.7158045, 0.00599378, 0.003934324, 0.44169998, 0
618, 466774708, 0.6982924, 0.003211037, 0.0018287385, -0.71580315, 0.017086653, 8.6424954E-4, 0.43850803, 0
619, 466791375, 0.6982848, 0.0032079888, 0.0018215427, -0.71581054, 0.026493888, 0.0036389567, 0.44414043, 0
620, 466808042, 0.6982742, 0.003208452, 0.0018243275, -0.71582085, 0.0215242, -0.005742652, 0.46305847, 0
621, 466824709, 0.6982562, 0.0032100766, 0.0018210998, -0.7158385, 0.0019194839, -0.008624442, 0.46131134, 0
622, 466841376, 0.6982445, 0.0032058326, 0.0018282564, -0.71584994, 0.011539857, 0.004938749, 0.445714, 0
623, 466858043, 0.6982228, 0.0032092398, 0.0018324181, -0.7158711, 0.0019652096, 0.0073208264, 0.4494028, 0
624, 466874710, 0.6982054, 0.0032224164, 0.0018292121, -0.7158879, -0.00844546, -0.003838643, 0.43654823, 0
625, 466891377, 0.69818735, 0.0032367422, 0.0018304025, -0.7159055, 0.021977197, -0.0071322056, 0.45221996, 0
626, 466908044, 0.69817126, 0.003244892, 0.0018259626, -0.7159212, 0.01919651, 0.003138829, 0.44891834, 0
627, 466924711, 0.6981668, 0.0032426105, 0.0018204573, -0.7159255, -0.0016461747, 4.806838E-4, 0.43075943, 0
628, 466941378, 0.69816226, 0.003245556, 0.0018115137, -0.7159299, 0.005018769, 0.0056443587, 0.45468235, 0
629, 466958045, 0.6981479, 0.003250852, 0.0018149165, -0.715944, -0.0016292968, 0.0030321996, 0.4649887, 0
630, 466974712, 0.69813913, 0.003249165, 0.0018116682, -0.7159525, 0.014489645, -0.022122083, 0.4650545, 0
631, 466991379, 0.69811755, 0.0032556108, 0.0018024329, -0.7159735, 0.01829444, -0.018209726, 0.44583225, 0
632, 467008046, 0.69811726, 0.0032449267, 0.0018012621, -0.7159738, 0.012345468, 0.005686393, 0.4466133, 0
633, 467024713, 0.6980953, 0.003245183, 0.0017950297, -0.7159952, 0.006822347, -0.005433455, 0.44906998, 0
634, 467041380, 0.69808704, 0.003244987, 0.0018007266, -0.7160033, 0.0044874223, -0.00689315, 0.44412994, 0
635, 467058047, 0.69807786, 0.0032517198, 0.001795212, -0.7160122, 0.010003627, 0.0070010335, 0.45307732, 0
636, 467074714, 0.6980687, 0.0032536075, 0.0017824894, -0.7160212, 0.012389084, 0.012895791, 0.43093395, 0
637, 467091381, 0.6980679, 0.0032544886, 0.0017781309, -0.71602196, 0.0035555873, 0.00959414, 0.47480488, 0
638, 467108048, 0.69806415, 0.0032656628, 0.0017730085, -0.71602565, 0.0080729965, 0.0043550907, 0.43632793, 0
639, 467124715, 0.69805515, 0.0032595026, 0.0017668891, -0.7160344, 0.0026869252, 0.0046870806, 0.46181202, 0
640, 467141382, 0.6980519, 0.003258436, 0.0017640876, -0.7160375, 0.009812008, -0.0048611625, 0.44442368, 0
641, 467158049, 0.6980298, 0.0032610649, 0.0017798805, -0.7160592, 0.008616341, -0.013305216, 0.458066, 0
642, 467174716, 0.69801974, 0.0032726685, 0.0017805847, -0.716069, 0.005009463, 0.0049407836, 0.45711613, 0
643, 467191383, 0.698015, 0.0032719376, 0.001792795, -0.7160736, 0.009288186, 0.006786007, 0.44622135, 0
644, 467208050, 0.69801784, 0.0032648095, 0.0017843131, -0.7160707, 0.023384575, 0.015298266, 0.42427635, 0
645, 467224717, 0.6979962, 0.003274009, 0.0017828014, -0.7160918, 0.008767201, -0.003417513, 0.44721603, 0
646, 467241384, 0.6979881, 0.0032766187, 0.0017742538, -0.7160997, 0.0050221947, -0.011651218, 0.43190765, 0
647, 467258051, 0.6979673, 0.0032747725, 0.0017767564, -0.71612, 0.015816385, -0.0029083872, 0.43540668, 0
648, 467274718, 0.6979578, 0.0032731409, 0.0017726083, -0.71612924, 0.021670777, 0.0011906535, 0.4516201, 0
649, 467291385, 0.6979462, 0.00326683, 0.0017665992, -0.71614057, 0.021010898, 0.0041168416, 0.4540062, 0
650, 467308052, 0.69794434, 0.0032575266, 0.0017671223, -0.7161425, 0.02427062, 0.008092756, 0.45804405, 0
651, 467324719, 0.6979406, 0.003256302, 0.0017730118, -0.7161461, 0.020693716, 0.010753042, 0.43764973, 0
652, 467341386, 0.6979422, 0.0032466727, 0.0017728081, -0.71614456, 0.012009576, -0.006245942, 0.4755125, 0
653, 467358053, 0.6979532, 0.003248714, 0.0017760169, -0.71613383, 5.0229296E-6, 0.008036995, 0.46363354, 0
654, 467374720, 0.6979421, 0.0032480583, 0.0017672656, -0.7161447, -0.00328631, -3.9889727E-4, 0.43838596, 0
655, 467391387, 0.6979286, 0.003248184, 0.0017630709, -0.7161578, 0.005158453, 0.0011474317, 0.4270916, 0
656, 467408054, 0.69791937, 0.0032383793, 0.001769808, -0.7161669, -0.006260792, 0.0042073242, 0.4658947, 0
657, 467424721, 0.6979099, 0.0032378463, 0.0017746419, -0.71617603, 0.020561242, -7.103189E-4, 0.4393816, 0
658, 467441388, 0.6979015, 0.0032267752, 0.0017692441, -0.71618426, -9.900131E-4, -7.0713036E-4, 0.42756844, 0
659, 467458055, 0.6978825, 0.0032349667, 0.0017671012, -0.71620286, 0.014686162, -0.019262256, 0.44573784, 0
660, 467474722, 0.6978819, 0.0032325638, 0.0017544582, -0.7162035, -0.0025607548, 0.0064141303, 0.45452976, 0
661, 467491389, 0.69787043, 0.0032279368, 0.0017625544, -0.7162148, 0.0028505279, 0.010574134, 0.43912792, 0
662, 467508056, 0.69784987, 0.003227637, 0.0017584546, -0.71623474, 0.0043801675, 0.011219545, 0.43956184, 0
663, 467524723, 0.69783795, 0.0032281177, 0.0017562701, -0.7162463, -0.0028171705, -0.0027796996, 0.45971107, 0
664, 467541390, 0.69782716, 0.0032257917, 0.001756583, -0.71625686, 0.0068843686, -0.0041254694, 0.44114017, 0
665, 467558057, 0.69781005, 0.0032295848, 0.0017462994, -0.71627337, 0.009587227, 0.011344728, 0.44532585, 0
666, 467574724, 0.69780165, 0.0032313436, 0.0017399141, -0.71628165, 0.00460592, 0.0074527757, 0.42938042, 0
667, 467591391, 0.69779396, 0.003240084, 0.0017479392, -0.71628916, 0.0011692905, 0.005042318, 0.4578085, 0
668, 467608058, 0.69778246, 0.0032411644, 0.0017443965, -0.71630037, -4.7099942E-4, 0.008662809, 0.45316315, 0
669, 467624725, 0.697772, 0.0032525691, 0.0017523288, -0.71631044, 0.026125439, 0.0035693971, 0.4488592, 0
670, 467641392, 0.69775605, 0.0032568604, 0.0017586353, -0.71632594, 0.0044189803, 0.0073531643, 0.45373344, 0
671, 467658059, 0.6977439, 0.0032495453, 0.0017557634, -0.71633774, -0.00258718, 0.0035589286, 0.46024704, 0
672, 467674726, 0.697724, 0.0032403918, 0.0017536902, -0.71635723, -0.004353161, 0.017296545, 0.43685818, 0
673, 467691393, 0.697712, 0.003233054, 0.0017556208, -0.716369, 0.005011975, 0.012220856, 0.445179, 0
674, 467708060, 0.69769937, 0.003238261, 0.0017523117, -0.71638125, 0.012468827, 4.6489472E-4, 0.45841122, 0
675, 467724727, 0.69769114, 0.003232114, 0.0017420123, -0.7163893, 0.00436514, 0.009339986, 0.45978928, 0
676, 467741394, 0.6976839, 0.0032413811, 0.0017461875, -0.71639633, -0.0028776962, -0.0052227224, 0.44445705, 0
677, 467758061, 0.6976721, 0.0032397315, 0.0017529879, -0.7164078, 0.010078405, -0.0024383673, 0.45554543, 0
678, 467774728, 0.697655, 0.003242783, 0.001750382, -0.7164244, 0.001534983, -0.010446128, 0.4601202, 0
679, 467791395, 0.69763803, 0.003233959, 0.0017525251, -0.716441, 2.2698702E-4, -0.0037101945, 0.45685387, 0
680, 467808062, 0.697623, 0.0032372812, 0.0017515905, -0.71645564, 0.017739382, 0.009601891, 0.44533634, 0
681, 467824729, 0.6976159, 0.0032347825, 0.0017574667, -0.71646243, 0.03012866, 0.0039961287, 0.43362236, 0
682, 467841396, 0.69760275, 0.0032348372, 0.0017695316, -0.7164753, 0.017263722, 0.005729056, 0.46127605, 0
683, 467858063, 0.6976023, 0.003242031, 0.0017618337, -0.71647567, -0.004472437, 0.0034525278, 0.45513058, 0
684, 467874730, 0.6975994, 0.0032383017, 0.0017628637, -0.7164785, 0.004826544, -0.007193794, 0.4474163, 0
685, 467891397, 0.6975977, 0.0032284362, 0.001769005, -0.71648026, 6.476707E-4, -0.0028169146, 0.45646667, 0
686, 467908064, 0.6975906, 0.0032297578, 0.0017671054, -0.71648717, 0.0051456867, -6.3861844E-5, 0.43474197, 0
687, 467924731, 0.6975786, 0.0032344495, 0.0017728857, -0.71649885, 0.015628941, -0.0027178896, 0.45467186, 0
688, 467941398, 0.6975563, 0.003233806, 0.0017781856, -0.7165206, 0.002882912, 0.0040580854, 0.44740677, 0
689, 467958065, 0.6975434, 0.0032334349, 0.0017791865, -0.7165331, 0.009278032, 0.014907607, 0.44519234, 0
690, 467974732, 0.6975431, 0.0032307527, 0.0017882922, -0.7165334, 0.003937876, 0.013563157, 0.45945644, 0
691, 467991399, 0.69752836, 0.0032339029, 0.0017920595, -0.7165477, 0.016119247, 0.0063222907, 0.44630337, 0
692, 468008066, 0.6975204, 0.0032381108, 0.0017881099, -0.7165555, 0.009186658, 7.7616796E-4, 0.45991802, 0
693, 468024733, 0.697505, 0.00322379, 0.0017825463, -0.7165705, 0.0064219697, 0.0030928028, 0.44974422, 0
694, 468041400, 0.6974934, 0.003225613, 0.0017822366, -0.7165818, 0.004446745, 0.005759529, 0.4298315, 0
695, 468058067, 0.6974945, 0.0032322712, 0.0017825717, -0.71658075, 0.009529904, 0.0013670035, 0.4182825, 0
696, 468074734, 0.69747496, 0.003240467, 0.0017803302, -0.71659964, 0.010544079, 0.0021010882, 0.4471836, 0
697, 468091401, 0.69746524, 0.0032389122, 0.0017741993, -0.7166091, 0.0246942, 0.009190645, 0.4688797, 0
698, 468108068, 0.6974494, 0.0032335354, 0.0017684718, -0.71662456, 0.0016290069, -0.011489555, 0.47935486, 0
699, 468124735, 0.6974371, 0.0032301939, 0.0017683, -0.7166365, -0.004371341, -0.0069130827, 0.4382267, 0
700, 468141402, 0.6974306, 0.0032234339, 0.0017657572, -0.7166429, 0.0064361175, -0.0063334038, 0.4373541, 0
701, 468158069, 0.6974176, 0.003221993, 0.0017696051, -0.71665555, 0.004604173, 0.0137896845, 0.43890667, 0
702, 468174736, 0.6974088, 0.003226569, 0.0017675237, -0.7166641, 0.015898451, 0.015205191, 0.46404934, 0
703, 468191403, 0.69740367, 0.0032262977, 0.0017686947, -0.7166692, 0.010645529, 0.007500908, 0.45536327, 0
704, 468208070, 0.69739795, 0.0032360265, 0.0017702767, -0.71667475, 0.012480651, 0.0011986074, 0.4442501, 0
705, 468224737, 0.69737625, 0.0032373813, 0.0017665827, -0.71669585, 0.0019343658, 0.001500205, 0.44808865, 0
706, 468241404, 0.69737023, 0.0032396757, 0.0017619395, -0.71670157, 0.003833509, 0.004989162, 0.43866825, 0
707, 468258071, 0.69736767, 0.0032340216, 0.0017542611, -0.71670425, 0.004853542, 0.0034907712, 0.4714861, 0
708, 468274738, 0.6973682, 0.0032343813, 0.0017567138, -0.7167037, 0.012349213, 0.0106985085, 0.4411993, 0
709, 468291405, 0.6973425, 0.003248453, 0.001760313, -0.7167285, 0.015671272, -3.3771412E-5, 0.4446907, 0
710, 468308072, 0.6973319, 0.0032522988, 0.0017611671, -0.7167389, 0.0087897405, -5.730872E-4, 0.42807007, 0
711, 468324739, 0.6973153, 0.0032568949, 0.0017594271, -0.71675503, 0.01401819, -0.0047567296, 0.42244625, 0
712, 468341406, 0.6973073, 0.0032552634, 0.0017618934, -0.7167628, 0.0023764272, -0.0014717001, 0.4476347, 0
713, 468358073, 0.6972986, 0.0032482112, 0.0017502656, -0.7167713, 0.009958679, 0.0022221622, 0.44056892, 0
714, 468374740, 0.69728845, 0.0032490978, 0.0017503003, -0.71678114, 0.01744849, 0.012786455, 0.45757008, 0
715, 468391407, 0.69727725, 0.0032472957, 0.0017383437, -0.7167921, 4.4829014E-4, -2.1338502E-4, 0.4443512, 0
716, 468408074, 0.69726664, 0.0032510054, 0.0017301049, -0.7168024, 0.003928078, 0.0021000823, 0.47343254, 0
717, 468424741, 0.69726396, 0.0032509777, 0.0017298588, -0.716805, 0.0052542603, -0.0035849349, 0.46256256, 0
718, 468441408, 0.69726354, 0.0032457558, 0.0017303863, -0.7168055, -0.002633159, 0.017732363, 0.45681572, 0
719, 468458075, 0.6972919, 0.0032642302, 0.0017777834, -0.71677774, -0.009117011, 0.016157238, 0.4429636, 0
720, 468474742, 0.6972891, 0.0032631576, 0.0017793643, -0.71678036, 0.0061458643, 0.0038684907, 0.4519291, 0
721, 468491409, 0.6972765, 0.0032609508, 0.0017677654, -0.71679276, 0.009979407, -0.0100735715, 0.46212673, 0
722, 468508076, 0.69727093, 0.00325592, 0.0017613263, -0.7167982, 0.012493783, -0.0036964312, 0.44935608, 0
723, 468524743, 0.69726384, 0.003268632, 0.0017628855, -0.716805, 0.00854233, -0.0057525164, 0.46773434, 0
724, 468541410, 0.69726175, 0.0032712433, 0.0017672136, -0.716807, -0.001308258, -0.0030237427, 0.46104336, 0
725, 468558077, 0.6972536, 0.003268959, 0.0017662352, -0.716815, 0.011987233, 0.009553093, 0.4758768, 0
726, 468574744, 0.69724333, 0.0032707776, 0.0017699448, -0.71682495, 0.012370012, -0.0031890795, 0.45427132, 0
727, 468591411, 0.6972318, 0.0032853908, 0.0017708625, -0.71683604, 0.012112337, -0.0048019853, 0.44698143, 0
728, 468608078, 0.69722056, 0.003291768, 0.001765292, -0.716847, -0.004551767, 0.004121359, 0.46391487, 0
729, 468624745, 0.6972189, 0.00329591, 0.0017705904, -0.7168487, -0.007390814, 0.011934506, 0.45008564, 0
730, 468641412, 0.6972126, 0.0033053057, 0.0017694486, -0.7168548, -0.003018628, 0.012748641, 0.46860695, 0
731, 468658079, 0.6971976, 0.0033062864, 0.0017681599, -0.7168693, 0.006350615, -0.0028793113, 0.4383917, 0
732, 468674746, 0.69719124, 0.0032940353, 0.0017710263, -0.7168755, 5.33377E-4, 0.003435373, 0.4494524, 0
733, 468691413, 0.69718933, 0.0032897445, 0.0017603103, -0.71687746, 0.0060404516, 6.2595675E-4, 0.46291542, 0
734, 468708080, 0.6971711, 0.0032845237, 0.0017484562, -0.71689516, -0.0073329248, 0.001966336, 0.45557117, 0
735, 468724747, 0.6971602, 0.0032928607, 0.0017440219, -0.7169058, 0.0040663723, 0.012786698, 0.4568529, 0
736, 468741414, 0.69715077, 0.0032873861, 0.0017404694, -0.71691495, 0.002249884, 0.0146781495, 0.4387064, 0
737, 468758081, 0.69713855, 0.003280964, 0.0017342252, -0.7169268, 0.018006854, -0.002606292, 0.44053745, 0
738, 468774748, 0.6971358, 0.0032795623, 0.0017445926, -0.71692955, 0.012207403, -0.0034258459, 0.4216709, 0
739, 468791415, 0.6971292, 0.0032801405, 0.001738941, -0.716936, 0.003857294, 0.0063821035, 0.4373474, 0
740, 468808082, 0.6971211, 0.0032839896, 0.0017443782, -0.7169439, -0.0021525188, 0.004100761, 0.43985653, 0
741, 468824749, 0.69711256, 0.0032828462, 0.001741407, -0.71695215, 0.0122394655, -0.005219555, 0.4336195, 0
742, 468841416, 0.6971004, 0.0032732598, 0.0017363938, -0.71696407, 0.018496787, -0.0020197625, 0.45365143, 0
743, 468858083, 0.69710183, 0.0032751085, 0.0017378995, -0.7169627, 0.0021956202, 0.0034088013, 0.45565605, 0
744, 468874750, 0.6970956, 0.0032734151, 0.0017451877, -0.71696866, 0.004444014, 0.0120941885, 0.45164585, 0
745, 468891417, 0.6970943, 0.0032677795, 0.0017488411, -0.7169699, 0.00279921, 0.009579203, 0.43248177, 0
746, 468908084, 0.6970796, 0.0032708673, 0.0017462549, -0.7169842, 0.00959654, 0.008275051, 0.45228386, 0
747, 468924751, 0.6970697, 0.0032751583, 0.0017435917, -0.7169938, 0.0057401787, -0.0018675346, 0.46172047, 0
748, 468941418, 0.6970624, 0.0032788347, 0.0017420016, -0.7170009, -0.0044563552, 0.0070699137, 0.44575787, 0
749, 468958085, 0.69705236, 0.0032780673, 0.0017278623, -0.7170106, -7.1407936E-4, 0.0043809097, 0.46597862, 0
750, 468974752, 0.69705147, 0.0032743304, 0.0017251336, -0.7170115, 0.0037125144, 0.021497937, 0.4384489, 0
751, 468991419, 0.6970464, 0.0032711676, 0.0017270859, -0.7170164, 0.019130282, 0.0046555987, 0.43907166, 0
752, 469008086, 0.6970377, 0.0032895585, 0.001733744, -0.71702486, 0.0149803115, -0.0054863333, 0.42825317, 0
753, 469024753, 0.69702595, 0.003297432, 0.0017497521, -0.71703625, 0.0025060535, 9.282528E-4, 0.4650793, 0
754, 469041420, 0.69701827, 0.003297032, 0.0017459295, -0.7170437, -0.012492393, 0.02016439, 0.46229458, 0
755, 469058087, 0.69700855, 0.003285387, 0.0017399888, -0.7170532, -3.1876614E-4, 0.013356466, 0.4684391, 0
756, 469074754, 0.6970046, 0.0032804778, 0.0017435813, -0.717057, 0.03141805, 0.001159924, 0.45296764, 0
757, 469091421, 0.6969899, 0.0032626418, 0.0017411993, -0.7170715, 0.017494358, -0.017691925, 0.45761395, 0
758, 469108088, 0.6969843, 0.0032560972, 0.0017345306, -0.71707696, 0.016264526, 0.0026766392, 0.442688, 0
759, 469124755, 0.6969738, 0.0032632342, 0.001733303, -0.71708715, 0.00837157, 0.01510741, 0.4233408, 0
760, 469141422, 0.6969536, 0.0032637352, 0.0017311156, -0.71710676, 0.016738784, 0.023715341, 0.43385887, 0
761, 469158089, 0.69694364, 0.003262762, 0.0017363229, -0.7171164, 0.018257886, 0.011534113, 0.46816826, 0
762, 469174756, 0.6969377, 0.0032707537, 0.0017237791, -0.7171221, 0.002254789, -0.020590838, 0.43224335, 0
763, 469191423, 0.69692105, 0.0032814115, 0.0017150926, -0.7171383, -0.01446671, -0.03453125, 0.44089794, 0
764, 469208090, 0.69692117, 0.003282523, 0.0017087607, -0.7171382, -0.01887213, 0.0011656794, 0.4592886, 0
765, 469224757, 0.6969223, 0.0032807097, 0.0017051876, -0.7171371, 0.001755139, 0.022641348, 0.46859264, 0
766, 469241424, 0.6969169, 0.0032768254, 0.0016974626, -0.71714246, 0.02764839, 0.010077541, 0.4345255, 0
767, 469258091, 0.69690746, 0.00327705, 0.0016988667, -0.7171516, 0.03323957, -5.9338147E-4, 0.42906857, 0
768, 469274758, 0.69689375, 0.0032663336, 0.0017055299, -0.71716493, -0.002709128, -0.0069304975, 0.4479742, 0
769, 469291425, 0.6968968, 0.00326482, 0.0017023076, -0.717162, -0.016166143, -0.004440099, 0.4429741, 0
770, 469308092, 0.6968947, 0.0032622986, 0.0017044578, -0.71716404, -0.011245628, 0.017407633, 0.44408607, 0
771, 469324759, 0.69688094, 0.0032618444, 0.0017055101, -0.71717745, 0.01492214, 0.013557992, 0.44753742, 0
772, 469341426, 0.6968681, 0.0032652826, 0.0017013644, -0.71718985, -6.692807E-4, 0.0070769354, 0.43648338, 0
773, 469358093, 0.69686043, 0.003270826, 0.0017067326, -0.71719736, 0.0071549998, 9.260089E-4, 0.4505005, 0
774, 469374760, 0.6968572, 0.0032626947, 0.001699513, -0.71720046, 0.015001406, 0.005669235, 0.43368626, 0
775, 469391427, 0.6968552, 0.0032694866, 0.0016974846, -0.7172024, 0.014687106, -0.005256082, 0.45215416, 0
776, 469408094, 0.69684786, 0.0032667606, 0.0016946049, -0.7172095, -0.0024337173, -0.0025678093, 0.44122696, 0
777, 469424761, 0.6968344, 0.0032813214, 0.0016913601, -0.7172225, -0.0073517472, 0.008028554, 0.45020008, 0
778, 469441428, 0.69681746, 0.0032831081, 0.0016887083, -0.71723896, 0.007316362, -0.00371906, 0.4340067, 0
779, 469458095, 0.6968072, 0.0032802334, 0.0016736134, -0.7172491, 0.009439577, 0.008969689, 0.45952225, 0
780, 469474762, 0.6967977, 0.0032814045, 0.0016705358, -0.7172582, 0.00856586, -6.6329216E-5, 0.44111252, 0
781, 469491429, 0.6967812, 0.0032823542, 0.0016725003, -0.71727425, 8.5738175E-6, -0.0010679606, 0.45207405, 0
782, 469508096, 0.69677097, 0.003282244, 0.001670442, -0.7172842, -0.0028717609, -0.003431116, 0.4662857, 0
783, 469524763, 0.6967657, 0.0032804129, 0.001666603, -0.7172893, -0.010902933, 0.011043227, 0.45723057, 0
784, 469541430, 0.69677055, 0.003277161, 0.001664021, -0.71728474, -0.006394561, 0.022306995, 0.4719324, 0
785, 469558097, 0.69675255, 0.0032805495, 0.0016657102, -0.71730226, 8.813727E-4, -0.0049994346, 0.44545174, 0
786, 469574764, 0.69673604, 0.0032759134, 0.0016622592, -0.7173183, 0.011339846, -0.012965109, 0.45027924, 0
787, 469591431, 0.69672686, 0.0032802508, 0.001653163, -0.7173271, -0.008225693, 0.009865532, 0.44100094, 0
788, 469608098, 0.6967177, 0.0032793737, 0.0016513657, -0.717336, 0.00905479, 0.004997102, 0.45703602, 0
789, 469624765, 0.6967106, 0.0032885375, 0.0016421321, -0.7173429, 0.008718262, 0.0020601277, 0.46424007, 0
790, 469641432, 0.69670355, 0.0032864914, 0.0016441726, -0.71734977, 0.004311508, -0.0034026094, 0.4667778, 0
791, 469658099, 0.696699, 0.003278421, 0.0016460264, -0.7173542, -0.007815125, -0.004887757, 0.45261955, 0
792, 469674766, 0.69669366, 0.0032818762, 0.0016619072, -0.7173594, 0.014390597, 0.008724247, 0.43256378, 0
793, 469691433, 0.696687, 0.003287977, 0.0016651666, -0.7173659, 0.016485345, 0.001867456, 0.43604565, 0
794, 469708100, 0.6966811, 0.0032898225, 0.001669717, -0.7173715, 0.0037759955, 0.005771052, 0.46125603, 0
795, 469724767, 0.6966739, 0.0032762948, 0.0016657392, -0.71737856, 0.010446564, 2.4784793E-4, 0.4496765, 0
796, 469741434, 0.69666487, 0.0032762983, 0.0016630982, -0.7173873, 0.0062830206, 0.0070000696, 0.4462843, 0
797, 469758101, 0.69665575, 0.0032790194, 0.0016623234, -0.7173962, 0.013833146, -0.0060709766, 0.4396553, 0
798, 469774768, 0.6966435, 0.003278451, 0.0016617586, -0.7174082, -0.0024427618, -0.0017874034, 0.4503088, 0
799, 469791435, 0.69663876, 0.0032699602, 0.0016467557, -0.71741277, 0.012687821, 2.840937E-4, 0.4620924, 0
800, 469808102, 0.69663197, 0.0032701562, 0.0016536305, -0.7174194, -6.98134E-4, 0.005931812, 0.46083355, 0
801, 469824769, 0.6966242, 0.0032697795, 0.0016500975, -0.7174269, 0.01197901, 0.0013946755, 0.4544468, 0
802, 469841436, 0.69661254, 0.003261276, 0.0016577776, -0.7174383, 0.0059025083, -0.010270652, 0.44880104, 0
803, 469858103, 0.69660056, 0.0032658582, 0.0016585309, -0.7174499, 0.0057885987, 0.00248724, 0.4484768, 0
804, 469874770, 0.6965924, 0.0032646258, 0.0016516286, -0.71745783, 0.0028483628, 0.004950241, 0.43098927, 0
805, 469891437, 0.6965785, 0.0032701793, 0.0016457634, -0.7174713, -0.00928451, 0.004283018, 0.438282, 0
806, 469908104, 0.6965685, 0.003274657, 0.0016530387, -0.71748096, -0.0037951828, 0.0015283816, 0.4301014, 0
807, 469924771, 0.6965536, 0.003273694, 0.0016647901, -0.7174955, 0.009410977, -0.0011641777, 0.44789314, 0
808, 469941438, 0.696551, 0.0032684326, 0.0016618564, -0.7174979, 0.013942008, 1.2783195E-4, 0.428133, 0
809, 469958105, 0.69653887, 0.003272744, 0.0016499175, -0.7175096, -0.013469223, 0.00660658, 0.4365692, 0
810, 469974772, 0.6965294, 0.0032796804, 0.0016420032, -0.71751887, -0.003331203, 0.0034422094, 0.4239397, 0
811, 469991439, 0.69652563, 0.0032767765, 0.001634423, -0.71752256, -0.00827028, -0.0068966965, 0.41556358, 0
812, 470008106, 0.69651246, 0.0032806604, 0.0016330974, -0.7175354, 0.0052825045, 0.00790287, 0.43560982, 0
813, 470024773, 0.6965119, 0.0032731362, 0.0016332056, -0.7175359, 0.010181403, -0.0016229678, 0.4468689, 0
814, 470041440, 0.6965031, 0.0032732286, 0.0016400228, -0.71754444, 0.0073488746, 0.013245262, 0.4517231, 0
815, 470058107, 0.6964956, 0.0032725823, 0.0016349863, -0.7175517, 0.00852452, -0.0068640634, 0.45320797, 0
816, 470074774, 0.69650024, 0.003268313, 0.0016244062, -0.71754736, -0.0012672504, 0.007839514, 0.43910122, 0
817, 470091441, 0.6964936, 0.0032721946, 0.0016190393, -0.7175537, 0.011423209, 0.0039061038, 0.44820595, 0
818, 470108108, 0.6964754, 0.0032769076, 0.0016280608, -0.7175714, 0.023265177, 0.005820595, 0.42381096, 0
819, 470124775, 0.69646436, 0.0032797982, 0.0016338163, -0.71758205, 0.008548586, 7.0146396E-4, 0.4452629, 0
820, 470141442, 0.69644517, 0.0032695266, 0.0016316727, -0.71760076, 0.016750509, 0.0045012683, 0.44330883, 0
821, 470158109, 0.69643867, 0.0032759763, 0.0016295422, -0.7176071, 0.0052826353, -0.00842897, 0.44303894, 0
822, 470174776, 0.69643503, 0.0032753618, 0.0016277499, -0.71761054, 0.010180231, 0.012807664, 0.4457693, 0
823, 470191443, 0.6964248, 0.0032794452, 0.0016212927, -0.7176205, -0.0040078186, 0.014266225, 0.44109917, 0
824, 470208110, 0.6964228, 0.003277214, 0.0016316769, -0.71762246, 0.0042653694, 0.0035069007, 0.46961212, 0
825, 470224777, 0.6964118, 0.0032816029, 0.0016386188, -0.7176331, -1.3625035E-4, -0.0061958404, 0.467268, 0
826, 470241444, 0.6964031, 0.0032927638, 0.0016453977, -0.71764153, 2.509422E-4, -0.007194594, 0.45239067, 0
827, 470258111, 0.69639057, 0.0032916928, 0.0016429833, -0.71765363, 0.0075287353, 0.008217123, 0.43465996, 0
828, 470274778, 0.6963873, 0.0032786527, 0.0016367623, -0.7176569, 0.0065151863, 0.003927671, 0.44102192, 0
829, 470291445, 0.69638634, 0.0032788229, 0.0016414702, -0.7176578, 0.004897085, -0.006444331, 0.45319557, 0
830, 470308112, 0.6963775, 0.0032767504, 0.0016389787, -0.7176663, 0.010702137, -1.3157054E-4, 0.447196, 0
831, 470324779, 0.69636464, 0.0032780648, 0.001642207, -0.71767884, 0.011149615, 0.004469611, 0.44236374, 0
832, 470341446, 0.6963546, 0.003279299, 0.0016454421, -0.71768856, 0.0031393417, 0.01069379, 0.45994663, 0
833, 470358113, 0.6963533, 0.003283913, 0.0016459852, -0.7176898, 0.009756333, 0.012153863, 0.4348793, 0
834, 470374780, 0.69635105, 0.003292288, 0.001649548, -0.717692, 0.0010967501, -0.004382558, 0.44396496, 0
835, 470391447, 0.69634825, 0.0032830976, 0.0016438576, -0.71769476, 0.0066040675, 0.0026923446, 0.4354639, 0
836, 470408114, 0.6963356, 0.003267917, 0.001645404, -0.71770716, 0.01969094, 0.013165203, 0.45988178, 0
837, 470424781, 0.6963317, 0.0032764804, 0.001642701, -0.71771085, 0.012399748, 0.023302382, 0.4505043, 0
838, 470441448, 0.6963299, 0.0032833237, 0.0016521964, -0.71771246, 0.0012331672, -0.003969197, 0.43766212, 0
839, 470458115, 0.6963595, 0.0032780683, 0.0017243518, -0.71768355, -0.010071323, -0.0027416605, 0.46385002, 0
840, 470474782, 0.69636047, 0.0032853137, 0.0017206317, -0.7176826, 0.017368056, 0.0050662654, 0.43644333, 0
841, 470491449, 0.6963528, 0.0032807873, 0.0017209371, -0.71769017, 0.033011947, -0.0070217643, 0.43376827, 0
842, 470508116, 0.6963437, 0.0032790161, 0.0017287054, -0.71769893, 0.011109225, 0.0018182517, 0.4353819, 0
843, 470524783, 0.69632983, 0.003276704, 0.0017198661, -0.7177124, -4.4972816E-4, -0.0018440308, 0.46774483, 0
844, 470541450, 0.6963262, 0.0032732945, 0.0017140516, -0.7177159, -0.003591691, 0.004211576, 0.4465599, 0
845, 470558117, 0.6963351, 0.0032662672, 0.0017092782, -0.71770734, 0.01209847, 0.0012334265, 0.44347286, 0
846, 470574784, 0.69633096, 0.003272077, 0.001710652, -0.71771145, 0.01520558, 0.008044757, 0.44756222, 0
847, 470591451, 0.69632125, 0.0032753139, 0.0017150333, -0.7177208, 0.011709097, -0.014992114, 0.43876362, 0
848, 470608118, 0.69631183, 0.0032738526, 0.0017147771, -0.71773, -0.0024344884, 0.013449434, 0.43599224, 0
849, 470624785, 0.6963128, 0.0032775707, 0.0017211087, -0.717729, 0.0028179912, 0.0061473604, 0.4362564, 0
850, 470641452, 0.6963077, 0.0032757388, 0.0017313261, -0.7177339, 0.0037941954, 6.4689014E-4, 0.4375906, 0
851, 470658119, 0.696293, 0.0032854634, 0.0017369025, -0.717748, 0.005537557, -0.0016362021, 0.4581089, 0
852, 470674786, 0.69629526, 0.003287841, 0.0017431652, -0.7177459, 0.024331974, -8.030751E-4, 0.452178, 0
853, 470691453, 0.6962869, 0.0032883622, 0.0017430271, -0.717754, 0.0046469653, 0.019463481, 0.4591589, 0
854, 470708120, 0.69627994, 0.00328624, 0.001737605, -0.71776074, -0.00636416, 0.003740367, 0.44325733, 0
855, 470724787, 0.6962697, 0.003295518, 0.0017257741, -0.71777064, -0.003657772, -0.017420044, 0.42798805, 0
856, 470741454, 0.6962546, 0.0032929252, 0.00171976, -0.71778524, -0.0060837204, -0.0015352546, 0.45102882, 0
857, 470758121, 0.6962426, 0.0032900788, 0.001720122, -0.7177969, 0.0029916475, -0.0017945418, 0.43133545, 0
858, 470774788, 0.696236, 0.0032913496, 0.0017223095, -0.7178034, 0.013902257, -0.0067395703, 0.44758797, 0
859, 470791455, 0.6962438, 0.0032879713, 0.0017268427, -0.71779585, 0.023193883, -0.0022072864, 0.45054722, 0
860, 470808122, 0.6962359, 0.0032852574, 0.0017256257, -0.7178035, 0.011247661, -0.0023597118, 0.42765427, 0
861, 470824789, 0.6962292, 0.0032774762, 0.0017264009, -0.7178099, 0.025825685, -0.0030096036, 0.4362173, 0
862, 470841456, 0.6962216, 0.0032740983, 0.0017281398, -0.71781737, 0.0153887095, -0.005933127, 0.43873978, 0
863, 470858123, 0.69621694, 0.0032756631, 0.0017190112, -0.717822, -0.006583087, -0.0052652946, 0.43812943, 0
864, 470874790, 0.6962174, 0.0032862884, 0.001724758, -0.7178215, 0.0018755897, -0.010712982, 0.43371964, 0
865, 470891457, 0.69621456, 0.0032963923, 0.0017234298, -0.71782416, -0.0074967877, 0.0046427045, 0.4662714, 0
866, 470908124, 0.69619924, 0.0033056578, 0.001725429, -0.717839, 0.006393213, 0.021058215, 0.43660164, 0
867, 470924791, 0.69619733, 0.0033112492, 0.0017296207, -0.71784085, 0.0036193985, -0.0062479484, 0.42227554, 0
868, 470941458, 0.69619775, 0.0033169747, 0.0017365265, -0.71784043, 0.0074777254, -0.009924444, 0.44757938, 0
869, 470958125, 0.696181, 0.0033109707, 0.0017292469, -0.71785665, 0.0027247416, -0.009708978, 0.44874668, 0
870, 470974792, 0.6961758, 0.0033070173, 0.001740845, -0.7178618, -0.011102961, 0.007455947, 0.4510355, 0
871, 470991459, 0.69616127, 0.0033065442, 0.0017435602, -0.7178758, 0.005836561, 0.010401778, 0.4303236, 0
872, 471008126, 0.6961557, 0.0032981797, 0.0017403483, -0.71788114, 0.011070268, 0.0046406146, 0.4374447, 0
873, 471024793, 0.69614977, 0.0033055644, 0.0017460311, -0.71788687, 0.017124519, -0.003256816, 0.4345932, 0
874, 471041460, 0.69614685, 0.0033139896, 0.0017484137, -0.71788967, 0.013408601, -0.007927641, 0.47105885, 0
875, 471058127, 0.69615525, 0.0033114844, 0.0017505973, -0.71788144, 0.0025411048, -0.008501621, 0.45191193, 0
876, 471074794, 0.69614923, 0.0033337784, 0.0017562085, -0.7178871, 0.013027131, 9.830815E-4, 0.42390442, 0
877, 471091461, 0.69613975, 0.0033588323, 0.0017690461, -0.7178963, 0.010839159, 0.00169756, 0.44767475, 0
878, 471108128, 0.69613683, 0.0033649504, 0.0017785085, -0.7178991, 0.0066147707, 0.0032731674, 0.46655273, 0
879, 471124795, 0.69613856, 0.003360274, 0.0017758547, -0.7178974, 0.0040430995, 0.00360086, 0.49363804, 0
880, 471141462, 0.696135, 0.0033564558, 0.001769753, -0.7179009, 0.0053894673, 0.007049515, 0.46700668, 0
881, 471158129, 0.6961254, 0.0033472746, 0.0017529704, -0.7179103, 0.005820666, -3.3320716E-4, 0.4437914, 0
882, 471174796, 0.69611573, 0.0033354142, 0.0017340654, -0.71791977, -0.013370286, 0.013906809, 0.43943024, 0
883, 471191463, 0.6961077, 0.0033293003, 0.0017354178, -0.7179276, 0.0074772905, 0.0060362467, 0.43655205, 0
884, 471208130, 0.6960994, 0.0033245203, 0.0017486381, -0.71793574, 0.022163372, 3.7175792E-4, 0.4360094, 0
885, 471224797, 0.69609237, 0.0033291024, 0.0017688557, -0.7179424, 0.028135547, -0.008118598, 0.44303322, 0
886, 471241464, 0.69607687, 0.0033322687, 0.0017741031, -0.7179573, 0.0016637467, -0.011657946, 0.4500351, 0
887, 471258131, 0.6960657, 0.003335873, 0.0017825001, -0.7179681, -0.02602118, -0.009340429, 0.43113708, 0
888, 471274798, 0.69605523, 0.0033394666, 0.0017858573, -0.71797824, -0.015305257, 0.008854052, 0.44881725, 0
889, 471291465, 0.6960478, 0.0033423544, 0.0017758305, -0.71798545, 0.019247657, 0.0017735893, 0.4439335, 0
890, 471308132, 0.6960459, 0.0033379858, 0.0017804021, -0.71798736, 0.031143038, -0.0011089019, 0.4401083, 0
891, 471324799, 0.6960402, 0.0033436345, 0.0017791567, -0.71799284, 0.026453568, -0.01722093, 0.47440243, 0
892, 471341466, 0.6960371, 0.0033356594, 0.0017813772, -0.7179959, 0.006335797, 0.008897675, 0.45200253, 0
893, 471358133, 0.6960204, 0.0033403158, 0.0017875661, -0.71801203, -0.035580628, 0.01171887, 0.44357395, 0
894, 471374800, 0.6960107, 0.003339542, 0.0017870277, -0.71802145, -0.016281564, -0.008787588, 0.4471922, 0
895, 471391467, 0.6960078, 0.0033421966, 0.0017964408, -0.7180243, 0.0252257, -0.008731069, 0.438509, 0
896, 471408134, 0.6960117, 0.0033396091, 0.0017893023, -0.71802044, 0.026747921, -0.009956697, 0.44869232, 0
897, 471424801, 0.6959994, 0.0033408403, 0.0017849712, -0.7180324, 0.007836724, 6.7777163E-4, 0.44504547, 0
898, 471441468, 0.6959992, 0.0033497477, 0.0017798595, -0.71803254, -0.01910295, 0.0037771787, 0.44330502, 0
899, 471458135, 0.695999, 0.0033515883, 0.0017705339, -0.7180327, -0.008871732, 0.004087694, 0.44081116, 0
900, 471474802, 0.6959911, 0.003356296, 0.0017746257, -0.71804047, 0.0059352214, -0.0039010851, 0.44301224, 0
901, 471491469, 0.6959923, 0.0033608433, 0.0017687909, -0.71803933, 0.021824982, -0.0021760836, 0.43340492, 0
902, 471508136, 0.6959853, 0.0033716424, 0.0017726556, -0.71804595, 0.021185393, -0.011401598, 0.4468794, 0
903, 471524803, 0.69597954, 0.0033737419, 0.0017646431, -0.71805155, 0.002243885, 0.0014014699, 0.4664631, 0
904, 471541470, 0.69597626, 0.003374403, 0.0017635709, -0.7180547, -0.013696483, 0.00598545, 0.4578247, 0
905, 471558137, 0.69597626, 0.003368015, 0.001765368, -0.7180547, -0.014587897, 0.0029806308, 0.44456005, 0
906, 471574804, 0.69596845, 0.0033657483, 0.0017632858, -0.7180623, 0.010813736, -0.0064702444, 0.43952656, 0
907, 471591471, 0.69596016, 0.0033701807, 0.001763051, -0.7180704, 0.020987783, -0.018697662, 0.43310738, 0
908, 471608138, 0.6959449, 0.003374176, 0.0017550385, -0.71808517, 0.0028592877, -0.0070282007, 0.42364883, 0
909, 471624805, 0.6959417, 0.0033724469, 0.0017505105, -0.71808827, -0.0070798523, 0.009198946, 0.43113708, 0
910, 471641472, 0.6959395, 0.0033825245, 0.001752324, -0.7180904, -0.003172282, -0.0010688861, 0.43978596, 0
911, 471658139, 0.69592774, 0.0033795102, 0.0017527946, -0.7181018, 0.014070574, -0.007897889, 0.44360065, 0
912, 471674806, 0.6959291, 0.0033870726, 0.0017601805, -0.71810037, 0.022230037, -0.004468253, 0.43200588, 0
913, 471691473, 0.69592243, 0.0033853143, 0.0017602246, -0.71810687, 0.022302352, 0.008091822, 0.45024872, 0
914, 471708140, 0.69591177, 0.0033841194, 0.0017599585, -0.71811724, 0.009773318, 7.937207E-4, 0.4553442, 0
915, 471724807, 0.6959092, 0.0033872707, 0.0017682587, -0.7181197, -0.012534572, -0.0022051684, 0.4509945, 0
916, 471741474, 0.69590455, 0.003388239, 0.0017743441, -0.71812415, -0.00478377, -1.4965066E-4, 0.425766, 0
917, 471758141, 0.69589454, 0.0033947262, 0.0017709987, -0.71813387, 0.01529576, 0.005825284, 0.45023632, 0
918, 471774808, 0.6958881, 0.0033923811, 0.001771391, -0.71814007, 0.013329564, -0.007653791, 0.45753002, 0
919, 471791475, 0.69588065, 0.0033955963, 0.001770627, -0.7181473, 0.012073143, 0.0029888065, 0.45929813, 0
920, 471808142, 0.695875, 0.0033977688, 0.001777635, -0.71815276, -0.0035992065, 0.008372149, 0.4539852, 0
921, 471824809, 0.6958671, 0.0033930754, 0.0017787706, -0.71816033, 0.0028641606, -0.008874028, 0.43940163, 0
922, 471841476, 0.69586664, 0.0033899494, 0.0017794555, -0.71816075, 0.010940209, -0.0039729793, 0.4470625, 0
923, 471858143, 0.69586104, 0.0033881695, 0.0017854423, -0.7181663, 0.008027359, 0.0025375409, 0.42674065, 0
924, 471874810, 0.6958532, 0.0033865818, 0.0017761115, -0.7181739, 0.007762603, -0.0048773284, 0.4458189, 0
925, 471891477, 0.69584084, 0.003378678, 0.0017892116, -0.7181859, 0.0039702207, -0.003516573, 0.44422436, 0
926, 471908144, 0.69584405, 0.0033854563, 0.0017903743, -0.7181828, 0.0024123753, 0.0027808924, 0.45923042, 0
927, 471924811, 0.6958454, 0.0033865669, 0.0017933177, -0.71818143, -0.005479917, 0.004387722, 0.43352032, 0
928, 471941478, 0.6958447, 0.0033864602, 0.0017964918, -0.71818215, 0.013014971, -0.011027502, 0.44246292, 0
929, 471958145, 0.6958373, 0.0033822225, 0.0017928324, -0.7181893, 0.014564499, -0.011308158, 0.44569397, 0
930, 471974812, 0.6958326, 0.003380397, 0.0017913799, -0.7181938, -0.0036026586, -0.010689144, 0.48235893, 0
931, 471991479, 0.695837, 0.0033767684, 0.0017993265, -0.71818954, -0.0069340807, 0.011697117, 0.4547844, 0
932, 472008146, 0.6958452, 0.0033824479, 0.0018019596, -0.7181816, 0.00595543, 0.018620702, 0.45304012, 0
933, 472024813, 0.6958403, 0.0033796162, 0.0017986591, -0.7181863, 0.019161664, 0.0073186313, 0.4715519, 0
934, 472041480, 0.695834, 0.0033784509, 0.0017980261, -0.71819246, 0.010010834, 0.0023965775, 0.44442463, 0
935, 472058147, 0.6958279, 0.0033866812, 0.001790298, -0.7181984, -7.6437765E-4, -0.008645235, 0.4311123, 0
936, 472074814, 0.6958185, 0.0033965213, 0.0018021181, -0.7182075, 3.2898487E-4, -0.0067009116, 0.45289516, 0
937, 472091481, 0.695821, 0.0033925376, 0.0018070395, -0.71820503, -8.034784E-4, 0.015303573, 0.45985413, 0
938, 472108148, 0.69582194, 0.0033884128, 0.0018124168, -0.71820414, 0.0066138385, 7.379944E-4, 0.43318558, 0
939, 472124815, 0.69580877, 0.0033913276, 0.0018064752, -0.7182169, 0.0045779767, 0.0060226577, 0.45229244, 0
940, 472141482, 0.69579935, 0.0033874158, 0.0018008932, -0.718226, 0.013215264, -0.010160183, 0.4453888, 0
941, 472158149, 0.69579107, 0.0033832588, 0.0017973501, -0.718234, -0.0039603333, -0.00644805, 0.4387169, 0
942, 472174816, 0.6957905, 0.003386107, 0.0017962232, -0.71823466, 0.0051740315, -0.005349308, 0.4387579, 0
943, 472191483, 0.69578385, 0.003385641, 0.0017960394, -0.71824104, -0.0012717608, -0.005839049, 0.439085, 0
944, 472208150, 0.6957849, 0.0033915231, 0.0017902, -0.71824, 0.011472121, 0.0024095378, 0.45233345, 0
945, 472224817, 0.69579256, 0.0033964468, 0.0017772885, -0.7182326, 0.0055513643, -0.014492704, 0.44235516, 0
946, 472241484, 0.69578236, 0.0033915616, 0.0017734752, -0.7182425, -0.0015001569, -0.011149749, 0.4314766, 0
947, 472258151, 0.6957717, 0.00339034, 0.0017798803, -0.71825284, 0.023872465, -0.0029078005, 0.45450592, 0
948, 472274818, 0.6957736, 0.003393221, 0.0017851727, -0.718251, -0.0012462323, 0.0072640525, 0.47824097, 0
949, 472291485, 0.69577295, 0.0033876568, 0.0017843489, -0.71825165, -0.0046670237, -0.0144092655, 0.42464638, 0
950, 472308152, 0.6957667, 0.003387323, 0.001794342, -0.7182577, -0.0062498045, -0.005838635, 0.44694614, 0
951, 472324819, 0.6957602, 0.0033848044, 0.0017910489, -0.718264, -0.0047180294, 0.0044569583, 0.4271841, 0
952, 472341486, 0.6957668, 0.003387052, 0.0017891027, -0.71825755, 0.012534777, 0.00660719, 0.4437933, 0
953, 472358153, 0.6957667, 0.003396055, 0.0017854365, -0.7182576, 0.020802187, 0.006536081, 0.4446783, 0
954, 472374820, 0.69576705, 0.0034027488, 0.0017862009, -0.71825725, 0.0056433138, -5.485846E-5, 0.45119572, 0
955, 472391487, 0.69575113, 0.0033983705, 0.0017844436, -0.7182727, 0.008306357, -0.009762854, 0.4525137, 0
956, 472408154, 0.6957387, 0.0033985947, 0.001787942, -0.7182847, 0.008754442, 0.004463016, 0.45110226, 0
957, 472424821, 0.6957323, 0.0033933562, 0.0017904653, -0.7182909, 0.01910564, -0.0051397975, 0.43332863, 0
958, 472441488, 0.69572455, 0.0033967374, 0.0017857545, -0.71829844, 0.018729115, -0.00518443, 0.4519558, 0
959, 472458155, 0.6957262, 0.0033252425, 0.0017088432, -0.7182973, -0.0073457374, 0.015310831, 0.4479437, 0
960, 472474822, 0.6957235, 0.003338164, 0.0017174168, -0.7182999, -0.0029973541, 0.012931634, 0.44312763, 0
961, 472491489, 0.6957176, 0.003345419, 0.0017244343, -0.7183056, 0.003733542, -9.786288E-4, 0.45205975, 0
962, 472508156, 0.6957191, 0.0033424082, 0.0017244447, -0.7183041, 0.006902528, -0.016055068, 0.4368124, 0
963, 472524823, 0.69571084, 0.003343746, 0.0017178342, -0.7183121, 0.015678624, -7.876736E-5, 0.43527985, 0
964, 472541490, 0.6956982, 0.0033519242, 0.0017192118, -0.71832436, 0.008571012, -0.003719254, 0.43111706, 0
965, 472558157, 0.69569063, 0.0033510725, 0.0017269438, -0.71833163, 0.004284407, 0.0072794976, 0.437685, 0
966, 472574824, 0.69568515, 0.0033507189, 0.0017132021, -0.71833694, -0.008733208, 0.009394194, 0.4550457, 0
967, 472591491, 0.69567853, 0.0033544328, 0.0017163645, -0.71834344, 0.0049427063, -0.013362855, 0.4400959, 0
968, 472608158, 0.6956713, 0.0033492704, 0.001716393, -0.7183504, 0.022994066, -0.011062712, 0.425395, 0
969, 472624825, 0.69566995, 0.0033546374, 0.0017168885, -0.7183518, 0.0114514325, -0.008728315, 0.43638134, 0
970, 472641492, 0.6956607, 0.0033515973, 0.0017090219, -0.71836066, 0.0030922065, -0.0014307973, 0.42413807, 0
971, 472658159, 0.69565076, 0.0033462017, 0.0017116365, -0.7183703, -0.011744407, 0.0039459206, 0.44817543, 0
972, 472674826, 0.69564265, 0.003339014, 0.0017172219, -0.71837825, -0.0017290115, 0.0048144166, 0.46656895, 0
973, 472691493, 0.6956375, 0.0033496304, 0.0017250846, -0.7183831, 0.010536352, -0.016693309, 0.44963646, 0
974, 472708160, 0.6956308, 0.003344114, 0.0017172641, -0.71838963, 0.026143122, -0.004097897, 0.44080353, 0
975, 472724827, 0.695621, 0.0033496015, 0.0017209027, -0.7183991, 0.011192183, -0.0037950631, 0.42315102, 0
976, 472741494, 0.6956144, 0.003346478, 0.0017166923, -0.7184055, 0.004228198, 0.0110725695, 0.44722462, 0
977, 472758161, 0.6956035, 0.0033404261, 0.0017192251, -0.71841615, -0.0014634922, -0.0030576868, 0.44172, 0
978, 472774828, 0.6955994, 0.0033378992, 0.0017164461, -0.71842015, 0.013589622, -0.0030490048, 0.46293068, 0
979, 472791495, 0.695592, 0.003337849, 0.0017130417, -0.71842736, 0.007792698, 0.0024069413, 0.4499588, 0
980, 472808162, 0.69558704, 0.0033359225, 0.0017032872, -0.7184321, 0.012864951, 0.004736966, 0.4348383, 0
981, 472824829, 0.6955839, 0.0033437093, 0.0017039202, -0.71843517, 0.0117648365, 0.005396991, 0.45292473, 0
982, 472841496, 0.6955831, 0.0033386915, 0.0016937882, -0.71843594, 0.008174991, -5.8216916E-4, 0.46573544, 0
983, 472858163, 0.6955728, 0.0033408634, 0.0016960967, -0.71844596, 0.020238666, -0.0021333038, 0.44260216, 0
984, 472874830, 0.6955718, 0.0033395647, 0.0017037492, -0.71844685, 0.0067271637, -0.0021416435, 0.446146, 0
985, 472891497, 0.69557196, 0.0033446688, 0.001701482, -0.71844673, 0.0063401195, -0.0032674153, 0.4555874, 0
986, 472908164, 0.69557315, 0.0033379279, 0.0016968006, -0.7184455, -0.0013863757, 0.006205811, 0.45935154, 0
987, 472924831, 0.69556326, 0.003342149, 0.001693748, -0.718455, -0.0021903387, 0.0066209026, 0.44165516, 0
988, 472941498, 0.69555414, 0.0033412722, 0.0016954304, -0.71846396, 4.158188E-4, 0.0031526869, 0.44195557, 0
989, 472958165, 0.6955477, 0.003344824, 0.0016977907, -0.71847016, 0.011430836, -0.008401333, 0.46691036, 0
990, 472974832, 0.6955472, 0.003338071, 0.0016802564, -0.71847063, 0.00426917, -0.020225579, 0.4604826, 0
991, 472991499, 0.6955393, 0.0033197342, 0.0016688805, -0.71847844, 0.010099448, -0.0066452255, 0.3982811, 0
992, 473008166, 0.69553083, 0.003309031, 0.0016669581, -0.7184867, -0.0027999259, 0.008221114, 0.43282413, 0
993, 473024833, 0.6955266, 0.0033062822, 0.0016693708, -0.7184908, -4.0300522E-4, 0.0028898253, 0.4211378, 0
994, 473041500, 0.69552517, 0.00331136, 0.0016723826, -0.71849215, -0.012167324, -0.010638727, 0.45669556, 0
995, 473058167, 0.6955254, 0.003314501, 0.0016704798, -0.7184919, 0.007893747, -0.011496878, 0.45305252, 0
996, 473074834, 0.69550985, 0.0033338019, 0.0016731682, -0.7185069, 0.026980873, -0.0038035845, 0.45158672, 0
997, 473091501, 0.6955117, 0.0033481028, 0.001682812, -0.718505, 0.043816805, 0.016730795, 0.44682598, 0
998, 473108168, 0.6955128, 0.0033497056, 0.0016817999, -0.718504, 0.009238116, 0.0039337757, 0.44699383, 0
999, 473124835, 0.6955048, 0.0033492055, 0.0016843572, -0.7185117, -0.030008668, -0.00238368, 0.45890427, 0
1000, 473141502, 0.6954924, 0.0033465375, 0.001677739, -0.71852374, -0.038602795, 0.0013241431, 0.4658718, 0
1001, 473158169, 0.6954874, 0.0033426755, 0.0016665796, -0.7185286, -0.01742147, 0.008475213, 0.4505148, 0
1002, 473174836, 0.6954832, 0.0033389584, 0.001661766, -0.7185326, 0.012960659, -0.0124950195, 0.41594887, 0
1003, 473191503, 0.69547707, 0.0033343905, 0.0016564083, -0.7185387, 0.02789051, -0.0015704213, 0.44476414, 0
1004, 473208170, 0.69547343, 0.003337007, 0.0016671907, -0.71854216, 0.018140458, -0.009055881, 0.4351158, 0
1005, 473224837, 0.69546795, 0.0033398587, 0.0016620667, -0.71854746, -0.0094940895, -0.008150134, 0.43761444, 0
1006, 473241504, 0.695465, 0.003328688, 0.001664858, -0.7185503, -0.012873353, -0.0109208515, 0.45466995, 0
1007, 473258171, 0.6954706, 0.003330623, 0.0016677887, -0.71854496, -0.006285393, 0.006602054, 0.45003796, 0
1008, 473274838, 0.6954512, 0.0033283287, 0.0016635084, -0.7185637, 0.0119283395, -0.0023223904, 0.4394741, 0
1009, 473291505, 0.6954473, 0.0033302924, 0.0016605131, -0.71856755, 0.01938852, 0.00213677, 0.47431087, 0
1010, 473308172, 0.6954458, 0.003332199, 0.0016496364, -0.718569, -0.012732346, 0.007768111, 0.4367609, 0
1011, 473324839, 0.69543713, 0.0033184206, 0.0016472086, -0.71857744, -5.488282E-4, 8.084289E-4, 0.4746523, 0
1012, 473341506, 0.69542825, 0.0033089626, 0.0016577987, -0.71858615, 0.015863046, 0.005397049, 0.46144867, 0
1013, 473358173, 0.69543445, 0.0033178453, 0.001653999, -0.7185801, 1.4485997E-4, -0.006799184, 0.4290514, 0
1014, 473374840, 0.69543356, 0.003314943, 0.0016556934, -0.7185809, 0.006545687, 0.0117438845, 0.42394733, 0
1015, 473391507, 0.69541216, 0.0033073234, 0.00165519, -0.71860164, 0.01257178, 0.014791255, 0.4742117, 0
1016, 473408174, 0.6954162, 0.0033048447, 0.0016598196, -0.71859777, 0.026856722, -0.005655056, 0.43135548, 0
1017, 473424841, 0.69541204, 0.0033041623, 0.0016631122, -0.71860176, 0.005614715, -0.0032464506, 0.44007492, 0
1018, 473441508, 0.69540465, 0.003300765, 0.0016694452, -0.7186089, -0.0072694295, 0.0022545664, 0.44130802, 0
1019, 473458175, 0.6953949, 0.0032955993, 0.00167315, -0.7186183, 0.011310336, 0.0058804373, 0.46007538, 0
1020, 473474842, 0.6953884, 0.003292717, 0.0016766292, -0.7186246, 2.2116608E-4, 0.008364824, 0.43917942, 0
1021, 473491509, 0.6953842, 0.0032876271, 0.0016707894, -0.71862864, -0.0071092416, 0.022471882, 0.46287823, 0
1022, 473508176, 0.69537586, 0.003297739, 0.0016761395, -0.71863675, 0.005987458, 6.56599E-4, 0.43077755, 0
1023, 473524843, 0.6953733, 0.0032871142, 0.0016765575, -0.71863925, 0.017712714, -0.01006703, 0.4545145, 0
1024, 473541510, 0.6953735, 0.003289794, 0.0016786779, -0.7186391, -0.009678964, 0.0033902095, 0.42522907, 0
1025, 473558177, 0.69536734, 0.0032845363, 0.0016842205, -0.71864504, -0.010052803, 0.0021002884, 0.46756458, 0
1026, 473574844, 0.69535893, 0.0032811547, 0.0016737904, -0.7186532, 0.010450285, 0.009784271, 0.452528, 0
1027, 473591511, 0.6953539, 0.003274304, 0.0016775326, -0.7186581, 0.008521777, -0.0025135637, 0.45463276, 0
1028, 473608178, 0.69534725, 0.0032819747, 0.0016783081, -0.7186646, -0.006855734, -0.0033467782, 0.43110085, 0
1029, 473624845, 0.69534284, 0.003279179, 0.0016912185, -0.7186688, -0.0014064239, -0.013471686, 0.4502592, 0
1030, 473641512, 0.6953396, 0.0032921652, 0.0016946458, -0.71867174, 0.017090477, 0.0039090654, 0.44109726, 0
1031, 473658179, 0.69534504, 0.0032961636, 0.0016979541, -0.7186666, 0.018651882, 0.012349096, 0.4509945, 0
1032, 473674846, 0.6953493, 0.0032970607, 0.0016966012, -0.71866244, 0.0014390288, -1.9386606E-4, 0.45479202, 0
1033, 473691513, 0.6953458, 0.003303786, 0.0016983949, -0.7186658, -0.009190718, -0.0037632352, 0.4407587, 0
1034, 473708180, 0.69534343, 0.003311022, 0.0016967951, -0.71866804, 0.019854886, -8.3105784E-4, 0.4493866, 0
1035, 473724847, 0.69533914, 0.0033159738, 0.0017001184, -0.71867216, -0.0010196242, 0.0118783, 0.45391178, 0
1036, 473741514, 0.6953378, 0.0033081172, 0.0017085335, -0.7186735, 0.007221735, -0.0058540227, 0.4277544, 0
1037, 473758181, 0.6953396, 0.0033194616, 0.0017037496, -0.7186717, 0.012958838, -0.007262692, 0.44057465, 0
1038, 473774848, 0.69533175, 0.0033160886, 0.0017054628, -0.71867925, 0.0011442222, -0.013462526, 0.44310284, 0
1039, 473791515, 0.695329, 0.0033192567, 0.001717243, -0.7186819, -0.007871676, 0.01345244, 0.46131134, 0
1040, 473808182, 0.69532835, 0.0033229094, 0.0017206398, -0.7186825, 0.0018741457, 0.0035960597, 0.4220581, 0
1041, 473824849, 0.6953278, 0.003324837, 0.0017125793, -0.71868306, 0.023085995, 0.018018015, 0.45599937, 0
1042, 473841516, 0.69532347, 0.00333141, 0.0017060807, -0.71868724, 0.013424281, -0.0079627, 0.4481268, 0
1043, 473858183, 0.6953237, 0.003332766, 0.0017024466, -0.718687, -0.008525653, -0.004783928, 0.45767784, 0
1044, 473874850, 0.6953201, 0.0033238386, 0.0016886358, -0.7186905, -0.0036417306, 0.003663772, 0.44911957, 0
1045, 473891517, 0.6953173, 0.0033211403, 0.0016914544, -0.71869326, 0.005963487, 0.0036735665, 0.44837284, 0
1046, 473908184, 0.69530976, 0.003324635, 0.001696827, -0.7187006, -0.01149015, 0.005488296, 0.44186497, 0
1047, 473924851, 0.695304, 0.003323321, 0.0017015701, -0.71870613, 0.018932048, -0.0032033091, 0.45979977, 0
1048, 473941518, 0.6953029, 0.0033225445, 0.0017033257, -0.7187072, 0.018861001, -0.012364326, 0.4499178, 0
1049, 473958185, 0.69530135, 0.0033256107, 0.0017063607, -0.7187087, 0.013813975, -0.01408392, 0.42508793, 0
1050, 473974852, 0.6953012, 0.003323458, 0.0017144553, -0.7187089, -0.0056603295, -5.8241887E-4, 0.44471455, 0
1051, 473991519, 0.6953003, 0.0033107598, 0.0017187468, -0.7187097, 0.004789522, -0.005642438, 0.44919872, 0
1052, 474008186, 0.69529593, 0.0033030047, 0.0017128071, -0.718714, -0.0034944147, 0.0060731755, 0.43911076, 0
1053, 474024853, 0.6952978, 0.0033016843, 0.0017127049, -0.7187122, 0.011617512, -0.0138232475, 0.45067787, 0
1054, 474041520, 0.69528574, 0.003302317, 0.0017049371, -0.7187239, 0.008055308, -0.004535469, 0.46638393, 0
1055, 474058187, 0.69528913, 0.0033003837, 0.0017049646, -0.71872056, -0.001907512, -0.009481791, 0.4632101, 0
1056, 474074854, 0.6952915, 0.0033010377, 0.0017090086, -0.7187183, -8.396823E-4, 1.7586978E-4, 0.4597721, 0
1057, 474091521, 0.6952887, 0.0033126723, 0.0017112513, -0.7187209, 0.008068237, 0.0040868786, 0.45261955, 0
1058, 474108188, 0.69529164, 0.0033176234, 0.0017170354, -0.71871805, 0.0034244673, 0.00912258, 0.43644428, 0
1059, 474124855, 0.6952918, 0.0033227508, 0.0017064303, -0.7187179, 0.0077735633, 4.3222692E-4, 0.4698801, 0
1060, 474141522, 0.6952896, 0.003309655, 0.0017042683, -0.71872, -0.001296231, -0.0015780765, 0.4513855, 0
1061, 474158189, 0.69529104, 0.0033052948, 0.0017056863, -0.7187187, -0.01553254, -0.0056290934, 0.43222046, 0
1062, 474174856, 0.6952876, 0.003308663, 0.0017196784, -0.718722, 0.0010173385, 0.0060910475, 0.4449997, 0
1063, 474191523, 0.6952819, 0.0033120434, 0.0017221571, -0.71872747, 0.0022567553, 0.0069210893, 0.4579296, 0
1064, 474208190, 0.69527966, 0.0033119717, 0.0017170149, -0.7187297, 0.005172267, -0.0072545144, 0.45222378, 0
1065, 474224857, 0.69527274, 0.003308943, 0.0017201155, -0.71873635, 0.0024005815, 0.0052557955, 0.45687485, 0
1066, 474241524, 0.69527024, 0.0032985406, 0.0017142409, -0.7187388, 0.0019582652, -0.007870487, 0.4416418, 0
1067, 474258191, 0.69527376, 0.0032960763, 0.0017148772, -0.71873546, 0.008817546, -2.1729476E-4, 0.44553852, 0
1068, 474274858, 0.6952673, 0.0032893298, 0.0017102003, -0.7187416, 0.014902751, 0.008597934, 0.4399004, 0
1069, 474291525, 0.6952666, 0.003284401, 0.0017135142, -0.71874243, 0.0017311986, 0.016008666, 0.43766212, 0
1070, 474308192, 0.6952691, 0.0032803982, 0.0017131924, -0.71874, -9.382707E-4, -0.00994572, 0.43832397, 0
1071, 474324859, 0.69527084, 0.003288153, 0.0017068735, -0.71873826, 0.012352784, 0.0024915582, 0.4410696, 0
1072, 474341526, 0.69526416, 0.003299507, 0.0017173366, -0.71874475, 0.01033215, 0.0024476014, 0.46491337, 0
1073, 474358193, 0.6952569, 0.0032988922, 0.0017192919, -0.71875167, -0.004876925, 0.009193563, 0.47050953, 0
1074, 474374860, 0.69525945, 0.003307909, 0.001721807, -0.7187492, 0.016306031, -0.0026380832, 0.43309212, 0
1075, 474391527, 0.6952597, 0.0033097276, 0.0017326338, -0.718749, 0.0051464313, -0.020857869, 0.44627476, 0
1076, 474408194, 0.6952532, 0.00332157, 0.001726283, -0.71875525, 3.1453685E-4, -0.006558132, 0.4642372, 0
1077, 474424861, 0.69525933, 0.0033293753, 0.0017188417, -0.7187492, -0.009264815, 0.0051548774, 0.4452591, 0
1078, 474441528, 0.69525516, 0.003320998, 0.0017171415, -0.7187533, 0.014896065, 0.015560013, 0.43594837, 0
1079, 474458195, 0.6952498, 0.0033459992, 0.0017010192, -0.71875846, 0.006368071, 0.00244366, 0.44902706, 0
1080, 474474862, 0.69524384, 0.0033460185, 0.0017114067, -0.71876425, -0.0066360645, -0.0037507727, 0.42906857, 0
1081, 474491529, 0.69523865, 0.0033398615, 0.0017050589, -0.7187692, 0.0114801815, -0.008115799, 0.42796516, 0
1082, 474508196, 0.6952335, 0.003338112, 0.0017077345, -0.71877414, 0.01464649, 0.0034957724, 0.44552708, 0
1083, 474524863, 0.69523174, 0.0033287879, 0.0017095647, -0.71877587, 0.004250147, 0.010157194, 0.4348259, 0
1084, 474541530, 0.69523203, 0.003322506, 0.0017114568, -0.71877575, -0.0037614105, 0.0063895127, 0.4526291, 0
1085, 474558197, 0.6952344, 0.0033203466, 0.0017074624, -0.7187735, -0.0022625194, -0.016169017, 0.4474411, 0
1086, 474574864, 0.6952327, 0.0033232803, 0.0017137736, -0.71877503, 0.012338226, -0.015367354, 0.43936253, 0
1087, 474591531, 0.695227, 0.0033242335, 0.0017211126, -0.7187805, 0.0036412163, 6.602643E-4, 0.45964146, 0
1088, 474608198, 0.69521666, 0.0033283988, 0.0017265043, -0.71879053, 0.019793535, 0.0067023155, 0.4659748, 0
1089, 474624865, 0.6952139, 0.0033275143, 0.001734935, -0.71879315, -0.0057460247, -0.0032164527, 0.441041, 0
1090, 474641532, 0.6952149, 0.0033365604, 0.001735834, -0.71879214, 0.002131348, -0.0069552516, 0.42940235, 0
1091, 474658199, 0.6952201, 0.0033384685, 0.0017416555, -0.71878713, -0.0023957917, 0.003990499, 0.43749428, 0
1092, 474674866, 0.695215, 0.0033504225, 0.0017350996, -0.71879196, 0.00913612, -0.009979052, 0.44120216, 0
1093, 474691533, 0.6952056, 0.003350077, 0.001740813, -0.718801, 0.004598758, 0.0028377625, 0.45277882, 0
1094, 474708200, 0.69519806, 0.0033632612, 0.0017441531, -0.7188083, -0.0024476475, 0.008051506, 0.44644833, 0
1095, 474724867, 0.6951982, 0.0033756613, 0.0017401662, -0.7188081, -0.0040164823, -0.011976351, 0.48727322, 0
1096, 474741534, 0.69519305, 0.0033721465, 0.001733975, -0.71881306, 0.008991528, -0.008523516, 0.4200964, 0
1097, 474758201, 0.6951884, 0.0033630703, 0.0017371877, -0.71881753, 0.012569259, -0.011702701, 0.45261002, 0
1098, 474774868, 0.69518423, 0.0033632752, 0.0017357204, -0.7188217, 0.0033286414, 0.0023797685, 0.45873642, 0
1099, 474791535, 0.6951777, 0.0033552418, 0.0017310915, -0.7188281, 0.0097943, 0.0021790906, 0.42991257, 0
1100, 474808202, 0.69517237, 0.0033628556, 0.0017294645, -0.71883327, 0.0015377412, -6.583504E-4, 0.45295143, 0
1101, 474824869, 0.69515824, 0.0033643316, 0.0017293537, -0.71884686, 0.0058621257, -0.006849244, 0.4488554, 0
1102, 474841536, 0.6951618, 0.0033676836, 0.0017333307, -0.71884346, -0.0067529157, -0.009802845, 0.43888283, 0
1103, 474858203, 0.69515175, 0.0033724261, 0.001723201, -0.71885306, 0.006580685, -0.0046490976, 0.46160507, 0
1104, 474874870, 0.69515276, 0.0033715025, 0.0017276264, -0.718852, 0.007876342, 0.003513105, 0.45014668, 0
1105, 474891537, 0.6951526, 0.003374296, 0.0017310454, -0.7188523, -0.0021881133, -0.0018669531, 0.4391594, 0
1106, 474908204, 0.69515043, 0.0033725493, 0.0017346977, -0.71885437, -4.0761515E-4, -0.0107256, 0.4494648, 0
1107, 474924871, 0.6951401, 0.0033687712, 0.001739491, -0.7188643, 0.004406539, -0.0035768063, 0.4438591, 0
1108, 474941538, 0.6951312, 0.0033712373, 0.0017316341, -0.71887296, 0.015568491, 0.0041706716, 0.42991257, 0
1109, 474958205, 0.69511783, 0.0033735218, 0.0017260169, -0.7188859, -0.0047447793, 0.0061673443, 0.4474764, 0
