sep=,
DeviceTag:,Xsens_3,,,,,,,,,,,,,,,,,
FirmwareVersion:,2.2.1,,,,,,,,,,,,,,,,,
AppVersion:,2023.0.0,,,,,,,,,,,,,,,,,
SyncStatus:,Un-synced,,,,,,,,,,,,,,,,,
OutputRate:,60Hz,,,,,,,,,,,,,,,,,
FilterProfile:,General,,,,,,,,,,,,,,,,,
Measurement Mode:,Sensor fusion Mode - Extended (Quaternion),,,,,,,,,,,,,,,,,
StartTime:,2023-07-13 15:13:43.893 +0200,,,,,,,,,,,,,,,,,
© Movella Technologies B. V. 2005-2023,,,,,,,,,,,,,,,,,,,

PacketCounter,SampleTimeFine,Quat_W,Quat_X,Quat_Y,Quat_Z,FreeAcc_X,FreeAcc_Y,FreeAcc_Z,Status
1, 460335035, 0.9970883, -0.009579004, 0.0030076755, 0.07559309, -0.0010153862, -0.0111730145, 0.023508072, 0
2, 460351702, 0.99708664, -0.009370589, 0.0031112377, 0.07563725, 0.0010972723, 0.014649157, 0.0023975372, 0
3, 460368369, 0.99710417, -0.009017882, 0.0031887079, 0.075444795, -0.012263255, 0.03899514, 0.0117788315, 0
4, 460385036, 0.9971132, -0.008503798, 0.0033169473, 0.07537963, -0.008045234, 0.046390645, 0.049300194, 0
5, 460401703, 0.9971308, -0.007950853, 0.0034539485, 0.07520173, 0.01017505, -0.047328074, 0.027083397, 0
6, 460418370, 0.99713695, -0.007653121, 0.0035340444, 0.075146385, 0.010626185, -0.1283042, 0.02931881, 0
7, 460435037, 0.9971486, -0.007608927, 0.0036474618, 0.0749919, 0.0038214813, -0.08091159, 0.02392292, 0
8, 460451704, 0.9971733, -0.007577876, 0.0037348326, 0.07465975, 0.014196506, -0.008479299, -0.005742073, 0
9, 460468371, 0.99719375, -0.0074667013, 0.003793798, 0.074396186, -0.0063251685, -0.008467103, 0.045790672, 0
10, 460485038, 0.99719965, -0.0073095346, 0.00389946, 0.07432712, 0.010442473, -0.03322421, -0.00962925, 0
11, 460501705, 0.9972026, -0.00714232, 0.0039746542, 0.07429851, 0.017260084, -0.093581796, 0.030536652, 0
12, 460518372, 0.99720716, -0.006992786, 0.004037551, 0.07424987, 0.030882135, -0.091621585, 0.061593056, 0
13, 460535039, 0.9972192, -0.0068577705, 0.0041069533, 0.07409582, 0.022714626, -0.07534534, 0.012458801, 0
14, 460551706, 0.9972157, -0.0067320806, 0.00414665, 0.074151404, 0.02253275, -0.030796852, 0.038506508, 0
15, 460568373, 0.99723357, -0.00656957, 0.0041995645, 0.07392323, -0.0137651395, -0.020995088, 0.04720974, 0
16, 460585040, 0.99725336, -0.006399601, 0.004260183, 0.07366693, -6.666972E-5, -0.066145554, 0.008834839, 0
17, 460601707, 0.9972683, -0.0062214807, 0.004326978, 0.073475175, 0.009479045, -0.10680772, 0.043096542, 0
18, 460618374, 0.9972827, -0.006043373, 0.0044159144, 0.07328998, 0.033331376, -0.10059531, 0.0040302277, 0
19, 460635041, 0.9972838, -0.0058791228, 0.0044769403, 0.0732839, 0.07358475, -0.058512654, -0.005385399, 0
20, 460651708, 0.99734133, -0.005689913, 0.0045394544, 0.07250832, 0.04701459, -0.030165672, 0.06017399, 0
21, 460668375, 0.9973474, -0.0054997145, 0.0045757066, 0.072437316, 0.009824355, -0.04146538, 0.0450449, 0
22, 460685042, 0.9973487, -0.005321175, 0.0046214075, 0.07243025, 0.0055222576, -0.110332005, 0.018260002, 0
23, 460701709, 0.99734765, -0.005127213, 0.004670686, 0.072454564, 0.039551586, -0.1309755, 0.035980225, 0
24, 460718376, 0.99734604, -0.0049382923, 0.0047150054, 0.07248717, 0.050324686, -0.116025746, 0.009216309, 0
25, 460735043, 0.99734837, -0.004757734, 0.0047567426, 0.07246558, 0.04032057, -0.073924094, 0.02136612, 0
26, 460751710, 0.99733615, -0.00457556, 0.004818114, 0.07264096, 0.015132438, -0.046557575, 0.04584503, 0
27, 460768377, 0.99735546, -0.0043823496, 0.004867127, 0.07238285, 0.027403064, -0.10004828, 0.008872986, 0
28, 460785044, 0.99737155, -0.004185405, 0.004927607, 0.072168745, 0.044397295, -0.14077246, 0.025309563, 0
29, 460801711, 0.9973946, -0.003993989, 0.004981515, 0.07185707, 0.06769862, -0.14113969, 0.04143524, 0
30, 460818378, 0.99741596, -0.0038022057, 0.005028412, 0.07156801, 0.05606137, -0.102784626, 0.012748718, 0
31, 460835045, 0.9974131, -0.0036075697, 0.0050865216, 0.07161366, 0.040048692, -0.07350728, 0.03204441, 0
32, 460851712, 0.99739134, -0.0034130819, 0.0051514367, 0.07192115, 0.02944718, -0.08894039, 0.02420044, 0
33, 460868379, 0.997397, -0.003220891, 0.0052034245, 0.07184663, 0.035488375, -0.12506433, 0.0041475296, 0
34, 460885046, 0.9974145, -0.0030199515, 0.005252277, 0.071608745, 0.057581052, -0.14412828, 0.015622139, 0
35, 460901713, 0.9974286, -0.00282488, 0.005301778, 0.07141605, 0.07252903, -0.1480782, 0.025352478, 0
36, 460918380, 0.9974294, -0.00264032, 0.005357329, 0.07140783, 0.05271597, -0.11826225, 0.0336504, 0
37, 460935047, 0.9974926, -0.0024367003, 0.0054169944, 0.07052217, 0.035808396, -0.12261619, 0.04707241, 0
38, 460951714, 0.99749506, -0.00224323, 0.0054795346, 0.07048922, 0.054048326, -0.1402874, 0.036660194, 0
39, 460968381, 0.99750286, -0.002052815, 0.0055370717, 0.07037965, 0.0733541, -0.18766788, 0.026366234, 0
40, 460985048, 0.99750763, -0.0018640998, 0.0055969367, 0.07031267, 0.07800033, -0.16899347, 0.021362305, 0
41, 461001715, 0.99750865, -0.0016625662, 0.0056438586, 0.07030138, 0.06836411, -0.13924113, 0.04387474, 0
42, 461018382, 0.99752164, -0.0014639026, 0.0056952867, 0.07011582, 0.0415509, -0.13830887, 0.0054512024, 0
43, 461035049, 0.9975143, -0.0012781125, 0.005760946, 0.070218645, 0.046246897, -0.13961226, 0.027486801, 0
44, 461051716, 0.9975145, -0.0010813447, 0.0058186753, 0.07021422, 0.07452345, -0.16703498, 0.020524979, 0
45, 461068383, 0.99752104, -8.9038914E-4, 0.005860841, 0.07011855, 0.083373085, -0.18519436, 0.015913963, 0
46, 461085050, 0.9975319, -6.9040636E-4, 0.005918503, 0.06996361, 0.0720476, -0.19106223, 0.0030584335, 0
47, 461101717, 0.9975422, -4.952489E-4, 0.0059786546, 0.06981231, 0.04958237, -0.1782041, 7.171631E-4, 0
48, 461118384, 0.99754584, -3.0193673E-4, 0.0060430593, 0.06975732, 0.06409251, -0.14398624, 0.03802395, 0
49, 461135051, 0.9975536, -1.1573708E-4, 0.006112428, 0.06963948, 0.12394992, -0.14302331, 0.018968582, 0
50, 461151718, 0.9975566, 7.778308E-5, 0.0061819204, 0.069588915, 0.10862291, -0.2188298, 0.03962612, 0
51, 461168385, 0.99756694, 2.6670785E-4, 0.006256562, 0.06943442, 0.029357707, -0.27622885, 0.063464165, 0
52, 461185052, 0.99759203, 4.5339426E-4, 0.0063450043, 0.06906485, 0.06467797, -0.18045051, -0.01665306, 0
53, 461201719, 0.99759245, 6.513483E-4, 0.0063967397, 0.06905119, 0.08864932, -0.14334267, 0.04445839, 0
54, 461218386, 0.997595, 8.3927164E-4, 0.0064823176, 0.06900487, 0.080315925, -0.17893472, 0.026493073, 0
55, 461235053, 0.9975998, 0.0010322084, 0.0065404675, 0.06892851, 0.08424756, -0.20403278, 0.012480736, 0
56, 461251720, 0.99759966, 0.0012057108, 0.006620303, 0.068919815, 0.089304864, -0.23973994, 0.01769352, 0
57, 461268387, 0.99760395, 0.0013926162, 0.0066795177, 0.068846464, 0.074263155, -0.27475423, 0.017970085, 0
58, 461285054, 0.99760854, 0.0015733977, 0.0067366813, 0.068770975, 0.10222189, -0.21405043, 0.04241848, 0
59, 461301721, 0.99761057, 0.0017576386, 0.00678328, 0.06873413, 0.0942832, -0.15239431, 0.06161499, 0
60, 461318388, 0.99761456, 0.0019447005, 0.0068351184, 0.06866382, 0.07604643, -0.15473774, 0.032497406, 0
61, 461335055, 0.9976174, 0.0021358547, 0.0068643694, 0.068613745, 0.0714493, -0.27956268, 0.008226395, 0
62, 461351722, 0.9976251, 0.0023223502, 0.006882087, 0.06849513, 0.08420563, -0.3048965, 0.008535385, 0
63, 461368389, 0.9976323, 0.0025163193, 0.006911002, 0.06837973, 0.09359279, -0.2557388, 0.011717796, 0
64, 461385056, 0.9976376, 0.002691865, 0.0069598337, 0.06829055, 0.07450846, -0.2066727, 0.013629913, 0
65, 461401723, 0.99764115, 0.0028773434, 0.0069969655, 0.06822713, 0.06891857, -0.22824696, 0.013932228, 0
66, 461418390, 0.9976461, 0.0030648815, 0.0070559517, 0.06814291, 0.089946665, -0.22769141, 0.058745384, 0
67, 461435057, 0.9976524, 0.003242911, 0.0071220594, 0.06803477, 0.10268001, -0.25596955, 0.0148534775, 0
68, 461451724, 0.9976542, 0.0034349035, 0.0071940576, 0.06799163, 0.09325993, -0.3082498, 0.020551682, 0
69, 461468391, 0.9976608, 0.0036178664, 0.007214454, 0.067882456, 0.07618261, -0.27813265, 0.016880035, 0
70, 461485058, 0.9976636, 0.00376444, 0.007529266, 0.06779897, 0.07545526, -0.2034522, 0.1669693, 0
71, 461501725, 0.99766636, 0.00394411, 0.0076716407, 0.067732126, 0.18182543, -0.1365387, 0.04081726, 0
72, 461518392, 0.9976672, 0.0041246093, 0.0076848366, 0.067707196, 0.20461227, -0.3385434, 0.1527996, 0
73, 461535059, 0.9976706, 0.004298448, 0.0076712836, 0.067648135, 0.021035785, -0.43351227, 0.008536339, 0
74, 461551726, 0.99767375, 0.004480069, 0.0076375087, 0.06759247, -0.030810123, -0.22759701, -0.0012464523, 0
75, 461568393, 0.99767846, 0.004666626, 0.007603951, 0.06751513, 0.101758376, -0.12917376, -0.0033302307, 0
76, 461585060, 0.9976813, 0.0048288344, 0.0076247887, 0.06745904, 0.22294584, -0.29408008, 0.010127068, 0
77, 461601727, 0.9976886, 0.00500662, 0.007637962, 0.06733632, 0.20361991, -0.32489148, -0.002354622, 0
78, 461618394, 0.9976915, 0.0051780804, 0.0076910444, 0.06727355, 0.094833516, -0.24650115, -0.027279854, 0
79, 461635061, 0.9976932, 0.0053446204, 0.0077250013, 0.06723319, -0.016849155, -0.29454976, 0.026786804, 0
80, 461651728, 0.9976969, 0.005514302, 0.007766695, 0.06715911, 0.058203056, -0.35185453, 0.013551712, 0
81, 461668395, 0.99770045, 0.005676924, 0.007815159, 0.06708775, 0.19308281, -0.24827652, 0.03285885, 0
82, 461685062, 0.9977045, 0.005851758, 0.007845641, 0.06700874, 0.22368501, -0.19787167, 0.03541279, 0
83, 461701729, 0.99770683, 0.0060134027, 0.00790654, 0.06695419, 0.098014295, -0.36225498, 0.021291733, 0
84, 461718396, 0.99771035, 0.00616712, 0.007946337, 0.06688062, 0.01748032, -0.4395245, 0.03600502, 0
85, 461735063, 0.9977147, 0.0063154786, 0.007991746, 0.06679744, 0.04868762, -0.2516835, -0.0011548996, 0
86, 461751730, 0.997716, 0.0064653726, 0.008016724, 0.06675985, 0.1631241, -0.199823, 0.022740364, 0
87, 461768397, 0.99771726, 0.006620208, 0.008049438, 0.06672173, 0.2018548, -0.3372773, 0.034859657, 0
88, 461785064, 0.99772227, 0.006775122, 0.008081566, 0.06662742, 0.1232549, -0.40355197, 0.028522491, 0
89, 461801731, 0.997725, 0.0069185705, 0.008121478, 0.066567495, 0.050276928, -0.3128175, 0.02554226, 0
90, 461818398, 0.9977273, 0.007056793, 0.008139452, 0.0665157, 0.06069442, -0.30477178, 0.03494072, 0
91, 461835065, 0.9977303, 0.0072051035, 0.008177004, 0.06644926, 0.15387252, -0.36699983, 0.023817062, 0
92, 461851732, 0.9977353, 0.007343875, 0.008198875, 0.066356376, 0.18200481, -0.2949024, 0.019475937, 0
93, 461868399, 0.9977378, 0.0074891765, 0.008246863, 0.06629755, 0.14305429, -0.25025386, 0.013544083, 0
94, 461885066, 0.997739, 0.0076293056, 0.008293968, 0.06625738, 0.060770903, -0.39867303, 0.02816391, 0
95, 461901733, 0.99774134, 0.007764749, 0.008344301, 0.06620029, 0.08471432, -0.4397864, 0.022266388, 0
96, 461918400, 0.9977451, 0.007900418, 0.008376845, 0.06612406, 0.1631999, -0.29618433, 0.04012108, 0
97, 461935067, 0.99774617, 0.008033654, 0.008409635, 0.066087164, 0.1707303, -0.24103816, 0.044542313, 0
98, 461951734, 0.99774706, 0.008161422, 0.008438082, 0.06605399, 0.1142679, -0.35971487, 0.009921074, 0
99, 461968401, 0.99775183, 0.008293413, 0.008461633, 0.0659615, 0.07106784, -0.41243201, 0.041561127, 0
100, 461985068, 0.99775535, 0.008426912, 0.008493929, 0.06588878, 0.09277465, -0.32463485, 0.03938198, 0
101, 462001735, 0.99775773, 0.008561297, 0.00852422, 0.06583011, 0.15125409, -0.32197616, 0.014225006, 0
102, 462018402, 0.9977583, 0.008690974, 0.008544024, 0.06580185, 0.17218204, -0.37465543, 0.024834633, 0
103, 462035069, 0.99776083, 0.008818287, 0.008577283, 0.065743625, 0.11928156, -0.33669114, 0.03300953, 0
104, 462051736, 0.9977626, 0.008938616, 0.008605039, 0.06569646, 0.101990655, -0.30084962, 0.03333664, 0
105, 462068403, 0.99776345, 0.009061351, 0.00863995, 0.0656613, 0.111572735, -0.41147384, 0.041582108, 0
106, 462085070, 0.9977653, 0.009177757, 0.008677353, 0.06561228, 0.13915734, -0.46394706, 0.02562046, 0
107, 462101737, 0.9977688, 0.009295009, 0.008711569, 0.06553907, 0.17865215, -0.34415814, 0.03483486, 0
108, 462118404, 0.9977705, 0.009398282, 0.008741879, 0.06549363, 0.16380185, -0.29148453, 0.053406715, 0
109, 462135071, 0.99777234, 0.009508621, 0.008779659, 0.0654444, 0.091443464, -0.3847422, 0.01967907, 0
110, 462151738, 0.99777603, 0.009612623, 0.008795249, 0.065372005, 0.10443858, -0.4245599, 0.0073137283, 0
111, 462168405, 0.99778044, 0.009710802, 0.00882926, 0.06528505, 0.13733973, -0.3754885, 0.04865551, 0
112, 462185072, 0.9977823, 0.009821404, 0.008855463, 0.06523547, 0.16827865, -0.3593203, 0.011245728, 0
113, 462201739, 0.9977846, 0.009919591, 0.008888603, 0.065181375, 0.15279628, -0.403201, 0.008583069, 0
114, 462218406, 0.9977882, 0.010017144, 0.008904807, 0.06511009, 0.13252863, -0.36953798, 0.016765594, 0
115, 462235073, 0.9977898, 0.010118033, 0.008928915, 0.06506601, 0.12613618, -0.31675243, 0.028104782, 0
116, 462251740, 0.9977922, 0.010220285, 0.008946071, 0.06501099, 0.14078057, -0.38850963, 0.032567024, 0
117, 462268407, 0.997794, 0.010314898, 0.008969635, 0.06496465, 0.15235457, -0.44650578, 0.01243782, 0
118, 462285074, 0.9977976, 0.010411128, 0.0089919735, 0.06489193, 0.15428647, -0.37718096, -0.0036354065, 0
119, 462301741, 0.9977994, 0.010489457, 0.009006556, 0.064848244, 0.14885211, -0.3393798, 0.034625053, 0
120, 462318408, 0.99780214, 0.010578832, 0.009020498, 0.064791, 0.13688537, -0.40669295, 0.023407936, 0
121, 462335075, 0.997806, 0.010659521, 0.009039388, 0.064714454, 0.112124674, -0.42429587, 0.03388691, 0
122, 462351742, 0.9978081, 0.010741159, 0.009066355, 0.064664155, 0.12827246, -0.3885128, 0.013324738, 0
123, 462368409, 0.99780995, 0.010813831, 0.009083081, 0.06462184, 0.14645572, -0.39252648, 0.012041092, 0
124, 462385076, 0.99781334, 0.010893927, 0.009106322, 0.064552255, 0.15343933, -0.4582271, 0.0038309097, 0
125, 462401743, 0.99781525, 0.010974919, 0.009125306, 0.06450702, 0.13300748, -0.42273772, 0.025175095, 0
126, 462418410, 0.9978175, 0.011045659, 0.009142106, 0.064456634, 0.118642256, -0.357927, 0.010828972, 0
127, 462435077, 0.9978202, 0.011113347, 0.009156211, 0.06440165, 0.13259031, -0.38658074, -0.0046634674, 0
128, 462451744, 0.99782336, 0.011170557, 0.009184073, 0.064339146, 0.15175107, -0.44154632, 0.043992996, 0
129, 462468411, 0.9978269, 0.011234533, 0.009188718, 0.06427362, 0.1586745, -0.39091793, 0.025939941, 0
130, 462485078, 0.9978292, 0.011298125, 0.009199741, 0.06422408, 0.15050624, -0.3577687, 0.028367043, 0
131, 462501745, 0.99783176, 0.011355888, 0.009205933, 0.0641729, 0.10919629, -0.4084564, 0.006705284, 0
132, 462518412, 0.99783456, 0.011404684, 0.0092311995, 0.0641174, 0.13293198, -0.42356637, 0.026729584, 0
133, 462535079, 0.997838, 0.011461253, 0.0092412075, 0.06405224, 0.16008255, -0.36520442, 0.011651993, 0
134, 462551746, 0.9978381, 0.011513876, 0.009261384, 0.06403863, 0.16240093, -0.38134873, 0.025658607, 0
135, 462568413, 0.99784124, 0.011559411, 0.009260843, 0.06398261, 0.15236554, -0.45488945, 0.029649734, 0
136, 462585080, 0.9978441, 0.0116087785, 0.00926099, 0.06392867, 0.12456014, -0.44501084, 0.029299736, 0
137, 462601747, 0.997848, 0.011653605, 0.009260542, 0.06385911, 0.13830177, -0.37520996, 0.02692318, 0
138, 462618414, 0.9978496, 0.0116997715, 0.009271444, 0.06382263, 0.16387238, -0.40428415, 0.0024328232, 0
139, 462635081, 0.99785227, 0.011749223, 0.009284217, 0.06377024, 0.16404739, -0.45370877, 0.028496742, 0
140, 462651748, 0.99785614, 0.011780419, 0.009294815, 0.06370351, 0.14617015, -0.41582444, 0.019055367, 0
141, 462668415, 0.99785995, 0.011813875, 0.0093005905, 0.06363634, 0.13311294, -0.39177895, 0.012911797, 0
142, 462685082, 0.9978644, 0.011850731, 0.009313131, 0.06355863, 0.1287231, -0.4315028, 0.0105896, 0
143, 462701749, 0.9978673, 0.011886383, 0.00933044, 0.063504525, 0.1471936, -0.43953001, 0.019088745, 0
144, 462718416, 0.9978709, 0.011915097, 0.009343357, 0.063439526, 0.16012812, -0.39600474, 0.015843391, 0
145, 462735083, 0.9978752, 0.011948033, 0.0093526235, 0.063363776, 0.14495039, -0.39580435, 0.009856224, 0
146, 462751750, 0.99787724, 0.011976464, 0.009356524, 0.063325815, 0.14133511, -0.44678873, 0.0074892044, 0
147, 462768417, 0.9978817, 0.011992204, 0.009364922, 0.06324987, 0.13807935, -0.43717694, 0.057839394, 0
148, 462785084, 0.9978841, 0.012029273, 0.009378539, 0.06320442, 0.14739634, -0.39335623, 0.025062561, 0
149, 462801751, 0.9978874, 0.012052258, 0.009376487, 0.06315043, 0.14328647, -0.4046208, 0.024652481, 0
150, 462818418, 0.99789035, 0.0120656965, 0.0093747685, 0.063097715, 0.13936132, -0.4593969, 0.019433975, 0
151, 462835085, 0.9978943, 0.012078817, 0.009369277, 0.06303492, 0.14122301, -0.43163964, 0.02486515, 0
152, 462851752, 0.9978982, 0.012094517, 0.0093640825, 0.06297104, 0.14905927, -0.39110583, 0.017737389, 0
153, 462868419, 0.9979013, 0.0121058235, 0.009376399, 0.062918246, 0.15288731, -0.4158492, 0.015122414, 0
154, 462885086, 0.99790436, 0.012114834, 0.009372453, 0.06286934, 0.14085191, -0.44691122, 0.001616478, 0
155, 462901753, 0.9979083, 0.012118149, 0.009369056, 0.06280504, 0.14977656, -0.39967605, 0.033599854, 0
156, 462918420, 0.99791163, 0.012134942, 0.009369, 0.062748864, 0.14639355, -0.40150794, 0.016186714, 0
157, 462935087, 0.99791485, 0.012134881, 0.009369536, 0.06269899, 0.13428262, -0.45048618, 0.03044796, 0
158, 462951754, 0.99791723, 0.012131741, 0.009371988, 0.062658995, 0.1392856, -0.43982014, -0.012552261, 0
159, 462968421, 0.997921, 0.012130225, 0.00937706, 0.0625993, 0.16155265, -0.39884868, 0.015419006, 0
160, 462985088, 0.99792475, 0.012121066, 0.009382468, 0.062540986, 0.14789249, -0.40879995, 0.030333519, 0
161, 463001755, 0.99792826, 0.012111159, 0.009372723, 0.06248751, 0.14848964, -0.4492378, 0.04048729, 0
162, 463018422, 0.99793303, 0.012104135, 0.009372243, 0.062412877, 0.13329056, -0.42922103, -0.01624775, 0
163, 463035089, 0.9979361, 0.012088624, 0.0093670525, 0.062367756, 0.14779979, -0.4074237, -0.007204056, 0
164, 463051756, 0.99793977, 0.012078378, 0.009363546, 0.06231063, 0.15719657, -0.43065634, 0.02931118, 0
165, 463068423, 0.99794495, 0.012059989, 0.009351379, 0.062233914, 0.14184529, -0.4545082, 0.017189026, 0
166, 463085090, 0.99794924, 0.012052914, 0.009347309, 0.062167313, 0.1440473, -0.433397, 0.018234253, 0
167, 463101757, 0.99795437, 0.012037432, 0.009339677, 0.062089078, 0.14161946, -0.40405604, 0.018773079, 0
168, 463118424, 0.99795926, 0.012018039, 0.009334554, 0.06201522, 0.14764863, -0.42354026, 0.035383224, 0
169, 463135091, 0.9979639, 0.01200154, 0.009315554, 0.061945718, 0.16380164, -0.44044998, 0.013457298, 0
170, 463151758, 0.9979685, 0.011975491, 0.0093045505, 0.061879557, 0.15252022, -0.4122048, 0.0069179535, 0
171, 463168425, 0.9979712, 0.011950985, 0.00929513, 0.061842896, 0.12771097, -0.41356888, 0.017915726, 0
172, 463185092, 0.99797565, 0.01192534, 0.009287132, 0.06177629, 0.15420695, -0.44698545, 0.02590084, 0
173, 463201759, 0.99797976, 0.011907431, 0.009289237, 0.061712764, 0.14710192, -0.43177366, 0.036003113, 0
174, 463218426, 0.9979843, 0.011879934, 0.009272419, 0.0616475, 0.15608935, -0.3949197, 0.01595974, 0
175, 463235093, 0.99798924, 0.011844171, 0.009255075, 0.061576344, 0.15191858, -0.41775241, 0.021146774, 0
176, 463251760, 0.9979914, 0.011820922, 0.009242634, 0.061547972, 0.14753364, -0.4445367, -3.5858154E-4, 0
177, 463268427, 0.9979956, 0.011790136, 0.009220562, 0.06148761, 0.13557038, -0.41753316, 0.021224976, 0
178, 463285094, 0.9979998, 0.011759149, 0.0092028165, 0.061429348, 0.13905662, -0.4084473, 0.03247547, 0
179, 463301761, 0.9980027, 0.011727194, 0.009190367, 0.06138992, 0.13109557, -0.4312973, 0.024709702, 0
180, 463318428, 0.99800736, 0.011697706, 0.009185342, 0.0613217, 0.14263098, -0.42338032, 0.04522133, 0
181, 463335095, 0.99801075, 0.01166234, 0.009184265, 0.0612724, 0.1559402, -0.40520027, 0.01977539, 0
182, 463351762, 0.9980142, 0.011617064, 0.009173171, 0.06122606, 0.1430682, -0.41467497, 0.016634941, 0
183, 463368429, 0.9980178, 0.011570818, 0.009156531, 0.06117947, 0.1416096, -0.42599964, 0.03165722, 0
184, 463385096, 0.99802136, 0.0115351025, 0.0091346055, 0.06113006, 0.12777182, -0.43810636, 0.039956093, 0
185, 463401763, 0.9980252, 0.011499746, 0.009128777, 0.061075263, 0.15285526, -0.41368568, 0.014083862, 0
186, 463418430, 0.9980308, 0.011452155, 0.009107401, 0.06099702, 0.1474862, -0.39523003, 0.008820534, 0
187, 463435097, 0.9980357, 0.011411441, 0.009089907, 0.060924463, 0.14038908, -0.41454524, 0.014513969, 0
188, 463451764, 0.99804014, 0.01136602, 0.009076929, 0.060863756, 0.13247013, -0.40119132, 0.0073127747, 0
189, 463468431, 0.9980455, 0.01131945, 0.009066275, 0.06078514, 0.13131735, -0.39993706, 0.016970634, 0
190, 463485098, 0.99804944, 0.011273774, 0.009055416, 0.060730923, 0.13397777, -0.42068344, 0.021348953, 0
191, 463501765, 0.9980557, 0.011217328, 0.009050597, 0.060639028, 0.13856627, -0.4095858, 0.014627457, 0
192, 463518432, 0.9980586, 0.01117592, 0.009031025, 0.06060058, 0.14588307, -0.39178243, 0.009395599, 0
193, 463535099, 0.9980638, 0.011129324, 0.009017827, 0.06052758, 0.1469643, -0.4003817, 0.020522118, 0
194, 463551766, 0.9980681, 0.011074313, 0.008996779, 0.060469624, 0.13595104, -0.41444844, 0.028288841, 0
195, 463568433, 0.9980733, 0.011020589, 0.008982146, 0.060396593, 0.123496145, -0.40220475, 0.049263, 0
196, 463585100, 0.9980778, 0.010970268, 0.008969451, 0.060332596, 0.12975144, -0.39003763, 0.026634216, 0
197, 463601767, 0.99808294, 0.0109126475, 0.008957796, 0.060260512, 0.11241827, -0.39173096, 0.04045677, 0
198, 463618434, 0.9980872, 0.010863169, 0.008935898, 0.060200926, 0.12897412, -0.3965334, 0.0125255585, 0
199, 463635101, 0.9980922, 0.01081354, 0.008922936, 0.06012911, 0.13871798, -0.40126094, 0.02272129, 0
200, 463651768, 0.9980964, 0.010750486, 0.00890777, 0.060072858, 0.1463461, -0.390923, 0.023591995, 0
201, 463668435, 0.99809945, 0.010679255, 0.008891011, 0.060038123, 0.1254697, -0.377896, 0.03701496, 0
202, 463685102, 0.99810296, 0.010614267, 0.008878247, 0.059994075, 0.11399911, -0.38989857, 0.02666378, 0
203, 463701769, 0.9981078, 0.010561184, 0.008854092, 0.059924565, 0.12679473, -0.37251914, 0.020685196, 0
204, 463718436, 0.99811244, 0.010490938, 0.008829124, 0.05986359, 0.13154934, -0.38768518, 0.0037965775, 0
205, 463735103, 0.9981148, 0.010433213, 0.008807624, 0.059838533, 0.13317372, -0.40269282, 0.0033226013, 0
206, 463751770, 0.998119, 0.010366896, 0.0088036535, 0.059779465, 0.14410098, -0.3954019, 0.031996727, 0
207, 463768437, 0.99812436, 0.0102971215, 0.008788305, 0.05970358, 0.13991077, -0.37123865, 0.023393631, 0
208, 463785104, 0.9981288, 0.010229258, 0.008775616, 0.05964429, 0.12169342, -0.37273493, 0.0054597855, 0
209, 463801771, 0.99813265, 0.010166108, 0.008769154, 0.059590317, 0.13682626, -0.37554657, 0.015414238, 0
210, 463818438, 0.99813706, 0.010098105, 0.008753744, 0.059530705, 0.12662753, -0.37421545, 0.029857635, 0
211, 463835105, 0.99814177, 0.010040358, 0.008742828, 0.05946399, 0.1507746, -0.37632045, 0.028198242, 0
212, 463851772, 0.99814594, 0.009973798, 0.008724265, 0.059407897, 0.13158244, -0.37083992, 0.04026413, 0
213, 463868439, 0.99814993, 0.009902993, 0.008707186, 0.05935385, 0.13043964, -0.3780879, 0.017721176, 0
214, 463885106, 0.99815387, 0.00984133, 0.008690214, 0.059300978, 0.12196074, -0.3790034, 0.027297974, 0
215, 463901773, 0.9981572, 0.009769549, 0.008663531, 0.05925966, 0.12089017, -0.37388209, 0.015239716, 0
216, 463918440, 0.9981595, 0.009699586, 0.008641649, 0.05923464, 0.15276395, -0.39749262, 0.025810242, 0
217, 463935107, 0.99816316, 0.0096235145, 0.008625615, 0.05918952, 0.12026013, -0.37679744, 0.0155620575, 0
218, 463951774, 0.9981666, 0.009550041, 0.00860737, 0.059146293, 0.12382411, -0.35917407, 0.0029907227, 0
219, 463968441, 0.9981724, 0.009476833, 0.0085944515, 0.05906314, 0.13323492, -0.37124056, 0.0016269684, 0
220, 463985108, 0.99817693, 0.009406552, 0.008581524, 0.05899763, 0.1234074, -0.37107605, 0.026433945, 0
221, 464001775, 0.99817914, 0.009336612, 0.008563226, 0.058974348, 0.13378271, -0.36262843, -4.8732758E-4, 0
222, 464018442, 0.9981817, 0.009259568, 0.008545692, 0.058946576, 0.12701221, -0.3639055, 0.05069065, 0
223, 464035109, 0.9981876, 0.009200889, 0.008524962, 0.058858417, 0.11892753, -0.35519144, 0.024770737, 0
224, 464051776, 0.9981928, 0.009124658, 0.008497647, 0.058786508, 0.116548285, -0.3597175, -0.013097763, 0
225, 464068443, 0.99819547, 0.009052664, 0.0084727565, 0.058756538, 0.123277426, -0.36168808, 0.023579597, 0
226, 464085110, 0.99819887, 0.008980117, 0.0084531875, 0.05871123, 0.13121928, -0.35092613, 0.03206539, 0
227, 464101777, 0.99820244, 0.008898843, 0.008440904, 0.058666065, 0.13437293, -0.36257365, 0.038269043, 0
228, 464118444, 0.9982108, 0.008829157, 0.008423946, 0.058535427, 0.141382, -0.35672885, 0.03279972, 0
229, 464135111, 0.9982146, 0.00874566, 0.008397276, 0.05848628, 0.11264244, -0.34595805, 0.0390234, 0
230, 464151778, 0.9982179, 0.00868047, 0.008380908, 0.058443382, 0.10988601, -0.3403372, 0.002128601, 0
231, 464168445, 0.99822116, 0.008618642, 0.008360841, 0.058397803, 0.12364555, -0.35881302, 0.046156883, 0
232, 464185112, 0.99822295, 0.008548305, 0.008344764, 0.05838144, 0.14451136, -0.36585915, 0.031160355, 0
233, 464201779, 0.9982246, 0.008477909, 0.008334638, 0.058362544, 0.13399287, -0.3386654, 0.020126343, 0
234, 464218446, 0.99822414, 0.008402018, 0.008320282, 0.058384825, 0.09911737, -0.34288967, 0.013448715, 0
235, 464235113, 0.99822825, 0.008321082, 0.008309549, 0.058327656, 0.08433693, -0.35719377, 0.0054798126, 0
236, 464251780, 0.99823135, 0.00825158, 0.008293319, 0.05828782, 0.106744096, -0.3601878, 0.0044956207, 0
237, 464268447, 0.99823314, 0.008170056, 0.008273198, 0.05827147, 0.13260551, -0.35852095, 0.014417648, 0
238, 464285114, 0.9982395, 0.008096093, 0.008265275, 0.058173843, 0.13826257, -0.34821203, 0.039105415, 0
239, 464301781, 0.9988032, -0.009740636, 0.002735119, 0.04785217, -0.017675068, 0.0029930968, 0.0326252, 0
240, 464318448, 0.9988057, -0.009749291, 0.0027418565, 0.047798604, -0.04326737, 0.007805652, 0.016542435, 0
241, 464335115, 0.99880683, -0.009757984, 0.0027418064, 0.047774155, -0.0058888593, -0.0025573864, 0.037132263, 0
242, 464351782, 0.99880666, -0.0097574415, 0.002760554, 0.047774196, 0.012278098, -0.031306725, 0.04396534, 0
243, 464368449, 0.99880654, -0.009757716, 0.0027746262, 0.04777729, 0.012916866, -0.008735683, 0.020555496, 0
244, 464385116, 0.9988066, -0.009763724, 0.0027741385, 0.047775015, -0.018048316, 0.007226949, 0.04945278, 0
245, 464401783, 0.99880695, -0.009764108, 0.0027750204, 0.04776715, -0.040452812, 0.010756317, 0.032956123, 0
246, 464418450, 0.9988067, -0.009765297, 0.002773814, 0.047771685, -0.031144958, 0.0032332966, 0.02380848, 0
247, 464435117, 0.9988009, -0.009772881, 0.0027712449, 0.047893003, -0.0014391562, -0.00820171, 0.00776577, 0
248, 464451784, 0.9987967, -0.00977006, 0.002779575, 0.04798007, 0.00981855, -0.017632622, 0.04821968, 0
249, 464468451, 0.9987936, -0.009778038, 0.0027849716, 0.048042994, 0.0011709267, 0.012160907, 0.019435883, 0
250, 464485118, 0.99879026, -0.009789807, 0.0027878403, 0.048107974, -0.028095262, 0.019645127, 0.033616066, 0
251, 464501785, 0.9987875, -0.00978446, 0.0027906029, 0.048165977, -0.034166075, 0.019455427, 0.034532547, 0
252, 464518452, 0.998784, -0.009783475, 0.0027865816, 0.04823828, -0.011831316, 0.0018889639, 0.03732586, 0
253, 464535119, 0.99878097, -0.0097784065, 0.002780257, 0.04830536, -0.0074084643, -0.0060446076, 0.01953888, 0
254, 464551786, 0.9987778, -0.00977879, 0.0027872815, 0.048371118, -0.0074963593, -0.02463983, 0.051380157, 0
255, 464568453, 0.9987749, -0.009784108, 0.002787833, 0.048428427, -0.027844766, 0.0024314788, 0.024241447, 0
256, 464585120, 0.99877185, -0.009781906, 0.0027859267, 0.048490815, -0.030600224, 0.019647934, 0.014275551, 0
257, 464601787, 0.9987686, -0.0097822035, 0.0027913514, 0.048558433, -0.009186396, 0.0020056795, 0.01959896, 0
258, 464618454, 0.9987653, -0.00977661, 0.0027986963, 0.0486249, -0.005705999, 0.00372909, 0.018012047, 0
259, 464635121, 0.9987619, -0.009770273, 0.0027994607, 0.048698783, 4.8025078E-4, -0.015014057, 0.06118965, 0
260, 464651788, 0.9987595, -0.009762874, 0.0028013322, 0.048746213, -0.017003354, -0.025848903, 0.026616096, 0
261, 464668455, 0.99875623, -0.009753961, 0.0027978804, 0.048815176, -0.004680672, 0.00490136, 0.030626297, 0
262, 464685122, 0.9987531, -0.009749712, 0.0028085802, 0.048883323, -0.012153662, 0.022752892, 0.03854561, 0
263, 464701789, 0.9987492, -0.009746616, 0.0028079925, 0.048961315, -9.3381794E-4, 0.015158202, 0.02458191, 0
264, 464718456, 0.99874663, -0.009745369, 0.0028086756, 0.049013793, 0.0060498533, 8.064906E-4, 0.050287247, 0
265, 464735123, 0.99874437, -0.0097499, 0.0028075438, 0.04905885, -0.011279859, -0.0010308767, 0.040537834, 0
266, 464751790, 0.99874, -0.009748598, 0.0028044342, 0.04914729, 0.01040772, -0.00837772, 0.025331497, 0
267, 464768457, 0.9987372, -0.009748677, 0.002809967, 0.0492042, -0.014687078, 0.007935213, 0.045895576, 0
268, 464785124, 0.99873525, -0.009751068, 0.002791869, 0.0492451, -0.017703889, -3.7373463E-4, 0.032093048, 0
269, 464801791, 0.9987316, -0.0097512, 0.002798715, 0.049318336, -0.016529407, -0.0065232883, 0.03114891, 0
270, 464818458, 0.99872786, -0.0097525995, 0.0028089501, 0.0493937, -0.008182353, -0.009568904, 0.01911354, 0
271, 464835125, 0.99872476, -0.009746979, 0.0028108375, 0.04945752, -0.004536824, 0.010466469, 0.036818504, 0
272, 464851792, 0.9987222, -0.00974063, 0.002805884, 0.049510513, -0.010646434, -0.0077776993, 0.013393402, 0
273, 464868459, 0.99871874, -0.009732637, 0.0027946753, 0.049582977, -0.025031177, -0.009001579, 0.04356861, 0
274, 464885126, 0.9987163, -0.009733152, 0.0027886694, 0.04963238, -0.013147589, 0.001572232, 0.027920723, 0
275, 464901793, 0.99871415, -0.00973191, 0.0027893595, 0.04967511, -0.008908121, -0.012034287, 0.02935791, 0
276, 464918460, 0.99871165, -0.009735778, 0.002780023, 0.04972506, -0.010342391, -0.017379893, 0.03678894, 0
277, 464935127, 0.9987092, -0.009746778, 0.0027727983, 0.049771626, -0.024728693, -0.005936895, 0.01772976, 0
278, 464951794, 0.9987054, -0.00973579, 0.002768833, 0.049850304, -0.023129199, 0.008894789, 0.034643173, 0
279, 464968461, 0.9987028, -0.0097443545, 0.0027614473, 0.049902074, -0.012607896, 4.386791E-4, 0.056456566, 0
280, 464985128, 0.9987001, -0.009738425, 0.002769167, 0.04995754, -0.0076675895, -0.0032566816, 0.024051666, 0
281, 465001795, 0.9986977, -0.009726976, 0.0027726844, 0.0500073, -0.0062740524, -0.021613669, 0.045764923, 0
282, 465018462, 0.9986955, -0.009727417, 0.0027762102, 0.050051257, -0.026620908, 0.0077538113, 0.06955528, 0
283, 465035129, 0.99869215, -0.009729935, 0.002767946, 0.050118532, -0.011633014, 0.022864042, 0.02842617, 0
284, 465051796, 0.9986894, -0.009734948, 0.0027454675, 0.050172757, -0.006978832, -0.0022509291, 0.049513817, 0
285, 465068463, 0.99868715, -0.0097374255, 0.002729211, 0.05021908, -0.024534144, 0.01977552, 0.030622482, 0
286, 465085130, 0.9986858, -0.009729189, 0.0027125506, 0.050246723, -0.0018530813, 0.005721366, 0.010885239, 0
287, 465101797, 0.998683, -0.009731959, 0.0027070588, 0.05030243, -0.022041311, -0.025620865, 0.021428108, 0
288, 465118464, 0.998679, -0.009734954, 0.0027097142, 0.05038106, 4.2712977E-4, -0.016192423, 0.033394814, 0
289, 465135131, 0.9986766, -0.009739341, 0.002712117, 0.05042661, -0.018214196, 0.006523533, 0.026394844, 0
290, 465151798, 0.99867386, -0.009730296, 0.0027242473, 0.050481707, -0.010328786, 0.025749775, 0.04693699, 0
291, 465168465, 0.9986704, -0.009733202, 0.0027216, 0.050550353, -0.008859964, 0.007874571, 0.02195549, 0
292, 465185132, 0.99866813, -0.009731976, 0.0027108747, 0.05059603, -0.022641988, -0.017202988, 0.037543297, 0
293, 465201799, 0.99866486, -0.009734695, 0.0027122279, 0.050660264, -0.00305413, -0.01892809, 0.03233242, 0
294, 465218466, 0.998663, -0.0097347805, 0.0027085303, 0.0506966, -0.008411745, -7.6617446E-4, 0.037709236, 0
295, 465235133, 0.99866164, -0.009724937, 0.0027124665, 0.050726797, -6.958674E-4, -0.008066499, 0.04443264, 0
296, 465251800, 0.99865884, -0.009723292, 0.0027156854, 0.05078154, -0.004406029, 0.014201622, 0.05369568, 0
297, 465268467, 0.99865663, -0.009714526, 0.0027102206, 0.050826754, -0.012798103, -0.041611344, 0.023661613, 0
298, 465285134, 0.9986536, -0.009712942, 0.0027021968, 0.050886877, -0.003743147, -0.025423223, 0.034453392, 0
299, 465301801, 0.9986505, -0.009712093, 0.002701328, 0.050947975, -0.007902515, -0.003944941, 0.018471718, 0
300, 465318468, 0.9986485, -0.009711683, 0.0026901267, 0.050988168, -0.023532461, 0.005954441, 0.03350544, 0
301, 465335135, 0.9986457, -0.009708401, 0.0026915588, 0.05104229, -0.019452412, 0.0039969776, 0.013790131, 0
302, 465351802, 0.9986433, -0.009712357, 0.002701563, 0.051089507, -0.02043347, -0.005011768, 0.028111458, 0
303, 465368469, 0.99864036, -0.009708366, 0.0027081477, 0.05114795, -0.01497807, 1.0502315E-4, 0.028037071, 0
304, 465385136, 0.9986377, -0.009705288, 0.0027147366, 0.051198613, -0.014338143, 0.008991724, 0.03297901, 0
305, 465401803, 0.9986348, -0.009700521, 0.002727317, 0.05125454, -0.0045279046, -0.0032973888, 0.032159805, 0
306, 465418470, 0.9986323, -0.009707347, 0.0027339687, 0.051301304, -0.0033629253, 0.004857125, 0.028089523, 0
307, 465435137, 0.9986296, -0.009700418, 0.0027352911, 0.051354475, -0.0054112608, -0.007208726, 0.03509617, 0
308, 465451804, 0.99862826, -0.009699758, 0.0027423946, 0.05138085, -0.0027484428, -0.02333557, 0.03946209, 0
309, 465468471, 0.9986242, -0.009710652, 0.002736352, 0.05145721, -0.01599255, -0.016890615, 0.03017044, 0
310, 465485138, 0.99862224, -0.009706799, 0.002737625, 0.05149623, 0.001481037, 0.011839754, 0.032217026, 0
311, 465501805, 0.99861807, -0.009706422, 0.0027410414, 0.051578823, -0.0029387414, 0.0018781305, 0.033595085, 0
312, 465518472, 0.9986134, -0.009702366, 0.0027389748, 0.05166998, -0.030446075, -0.016954638, 0.02608776, 0
313, 465535139, 0.9986114, -0.009695968, 0.0027260145, 0.05171217, -0.020216309, 0.0041964278, 0.025549889, 0
314, 465551806, 0.9986088, -0.009697449, 0.0027253772, 0.05175917, -0.0015143666, -0.015475799, 0.025063515, 0
315, 465568473, 0.9986061, -0.009700039, 0.0027258573, 0.051812075, -0.014296264, -0.0016128345, 0.020685196, 0
316, 465585140, 0.99860317, -0.009694665, 0.0027278191, 0.051869657, -0.0017935744, 0.013242382, 0.029066086, 0
317, 465601807, 0.9986008, -0.009691861, 0.0027273227, 0.051914085, -0.011735551, -0.010565905, 0.045788765, 0
318, 465618474, 0.9985967, -0.0096980855, 0.0027299742, 0.051990896, -0.017785098, -0.012350599, 0.04054928, 0
319, 465635141, 0.998594, -0.009701459, 0.0027250072, 0.052044746, -8.9059264E-4, -0.0069184382, 0.029236794, 0
320, 465651808, 0.9985904, -0.009702468, 0.002718321, 0.0521127, -0.009386292, -0.008629137, 0.042474747, 0
321, 465668475, 0.99858665, -0.00970022, 0.0027197318, 0.052185122, -0.012890623, 0.0025812185, 0.034500122, 0
322, 465685142, 0.998584, -0.009718342, 0.0027177478, 0.05223338, -0.016562546, 0.0067351577, 0.0317688, 0
323, 465701809, 0.99858046, -0.009717404, 0.002711556, 0.05230066, -0.016533772, -0.007533539, 0.027327538, 0
324, 465718476, 0.99857867, -0.009714664, 0.0027098095, 0.05233435, -0.0043789805, -0.0048449156, 0.041932106, 0
325, 465735143, 0.99857485, -0.009704433, 0.0027004504, 0.05240992, 0.0011917921, 0.004586737, 0.022191048, 0
326, 465751810, 0.9985708, -0.00970338, 0.0026952885, 0.05248887, -0.019593196, 0.0024040844, 0.043271065, 0
327, 465768477, 0.9985668, -0.009700741, 0.0026976855, 0.05256648, -0.014938497, 0.0032832795, 0.030402184, 0
328, 465785144, 0.99856824, -0.009695979, 0.0026975756, 0.05253759, -0.015554517, 0.0064282883, 0.01936245, 0
329, 465801811, 0.9985675, -0.009702293, 0.002706009, 0.052551817, -0.031992517, -0.013487882, 0.04633808, 0
330, 465818478, 0.9985651, -0.009697874, 0.0027097708, 0.052596565, -0.010705196, 0.0041292203, 0.04206276, 0
331, 465835145, 0.9985634, -0.009700181, 0.0027162922, 0.052628372, -0.0054264404, -0.0070079975, 0.0332222, 0
332, 465851812, 0.99856037, -0.009695731, 0.002714292, 0.052687142, -0.0074405544, -0.02727185, 0.026366234, 0
333, 465868479, 0.9985551, -0.009692607, 0.0027128318, 0.052787382, -0.016113037, 0.010644476, 0.057002068, 0
334, 465885146, 0.9985524, -0.009689556, 0.0027033791, 0.05283938, 0.009336173, -0.0030677363, 0.014357567, 0
335, 465901813, 0.9985492, -0.009682221, 0.002694566, 0.052899685, -0.013602048, -0.006172799, 0.030547142, 0
336, 465918480, 0.9985473, -0.009684589, 0.0026943367, 0.052936323, -0.01183718, 1.7670097E-4, 0.029269218, 0
337, 465935147, 0.99854577, -0.009691007, 0.0026966322, 0.052964237, -0.014444863, -0.0017262115, 0.031118393, 0
338, 465951814, 0.99854374, -0.009704742, 0.0026970452, 0.052999873, -0.007995682, -0.0074208747, 0.016525269, 0
339, 465968481, 0.9985415, -0.009696012, 0.0026942545, 0.05304313, -0.015233211, -0.020764409, 0.062348366, 0
340, 465985148, 0.9985391, -0.009698303, 0.00268842, 0.053090047, 0.0061771767, -0.017527355, 0.025060654, 0
341, 466001815, 0.9985364, -0.009699347, 0.0026913353, 0.053139854, 1.9687126E-4, -0.0032581415, 0.05687523, 0
342, 466018482, 0.9985339, -0.00969033, 0.0026884915, 0.0531885, -0.006030907, -0.0042554215, 0.03941822, 0
343, 466035149, 0.99853206, -0.00969728, 0.0026922594, 0.05322229, -0.014045406, -0.018946327, 0.025398254, 0
344, 466051816, 0.9985329, -0.009697598, 0.002688238, 0.053205136, -0.016899921, -0.010304891, 0.030175209, 0
345, 466068483, 0.9985316, -0.009710037, 0.0026871695, 0.053229645, -0.02257308, -0.013792894, 0.031718254, 0
346, 466085150, 0.998532, -0.009709304, 0.0026900854, 0.05322146, -0.008493901, 0.0030129547, 0.027719498, 0
347, 466101817, 0.9985296, -0.009707874, 0.0026913653, 0.053265788, -0.010241982, -0.004209706, 0.020998001, 0
348, 466118484, 0.99852777, -0.009699553, 0.0026866638, 0.05330173, -0.0049999724, -0.0017482205, 0.023672104, 0
349, 466135151, 0.9985249, -0.0096949255, 0.0026913316, 0.053356215, -0.002092504, -0.010448043, 0.01618576, 0
350, 466151818, 0.99852234, -0.009697642, 0.002687567, 0.05340423, -0.014711003, -0.008264496, 0.03927231, 0
351, 466168485, 0.9985203, -0.009697685, 0.0026918573, 0.05344196, 0.0036758468, -0.0065035843, 0.053118706, 0
352, 466185152, 0.99851966, -0.009694528, 0.0027003305, 0.053453863, -0.011392572, 0.0098931305, 0.030351639, 0
353, 466201819, 0.99851793, -0.009693749, 0.0026876207, 0.053486887, -0.016961172, 3.1745825E-5, 0.04168701, 0
354, 466218486, 0.99851346, -0.009697202, 0.002685111, 0.053568587, -0.008137045, 0.0012947477, 0.038074493, 0
355, 466235153, 0.9985112, -0.009701086, 0.0026766947, 0.053610023, -0.004261301, -0.017375961, 0.028746605, 0
356, 466251820, 0.9985099, -0.0097029805, 0.0026708017, 0.05363738, -0.0030950974, -0.008096708, 0.029154778, 0
357, 466268487, 0.99850655, -0.00969677, 0.002671097, 0.05370054, -0.0069319573, 0.0040505296, 0.018289566, 0
358, 466285154, 0.9985044, -0.0097014895, 0.0026688387, 0.0537365, -0.00973445, 0.009196762, 0.04137993, 0
359, 466301821, 0.9984993, -0.009771606, 0.0027232966, 0.053816017, -0.0026539299, 0.011191168, 0.039193153, 0
360, 466318488, 0.99849963, -0.009766771, 0.0027275912, 0.053813048, -0.010460787, 0.0010615608, 0.01444912, 0
361, 466335155, 0.99849653, -0.009763477, 0.002733463, 0.05386973, -0.017374754, -0.014553355, 0.0460968, 0
362, 466351822, 0.9984951, -0.0097703235, 0.0027337924, 0.05389494, -0.008857071, -0.0069715506, 0.025985718, 0
363, 466368489, 0.9984932, -0.009771535, 0.002737962, 0.053930245, 0.00102484, -0.0036679592, 0.04321766, 0
364, 466385156, 0.99849224, -0.009779261, 0.0027470468, 0.053947408, -0.0073199184, -0.005696151, 0.039304733, 0
365, 466401823, 0.9984912, -0.009767039, 0.00273956, 0.053966112, -0.018021831, -0.015073281, 0.06291294, 0
366, 466418490, 0.9984856, -0.00976587, 0.002744356, 0.05406939, -0.036048297, -0.002687024, 0.038230896, 0
367, 466435157, 0.9984809, -0.009767932, 0.002736306, 0.05415648, -0.025686044, -0.012117106, 0.04643154, 0
368, 466451824, 0.99847853, -0.00976842, 0.0027495665, 0.054199755, -0.007235233, -0.0038019344, 0.024637222, 0
369, 466468491, 0.9984774, -0.0097755715, 0.002763298, 0.054218676, -0.01252335, -0.014860831, 0.012122154, 0
370, 466485158, 0.99847466, -0.009782713, 0.0027579644, 0.05427048, -0.012560595, -0.006025127, 0.03193474, 0
371, 466501825, 0.9984742, -0.00978323, 0.0027488417, 0.054277018, -0.024884483, 0.0037359772, 0.033784866, 0
372, 466518492, 0.9984719, -0.009783044, 0.0027439897, 0.0543197, -0.020696957, -0.018531725, 0.02706337, 0
373, 466535159, 0.9984702, -0.009784424, 0.0027482116, 0.054351684, 0.002014814, -0.01679915, 0.043923378, 0
374, 466551826, 0.99846655, -0.009793685, 0.0027515523, 0.05441806, -0.013159471, -0.010014757, 0.050052643, 0
375, 466568493, 0.9984669, -0.009791898, 0.0027621924, 0.05441006, -0.0061509036, 0.0019432217, 0.03511238, 0
376, 466585160, 0.99846494, -0.009794393, 0.0027612865, 0.054446414, -0.009907051, -0.016938588, 0.03656006, 0
377, 466601827, 0.9984625, -0.009795216, 0.0027549511, 0.054488517, -0.027985392, 0.007838201, 0.016098976, 0
378, 466618494, 0.99845535, -0.009786834, 0.0027574878, 0.054622624, -0.009334853, 0.003314767, 0.027630806, 0
379, 466635161, 0.9984533, -0.009781148, 0.002752938, 0.054660883, 0.013801473, 0.001995433, 0.03960228, 0
380, 466651828, 0.9984519, -0.00979259, 0.002754395, 0.054684646, 7.1659475E-4, 7.6485437E-4, 0.03814888, 0
381, 466668495, 0.99844897, -0.009784778, 0.0027524417, 0.05473943, -0.011968162, 0.006151817, 0.028470993, 0
382, 466685162, 0.99844515, -0.009782777, 0.0027499453, 0.054809064, -0.025808785, 0.004035666, 0.020179749, 0
383, 466701829, 0.99844337, -0.009782073, 0.002740099, 0.054841615, 0.0020128947, -0.0026642815, 0.04823017, 0
384, 466718496, 0.99844104, -0.009779122, 0.002746899, 0.05488542, -0.003502083, -0.0051154434, 0.037168503, 0
385, 466735163, 0.9984384, -0.009770598, 0.0027492836, 0.054934178, 0.002018563, -0.003995413, 0.039754868, 0
386, 466751830, 0.9984344, -0.009768114, 0.0027417408, 0.05500632, 0.0045190603, -0.0068939216, 0.04125023, 0
387, 466768497, 0.9984329, -0.009767226, 0.0027475038, 0.05503444, -0.0094086, 0.0040452704, 0.02236557, 0
388, 466785164, 0.99843156, -0.009762878, 0.0027473653, 0.05506011, -0.014179003, 1.8596977E-4, 0.049510002, 0
389, 466801831, 0.99842894, -0.009756643, 0.0027444873, 0.055108566, -0.011651517, 0.0036991674, 0.03443718, 0
390, 466818498, 0.99842733, -0.009758722, 0.0027482293, 0.05513968, 0.004487005, 0.001456103, 0.034667015, 0
391, 466835165, 0.998425, -0.009769874, 0.0027482442, 0.055177823, -0.01165677, -0.0054251063, 0.04371643, 0
392, 466851832, 0.9984228, -0.009765117, 0.0027507755, 0.055218756, -0.0091902, -0.00827644, 0.016010284, 0
393, 466868499, 0.99842125, -0.00976752, 0.0027561602, 0.055246487, -0.013900205, 0.0019615707, 0.03447056, 0
394, 466885166, 0.9984195, -0.009777704, 0.0027595856, 0.055275526, -0.012119566, -0.0070712026, 0.022187233, 0
395, 466901833, 0.9984182, -0.009779539, 0.002759567, 0.055297136, -0.0081815105, -0.01651978, 0.028866768, 0
396, 466918500, 0.99841636, -0.009773398, 0.0027575416, 0.055331685, -0.019086117, -0.015593695, 0.019750595, 0
397, 466935167, 0.99841434, -0.009769834, 0.0027494384, 0.055368677, -0.03186851, -0.01189529, 0.04466629, 0
398, 466951834, 0.9984133, -0.0097695915, 0.0027547001, 0.055388715, -0.011189615, -0.009828828, 0.029542923, 0
399, 466968501, 0.9984098, -0.009769933, 0.0027591137, 0.055452365, 7.666931E-4, -3.6219577E-4, 0.0091609955, 0
400, 466985168, 0.9984115, -0.00977284, 0.002751041, 0.05542069, -0.0066580754, -0.0030930003, 0.038193703, 0
401, 467001835, 0.99840933, -0.009789792, 0.002756482, 0.05545668, -0.0015857039, -0.011543523, 0.010029793, 0
402, 467018502, 0.998407, -0.009788151, 0.0027545758, 0.0554983, -0.023757853, -0.0019337502, 0.036589622, 0
403, 467035169, 0.9984054, -0.009792793, 0.0027624744, 0.05552595, -0.01283409, 0.015332186, 0.0390234, 0
404, 467051836, 0.9984007, -0.009787905, 0.0027652415, 0.05561127, -0.0033288414, -0.0064875265, 0.04480076, 0
405, 467068503, 0.99839836, -0.009784853, 0.0027672537, 0.055654727, 0.009099228, -0.016533498, 0.017804146, 0
406, 467085170, 0.99839747, -0.009779402, 0.002776896, 0.055672254, -0.013333089, -0.0027179944, 0.02494049, 0
407, 467101837, 0.9983949, -0.009770145, 0.002764354, 0.055720277, 0.0052179866, -0.01529094, 0.021566391, 0
408, 467118504, 0.99839246, -0.009763018, 0.0027680707, 0.055763047, -0.02950818, -0.004084944, 0.036631584, 0
409, 467135171, 0.99838924, -0.009766715, 0.0027663107, 0.05581984, -0.021883123, -0.00660295, 0.050027847, 0
410, 467151838, 0.9983887, -0.00977189, 0.0027518682, 0.055829443, -0.0071292985, -0.014364214, 0.04161358, 0
411, 467168505, 0.9983895, -0.009778493, 0.0027564429, 0.055814408, -0.013036124, -0.0055430443, 0.025806427, 0
412, 467185172, 0.9983884, -0.009778683, 0.0027565819, 0.05583395, -0.011948873, -0.011913702, 0.0042324066, 0
413, 467201839, 0.9983867, -0.009773674, 0.0027647088, 0.055864975, -0.009707996, 0.0028876895, 0.038451195, 0
414, 467218506, 0.9983858, -0.0097767925, 0.0027671556, 0.05588087, -0.008259411, -0.01803181, 0.017516136, 0
415, 467235173, 0.9983823, -0.009778415, 0.0027623384, 0.05594276, -0.005846074, -0.011946069, 0.030978203, 0
416, 467251840, 0.9983805, -0.009783133, 0.0027624385, 0.055973683, -0.012929339, -0.003194936, 0.009128571, 0
417, 467268507, 0.99837613, -0.009791377, 0.0027614064, 0.056050852, -0.018039344, -6.803665E-4, 0.028642654, 0
418, 467285174, 0.99837285, -0.009793317, 0.002763961, 0.056109924, -0.007700821, -0.003207383, 0.037625313, 0
419, 467301841, 0.9983738, -0.009794232, 0.0027558873, 0.05609274, -0.0014103772, -0.023319945, 0.023812294, 0
420, 467318508, 0.99836886, -0.0097852005, 0.0027589228, 0.056182116, -0.009141522, -0.0050986516, 0.014662743, 0
421, 467335175, 0.9983587, -0.009793026, 0.0027524943, 0.056359306, -0.0012793096, -0.0035962327, 0.04103756, 0
422, 467351842, 0.9983578, -0.009788925, 0.0027525555, 0.056377824, -0.0019410511, -0.01384097, 0.025511742, 0
423, 467368509, 0.9983566, -0.009790754, 0.0027531292, 0.056399394, -0.013093358, -0.01247458, 0.006093025, 0
424, 467385176, 0.99835485, -0.009796342, 0.0027532487, 0.05642921, -0.018053755, -0.009924492, 0.03968239, 0
425, 467401843, 0.998355, -0.009801438, 0.0027461087, 0.056424394, -0.015626308, -0.010857672, 0.041356087, 0
426, 467418510, 0.9983577, -0.009799755, 0.002754816, 0.05637561, -0.017562589, -0.004428022, 0.03457737, 0
427, 467435177, 0.9983516, -0.009798624, 0.002744178, 0.056484025, -0.0012710466, 7.201657E-4, 0.026922226, 0
428, 467451844, 0.998349, -0.009795845, 0.0027553027, 0.05653281, -0.021106768, 0.001341434, 0.025063515, 0
429, 467468511, 0.99834996, -0.009794687, 0.0027620054, 0.056514204, -0.021178888, -0.0100217275, 0.048719406, 0
430, 467485178, 0.9983485, -0.009795474, 0.002767865, 0.056539763, -0.01450143, 0.003949474, 0.024103165, 0
431, 467501845, 0.9983446, -0.009802384, 0.0027710744, 0.056607645, -0.0022992638, 0.010393576, 0.058050156, 0
432, 467518512, 0.99834245, -0.009805839, 0.0027651382, 0.056644175, -0.002557601, -0.0065615233, 0.04090786, 0
433, 467535179, 0.99833953, -0.009801192, 0.0027747117, 0.05669675, -0.009473387, -0.0072776517, 0.0540514, 0
434, 467551846, 0.9983394, -0.009795461, 0.0027804468, 0.056699265, -0.018981528, -0.0022303031, 0.034748077, 0
435, 467568513, 0.99833435, -0.009799644, 0.0027801816, 0.05678779, -2.531616E-4, 0.0010567972, 0.022079468, 0
436, 467585180, 0.9983325, -0.009796621, 0.002779561, 0.05682144, -0.0126730185, 0.0072928085, 0.02842617, 0
437, 467601847, 0.9983304, -0.009792375, 0.0027710968, 0.056858025, -0.005632486, 0.0056209248, 0.030881882, 0
438, 467618514, 0.9983289, -0.009789371, 0.0027734437, 0.056884952, -0.009295408, 0.0018496675, 0.014059067, 0
439, 467635181, 0.998327, -0.009797433, 0.0027656932, 0.05691779, -0.014582202, -0.007232069, 0.035320282, 0
440, 467651848, 0.9983269, -0.009803115, 0.0027567574, 0.056919567, -0.016891792, 0.0020954758, 0.01696682, 0
441, 467668515, 0.99832505, -0.009814686, 0.0027509453, 0.056949142, -0.013925681, -0.008028871, 0.026394844, 0
442, 467685182, 0.99832547, -0.009818687, 0.002757298, 0.056941517, -0.011391645, 0.006208254, 0.02969551, 0
443, 467701849, 0.9983227, -0.009813588, 0.0027554005, 0.056991365, -0.0019184711, 0.0045936033, 0.037147522, 0
444, 467718516, 0.9983201, -0.009818762, 0.0027641365, 0.057036176, -0.014993773, -0.0062015485, 0.039653778, 0
445, 467735183, 0.99831796, -0.009824499, 0.0027574445, 0.057072185, -0.014693917, -0.010762882, 0.019655228, 0
446, 467751850, 0.9983171, -0.009822776, 0.0027607938, 0.05708684, -0.0071897535, -0.001576423, 0.026238441, 0
447, 467768517, 0.9983169, -0.009823078, 0.002779657, 0.057089917, -0.0066679902, -0.0015827023, 0.03818798, 0
448, 467785184, 0.9983143, -0.009831619, 0.002791887, 0.05713308, -0.013994571, 8.4470434E-4, 0.028597832, 0
449, 467801851, 0.9983113, -0.009835329, 0.002798297, 0.057185303, -0.021535406, 0.0020047994, 0.041436195, 0
450, 467818518, 0.99830955, -0.009832421, 0.0027936022, 0.057215482, -0.021935085, -6.672281E-4, 0.02041912, 0
451, 467835185, 0.99830717, -0.00983843, 0.0027956301, 0.057256505, -0.0164362, -0.004048036, 0.04316616, 0
452, 467851852, 0.9983125, -0.009848297, 0.0027963743, 0.057161234, -9.749915E-4, 4.50658E-5, 0.035381317, 0
453, 467868519, 0.9983102, -0.009844233, 0.0027979, 0.057201818, -0.002800998, -0.010725081, 0.020394325, 0
454, 467885186, 0.99830836, -0.009839932, 0.0027983356, 0.057234928, -0.018292977, -0.0106307585, 0.047600746, 0
455, 467901853, 0.99830645, -0.009835554, 0.002796966, 0.057268698, -0.010468729, -5.196956E-4, 0.039435387, 0
456, 467918520, 0.9983047, -0.0098189525, 0.0027896867, 0.057301447, -0.006121119, -0.008450927, 0.027283669, 0
457, 467935187, 0.9982994, -0.009823568, 0.0027948758, 0.057392746, 8.5457385E-4, 0.0126860645, 0.0351696, 0
458, 467951854, 0.998297, -0.009823809, 0.0027974078, 0.05743501, -0.014516564, -0.010862436, 0.026640892, 0
459, 467968521, 0.9982952, -0.00982648, 0.0027836405, 0.05746678, -0.022370342, -0.006733684, -0.008319855, 0
460, 467985188, 0.99829566, -0.009818549, 0.0027939691, 0.057459615, -0.019891815, -0.006039327, 0.036345482, 0
461, 468001855, 0.99829525, -0.009811995, 0.0027923447, 0.057467807, 0.008674478, 0.003608044, 0.037132263, 0
462, 468018522, 0.99829435, -0.009814994, 0.0027897384, 0.057484094, 0.0018726771, -0.009510861, 0.050727844, 0
463, 468035189, 0.99829274, -0.009820399, 0.0027826084, 0.057510756, -0.0021795814, -0.0088853035, 0.042146683, 0
464, 468051856, 0.9982914, -0.009825045, 0.0027715433, 0.057534773, -0.0076508154, -0.018879391, 0.021522522, 0
465, 468068523, 0.9982872, -0.009824421, 0.002779356, 0.057607196, -0.009656736, -0.008929, 0.016655922, 0
466, 468085190, 0.9982857, -0.00982217, 0.0027679491, 0.05763399, 2.2954431E-4, 3.870895E-4, 0.047691345, 0
467, 468101857, 0.998289, -0.00981424, 0.0027680115, 0.05757587, 0.0045625526, -0.004955527, 0.0390625, 0
468, 468118524, 0.998289, -0.009813315, 0.0027754335, 0.057577733, -0.018301392, 0.012519834, 0.039574623, 0
469, 468135191, 0.9982871, -0.0098127965, 0.0027688162, 0.057610694, -0.009771887, -0.010606389, 0.036589622, 0
470, 468151858, 0.99828506, -0.009808791, 0.0027688711, 0.0576467, -0.022675015, -0.009566313, 0.02748394, 0
471, 468168525, 0.99828386, -0.009809902, 0.0027629726, 0.05766784, -0.009831678, -0.007041224, 0.035346985, 0
472, 468185192, 0.9982831, -0.009812417, 0.0027705624, 0.05768109, 0.0069093583, -0.008368709, 0.05050087, 0
473, 468201859, 0.99828035, -0.009825761, 0.002768895, 0.057724338, -0.008509147, 0.007138522, 0.014720917, 0
474, 468218526, 0.9982785, -0.009833491, 0.0027751138, 0.05775543, -0.013660343, 0.013916384, 0.0493021, 0
475, 468235193, 0.9982771, -0.0098443525, 0.0027770088, 0.05777706, -0.0039016474, 0.002917396, 0.041669846, 0
476, 468251860, 0.9982756, -0.009841943, 0.0027794903, 0.0578043, -0.018391384, 0.0034417573, 0.034388542, 0
477, 468268527, 0.9982733, -0.009845018, 0.0027790244, 0.057843547, -0.007218899, -0.00143869, 0.04583168, 0
478, 468285194, 0.9982721, -0.009837907, 0.0027812251, 0.057865065, -0.0038828515, -0.012991244, 0.02396202, 0
479, 468301861, 0.9982681, -0.009824843, 0.0027469704, 0.0579383, -0.007493085, -0.015488281, 0.023137093, 0
480, 468318528, 0.9982672, -0.009817157, 0.00274388, 0.057955753, -0.015951084, -0.01291958, 0.03806019, 0
481, 468335195, 0.99826545, -0.009813739, 0.002755862, 0.057984687, -0.006786388, -0.0011819225, 0.044272423, 0
482, 468351862, 0.9982666, -0.009812205, 0.002753283, 0.057965577, -0.012634519, -0.015355242, 0.039913177, 0
483, 468368529, 0.9982648, -0.009818147, 0.0027563393, 0.057994444, -0.007536932, -0.0023252612, 0.041543007, 0
484, 468385196, 0.99826324, -0.009815006, 0.0027566098, 0.058022305, -0.010018768, -0.0051211007, 0.016137123, 0
485, 468401863, 0.9982622, -0.009808789, 0.0027598466, 0.058040913, -0.010390765, -0.0019148355, 0.030454636, 0
486, 468418530, 0.99826026, -0.009811994, 0.0027579109, 0.058074508, -0.012098074, -0.0069936784, 0.022072792, 0
487, 468435197, 0.998258, -0.009809656, 0.002749625, 0.05811362, -0.012838488, -0.007102948, 0.0390625, 0
488, 468451864, 0.9982567, -0.009804783, 0.0027493434, 0.058137238, -0.018168224, -0.0036903108, 0.016740799, 0
489, 468468531, 0.99825394, -0.009800604, 0.002749497, 0.058185365, -0.01427137, 0.0031919605, 0.039699554, 0
490, 468485198, 0.99825484, -0.0098018395, 0.0027550834, 0.05816935, -0.005544342, -0.012175184, 0.03682518, 0
491, 468501865, 0.9982545, -0.009804999, 0.0027561854, 0.058175806, -0.0041488195, -0.0072505716, 0.053126335, 0
492, 468518532, 0.99825346, -0.009807423, 0.002749752, 0.058193926, -2.8846617E-4, -0.0034829115, 0.04826927, 0
493, 468535199, 0.99825215, -0.0098150475, 0.0027448044, 0.0582135, -0.010589431, -0.0033499424, 0.0181427, 0
494, 468551866, 0.99825215, -0.009817096, 0.0027481746, 0.058213923, -0.018111642, -0.008002951, 0.017852783, 0
495, 468568533, 0.99824905, -0.009822227, 0.002744136, 0.058265686, 0.006068338, -0.0010153635, 0.027636528, 0
496, 468585200, 0.99824935, -0.009823737, 0.0027424057, 0.058259767, 0.007857892, -0.008037952, 0.045692444, 0
497, 468601867, 0.9982526, -0.009815223, 0.0027494181, 0.05820521, -0.0025696307, -0.0059390464, 0.016980171, 0
498, 468618534, 0.99825, -0.009821475, 0.0027465923, 0.05824851, -9.393132E-4, -0.008323539, 0.02957058, 0
499, 468635201, 0.9982498, -0.00982761, 0.002752568, 0.058252804, -0.006567357, 0.011491556, 0.042137146, 0
500, 468651868, 0.9982489, -0.00982964, 0.0027526198, 0.0582694, -0.019383214, -8.799635E-4, 0.026795387, 0
501, 468668535, 0.99824685, -0.009836106, 0.0027527034, 0.05830105, -0.021621017, 0.008497795, 0.029417038, 0
502, 468685202, 0.99824697, -0.009844426, 0.0027554804, 0.058298603, -0.010912868, 0.006255506, 0.046430588, 0
503, 468701869, 0.9982452, -0.009847635, 0.0027500803, 0.058326147, -0.005977526, 0.008400944, 0.012969971, 0
504, 468718536, 0.99824566, -0.009839674, 0.002751658, 0.058319137, -0.0134852035, -0.0053011477, 0.0033397675, 0
505, 468735203, 0.9982448, -0.009837777, 0.0027586939, 0.05833501, -0.008468089, -0.019173885, 0.017364502, 0
506, 468751870, 0.9982441, -0.009828996, 0.0027540799, 0.05834911, -0.014791275, 0.0027418125, 0.046078682, 0
507, 468768537, 0.99824196, -0.009831377, 0.002745304, 0.058385875, -0.01060939, -0.0036632447, 0.04678631, 0
508, 468785204, 0.99824077, -0.009839414, 0.0027379745, 0.058406167, -0.010098146, -1.3098557E-4, 0.04662037, 0
509, 468801871, 0.9982385, -0.009843907, 0.0027413701, 0.05844193, -0.00956399, -0.004399629, 0.041109085, 0
510, 468818538, 0.99823785, -0.009848334, 0.0027408213, 0.058453728, -0.016276103, 0.0014292187, 0.0368042, 0
511, 468835205, 0.99823576, -0.009845536, 0.002737856, 0.058488972, -0.021480221, 0.0026873662, 0.019454956, 0
512, 468851872, 0.9982337, -0.009845131, 0.0027395717, 0.05852437, -0.0059159533, 0.011062431, 0.03468132, 0
513, 468868539, 0.9982323, -0.009859374, 0.0027394758, 0.05854595, -0.006620211, 0.0015682577, 0.031042099, 0
514, 468885206, 0.9982311, -0.009861758, 0.0027464556, 0.058565617, -9.235241E-4, 0.001640159, 0.034874916, 0
515, 468901873, 0.9982283, -0.009860702, 0.0027460742, 0.058613386, -0.025180947, -0.002559419, 0.029670715, 0
516, 468918540, 0.9982254, -0.0098543065, 0.0027358357, 0.058664363, 0.0018711701, -0.0059065954, 0.03160286, 0
517, 468935207, 0.9982249, -0.0098523, 0.0027374187, 0.058672044, -0.008551443, 0.0025853673, 3.900528E-4, 0
518, 468951874, 0.99822474, -0.009854907, 0.0027525797, 0.058674343, -0.017074818, 0.0022104173, 0.017942429, 0
519, 468968541, 0.99822253, -0.009861566, 0.002748697, 0.058710907, -4.7863205E-4, 0.004690196, 0.037726402, 0
520, 468985208, 0.9982203, -0.009860992, 0.0027405266, 0.0587488, -0.017967563, 0.0024722908, 0.027551651, 0
521, 469001875, 0.99822277, -0.009856526, 0.0027545344, 0.058707118, -0.014918847, 0.0014629272, 0.02508068, 0
522, 469018542, 0.9982206, -0.009853045, 0.0027491366, 0.058746863, -0.012264958, -0.007834199, 0.042834282, 0
523, 469035209, 0.9982202, -0.009852066, 0.0027518654, 0.05875209, -0.011198341, 0.008770062, 0.037021637, 0
524, 469051876, 0.99821997, -0.009850347, 0.0027646085, 0.058755446, -0.004339946, -0.018598499, 0.02750206, 0
525, 469068543, 0.9982183, -0.009850737, 0.002758568, 0.05878382, -0.01585144, -0.004323048, 0.02251625, 0
526, 469085210, 0.9982177, -0.009842806, 0.0027628848, 0.058796965, -0.0082658185, -0.0025816585, 0.03545189, 0
527, 469101877, 0.9982165, -0.0098436475, 0.0027593207, 0.05881701, -0.021834472, 0.010270686, 0.024804115, 0
528, 469118544, 0.9982164, -0.009848669, 0.0027629097, 0.058816556, -0.015744524, 6.1152445E-4, 0.020132065, 0
529, 469135211, 0.9982145, -0.0098473225, 0.0027609111, 0.05884875, -0.008419259, -0.0016435815, 0.04303837, 0
530, 469151878, 0.99821365, -0.009845719, 0.002758142, 0.058862556, 0.0019129636, -0.020079657, 0.030323982, 0
531, 469168545, 0.9982122, -0.009843257, 0.0027610748, 0.058889553, 0.010563586, -0.01116112, 0.03992653, 0
532, 469185212, 0.99821013, -0.009842303, 0.0027612704, 0.058923073, -0.015581974, 0.018709745, 0.03296089, 0
533, 469201879, 0.99820954, -0.009843043, 0.002749013, 0.058934834, -0.017411517, 0.012993394, 0.031134605, 0
534, 469218546, 0.99820757, -0.009849311, 0.002744378, 0.058967352, -0.021282526, 0.014963759, 0.03796482, 0
535, 469235213, 0.9982058, -0.009844671, 0.0027345791, 0.058998168, -0.029866619, 9.293948E-4, 0.018817902, 0
536, 469251880, 0.9982054, -0.009836971, 0.0027264964, 0.05900669, -0.0073922947, -0.008572274, 0.028744698, 0
537, 469268547, 0.99820405, -0.00983426, 0.0027218505, 0.05903012, -0.013215376, -0.0047746697, 0.031171799, 0
538, 469285214, 0.99820375, -0.009836036, 0.002720683, 0.059035316, 0.001982731, 0.015777968, 0.032961845, 0
539, 469301881, 0.99820256, -0.009846437, 0.0027207334, 0.059053376, -0.0080340775, -0.006080593, 0.029779434, 0
540, 469318548, 0.99820065, -0.009858894, 0.0027186696, 0.05908381, -0.025394239, 0.004121914, 0.037511826, 0
541, 469335215, 0.99820065, -0.0098647475, 0.0027151408, 0.059082493, -0.019161128, -0.007292997, 0.0440588, 0
542, 469351882, 0.9981996, -0.009864818, 0.0027186496, 0.059100453, 0.0118747, -0.012550141, 0.047786713, 0
543, 469368549, 0.99819785, -0.009863225, 0.0027142281, 0.059130084, -0.00795558, -0.00687859, 0.021968842, 0
544, 469385216, 0.99819785, -0.009871389, 0.0027168, 0.059130628, -0.009608734, -0.0021754655, 0.018880844, 0
545, 469401883, 0.99819744, -0.009876629, 0.0027253807, 0.059134766, -0.008104663, -0.0041136583, 0.03349781, 0
546, 469418550, 0.99819267, -0.009876787, 0.002725209, 0.05921508, -0.01653747, 0.010090709, 0.0370512, 0
547, 469435217, 0.99819076, -0.009871049, 0.0027194696, 0.05924789, -0.014971077, -0.0106284395, 0.035840034, 0
548, 469451884, 0.99818957, -0.009868736, 0.0027301083, 0.059269596, -0.0061142268, -0.003201006, 0.030153275, 0
549, 469468551, 0.9981885, -0.009876424, 0.0027363158, 0.05928692, -0.012491374, -0.0075506936, 0.02174759, 0
550, 469485218, 0.9981889, -0.009882375, 0.0027367128, 0.059277453, -0.0076860026, 0.0069377166, 0.035777092, 0
551, 469501885, 0.9981874, -0.009879195, 0.0027373761, 0.05930278, -0.020674853, -6.4209686E-4, 0.035420418, 0
552, 469518552, 0.9981872, -0.009874865, 0.00274454, 0.05930778, -0.013446817, 0.0010503642, 0.019741058, 0
553, 469535219, 0.99818546, -0.009871679, 0.0027490985, 0.059337966, -0.0015168323, 0.0076797237, 0.02715969, 0
554, 469551886, 0.9981863, -0.009875417, 0.0027443387, 0.05932161, -0.0042199316, 0.00319312, 0.038562775, 0
555, 469568553, 0.9981858, -0.00987836, 0.002750849, 0.05933174, -0.020896135, -0.013066791, 0.005429268, 0
556, 469585220, 0.99818504, -0.00988451, 0.0027563665, 0.059341427, -0.0025650854, 0.0025700289, 0.04789543, 0
557, 469601887, 0.998184, -0.009889614, 0.0027523176, 0.059357353, -0.0033575243, -0.0018797021, 0.041872025, 0
558, 469618554, 0.9981824, -0.009888248, 0.0027566727, 0.059384283, -0.011518924, 0.013928475, 0.03945732, 0
559, 469635221, 0.9981814, -0.009888246, 0.0027593125, 0.059401512, -0.005925129, 0.0011144496, 0.017307281, 0
560, 469651888, 0.998184, -0.0098786075, 0.002766349, 0.05935977, -0.009906089, -0.0060506775, 0.051981926, 0
561, 469668555, 0.99818504, -0.009882996, 0.0027751743, 0.059341475, -0.016897392, -4.6498378E-4, 0.027770042, 0
562, 469685222, 0.9981836, -0.009880059, 0.0027797485, 0.059367146, -0.017007966, 0.0043768515, 0.016433716, 0
563, 469701889, 0.9981827, -0.009885195, 0.0027774344, 0.059379384, -0.016618863, -1.04506275E-4, 0.039351463, 0
564, 469718556, 0.9981827, -0.009892359, 0.002770024, 0.0593787, -0.00877815, 0.012339968, 0.04929161, 0
565, 469735223, 0.9981811, -0.009897318, 0.0027631368, 0.059405178, -0.0019307468, 0.0064635547, 0.021066666, 0
566, 469751890, 0.99818087, -0.00989592, 0.0027627654, 0.059409246, 0.0033194171, -0.0029102014, 0.029484749, 0
567, 469768557, 0.99818, -0.009902078, 0.00276276, 0.05942311, -0.028242717, -0.012113529, 0.023618698, 0
568, 469785224, 0.99817747, -0.009900664, 0.0027610068, 0.05946584, -0.008065926, -0.0077408403, 0.042897224, 0
569, 469801891, 0.9981769, -0.009906376, 0.0027538517, 0.05947488, -0.012727055, -0.003870937, 0.04348278, 0
570, 469818558, 0.99817604, -0.009912056, 0.0027473075, 0.05948827, -0.01685611, 0.0034938287, 0.025834084, 0
571, 469835225, 0.99817455, -0.009912526, 0.0027478973, 0.05951309, -0.009810611, 1.2441988E-4, 0.041231155, 0
572, 469851892, 0.9981742, -0.009902307, 0.0027440826, 0.059521116, -0.020089824, 0.0014574442, 0.035648346, 0
573, 469868559, 0.9981742, -0.009903269, 0.0027390681, 0.059520673, -0.0142176505, 0.010206615, 0.039855957, 0
574, 469885226, 0.9981732, -0.009896502, 0.0027412786, 0.05953879, -0.008383188, -0.0036577475, 0.036982536, 0
575, 469901893, 0.9981726, -0.009893485, 0.0027454093, 0.05954986, -0.008920165, 9.413597E-4, 0.034748077, 0
576, 469918560, 0.9981717, -0.009899177, 0.002746165, 0.059563573, 0.0056303646, 0.010026805, 0.015637398, 0
577, 469935227, 0.9981706, -0.009905399, 0.0027438852, 0.059581082, -0.007688788, 0.006140341, 0.030287743, 0
578, 469951894, 0.9981705, -0.009902044, 0.002729558, 0.059584, -0.017821632, 0.001289551, 0.031373978, 0
579, 469968561, 0.9981694, -0.009896289, 0.002727234, 0.059603054, -0.008072895, 0.007448374, 0.0071439743, 0
580, 469985228, 0.9981676, -0.009891939, 0.002728014, 0.0596356, 1.8188366E-5, -0.006288963, 0.022289276, 0
581, 470001895, 0.9981677, -0.00988739, 0.0027364779, 0.059633896, 0.012232658, -0.0073578022, 0.042796135, 0
582, 470018562, 0.9981651, -0.009893036, 0.0027363799, 0.059675094, -0.010533008, 5.561212E-4, 0.020143509, 0
583, 470035229, 0.9981643, -0.009886953, 0.00273786, 0.059688535, -0.017302355, -0.014661577, 0.04395771, 0
584, 470051896, 0.99816495, -0.00987896, 0.0027399312, 0.059679918, -0.03322222, -0.016720138, 0.03795719, 0
585, 470068563, 0.9981641, -0.009878718, 0.0027452214, 0.05969386, -0.007114529, 0.008205154, 0.014325142, 0
586, 470085230, 0.99816275, -0.009878718, 0.0027335684, 0.05971818, -0.0041066855, 0.0049618757, 0.011362076, 0
587, 470101897, 0.998162, -0.009881435, 0.0027299945, 0.059731215, -0.0014291942, -9.136721E-4, 0.05074787, 0
588, 470118564, 0.99816126, -0.009892503, 0.00272321, 0.059739545, -0.024664128, 0.0035602122, 0.041374207, 0
589, 470135231, 0.9981617, -0.009893143, 0.0027226277, 0.05973311, -0.024183976, 4.6242736E-4, 0.053943634, 0
590, 470151898, 0.99816096, -0.009896916, 0.00271531, 0.059744794, -0.017766986, 0.001042625, 0.043257713, 0
591, 470168565, 0.99815947, -0.009898092, 0.002724732, 0.059769265, 0.0028451942, -0.011007454, 0.04869175, 0
592, 470185232, 0.99815726, -0.009894045, 0.002724406, 0.059807073, -0.0074436134, -0.0033092839, 0.032372475, 0
593, 470201899, 0.9981562, -0.009889422, 0.0027039028, 0.059826575, -0.017852176, 0.0053359177, 0.036110878, 0
594, 470218566, 0.9981512, -0.009883353, 0.0026750064, 0.05991261, -0.012680943, 0.0010671556, 0.065182686, 0
595, 470235233, 0.9981489, -0.009888159, 0.0026730155, 0.0599493, -0.016669175, 0.0011166778, 0.012147903, 0
596, 470251900, 0.99814457, -0.009896032, 0.0026724546, 0.060020097, -0.011349194, 0.0068704668, 0.018733978, 0
597, 470268567, 0.99814236, -0.009897582, 0.0026824316, 0.060057048, -0.004327878, 3.4770233E-4, 0.01734829, 0
598, 470285234, 0.99813926, -0.009905424, 0.0026925434, 0.06010712, -0.017075034, -0.002888884, 0.013339996, 0
599, 470301901, 0.9981377, -0.009868669, 0.0027688458, 0.060134288, -0.01565129, 0.0130635705, 0.03696251, 0
600, 470318568, 0.9981366, -0.009877399, 0.0027613668, 0.06015131, -0.021461628, 0.0022697041, 0.037329674, 0
601, 470335235, 0.99813676, -0.009878367, 0.0027589833, 0.06014781, -0.008108205, 0.011806031, 0.019845963, 0
602, 470351902, 0.99813557, -0.0098785395, 0.0027610047, 0.060167987, 6.7647593E-6, -0.013385262, 0.027832985, 0
603, 470368569, 0.9981337, -0.009873137, 0.0027719096, 0.060201515, -0.015697382, 0.0076236287, 0.03798008, 0
604, 470385236, 0.9981324, -0.009880618, 0.0027764505, 0.060220234, -0.01874196, 0.011380603, 0.007217407, 0
605, 470401903, 0.9981308, -0.00989043, 0.0027769974, 0.060245164, -0.014898712, -0.009299927, 0.024508476, 0
606, 470418570, 0.9981292, -0.009900592, 0.0027785136, 0.06026932, -0.003385975, 0.005473909, 0.035600662, 0
607, 470435237, 0.99813026, -0.009901863, 0.0027675598, 0.06025309, -0.007401633, 0.011589762, 0.04030323, 0
608, 470451904, 0.9981291, -0.009898187, 0.0027707603, 0.0602727, 0.0015343169, 0.019254167, 0.048840523, 0
609, 470468571, 0.99812835, -0.009896409, 0.0027693284, 0.060283367, 0.010392468, 0.004544717, 0.0216465, 0
610, 470485238, 0.9981289, -0.009897901, 0.002766711, 0.06027461, -0.011968848, 0.0021987038, 0.042793274, 0
611, 470501905, 0.9981272, -0.009901302, 0.0027711606, 0.0603034, -0.012103309, -0.008119611, 0.03905487, 0
612, 470518572, 0.9981269, -0.009905925, 0.0027724286, 0.060307186, -0.019972688, -0.008248662, 0.022603989, 0
613, 470535239, 0.9981259, -0.009908517, 0.0027741087, 0.060324196, -0.013652716, 0.015667204, 0.03031063, 0
614, 470551906, 0.9981259, -0.009911411, 0.0027819292, 0.060324326, -0.0108823655, 0.0088797575, 0.03483963, 0
615, 470568573, 0.99812335, -0.009902944, 0.002779446, 0.06036502, -0.008636635, 0.016319009, 0.021213531, 0
616, 470585240, 0.9981212, -0.009904626, 0.0027800994, 0.0604007, -0.007887297, -0.016738165, 0.016730309, 0
617, 470601907, 0.998121, -0.009912264, 0.0027866622, 0.060403064, -0.024222549, -0.014320098, 0.03051567, 0
618, 470618574, 0.99812174, -0.009921793, 0.0027698572, 0.060390405, -0.011954831, 0.0074097477, 0.027770042, 0
619, 470635241, 0.99811924, -0.009926953, 0.0027695473, 0.060430568, -0.010205725, 0.010509146, 0.021386147, 0
620, 470651908, 0.9981176, -0.009936727, 0.0027703603, 0.06045499, -0.0035735688, -0.0032576106, 0.013262749, 0
621, 470668575, 0.9981172, -0.009931759, 0.002781572, 0.06046327, -0.006102534, -0.0076802755, 0.013678551, 0
622, 470685242, 0.9981168, -0.009927384, 0.002776063, 0.06047102, -0.003151461, -0.022502607, 0.03789425, 0
623, 470701909, 0.9981162, -0.009926319, 0.0027767434, 0.06048072, -0.0070015625, -8.95344E-4, 0.037719727, 0
624, 470718576, 0.99811554, -0.00992914, 0.0027728816, 0.060491443, -0.008756993, 0.0032961594, 0.023531914, 0
625, 470735243, 0.9981155, -0.0099283755, 0.0027736253, 0.060491942, -0.0137995435, 0.027890889, 0.0050935745, 0
626, 470751910, 0.99811363, -0.009931792, 0.002773381, 0.060521875, -0.010036606, -0.0016737279, 0.046307564, 0
627, 470768577, 0.9981127, -0.009933113, 0.0027761902, 0.06053714, -0.0076316334, -0.014984343, 0.029088974, 0
628, 470785244, 0.9981111, -0.009937908, 0.002765557, 0.060561907, -4.0702583E-4, -0.010448644, 0.04431343, 0
629, 470801911, 0.9981099, -0.0099476045, 0.002778758, 0.060580447, -0.0091409655, 0.0028453618, 0.024939537, 0
630, 470818578, 0.998108, -0.00993993, 0.0027868387, 0.060610935, -0.004856825, 0.006061783, 0.032488823, 0
631, 470835245, 0.99810714, -0.009942008, 0.0027847074, 0.060628176, -0.010640715, 0.0062965136, 0.01406002, 0
632, 470851912, 0.998107, -0.009936671, 0.0027818892, 0.06063061, -8.916595E-5, 0.018404357, 0.034388542, 0
633, 470868579, 0.99810743, -0.009927683, 0.0027824289, 0.060625713, -0.009061791, 0.005838787, 0.041017532, 0
634, 470885246, 0.9981077, -0.009934265, 0.0027772826, 0.06061913, -0.01960353, -0.016703514, 0.018702507, 0
635, 470901913, 0.9981088, -0.009942169, 0.0027734612, 0.060598984, 0.006667173, -0.0014121409, 0.037493706, 0
636, 470918580, 0.9981063, -0.0099462, 0.0027716353, 0.060639735, -0.012234792, 0.00908416, 0.029564857, 0
637, 470935247, 0.99810666, -0.009945701, 0.0027761508, 0.06063369, -0.015274, -0.009808042, 0.028891563, 0
638, 470951914, 0.9981048, -0.009941404, 0.0027769345, 0.06066508, -0.019319532, 0.002097215, 0.047751427, 0
639, 470968581, 0.9981041, -0.0099403, 0.0027803788, 0.06067736, -0.021145774, -0.007955741, 0.01823616, 0
640, 470985248, 0.99810183, -0.009943125, 0.0027799786, 0.06071466, -0.020937854, 0.012937992, 0.02461338, 0
641, 471001915, 0.99810046, -0.009948573, 0.0027821162, 0.06073586, -0.012595247, 7.431107E-5, 0.03318119, 0
642, 471018582, 0.9980993, -0.009956351, 0.0027755876, 0.060753964, 0.005374137, -0.014646616, 0.03363514, 0
643, 471035249, 0.9980965, -0.0099499365, 0.0027791578, 0.060800165, -0.015387578, 0.007302839, 0.02192688, 0
644, 471051916, 0.99809676, -0.009947504, 0.002771283, 0.060796488, -0.022521693, -0.0011683162, 0.03603649, 0
645, 471068583, 0.9980944, -0.009933516, 0.0027763254, 0.0608376, -0.0149239, -0.004376188, 0.022921562, 0
646, 471085250, 0.9980942, -0.009937288, 0.0027763816, 0.060839675, -0.01188932, 0.009506097, 0.027265549, 0
647, 471101917, 0.9980932, -0.009934918, 0.0027810847, 0.060856342, 0.0077913753, 0.0026090737, 0.03286171, 0
648, 471118584, 0.9980929, -0.009939804, 0.002784154, 0.060859967, -0.014523503, 0.0017865042, 0.04702854, 0
649, 471135251, 0.9980928, -0.00994215, 0.0027764663, 0.060863756, -0.02459458, -0.0069444636, 0.028258324, 0
650, 471151918, 0.99809086, -0.009952107, 0.0027767227, 0.06089308, -0.010336406, -0.01574169, 0.018018723, 0
651, 471168585, 0.9980865, -0.009951566, 0.0027786323, 0.0609638, -0.010066908, 0.013423539, 0.015315056, 0
652, 471185252, 0.99808675, -0.009945932, 0.0027823208, 0.060960133, -0.010823982, -0.0116731385, 0.029699326, 0
653, 471201919, 0.9980859, -0.009946711, 0.0027790612, 0.060974363, -0.0015607403, -0.006005563, 0.019405365, 0
654, 471218586, 0.9980865, -0.009940596, 0.0027735285, 0.06096612, -0.0033631576, -0.010382687, 0.030827522, 0
655, 471235253, 0.99808466, -0.009937354, 0.0027715105, 0.060997218, -0.005618653, -0.0106562385, 0.025795937, 0
656, 471251920, 0.9980836, -0.0099419085, 0.0027718327, 0.06101369, -0.013072087, -0.0011562256, 0.05348873, 0
657, 471268587, 0.9980807, -0.009940334, 0.002768774, 0.06106061, 4.4844905E-4, 3.7129692E-4, 0.015999794, 0
658, 471285254, 0.99808013, -0.009936472, 0.0027681808, 0.06107072, -0.006841894, 0.010382966, 0.018974304, 0
659, 471301921, 0.9980803, -0.009927017, 0.002767896, 0.061070144, -0.021354333, 0.0124542955, 0.022626877, 0
660, 471318588, 0.9980797, -0.009934993, 0.0027652846, 0.061078366, -0.01021812, 0.0038399666, 0.023667336, 0
661, 471335255, 0.99808055, -0.009951394, 0.0027604562, 0.061062183, -0.019121073, -0.013902506, 0.02675438, 0
662, 471351922, 0.9980796, -0.009968793, 0.0027569835, 0.061074268, -0.014535465, 0.0014319008, 0.02889061, 0
663, 471368589, 0.99807864, -0.009974153, 0.002750257, 0.061090592, -0.0056365463, 0.0025719984, 0.029504776, 0
664, 471385256, 0.9980782, -0.009977281, 0.0027558017, 0.061096746, -0.01351667, 0.0035183313, 0.039385796, 0
665, 471401923, 0.99807614, -0.00998674, 0.002757335, 0.061128773, -0.011994636, -0.004828215, 0.023454666, 0
666, 471418590, 0.998075, -0.009984546, 0.0027448619, 0.061148472, -0.012172814, 0.008450179, 0.026241302, 0
667, 471435257, 0.9980746, -0.0099835675, 0.002746758, 0.06115614, -0.01125374, -0.0022047318, 0.030854225, 0
668, 471451924, 0.9980748, -0.009981387, 0.0027524494, 0.061151706, -0.009239571, -9.6727326E-4, 0.026960373, 0
669, 471468591, 0.9980761, -0.009979001, 0.0027526356, 0.06113141, -0.020016667, 0.00671771, 0.033807755, 0
670, 471485258, 0.99807686, -0.00997634, 0.002746733, 0.061118953, -0.0051167496, -5.6064734E-4, 0.048635483, 0
671, 471501925, 0.9980763, -0.009967088, 0.0027611123, 0.061128628, 0.0016737418, -0.010297417, 0.017971039, 0
672, 471518592, 0.9980753, -0.009966255, 0.0027668332, 0.0611451, -0.023193195, -0.0022350247, 0.024511337, 0
673, 471535259, 0.9980751, -0.009977862, 0.0027552, 0.061147224, -0.0054548443, 0.016861169, 0.048080444, 0
674, 471551926, 0.9980743, -0.009972131, 0.0027602043, 0.06116198, -0.002955545, 0.011787556, 0.03350258, 0
675, 471568593, 0.9980742, -0.009974894, 0.0027655505, 0.061164048, -0.01031953, 0.00586264, 0.017939568, 0
676, 471585260, 0.9980735, -0.009983766, 0.002765769, 0.06117408, 0.0018206842, 4.820895E-4, 0.039339066, 0
677, 471601927, 0.9980727, -0.0099901315, 0.0027684656, 0.06118563, 0.0020902024, 0.009390869, 0.035206795, 0
678, 471618594, 0.9980717, -0.009988343, 0.0027734125, 0.061199997, -0.0053914012, -0.0010865175, 0.032737732, 0
679, 471635261, 0.99807113, -0.00999767, 0.002781526, 0.06120938, 3.004503E-4, 0.007384358, 0.023000717, 0
680, 471651928, 0.99806935, -0.00999716, 0.0027780316, 0.06123659, -0.015442039, 0.01772383, -0.008554459, 0
681, 471668595, 0.9980687, -0.010002162, 0.0027750256, 0.061246686, -0.008707918, -0.0010942146, 0.033604622, 0
682, 471685262, 0.99806917, -0.009995935, 0.00277978, 0.061239336, 0.0060218475, 0.0036876635, 0.028653145, 0
683, 471701929, 0.99806726, -0.009996995, 0.0027702968, 0.061270382, -0.014522689, 0.0039717625, 0.019425392, 0
684, 471718596, 0.998066, -0.010008125, 0.0027674658, 0.06128925, -0.008741499, 7.5040985E-4, 0.018537521, 0
685, 471735263, 0.9980647, -0.010008375, 0.0027712544, 0.061310355, -0.009112819, -0.007137551, 0.008950233, 0
686, 471751930, 0.9980644, -0.010011083, 0.0027698677, 0.061315592, -0.009299445, 0.0074655702, 0.040063858, 0
687, 471768597, 0.998062, -0.010008519, 0.0027779017, 0.061355475, -0.0017073962, 0.007953227, 0.044404984, 0
688, 471785264, 0.99806255, -0.010011871, 0.0027724733, 0.06134449, -0.007123557, -0.0050978484, 0.03369713, 0
689, 471801931, 0.99806243, -0.0100155305, 0.002764416, 0.061346103, -0.012096762, 0.011592297, 0.025971413, 0
690, 471818598, 0.9980608, -0.009998734, 0.0027546068, 0.061378118, -0.012165103, -0.0047959243, 0.025936127, 0
691, 471835265, 0.9980606, -0.009998769, 0.002755503, 0.06138013, -0.008887577, 0.006795723, 0.036222458, 0
692, 471851932, 0.9980586, -0.010010255, 0.0027749776, 0.061408985, -0.005746897, 0.001682389, 0.04180336, 0
693, 471868599, 0.9980571, -0.010007531, 0.0027790945, 0.061434783, 0.004117793, -0.0042813765, 0.026325226, 0
694, 471885266, 0.9980559, -0.010003873, 0.0027696113, 0.06145579, -0.011800891, -0.0058285682, 0.040146828, 0
695, 471901933, 0.9980559, -0.010011622, 0.002762913, 0.061454587, -0.014444011, 0.011049664, 0.040317535, 0
696, 471918600, 0.99805415, -0.010013123, 0.0027532512, 0.061483476, -0.0111941295, 0.008327226, 0.026026726, 0
697, 471935267, 0.9980545, -0.010009506, 0.0027482922, 0.06147882, -0.004390502, 0.014601675, 0.043723106, 0
698, 471951934, 0.9980528, -0.010006771, 0.0027487772, 0.06150546, -6.5671076E-4, -0.012330658, 0.025050163, 0
699, 471968601, 0.9980516, -0.010013079, 0.0027505676, 0.061523464, -0.004499019, 0.006277452, 0.03682041, 0
700, 471985268, 0.99805075, -0.01001256, 0.0027559313, 0.06153782, -0.009426096, 0.009793011, 0.030748367, 0
701, 472001935, 0.99805033, -0.0100096315, 0.0027489315, 0.06154424, -0.020886498, 0.010232926, 0.031713486, 0
702, 472018602, 0.99804986, -0.010016004, 0.0027526629, 0.061551448, -0.022866571, 0.02453564, 0.015210152, 0
703, 472035269, 0.998051, -0.010018203, 0.0027501285, 0.06153332, -0.014925043, 0.004313877, 0.045015335, 0
704, 472051936, 0.9980499, -0.010013459, 0.0027373673, 0.061552666, -0.008889738, -0.006783772, 0.02213955, 0
705, 472068603, 0.9980486, -0.010009171, 0.0027358574, 0.06157483, -0.007426337, 0.0034130847, 0.01941681, 0
706, 472085270, 0.9980488, -0.010008161, 0.0027412956, 0.061571706, -0.003730213, 0.0028000236, 0.038168907, 0
707, 472101937, 0.99804914, -0.010007983, 0.0027461483, 0.061566092, -0.01084265, 0.005343608, 0.009547234, 0
708, 472118604, 0.99804974, -0.010018802, 0.0027481203, 0.061554622, -0.012859235, 0.0064485096, 0.022325516, 0
709, 472135271, 0.99804896, -0.010022622, 0.0027492065, 0.06156584, -0.015778596, 0.0063782358, 0.014157295, 0
710, 472151938, 0.99804765, -0.01002536, 0.0027503772, 0.06158772, -0.012126801, -0.0038321435, 0.03638649, 0
711, 472168605, 0.9980472, -0.010031885, 0.0027547362, 0.06159257, -0.0047086584, 0.003936154, 0.05389881, 0
712, 472185272, 0.9980468, -0.010024654, 0.0027532005, 0.061599996, -0.01691773, -0.0019172382, 0.030723572, 0
713, 472201939, 0.99804574, -0.010025636, 0.0027487031, 0.061616566, -0.009165876, 0.011056376, 0.026768684, 0
714, 472218606, 0.9980453, -0.010017895, 0.0027435287, 0.061625097, -0.00530573, 0.005350146, 0.05791855, 0
715, 472235273, 0.99804395, -0.010023656, 0.002742536, 0.06164638, -0.0027207725, 0.020895563, 0.030615807, 0
716, 472251940, 0.99804384, -0.010024, 0.002744017, 0.06164843, -0.0015502457, 0.009323431, 0.007806778, 0
717, 472268607, 0.9980429, -0.010022737, 0.0027461974, 0.061664194, -0.0025472795, 2.6262773E-5, 0.028684616, 0
718, 472285274, 0.9980423, -0.010026774, 0.002754429, 0.061672732, -0.024662485, -0.007910458, 0.017835617, 0
719, 472301941, 0.99804395, -0.009880356, 0.0028098112, 0.061667114, -0.009619, -0.007507933, 0.041728973, 0
720, 472318608, 0.99804276, -0.009870912, 0.0028167425, 0.061688386, 0.0052106404, 0.0031648108, 0.041360855, 0
721, 472335275, 0.99804145, -0.009869818, 0.002818762, 0.061708093, 4.0239491E-4, 0.021029852, 0.04335308, 0
722, 472351942, 0.9980427, -0.0098713655, 0.0028296139, 0.06168783, 0.0021408682, -0.0032820294, 0.057826042, 0
723, 472368609, 0.99804187, -0.009863684, 0.0028271358, 0.061701946, -0.009840182, -0.0045382907, 0.029144287, 0
724, 472385276, 0.99804395, -0.009853832, 0.0028235547, 0.06167092, -0.012867595, -0.016142964, 0.041187286, 0
725, 472401943, 0.99804276, -0.009848772, 0.0028242657, 0.061691713, -4.737462E-4, 0.0017652424, 0.046946526, 0
726, 472418610, 0.9980421, -0.009845462, 0.0028212264, 0.06170259, -0.016159594, 0.0052955947, 0.027926445, 0
727, 472435277, 0.9980407, -0.009853076, 0.0028140936, 0.061724663, 0.0017666761, -0.0018822305, 0.040210724, 0
728, 472451944, 0.99803936, -0.009861003, 0.0028107597, 0.06174487, -0.016197639, -0.010111915, 0.023065567, 0
729, 472468611, 0.99803877, -0.00986679, 0.0028106838, 0.061753117, -0.0023289071, -3.4843574E-4, 0.015363693, 0
730, 472485278, 0.9980368, -0.0098538045, 0.0028142377, 0.061787345, -0.01378231, -0.0029056196, 0.011457443, 0
731, 472501945, 0.9980375, -0.009849617, 0.0028172096, 0.061776977, -0.003293102, 0.01822818, 0.026683807, 0
732, 472518612, 0.99803746, -0.009850025, 0.0028057562, 0.06177629, -0.007357615, 0.004339497, 0.054512024, 0
733, 472535279, 0.99803704, -0.009858712, 0.0028037634, 0.061782077, -0.012174739, 0.013167029, 0.03487587, 0
734, 472551946, 0.9980378, -0.009861218, 0.0028013382, 0.06176963, -0.0102368565, -4.7300232E-4, 0.0438776, 0
735, 472568613, 0.9980371, -0.009870769, 0.0028081113, 0.061780196, -0.014648089, 0.004236744, 0.018883705, 0
736, 472585280, 0.9980358, -0.009875879, 0.0028061585, 0.061800525, 0.005223503, 0.0018442753, 0.042360306, 0
737, 472601947, 0.9980336, -0.009876578, 0.0028073215, 0.061836068, -0.016797636, 0.01998785, 0.027822495, 0
738, 472618614, 0.99803275, -0.009873002, 0.0028199537, 0.061848298, -0.0082853725, 0.0016870898, 0.026373863, 0
739, 472635281, 0.99802995, -0.00987917, 0.0028216, 0.061893944, -0.010511729, 0.0024682116, 0.04280758, 0
740, 472651948, 0.99802977, -0.009873311, 0.0028194438, 0.061897106, -0.009105485, -0.011283011, 0.03430462, 0
741, 472668615, 0.9980285, -0.009877083, 0.0028212166, 0.061916478, 0.0010312643, -9.802859E-4, 0.016688347, 0
742, 472685282, 0.9980279, -0.009879375, 0.0028250525, 0.061925724, 0.0023876457, 0.008226792, 0.015825272, 0
743, 472701949, 0.99802715, -0.009889489, 0.0028265414, 0.061937, -0.019336233, 0.01939021, 0.026072502, 0
744, 472718616, 0.99802685, -0.009882696, 0.0028210527, 0.061943278, -0.01732279, 0.023564482, 0.041085243, 0
745, 472735283, 0.99802524, -0.009889972, 0.0028291252, 0.061967444, -0.012362116, -7.8142225E-4, 0.039073944, 0
746, 472751950, 0.99802405, -0.009883879, 0.0028363669, 0.06198736, -0.011092964, 0.002269299, 0.015971184, 0
747, 472768617, 0.99802226, -0.009888585, 0.0028357038, 0.062013287, -0.009253926, 2.530935E-4, 0.021615982, 0
748, 472785284, 0.9980199, -0.009887467, 0.0028307678, 0.06205136, -0.02040529, -0.0018575393, 0.018733978, 0
749, 472801951, 0.998019, -0.009892937, 0.002822919, 0.062066983, -0.007598536, 0.010521662, 0.017925262, 0
750, 472818618, 0.99801856, -0.009904399, 0.0028265133, 0.062071286, -0.017185189, -0.0014032492, 0.044293404, 0
751, 472835285, 0.9980171, -0.009901435, 0.0028299624, 0.06209613, -0.015102221, 0.009832161, 0.03711319, 0
752, 472851952, 0.99801594, -0.009894707, 0.0028413164, 0.062113896, 0.0034894599, 0.012614254, 0.061445236, 0
753, 472868619, 0.9980152, -0.009897827, 0.0028308365, 0.062125288, 8.355962E-4, 0.0050167763, 0.04498577, 0
754, 472885286, 0.99801505, -0.009895322, 0.0028183267, 0.062129714, -0.01329091, -0.009850286, 0.02993679, 0
755, 472901953, 0.99801266, -0.0098956935, 0.002811552, 0.062168255, -0.023998147, -0.012325077, 0.0077724457, 0
756, 472918620, 0.9980115, -0.009907023, 0.002824471, 0.062183443, -0.00432357, 0.023333397, 0.012829781, 0
757, 472935287, 0.9980103, -0.0099121295, 0.0028270483, 0.062203944, 0.007892941, 0.008100179, 0.017908096, 0
758, 472951954, 0.9980093, -0.009918131, 0.002827132, 0.062218495, -0.0074094334, -0.0068463273, 0.018712044, 0
759, 472968621, 0.9980093, -0.009912936, 0.0028261144, 0.062219627, -0.02750845, -0.0035990614, 0.02695465, 0
760, 472985288, 0.9980086, -0.00990704, 0.0028350467, 0.0622316, -0.019600216, 0.0038869043, 0.027189255, 0
761, 473001955, 0.99800754, -0.009901006, 0.00283817, 0.062248703, -0.0061547523, -0.0025106093, 0.050816536, 0
762, 473018622, 0.99800795, -0.009902359, 0.002845349, 0.062242296, 0.014478129, -0.0057890695, 0.024315834, 0
763, 473035289, 0.9980069, -0.0098976735, 0.0028396887, 0.062259573, 0.006839818, -0.010500611, 0.016874313, 0
764, 473051956, 0.9980075, -0.009896841, 0.0028329468, 0.0622499, -0.006009242, -0.01963597, 0.017107964, 0
765, 473068623, 0.99800867, -0.009893789, 0.0028222608, 0.062233582, -0.026511023, -0.0068188985, 0.026223183, 0
766, 473085290, 0.9980076, -0.009898822, 0.0028097094, 0.06225062, -0.022388449, 0.02481945, 0.020529747, 0
767, 473101957, 0.9980073, -0.009908124, 0.0028148196, 0.062252503, -0.008473635, 0.0011907304, 0.02495861, 0
768, 473118624, 0.99800646, -0.009906812, 0.0028112822, 0.062265422, 0.011674967, -0.017392479, 0.03713894, 0
769, 473135291, 0.99800247, -0.0099108005, 0.0028067, 0.06232847, -0.008648647, -0.014838557, 0.032797813, 0
770, 473151958, 0.9980016, -0.009904041, 0.0028105588, 0.06234547, -0.025622599, -0.001646173, 0.03583145, 0
771, 473168625, 0.99799937, -0.009904169, 0.0028003545, 0.062381007, -0.019678276, -0.0038932115, 0.032862663, 0
772, 473185292, 0.997999, -0.009902134, 0.0028006409, 0.062386177, -0.011888983, 0.0033492509, 0.04135704, 0
773, 473201959, 0.99800026, -0.009902615, 0.0028017561, 0.062366515, -5.419316E-4, 0.0011782835, 0.042113304, 0
774, 473218626, 0.9979996, -0.009895206, 0.0027946944, 0.062377874, 0.0029763002, 0.01029808, 0.03337574, 0
775, 473235293, 0.9979987, -0.00989491, 0.0027964308, 0.062392455, -0.010981919, 0.0031755394, 0.027148247, 0
776, 473251960, 0.9979977, -0.009881425, 0.002794943, 0.062410366, -0.019460417, -0.012483499, 0.031015396, 0
777, 473268627, 0.9979972, -0.009881579, 0.002791092, 0.06241983, -0.008283216, 0.0028626143, 0.03900051, 0
778, 473285294, 0.9979988, -0.009877641, 0.0027933826, 0.062395435, -0.012628829, 0.002059162, 0.025828362, 0
779, 473301961, 0.99799776, -0.009874469, 0.002791493, 0.062413268, -0.018662553, 9.617902E-4, 0.011049271, 0
780, 473318628, 0.9979987, -0.009876896, 0.0027888822, 0.06239662, -0.0053386665, 0.004680948, 0.009801865, 0
781, 473335295, 0.9979979, -0.009872622, 0.00278744, 0.0624102, -0.008932, 0.005525743, 0.036037445, 0
782, 473351962, 0.99799687, -0.009872324, 0.0027977775, 0.062427, -0.0055016736, -0.011907743, 0.025675774, 0
783, 473368629, 0.9979958, -0.009877919, 0.0027968376, 0.062444046, -0.014423812, -0.014394437, 0.029018402, 0
784, 473385296, 0.99799454, -0.00986977, 0.0027969873, 0.06246299, -0.01816572, 2.2050251E-4, 0.013468742, 0
785, 473401963, 0.99799395, -0.009876638, 0.0027931603, 0.062473793, -0.0032985292, 0.01063087, 0.020000458, 0
786, 473418630, 0.997994, -0.009870265, 0.0027964537, 0.06247119, -0.019300858, 0.0171479, 0.028181076, 0
787, 473435297, 0.99799377, -0.009866094, 0.002782276, 0.06247868, 0.0084640775, -5.7793467E-4, 0.021615982, 0
788, 473451964, 0.997993, -0.009867512, 0.0027776684, 0.062488962, -0.014734882, -0.017458988, 0.033763885, 0
789, 473468631, 0.9979922, -0.009862006, 0.0027762074, 0.06250223, -0.013106458, -0.00256208, 0.014447212, 0
790, 473485298, 0.99799216, -0.009857654, 0.0027822212, 0.06250369, -0.0072150785, -6.558499E-4, 0.048848152, 0
791, 473501965, 0.99799097, -0.009863122, 0.0027825742, 0.06252163, -0.011026371, 0.008779771, 0.040449142, 0
792, 473518632, 0.99798805, -0.009859418, 0.0027811308, 0.06257114, -0.020168163, 0.02450288, 0.030498505, 0
793, 473535299, 0.99798715, -0.009853358, 0.0027715894, 0.06258438, -0.014996637, -0.0025085558, 0.011224747, 0
794, 473551966, 0.9979865, -0.009853255, 0.0027685324, 0.062595546, -5.641712E-4, -0.012196089, 0.035215378, 0
795, 473568633, 0.9979864, -0.009845343, 0.0027737047, 0.062597804, -0.0067783794, -0.006681829, 0.021845818, 0
796, 473585300, 0.99798477, -0.009849483, 0.0027735103, 0.062624075, -0.005515507, 9.409197E-4, 0.022298813, 0
797, 473601967, 0.99798596, -0.009852923, 0.0027814351, 0.06260488, -0.021786705, -0.0045013833, 0.032891273, 0
798, 473618634, 0.99798536, -0.009850683, 0.002791882, 0.06261379, -0.018024968, -0.013667489, 0.015347481, 0
799, 473635301, 0.9979847, -0.009844939, 0.0027864412, 0.06262528, -0.007067237, -0.0011421512, 0.011929512, 0
800, 473651968, 0.997984, -0.009845567, 0.0027865814, 0.06263652, 0.008783136, -0.011029393, 0.035619736, 0
801, 473668635, 0.99798256, -0.009849766, 0.0027882985, 0.06265837, -0.011104952, 0.0027892182, 0.02655983, 0
802, 473685302, 0.9979818, -0.009852768, 0.0027852969, 0.062670104, -0.011720028, -0.007812078, 0.03329563, 0
803, 473701969, 0.9979811, -0.009848924, 0.0027914988, 0.062682174, -0.0050690295, 0.004140005, 0.02427578, 0
804, 473718636, 0.9979825, -0.00984888, 0.0027847404, 0.062660135, -0.007934654, 0.0012311443, 0.0147743225, 0
805, 473735303, 0.9979821, -0.009840597, 0.0027860715, 0.06266813, 0.0033621134, -0.010428681, 0.020881653, 0
806, 473751970, 0.9979822, -0.009843936, 0.0027923752, 0.0626658, -0.0019024882, 0.00394214, 0.030368805, 0
807, 473768637, 0.9979798, -0.009845543, 0.0027934236, 0.06270204, -0.009236315, 0.012676048, 0.032660484, 0
808, 473785304, 0.9979803, -0.009841909, 0.0028013652, 0.062696025, -0.0065496457, 2.71226E-4, 0.020161629, 0
809, 473801971, 0.9979788, -0.0098450035, 0.0028082773, 0.06271778, -0.011957549, -0.019788433, 6.6947937E-4, 0
810, 473818638, 0.9979772, -0.0098399175, 0.0028183903, 0.0627442, -0.014542864, -1.3407285E-4, 0.029613495, 0
811, 473835305, 0.9979778, -0.009835061, 0.0028226683, 0.06273589, 0.0041346387, 0.0012285878, 0.020272255, 0
812, 473851972, 0.9979775, -0.009836359, 0.0028238571, 0.062740095, -0.017324047, -0.0123736, 0.03508377, 0
813, 473868639, 0.9979781, -0.009830507, 0.0028421758, 0.06273062, -1.7530052E-4, -0.010088543, 0.009766579, 0
814, 473885306, 0.9979774, -0.00983175, 0.0028366402, 0.0627426, -0.008024761, 0.004408849, 0.042303085, 0
815, 473901973, 0.99797726, -0.009835988, 0.0028400247, 0.062741496, 0.0032165244, -0.007842531, 0.03611183, 0
816, 473918640, 0.99797404, -0.009837082, 0.0028463416, 0.06279457, 0.003882387, 7.8300777E-4, 0.03230858, 0
817, 473935307, 0.9979723, -0.009834557, 0.0028470638, 0.06282021, 0.010408488, 0.0025207652, 0.029984474, 0
818, 473951974, 0.9979728, -0.009837772, 0.0028424703, 0.06281237, -0.0038546869, 0.0065765823, 0.040703773, 0
819, 473968641, 0.9979733, -0.009832229, 0.0028357583, 0.06280446, -0.0039442615, 0.0040831696, 0.023273468, 0
820, 473985308, 0.9979724, -0.009826199, 0.0028296816, 0.06282197, -0.011788442, -0.013778415, 0.020290375, 0
821, 474001975, 0.99797213, -0.009818069, 0.002822113, 0.06282783, -0.0051069185, 0.011658743, 0.054898262, 0
822, 474018642, 0.99797136, -0.009822934, 0.0028116703, 0.06283964, -5.476923E-4, 0.0093763685, 0.03617859, 0
823, 474035309, 0.9979709, -0.009821516, 0.0028039054, 0.06284735, -0.008775482, -0.012613555, 0.04275322, 0
824, 474051976, 0.997971, -0.009827528, 0.0028035895, 0.062844954, -0.021037316, 0.008643456, 0.011113167, 0
825, 474068643, 0.9979706, -0.009827501, 0.002801898, 0.06285168, -0.0059604933, 3.7989518E-4, 0.024983406, 0
826, 474085310, 0.99797046, -0.009840837, 0.0027993268, 0.06285215, 0.0074674175, -0.013110376, 0.02809143, 0
827, 474101977, 0.9979685, -0.009836091, 0.0028041897, 0.06288453, -0.0187294, -0.010006298, 0.031719208, 0
828, 474118644, 0.997967, -0.00983707, 0.0027947202, 0.06290863, 0.0027683792, -0.0020589314, 0.026329994, 0
829, 474135311, 0.9979661, -0.009839267, 0.0027896771, 0.06292314, -0.00934573, 0.0061598914, 0.029649734, 0
830, 474151978, 0.9979659, -0.00983681, 0.0027919724, 0.062924266, -0.0014383809, 0.011326128, 0.013385773, 0
831, 474168645, 0.9979658, -0.009833592, 0.00278988, 0.0629283, 0.005537364, 2.768208E-4, 0.043571472, 0
832, 474185312, 0.9979647, -0.009834327, 0.0027974618, 0.06294371, -0.012935465, -0.016427748, 0.043227196, 0
833, 474201979, 0.9979635, -0.009827965, 0.0028062302, 0.06296312, 0.0017502427, 0.0023990972, 0.035505295, 0
834, 474218646, 0.9979643, -0.00983332, 0.002814295, 0.062950544, 0.0060924254, -0.0012649646, 0.021331787, 0
835, 474235313, 0.9979645, -0.009838848, 0.0028159379, 0.062947065, -0.0034621896, 0.0075159236, 0.03089428, 0
836, 474251980, 0.99796325, -0.009843788, 0.0028159989, 0.062965505, -0.015710311, 0.014673004, 0.0465374, 0
837, 474268647, 0.9979611, -0.00984563, 0.0028046235, 0.06300027, -0.018703666, 0.0062140585, 0.021858215, 0
838, 474285314, 0.9979604, -0.009835673, 0.002800075, 0.06301239, -0.011707579, -0.0050010188, 0.04095459, 0
839, 474301981, 0.99796003, -0.009897996, 0.0028258911, 0.0630073, -0.0032566746, -0.0010373166, 0.022276878, 0
840, 474318648, 0.99795985, -0.009900286, 0.002831732, 0.06300958, 8.703909E-5, 0.0010601499, 0.03964615, 0
841, 474335315, 0.9979595, -0.009897148, 0.0028327222, 0.06301652, 0.0024363, 0.010432215, 0.02732277, 0
842, 474351982, 0.99795896, -0.009894266, 0.0028399553, 0.06302438, -0.019297868, 0.01563459, 0.03200817, 0
843, 474368649, 0.99796027, -0.009896999, 0.0028462915, 0.06300412, -0.015364637, -0.011564113, 0.010694504, 0
844, 474385316, 0.9979588, -0.0098964255, 0.0028418044, 0.06302605, -0.007625717, -0.006165577, 0.025626183, 0
845, 474401983, 0.9979593, -0.0099084815, 0.0028334414, 0.06301634, 0.011997229, 0.0033257052, 0.029110909, 0
846, 474418650, 0.9979577, -0.009909412, 0.0028260013, 0.06304183, -0.009163555, 0.0145296, 0.02927494, 0
847, 474435317, 0.99795836, -0.009915635, 0.0028249987, 0.06303121, -7.868878E-5, 0.004679921, 0.031312943, 0
848, 474451984, 0.99795866, -0.009913836, 0.0028287072, 0.063024536, 4.4536876E-4, 1.12853086E-4, 0.0540123, 0
849, 474468651, 0.99795955, -0.009905762, 0.0028248627, 0.06301243, 0.019088976, -0.009675904, 0.040575027, 0
850, 474485318, 0.9979592, -0.009908046, 0.0028217062, 0.06301801, 0.0057949577, 0.00566803, 0.023083687, 0
851, 474501985, 0.9979589, -0.009907688, 0.002824315, 0.063022345, -0.0046404623, 0.013790393, 0.033489227, 0
852, 474518652, 0.99795777, -0.0099036265, 0.0028217481, 0.063042715, -0.007101087, -0.013996751, -0.0044555664, 0
853, 474535319, 0.99795806, -0.009896627, 0.00282125, 0.063039266, -0.008073789, -0.008621391, 0.05091381, 0
854, 474551986, 0.9979574, -0.009885803, 0.0028243833, 0.06305183, 0.0015731837, -0.0033199566, 0.03786087, 0
855, 474568653, 0.9979575, -0.009888045, 0.0028431087, 0.063046955, -0.005039592, 0.009273818, 0.043826103, 0
856, 474585320, 0.9979578, -0.009883608, 0.0028451376, 0.06304392, -0.0017295432, -0.0064920736, 0.04184246, 0
857, 474601987, 0.9979561, -0.009881673, 0.0028479798, 0.063071586, 0.004601259, 4.6661124E-4, 0.0084581375, 0
858, 474618654, 0.99795604, -0.009884177, 0.002853025, 0.06307204, 0.006374064, 0.0017252266, 0.042901993, 0
859, 474635321, 0.9979555, -0.009866804, 0.0028534697, 0.06308195, -0.0101713305, 0.0039339676, 0.033349037, 0
860, 474651988, 0.99795395, -0.00986851, 0.0028593433, 0.06310579, 0.0034452968, 3.283545E-5, 0.022497177, 0
861, 474668655, 0.99795544, -0.009860825, 0.0028566327, 0.06308318, 0.0027204845, 0.009357642, 0.034845352, 0
862, 474685322, 0.99795467, -0.009866113, 0.0028624814, 0.06309607, -0.0064617246, 0.0072464575, 0.024249077, 0
863, 474701989, 0.9979541, -0.009864798, 0.0028576497, 0.06310561, 0.01739224, 0.001286303, 0.0060720444, 0
864, 474718656, 0.99795264, -0.009873921, 0.002866149, 0.06312682, -0.0027800158, -0.0062350547, 0.034874916, 0
865, 474735323, 0.9979527, -0.009873864, 0.0028581026, 0.06312583, -0.0049222703, -0.012369633, 0.022346497, 0
866, 474751990, 0.9979516, -0.0098706335, 0.0028609154, 0.06314385, -0.016296947, -3.8725015E-4, 0.04344082, 0
867, 474768657, 0.9979507, -0.009857274, 0.0028650938, 0.06315892, -0.004504703, 0.0049610585, 0.025030136, 0
868, 474785324, 0.9979497, -0.0098594325, 0.00286397, 0.0631738, 0.022896137, 0.00572284, 0.02014637, 0
869, 474801991, 0.9979491, -0.009863127, 0.0028604304, 0.06318246, -8.472433E-4, 0.0034789722, 0.026023865, 0
870, 474818658, 0.9979546, -0.009870813, 0.002859352, 0.063096456, -0.02285228, 0.0027931647, 0.031313896, 0
871, 474835325, 0.99795467, -0.009877687, 0.0028698845, 0.06309246, -0.021042438, -0.010361488, -0.0057735443, 0
872, 474851992, 0.99795395, -0.009875009, 0.0028710396, 0.06310369, -0.012038087, 0.0032990302, 0.030490875, 0
873, 474868659, 0.99795324, -0.009882571, 0.0028684256, 0.06311628, 0.01320247, 0.01247365, 0.028745651, 0
874, 474885326, 0.99795306, -0.0098703895, 0.0028615424, 0.0631204, -0.007884737, 0.004509849, 0.0232687, 0
875, 474901993, 0.99795324, -0.009869859, 0.002885846, 0.063115634, -0.014715028, 0.0043753847, 0.02750206, 0
876, 474918660, 0.9979532, -0.009874607, 0.0028923461, 0.06311733, -0.014394497, 0.010106662, 0.054968834, 0
877, 474935327, 0.9979523, -0.009884112, 0.002889628, 0.0631294, -0.0081787845, 0.0063728993, 0.033634186, 0
878, 474951994, 0.9979516, -0.009885497, 0.0028601552, 0.06313984, 0.007592059, 0.0018022548, 0.028946877, 0
879, 474968661, 0.99795115, -0.009880198, 0.0028475288, 0.0631497, -0.0010406013, -0.009794044, 0.020576477, 0
880, 474985328, 0.9979516, -0.009878159, 0.0028453427, 0.063142374, -0.0106539335, 0.008294035, -0.004087448, 0
881, 475001995, 0.99795103, -0.00987776, 0.0028499407, 0.06315214, -4.620624E-4, 0.0026945744, 5.00679E-4, 0
882, 475018662, 0.9979519, -0.009874529, 0.0028778373, 0.06313717, -0.008528354, 0.0050958022, 0.020858765, 0
883, 475035329, 0.9979522, -0.00987492, 0.0028951261, 0.0631318, -0.0125025585, -0.005371296, 0.022785187, 0
884, 475051996, 0.9979536, -0.009872182, 0.002897888, 0.06311015, -0.0045942008, 0.024460496, 0.06668949, 0
885, 475068663, 0.9979532, -0.009872389, 0.0028952553, 0.063116945, -0.0031042073, 0.001735592, 0.04034424, 0
886, 475085330, 0.9979534, -0.009869519, 0.0028875247, 0.06311391, 3.316461E-4, -0.024529262, 0.05377102, 0
887, 475101997, 0.99795395, -0.009864783, 0.002892712, 0.06310652, -0.011869215, -0.032518145, 0.029231071, 0
888, 475118664, 0.9979548, -0.009856893, 0.0028874085, 0.06309469, -0.0088803675, -0.012301454, 0.015237808, 0
889, 475135331, 0.99795437, -0.009860966, 0.0028844986, 0.0630989, -0.0019519613, 0.015274254, 0.024469376, 0
890, 475151998, 0.99795425, -0.009849305, 0.0028900949, 0.06310423, 0.0037580316, 0.018084992, 0.04041481, 0
891, 475168665, 0.9979553, -0.009851046, 0.0028962353, 0.06308659, 0.0040116664, 0.022994608, 0.026705742, 0
892, 475185332, 0.99795514, -0.009835615, 0.0029058452, 0.06309225, -0.023606729, -0.019968843, 0.05383396, 0
893, 475201999, 0.9979576, -0.00984083, 0.0029140525, 0.063050866, -0.020532852, -0.032058973, 0.029438019, 0
894, 475218666, 0.99795634, -0.009839551, 0.00291088, 0.06307026, 5.188696E-4, 0.0020083478, 0.03006649, 0
895, 475235333, 0.9979557, -0.009837979, 0.0029113262, 0.06308234, 0.002191068, 0.004261826, 0.04635048, 0
896, 475252000, 0.99795526, -0.009837059, 0.0029159836, 0.06308843, 0.0036252073, 0.009510141, 0.034644127, 0
897, 475268667, 0.99795353, -0.009843561, 0.002914174, 0.06311455, -0.01054162, -0.004570861, 0.031077385, 0
898, 475285334, 0.99795294, -0.009856208, 0.002922574, 0.063121505, -0.012434553, -0.013495126, 0.021956444, 0
899, 475302001, 0.9979517, -0.009852047, 0.0029244372, 0.063142575, -0.02314609, -0.00846262, 0.02090168, 0
900, 475318668, 0.9979513, -0.009847456, 0.0029281501, 0.06314879, -0.008784295, -0.0084999325, 0.027786255, 0
901, 475335335, 0.9979512, -0.009847141, 0.002935551, 0.0631504, -0.003697325, 0.031861875, 0.028726578, 0
902, 475352002, 0.9979505, -0.009840287, 0.00293535, 0.063161924, -0.0055086757, -6.999797E-4, 0.033637047, 0
903, 475368669, 0.9979498, -0.009839781, 0.0029243678, 0.06317434, -0.005753215, -0.011311886, 0.031131744, 0
904, 475385336, 0.99794954, -0.00984241, 0.0029245086, 0.06317764, -0.020072253, -0.0077599366, 0.03827572, 0
905, 475402003, 0.9979493, -0.009841225, 0.0029309206, 0.06318123, -0.013022113, -0.016263913, 0.020565033, 0
906, 475418670, 0.9979488, -0.009845148, 0.002932384, 0.06318792, -0.010083293, 0.011490962, 0.053126335, 0
907, 475435337, 0.9979477, -0.009839654, 0.0029385553, 0.06320692, -0.013006787, 0.01972344, 0.030757904, 0
908, 475452004, 0.9979471, -0.009834075, 0.0029408974, 0.06321713, -0.008214498, -1.6609108E-4, 0.015240669, 0
909, 475468671, 0.99794674, -0.009835657, 0.0029522825, 0.06321971, -0.013986079, -0.01668986, 0.014121056, 0
910, 475485338, 0.9979468, -0.009827142, 0.0029549112, 0.06322076, 7.719142E-4, -0.011301478, 0.04998207, 0
911, 475502005, 0.9979461, -0.009821604, 0.0029525415, 0.06323347, -0.0065039406, 0.014962886, 0.045814514, 0
912, 475518672, 0.99794567, -0.009806744, 0.0029526195, 0.06324152, -0.013293566, 0.0067228647, 0.016890526, 0
913, 475535339, 0.99794513, -0.009809027, 0.0029561413, 0.06325182, -9.094358E-5, -0.004670443, 0.010652542, 0
914, 475552006, 0.9979431, -0.009809351, 0.0029593238, 0.06328352, -0.011362861, -0.0036654728, 0.024744987, 0
915, 475568673, 0.9979425, -0.009811835, 0.0029620426, 0.0632918, -0.002464501, -0.00269243, -0.0021648407, 0
916, 475585340, 0.99794245, -0.009808191, 0.0029696913, 0.06329406, -0.006165708, -0.0033681097, 0.023529053, 0
917, 475602007, 0.9979418, -0.009813305, 0.002968121, 0.06330227, -0.008942124, 0.01410913, 0.045096397, 0
918, 475618674, 0.99794257, -0.009818737, 0.0029793724, 0.0632878, 0.0066138846, 0.009220811, 0.02499485, 0
919, 475635341, 0.9979405, -0.009819205, 0.002975722, 0.06332231, 0.001328217, -0.015431055, 0.041570663, 0
920, 475652008, 0.9979405, -0.00980347, 0.0029880325, 0.06332232, 7.6804816E-4, -0.020831987, 0.03947544, 0
921, 475668675, 0.99794066, -0.0097976355, 0.002979825, 0.06332186, 0.0053075124, 0.0037272181, 0.019388199, 0
922, 475685342, 0.9979402, -0.009802377, 0.0029849638, 0.063329056, -0.01269386, -8.5975655E-4, 0.03872204, 0
923, 475702009, 0.9979402, -0.009796398, 0.0029866858, 0.06332813, 0.0019807701, 0.0029385597, 0.017520905, 0
924, 475718676, 0.9979407, -0.009791121, 0.0030021686, 0.06331955, 0.004503887, 0.011157404, 0.033854485, 0
925, 475735343, 0.99794006, -0.009791653, 0.0030060832, 0.0633323, -0.008833337, -0.002636461, 0.011316299, 0
926, 475752010, 0.99793947, -0.0097913, 0.003016925, 0.06333878, -0.0022568381, -0.011062613, 0.045006752, 0
927, 475768677, 0.99793816, -0.009796796, 0.0030215487, 0.06336059, 0.0061205565, -0.0023077782, 0.02489376, 0
928, 475785344, 0.99793804, -0.009791746, 0.0030202474, 0.06336282, 0.0060973163, 0.010752754, 0.02919197, 0
929, 475802011, 0.99793684, -0.00978732, 0.0030220496, 0.06338218, 0.013153109, 0.0051022, 0.02239418, 0
930, 475818678, 0.99793744, -0.009781115, 0.0030230694, 0.06337376, -0.008098542, -0.011626711, 0.031484604, 0
931, 475835345, 0.99793607, -0.009785779, 0.0030244305, 0.06339431, 0.0038139727, 0.001278557, 0.03271675, 0
932, 475852012, 0.99793553, -0.009786503, 0.003029729, 0.06340111, -0.00806009, -0.007922165, 0.040041924, 0
933, 475868679, 0.9979357, -0.009774029, 0.0030336073, 0.06340004, -0.007264241, -0.0124923345, 0.06080532, 0
934, 475885346, 0.9979349, -0.00977712, 0.0030248477, 0.06341157, 0.002676793, -0.0056357463, 0.034772873, 0
935, 475902013, 0.9979344, -0.009787435, 0.0030332461, 0.06341883, -0.011357518, 0.006593115, 0.027093887, 0
936, 475918680, 0.99793303, -0.00978385, 0.0030277746, 0.06344152, -0.0023508812, -0.0021755702, 0.038773537, 0
937, 475935347, 0.9979328, -0.0097869765, 0.0030171603, 0.0634457, -0.018858116, -0.006505233, 0.014359474, 0
938, 475952014, 0.99793196, -0.009785218, 0.0030104432, 0.063458055, -0.0059516155, -0.0029305203, 0.01106739, 0
939, 475968681, 0.9979332, -0.009792736, 0.0030061607, 0.063437596, 0.0034817434, 0.002611281, 0.042830467, 0
940, 475985348, 0.99793404, -0.009787568, 0.0030001584, 0.06342543, 0.0010564078, 0.007941136, 0.02156353, 0
941, 476002015, 0.9979331, -0.0097869495, 0.0030012398, 0.063441895, -0.0033108485, -0.016708635, 0.03921032, 0
942, 476018682, 0.9979333, -0.0097789, 0.0030147382, 0.063438416, -0.012955565, -0.019139694, 0.033934593, 0
943, 476035349, 0.9979341, -0.009774808, 0.0030180947, 0.06342687, -0.007896458, -0.0077416296, 0.018867493, 0
944, 476052016, 0.9979321, -0.009779869, 0.0030214193, 0.06345793, 0.01331914, -0.0026266405, 0.041586876, 0
945, 476068683, 0.9979327, -0.00976931, 0.0030228454, 0.06345081, 0.008834688, 2.473101E-4, 0.029374123, 0
946, 476085350, 0.997932, -0.0097617395, 0.0030172404, 0.063461944, 0.0038777995, 0.0048422823, 0.038228035, 0
947, 476102017, 0.99793106, -0.0097521115, 0.0030218777, 0.063479014, -0.004695312, -0.013865529, 0.007996559, 0
948, 476118684, 0.99793047, -0.009744222, 0.0030220274, 0.063487545, -0.014496834, -0.0051607885, 0.024536133, 0
949, 476135351, 0.997931, -0.009744231, 0.0030127612, 0.063479625, -0.017787352, -0.0059647155, 0.01388073, 0
950, 476152018, 0.99793005, -0.009742176, 0.003015722, 0.063494146, -0.0076210583, -0.008640173, 0.029294968, 0
951, 476168685, 0.9979304, -0.009740916, 0.0030199294, 0.063490435, -0.015513573, -0.005202362, 0.025509834, 0
952, 476185352, 0.99793005, -0.009742717, 0.0030294422, 0.06349569, -0.013349772, -0.005936225, 0.018976212, 0
953, 476202019, 0.99792844, -0.009744897, 0.0030354096, 0.06352012, -0.0074997116, -0.01024837, 0.042370796, 0
954, 476218686, 0.9979277, -0.009750644, 0.0030456467, 0.063529395, -0.0038891465, -0.0023191145, 0.024956703, 0
955, 476235353, 0.99792725, -0.009750599, 0.0030428425, 0.0635362, -0.01669934, 0.0019369842, 0.040122032, 0
956, 476252020, 0.9979254, -0.009740788, 0.003052519, 0.06356872, -0.0023991112, -0.0036372682, 0.031755447, 0
957, 476268687, 0.9979248, -0.009737582, 0.0030543294, 0.06357676, 7.290521E-4, 0.020399392, 0.041262627, 0
958, 476285354, 0.99792475, -0.009729586, 0.0030576445, 0.06357867, 0.0043847025, 0.0024557437, 0.03122139, 0
959, 476302021, 0.99792075, -0.009864072, 0.002908728, 0.06362757, 7.5819436E-4, -0.021243691, 0.050786972, 0
960, 476318688, 0.99792117, -0.00986035, 0.0029065302, 0.063621506, -0.018528266, -0.021141902, 0.017035484, 0
961, 476335355, 0.9979211, -0.009857068, 0.0029036542, 0.0636227, -0.0039159977, 0.002318849, 0.046580315, 0
962, 476352022, 0.9979199, -0.009856879, 0.0029108985, 0.06364144, 0.0012621498, 0.011451659, 0.04870987, 0
963, 476368689, 0.9979194, -0.009850911, 0.0029111244, 0.063650705, -0.0043935804, 0.019164365, 0.029800415, 0
964, 476385356, 0.99791896, -0.009859999, 0.0029011176, 0.06365513, -0.014273127, 0.0060503143, 0.03916931, 0
965, 476402023, 0.9979195, -0.009856157, 0.0029066477, 0.06364947, -0.021046773, 0.0035756624, 0.033049583, 0
966, 476418690, 0.9979191, -0.009849294, 0.00290188, 0.063656874, -0.0047142077, -7.6907314E-4, 0.031523705, 0
967, 476435357, 0.99791825, -0.0098606115, 0.0029002095, 0.06366846, 0.0032973958, 0.0032233293, 0.029037476, 0
968, 476452024, 0.99791855, -0.009864074, 0.0029085793, 0.06366346, -5.526707E-4, 0.013730925, 0.025870323, 0
969, 476468691, 0.99791753, -0.009855578, 0.002912954, 0.06367851, -0.006351107, 0.013746864, 0.01453495, 0
970, 476485358, 0.9979162, -0.009851485, 0.0029057234, 0.063700125, -0.010341487, -0.010612053, 0.018665314, 0
971, 476502025, 0.99791676, -0.009852654, 0.0029092494, 0.06369192, -0.011779618, -0.008460287, 0.037680626, 0
972, 476518692, 0.9979163, -0.009852209, 0.0029098007, 0.063699156, -0.0076965676, 0.0037356769, 0.056663513, 0
973, 476535359, 0.99791735, -0.009852656, 0.00292212, 0.06368139, 0.012218898, 0.014007627, 0.031964302, 0
974, 476552026, 0.9979173, -0.009851504, 0.0029346354, 0.063681014, -0.0055558598, 0.015759215, 0.016991615, 0
975, 476568693, 0.9979162, -0.00985069, 0.002935697, 0.06370013, -0.009960786, -0.006602433, 0.03037548, 0
976, 476585360, 0.99791616, -0.009843005, 0.002939495, 0.0637019, -0.011096931, -0.003345947, 0.017353058, 0
977, 476602027, 0.9979152, -0.0098447185, 0.0029410066, 0.06371672, -0.009572943, -0.007077985, 0.039378166, 0
978, 476618694, 0.9979139, -0.009853174, 0.0029229517, 0.06373714, -0.012392362, -0.005097548, 0.04473591, 0
979, 476635361, 0.9979124, -0.00984722, 0.0029313853, 0.06376063, -0.0046684123, 0.012575928, 0.025588036, 0
980, 476652028, 0.99791205, -0.009845018, 0.00293331, 0.063765876, -0.017975014, -9.954568E-4, 0.05385685, 0
981, 476668695, 0.9979112, -0.009844613, 0.0029368654, 0.06377963, 0.008261318, -0.0021092638, 0.028663635, 0
982, 476685362, 0.9979115, -0.009834577, 0.0029382755, 0.06377711, -6.544669E-4, -0.00928558, 0.011967659, 0
983, 476702029, 0.9979104, -0.009831167, 0.002948257, 0.06379355, -0.011134044, -0.0018564428, 0.04501629, 0
984, 476718696, 0.99790967, -0.00982745, 0.0029530763, 0.063805304, -0.01686362, 0.01670334, 0.04899311, 0
985, 476735363, 0.9979096, -0.009823902, 0.0029751258, 0.06380584, -0.007998034, 0.0025234404, 0.03759861, 0
986, 476752030, 0.99791026, -0.009823793, 0.0029741433, 0.0637958, -0.009130476, -0.0018981418, 0.03690815, 0
987, 476768697, 0.99791104, -0.009818334, 0.0029807475, 0.06378428, -0.013947923, -0.01315158, 0.036164284, 0
988, 476785364, 0.99790996, -0.009823887, 0.0029854171, 0.06380018, -0.012568979, -0.013762733, 0.013731003, 0
989, 476802031, 0.9979102, -0.0098222345, 0.0029641364, 0.06379758, 0.012264966, 0.00831135, -0.0037574768, 0
990, 476818698, 0.99790895, -0.009820962, 0.002965988, 0.06381684, 0.015914036, 0.010336489, 0.016924858, 0
991, 476835365, 0.9979083, -0.009823018, 0.002995014, 0.06382582, -0.014942962, -0.005281269, 0.024487495, 0
992, 476852032, 0.99790806, -0.009821393, 0.0030152663, 0.063829064, -0.012885445, -0.02464667, 0.04603958, 0
993, 476868699, 0.99790806, -0.009811983, 0.0030232875, 0.063831195, -0.011624494, -0.0074078897, 0.03549671, 0
994, 476885366, 0.9979085, -0.009812203, 0.003029094, 0.06382264, 1.244583E-4, -0.0064936453, 0.06501484, 0
995, 476902033, 0.9979089, -0.009822529, 0.003031747, 0.063813835, -0.0012460288, -0.001293211, 0.026042938, 0
996, 476918700, 0.9979073, -0.009823581, 0.0030374508, 0.06383864, -0.015693333, 0.029110663, 0.04264164, 0
997, 476935367, 0.9979091, -0.009824205, 0.003023683, 0.06381088, -0.022445448, 0.043071494, 0.028074265, 0
998, 476952034, 0.9979082, -0.009819421, 0.0030214444, 0.06382614, -0.01571408, -0.0028355413, 0.048900604, 0
999, 476968701, 0.997909, -0.009820698, 0.0030231026, 0.06381283, -0.001228291, -0.034600385, 0.034233093, 0
1000, 476985368, 0.9979092, -0.009814801, 0.003020906, 0.06381101, 0.0046783006, -0.03280494, -0.0020837784, 0
1001, 477002035, 0.9979087, -0.0098190205, 0.003014721, 0.06381723, 0.0022139885, 7.340654E-4, 0.004152298, 0
1002, 477018702, 0.9979084, -0.009815385, 0.0030300529, 0.0638216, 0.009605803, 0.013566447, 0.027769089, 0
1003, 477035369, 0.99790925, -0.0098119555, 0.003052299, 0.06381012, -0.013820351, 0.009476782, 0.029809952, 0
1004, 477052036, 0.99790955, -0.009810499, 0.0030650022, 0.06380511, -0.0013825499, 0.012143061, 0.023926735, 0
1005, 477068703, 0.99790883, -0.009809107, 0.0030573541, 0.06381446, 0.0032923634, -0.007135253, 0.036792755, 0
1006, 477085370, 0.99790776, -0.009811801, 0.0030592382, 0.06383239, 0.0015193642, -0.008646214, 0.031620026, 0
1007, 477102037, 0.99790907, -0.009803362, 0.0030678508, 0.063812636, -0.008360785, -0.027085613, 0.03709221, 0
1008, 477118704, 0.9979091, -0.009797818, 0.0030709882, 0.06381281, -0.018327948, -0.0023190866, 0.032200813, 0
1009, 477135371, 0.99790895, -0.009793771, 0.003076451, 0.06381634, -0.008204773, 0.0030162793, 0.021220207, 0
1010, 477152038, 0.9979092, -0.009792421, 0.003081563, 0.06381198, -0.006628266, -0.011983347, 0.03068161, 0
1011, 477168705, 0.997909, -0.009783647, 0.0030684513, 0.06381639, 0.018736893, 0.0013959083, 0.026649475, 0
1012, 477185372, 0.9979086, -0.009784763, 0.0030671163, 0.06382282, 0.0041564642, -0.0044067325, 0.039027214, 0
1013, 477202039, 0.9979082, -0.0097785285, 0.003065513, 0.06382973, -0.0013684476, -0.005628622, 0.03504944, 0
1014, 477218706, 0.9979081, -0.009775874, 0.0030619805, 0.063830875, -0.005779413, -0.009307939, 0.018157005, 0
1015, 477235373, 0.9979078, -0.0097703105, 0.0030714283, 0.06383802, -0.025032142, -0.0023965898, 0.020985603, 0
1016, 477252040, 0.99790615, -0.009771184, 0.003068855, 0.063863784, 0.012400197, 0.008436406, 0.029800415, 0
1017, 477268707, 0.9979065, -0.009770803, 0.0030770889, 0.06385781, 0.0067980434, -2.4418093E-4, 0.037796974, 0
1018, 477285374, 0.9979056, -0.009775807, 0.0030710106, 0.06387091, 0.005050214, -0.0022106827, 0.04862404, 0
1019, 477302041, 0.99790555, -0.009778139, 0.0030662636, 0.06387264, 0.0024712868, -0.014329422, 0.030704498, 0
1020, 477318708, 0.9979048, -0.009769709, 0.0030623886, 0.06388375, -0.0011556074, -0.0067271465, 0.044355392, 0
1021, 477335375, 0.9979038, -0.009766155, 0.0030655605, 0.06390163, -0.022526663, 0.0015647584, 0.02599907, 0
1022, 477352042, 0.99790317, -0.00976306, 0.0030682327, 0.06391067, 7.031438E-4, 0.012148363, 0.021500587, 0
1023, 477368709, 0.9979031, -0.009760668, 0.0030666147, 0.063912235, 0.001395463, -0.013753395, 0.0396595, 0
1024, 477385376, 0.9979015, -0.009762521, 0.003074578, 0.06393752, 6.6320837E-4, -0.003965958, 0.021461487, 0
1025, 477402043, 0.997902, -0.0097488025, 0.0030765615, 0.06393183, -0.011718732, -0.017365608, 0.028479576, 0
1026, 477418710, 0.99790055, -0.009752057, 0.0030789403, 0.06395184, 0.013929554, 0.0051314104, 0.028336525, 0
1027, 477435377, 0.9978995, -0.00975023, 0.0030891076, 0.06396712, 0.013252792, 0.012525477, 0.04519081, 0
1028, 477452044, 0.9978994, -0.009753867, 0.0030923453, 0.06396973, 0.003888963, 0.001485034, 0.046710014, 0
1029, 477468711, 0.9978988, -0.009761042, 0.0030950862, 0.06397812, -0.0072641643, -0.0041731475, 0.029735565, 0
1030, 477485378, 0.9978997, -0.009762679, 0.0030951763, 0.06396402, -0.01333779, -0.006109496, 0.015066147, 0
1031, 477502045, 0.9978992, -0.009770523, 0.003096064, 0.06397103, -0.008305329, 0.012731054, 0.021123886, 0
1032, 477518712, 0.9978995, -0.009775945, 0.0030914058, 0.06396553, -5.855236E-4, 0.008210581, 0.017541885, 0
1033, 477535379, 0.99789935, -0.009780786, 0.0031016632, 0.063965276, 0.0110275075, -0.009335053, 0.028909683, 0
1034, 477552046, 0.9979001, -0.009779044, 0.0031080337, 0.063953035, -0.0017630458, 0.008115721, 0.054097176, 0
1035, 477568713, 0.99790007, -0.009777591, 0.0031115178, 0.06395566, -0.0047656386, -0.0017026798, 0.023018837, 0
1036, 477585380, 0.9978994, -0.009773332, 0.0031173863, 0.0639667, 0.0058658146, 0.007999647, 0.010957718, 0
1037, 477602047, 0.9979009, -0.00977523, 0.0031143536, 0.06394366, 0.0014458459, -0.004629191, 0.02552414, 0
1038, 477618714, 0.99790025, -0.00976232, 0.0031224028, 0.0639534, 0.01875286, 0.0057521826, 0.036226273, 0
1039, 477635381, 0.99789953, -0.009767055, 0.0031244028, 0.063964136, -0.0022125477, -0.014501472, 0.01509285, 0
1040, 477652048, 0.99789804, -0.009774822, 0.0031267165, 0.06398627, -0.009629344, 0.004081095, 0.038952827, 0
1041, 477668715, 0.99789804, -0.0097689135, 0.0031232466, 0.063986465, -0.0028336484, 0.015141256, 0.03217125, 0
1042, 477685382, 0.99789774, -0.009768496, 0.003126867, 0.063991204, -0.0073049064, -0.0046422733, 0.041727066, 0
1043, 477702049, 0.99789774, -0.0097680595, 0.0031251472, 0.06399152, 0.006897819, -0.0067099077, 0.037410736, 0
1044, 477718716, 0.99789804, -0.00977445, 0.003131797, 0.063985705, 0.009974792, -0.009222683, 0.040403366, 0
1045, 477735383, 0.9978993, -0.00976896, 0.0031404735, 0.06396716, -0.002505898, -0.006577267, 0.047463417, 0
1046, 477752050, 0.9978994, -0.009773846, 0.0031402267, 0.06396418, -0.016008023, -8.275148E-4, 0.03495121, 0
1047, 477768717, 0.9978992, -0.009781095, 0.0031406311, 0.06396733, -0.006469146, 0.00383104, 0.04564953, 0
1048, 477785384, 0.9978982, -0.009784067, 0.003145806, 0.063982025, -0.0015212676, 0.021121003, 0.02394867, 0
1049, 477802051, 0.9978974, -0.0097708125, 0.0031416924, 0.06399729, 0.008580582, -0.004285414, 0.038924217, 0
1050, 477818718, 0.9978966, -0.009769229, 0.003143476, 0.06400708, 0.0035867996, -0.013658381, 0.03597355, 0
1051, 477835385, 0.99789613, -0.009762996, 0.0031477022, 0.06401668, -0.0111487005, -0.0037398397, 0.027803421, 0
1052, 477852052, 0.9978975, -0.009754819, 0.0031510126, 0.0639965, 0.0033786602, 0.006954473, 0.017006874, 0
1053, 477868719, 0.99789655, -0.009755524, 0.003143502, 0.06401097, 0.01245026, 0.0036912884, 0.03315544, 0
1054, 477885386, 0.9978975, -0.009751093, 0.0031516731, 0.063996196, 0.015190625, -0.006637301, 0.04575634, 0
1055, 477902053, 0.9978968, -0.00974345, 0.0031543383, 0.06400943, 0.001857026, -0.014120026, 0.036463737, 0
1056, 477918720, 0.9978961, -0.009754426, 0.0031453099, 0.064018294, -0.009504557, -0.00905284, 0.039910316, 0
1057, 477935387, 0.9978974, -0.009764105, 0.0031459662, 0.06399725, -0.020002196, -0.0053195455, 0.039138794, 0
1058, 477952054, 0.9978977, -0.009762784, 0.0031489565, 0.06399306, 1.1780181E-4, -0.0024517626, 0.033138275, 0
1059, 477968721, 0.9978977, -0.009771702, 0.0031471986, 0.063992016, 0.0030153766, 0.015895683, 0.01453495, 0
1060, 477985388, 0.9978979, -0.009783805, 0.0031515537, 0.06398671, -0.0038092614, -0.010735034, 0.020375252, 0
1061, 478002055, 0.9978974, -0.009776505, 0.0031582776, 0.063994594, -0.004256326, -0.020552268, 0.03921604, 0
1062, 478018722, 0.99789655, -0.00978034, 0.0031681266, 0.064005956, -0.0071667824, -8.2726334E-4, 0.019360542, 0
1063, 478035389, 0.9978971, -0.009773701, 0.0031690605, 0.06400008, -0.0018676952, 0.01412977, 0.038046837, 0
1064, 478052056, 0.9978954, -0.009771323, 0.003166097, 0.06402681, -0.010356539, -0.014997209, 0.023572922, 0
1065, 478068723, 0.99789464, -0.009773656, 0.003167377, 0.06403846, -0.013672665, -0.011930528, 0.009622574, 0
1066, 478085390, 0.9978939, -0.0097800605, 0.0031662488, 0.06404911, -0.0010719751, 0.010428856, 0.028427124, 0
1067, 478102057, 0.9978928, -0.009776833, 0.0031661189, 0.06406743, 3.1174818E-4, -0.009875312, 0.04574585, 0
1068, 478118724, 0.9978928, -0.009776297, 0.0031743369, 0.06406535, -0.015796728, -0.0058247685, 0.024589539, 0
1069, 478135391, 0.9978933, -0.009774887, 0.003181841, 0.064057276, 0.018848237, -1.550691E-4, 0.049930573, 0
1070, 478152058, 0.9978923, -0.009777257, 0.0031791674, 0.06407206, 0.0011955219, 0.016403511, 0.046583176, 0
1071, 478168725, 0.9978916, -0.00978138, 0.003182179, 0.06408261, 0.0034719752, -0.004120566, 0.031482697, 0
1072, 478185392, 0.99789107, -0.009794521, 0.0031850701, 0.06408843, -0.011399852, -0.015227589, 0.040410995, 0
1073, 478202059, 0.9978913, -0.009788906, 0.0031873942, 0.06408623, 0.0032857505, -0.004272646, 0.02232933, 0
1074, 478218726, 0.99789095, -0.009790011, 0.0031851812, 0.06409231, 0.0043136813, 0.010643352, 0.018880844, 0
1075, 478235393, 0.99789083, -0.009787354, 0.0031776116, 0.06409274, 0.002276532, -0.01827845, 0.0214777, 0
1076, 478252060, 0.9978906, -0.009779748, 0.003165319, 0.06410046, 0.009822556, -0.013296995, 0.04693222, 0
1077, 478268727, 0.99789053, -0.009771932, 0.0031672327, 0.06410047, -0.020031141, -0.0093515515, 0.04267788, 0
1078, 478285394, 0.9978901, -0.0097778775, 0.003176218, 0.064107835, -0.028269516, -0.0015512079, 0.022099495, 0
1079, 478302061, 0.9978883, -0.009841083, 0.0030112825, 0.06413344, -7.277058E-4, 0.005602122, 0.02886486, 0
1080, 478318728, 0.9978881, -0.009832487, 0.003006071, 0.06413787, -0.007262488, -0.013258236, 0.025205612, 0
1081, 478335395, 0.9978885, -0.009831918, 0.0030111808, 0.06413126, -0.0048467424, 0.0027217942, 0.0233078, 0
1082, 478352062, 0.997888, -0.009823117, 0.0030085854, 0.064139836, -0.020786377, 0.024795724, 0.05025673, 0
1083, 478368729, 0.9978861, -0.009833421, 0.0030027274, 0.06416762, -0.018279947, 0.004795519, 0.035280228, 0
1084, 478385396, 0.99788606, -0.0098323, 0.0030003295, 0.06417021, -0.006138532, -0.009950951, 0.027546883, 0
1085, 478402063, 0.9978858, -0.009836796, 0.0030029216, 0.06417363, -0.005884733, 0.008692279, 0.028567314, 0
1086, 478418730, 0.9978848, -0.009844565, 0.0030028545, 0.06418827, 0.023456533, 0.005208788, 0.032110214, 0
1087, 478435397, 0.9978853, -0.009839979, 0.003008091, 0.064181745, -0.0030681065, -0.018055411, 0.053897858, 0
1088, 478452064, 0.9978852, -0.009844367, 0.003011899, 0.06418126, -0.004387734, -0.00675167, 0.020397186, 0
1089, 478468731, 0.9978845, -0.009840034, 0.0030183597, 0.06419276, -0.0035798638, 0.00898161, 0.030727386, 0
1090, 478485398, 0.99788386, -0.009848368, 0.0030127184, 0.064202145, -0.0014061026, -0.0018941256, 0.036964417, 0
1091, 478502065, 0.997884, -0.009849929, 0.0030226626, 0.06419956, -0.005001452, 0.0017431286, 0.03047371, 0
1092, 478518732, 0.997884, -0.00985007, 0.0030218668, 0.064199656, -0.0051112766, -0.0023539616, 0.029893875, 0
1093, 478535399, 0.9978843, -0.009851691, 0.0030188053, 0.0641955, 7.725446E-4, -0.004832811, 0.039361, 0
1094, 478552066, 0.9978844, -0.009848469, 0.0030233923, 0.06419289, -0.006444685, 0.007426246, 0.024569511, 0
