sep=,
DeviceTag:,Xsens_3,,,,,,,,,,,,,,,,,
FirmwareVersion:,2.2.1,,,,,,,,,,,,,,,,,
AppVersion:,2023.0.0,,,,,,,,,,,,,,,,,
StartTime:,2023-07-03 15:42:20.000 +0200,,,,,,,,,,,,,,,,,
© Movella Technologies B. V. 2005-2023,,,,,,,,,,,,,,,,,,,

PacketCounter,SampleTimeFine,Quat_W,Quat_X,Quat_Y,Quat_Z,Acc_X,Acc_Y,Acc_Z,Gyr_X,Gyr_Y,Gyr_Z,Mag_X,Mag_Y,Mag_Z,Status,
0, 4170275144, 0.7638695, -0.08413648, -0.6017455, 0.21754792, 0.0, 0.0, 0.0, 0.0, 0.0, 0.0, -0.05517578125, 0.6865234375, -0.202392578125, 0, 
1, 4170291811, 0.7637754, -0.086783685, -0.6019471, 0.21627596, 7.903293609619141, -3.9686732292175293, 2.561018228530884, -13.509964942932129, -9.294876098632812, -13.467793464660645, -0.064208984375, 0.685546875, -0.199951171875, 0, 
2, 4170308478, 0.76296383, -0.08908595, -0.60259914, 0.21638921, 7.981535911560059, -3.9929144382476807, 2.6170663833618164, -7.463582515716553, -18.230175018310547, -14.556217193603516, -0.0732421875, 0.68115234375, -0.197998046875, 0, 
3, 4170325145, 0.7618217, -0.0898454, -0.6037684, 0.21683952, 8.166285514831543, -3.8591156005859375, 2.6057276725769043, -0.9150676727294922, -24.534210205078125, -15.609156608581543, -0.07958984375, 0.68017578125, -0.194580078125, 0, 
4, 4170341812, 0.76044935, -0.08928233, -0.60577196, 0.21630056, 8.349699974060059, -3.8361005783081055, 2.5352745056152344, 0.7300993204116821, -29.50630760192871, -16.93572235107422, -0.090087890625, 0.67724609375, -0.192138671875, 0, 
5, 4170358479, 0.7588178, -0.08775507, -0.60846794, 0.21508504, 8.465754508972168, -3.924041271209717, 2.481964349746704, 2.3827805519104004, -32.48442840576172, -18.352359771728516, -0.09423828125, 0.67724609375, -0.190673828125, 0, 
6, 4170375146, 0.75693846, -0.085707165, -0.6116044, 0.21363212, 8.57396125793457, -4.108486652374268, 2.454164743423462, 3.761981964111328, -34.3952751159668, -19.54058837890625, -0.107421875, 0.672119140625, -0.1904296875, 0, 
7, 4170391813, 0.75478476, -0.083322704, -0.61500585, 0.21242708, 8.686766624450684, -4.198485851287842, 2.3526883125305176, 5.394585609436035, -35.933475494384766, -20.109203338623047, -0.12060546875, 0.668212890625, -0.191650390625, 0, 
8, 4170408480, 0.7524775, -0.080991335, -0.6185077, 0.21134393, 8.868696212768555, -4.330798149108887, 2.4270577430725098, 4.798919677734375, -35.48136520385742, -19.936336517333984, -0.12939453125, 0.662841796875, -0.19091796875, 0, 
9, 4170425147, 0.75022745, -0.078615874, -0.62184197, 0.21045397, 8.971800804138184, -4.312416076660156, 2.5128531455993652, 5.4727277755737305, -34.143272399902344, -19.92342185974121, -0.14208984375, 0.660888671875, -0.187744140625, 0, 
10, 4170441814, 0.74815685, -0.076510295, -0.6249719, 0.20932688, 9.033690452575684, -4.1893839836120605, 2.5111005306243896, 4.739956378936768, -32.96717834472656, -19.833568572998047, -0.15185546875, 0.6572265625, -0.187744140625, 0, 
11, 4170458481, 0.7461294, -0.07459324, -0.62801087, 0.20815666, 9.213777542114258, -4.193491458892822, 2.5494322776794434, 2.207972764968872, -31.958837509155273, -18.99386978149414, -0.16162109375, 0.654052734375, -0.187744140625, 0, 
12, 4170475148, 0.744268, -0.07266355, -0.63081324, 0.20702699, 9.262371063232422, -4.187994956970215, 2.578037977218628, 1.9309179782867432, -30.214370727539062, -18.5355167388916, -0.169677734375, 0.649658203125, -0.186767578125, 0, 
13, 4170491815, 0.7426879, -0.07066075, -0.63319814, 0.20611125, 9.2811279296875, -4.123083114624023, 2.6017916202545166, 3.216076374053955, -27.297088623046875, -17.631269454956055, -0.17919921875, 0.644287109375, -0.186279296875, 0, 
14, 4170508482, 0.7414584, -0.068721205, -0.63512605, 0.20526016, 9.18954849243164, -3.941598653793335, 2.530747890472412, 3.4452574253082275, -23.65374183654785, -16.921297073364258, -0.1884765625, 0.642578125, -0.181396484375, 0, 
15, 4170525149, 0.7405565, -0.06712581, -0.63671285, 0.20412482, 9.060637474060059, -3.643967866897583, 2.350231647491455, 2.5435843467712402, -20.69944190979004, -16.254396438598633, -0.1923828125, 0.638671875, -0.181640625, 0, 
16, 4170541816, 0.73979264, -0.0660587, -0.63821846, 0.20253508, 8.995382308959961, -3.4376580715179443, 2.1974735260009766, -2.795285940170288, -18.274415969848633, -15.726536750793457, -0.199951171875, 0.634521484375, -0.180419921875, 0, 
17, 4170558483, 0.73902094, -0.06553725, -0.6398532, 0.20035227, 9.028221130371094, -3.3016035556793213, 2.0007901191711426, -8.757424354553223, -17.439062118530273, -15.619108200073242, -0.209228515625, 0.635498046875, -0.176513671875, 0, 
18, 4170575150, 0.73820484, -0.06477862, -0.6415696, 0.1981063, 9.08759880065918, -3.428183078765869, 1.8281012773513794, -7.358020305633545, -18.01063346862793, -16.05873680114746, -0.21435546875, 0.63037109375, -0.175537109375, 0, 
19, 4170591817, 0.7373266, -0.062370658, -0.64315826, 0.19699511, 9.17152214050293, -3.7520174980163574, 1.9279758930206299, 5.669059753417969, -19.51180648803711, -17.12959861755371, -0.22216796875, 0.628173828125, -0.176025390625, 0, 
20, 4170608484, 0.73653173, -0.058423124, -0.64443445, 0.19700849, 9.094669342041016, -3.213083267211914, 1.898917317390442, 18.769868850708008, -19.673494338989258, -18.31792640686035, -0.22802734375, 0.62548828125, -0.177978515625, 0, 
21, 4170625151, 0.7356813, -0.05484651, -0.64586616, 0.19652432, 8.961874961853027, -2.6751880645751953, 1.6485638618469238, 14.440813064575195, -19.715194702148438, -18.728565216064453, -0.23583984375, 0.616943359375, -0.178955078125, 0, 
22, 4170641818, 0.73473257, -0.052377693, -0.6475904, 0.19506767, 8.943140983581543, -2.9172911643981934, 1.6021651029586792, 2.362271308898926, -18.708097457885742, -18.236797332763672, -0.244140625, 0.614990234375, -0.1796875, 0, 
23, 4170658485, 0.73395056, -0.050516844, -0.64920914, 0.19311202, 9.11618709564209, -3.30887508392334, 1.5813350677490234, -2.64477276802063, -16.089393615722656, -17.91086769104004, -0.249755859375, 0.61328125, -0.17822265625, 0, 
24, 4170675152, 0.73341966, -0.048783273, -0.65054125, 0.1910813, 9.16214656829834, -3.369675874710083, 1.420181393623352, -3.028322696685791, -13.030125617980957, -18.014570236206055, -0.26025390625, 0.609619140625, -0.1796875, 0, 
25, 4170691819, 0.73294824, -0.047188584, -0.6518008, 0.18898611, 9.2174072265625, -3.457620859146118, 1.4032602310180664, -3.7516138553619385, -11.846354484558105, -17.892948150634766, -0.26220703125, 0.606201171875, -0.175537109375, 0, 
26, 4170708486, 0.7326076, -0.046047978, -0.6528996, 0.18678269, 9.144655227661133, -3.347285747528076, 1.4039080142974854, -6.142280101776123, -9.542755126953125, -16.70102882385254, -0.2685546875, 0.600341796875, -0.173095703125, 0, 
27, 4170725153, 0.732256, -0.045439735, -0.65401614, 0.18438935, 9.097945213317871, -3.4773666858673096, 1.4334509372711182, -9.607951164245605, -8.727143287658691, -15.381357192993164, -0.271240234375, 0.59912109375, -0.170654296875, 0, 
28, 4170741820, 0.7319143, -0.04478739, -0.655029, 0.18229802, 9.132816314697266, -3.72456431388855, 1.451433777809143, -7.813943862915039, -8.170663833618164, -14.249512672424316, -0.27783203125, 0.595458984375, -0.16845703125, 0, 
29, 4170758487, 0.7314177, -0.043627467, -0.65607923, 0.18078968, 9.08788013458252, -3.8344340324401855, 1.5759540796279907, -2.648125171661377, -9.776121139526367, -13.739652633666992, -0.28271484375, 0.595458984375, -0.167236328125, 0, 
30, 4170775154, 0.7306603, -0.0419735, -0.65727866, 0.17988546, 9.106277465820312, -3.52805233001709, 1.702095627784729, 2.3478994369506836, -12.497114181518555, -12.993502616882324, -0.28857421875, 0.592041015625, -0.164794921875, 0, 
31, 4170791821, 0.72966444, -0.04093413, -0.65879905, 0.17859991, 9.218751907348633, -3.2906460762023926, 1.7570382356643677, -2.931121349334717, -14.386788368225098, -12.077722549438477, -0.29541015625, 0.591552734375, -0.16162109375, 0, 
32, 4170808488, 0.72860956, -0.040430114, -0.66039455, 0.17712322, 9.354337692260742, -3.3798365592956543, 1.7719532251358032, -6.620942115783691, -14.405036926269531, -10.570246696472168, -0.29638671875, 0.58740234375, -0.165771484375, 0, 
33, 4170825155, 0.7276366, -0.040321056, -0.66188747, 0.1755692, 9.407109260559082, -3.4197587966918945, 1.764788031578064, -8.827106475830078, -13.100910186767578, -9.274240493774414, -0.30419921875, 0.586181640625, -0.156494140625, 0, 
34, 4170841822, 0.726666, -0.040747892, -0.6634006, 0.17376976, 9.418994903564453, -3.4339587688446045, 1.545004963874817, -12.67081069946289, -12.55249309539795, -8.121438980102539, -0.308837890625, 0.586181640625, -0.15380859375, 0, 
35, 4170858489, 0.7256323, -0.041040275, -0.6649168, 0.17221877, 9.460187911987305, -3.5939106941223145, 1.631882905960083, -10.883732795715332, -13.078295707702637, -7.467634677886963, -0.31591796875, 0.585693359375, -0.1494140625, 0, 
36, 4170875156, 0.72466874, -0.041069727, -0.66625947, 0.17107582, 9.51919174194336, -3.3376941680908203, 1.7476953268051147, -7.485958099365234, -12.353105545043945, -6.765575408935547, -0.318359375, 0.58349609375, -0.145751953125, 0, 
37, 4170891823, 0.7237304, -0.041510507, -0.6676038, 0.16969547, 9.542535781860352, -3.015239715576172, 1.6143250465393066, -10.649155616760254, -11.774296760559082, -6.08546781539917, -0.322021484375, 0.5849609375, -0.14208984375, 0, 
38, 4170908490, 0.7228106, -0.042636964, -0.6689995, 0.16782917, 9.549615859985352, -3.057343006134033, 1.5689266920089722, -16.3721866607666, -11.035734176635742, -5.280078887939453, -0.325439453125, 0.58203125, -0.137451171875, 0, 
39, 4170925157, 0.7219265, -0.0439699, -0.6703512, 0.16588654, 9.595370292663574, -3.352825880050659, 1.5727424621582031, -17.710323333740234, -10.412243843078613, -4.655435085296631, -0.327880859375, 0.58056640625, -0.1318359375, 0, 
40, 4170941824, 0.7212271, -0.04455596, -0.6713371, 0.16478121, 9.67683219909668, -3.4399924278259277, 1.5145162343978882, -9.683795928955078, -8.879339218139648, -4.049984455108643, -0.331298828125, 0.5830078125, -0.1240234375, 0, 
41, 4170958491, 0.72076446, -0.044664625, -0.67197096, 0.1641918, 9.617355346679688, -3.0765974521636963, 1.408019781112671, -4.468597412109375, -6.754774570465088, -3.876943826675415, -0.33740234375, 0.578369140625, -0.123779296875, 0, 
42, 4170975158, 0.72040445, -0.04525629, -0.67254895, 0.16324072, 9.527257919311523, -2.8807549476623535, 1.2359049320220947, -8.446572303771973, -5.3389058113098145, -3.4613914489746094, -0.3408203125, 0.577880859375, -0.120849609375, 0, 
43, 4170991825, 0.72018385, -0.0460669, -0.672991, 0.16216226, 9.531554222106934, -3.137310266494751, 1.152311086654663, -9.921774864196777, -3.687807321548462, -3.0858702659606934, -0.340576171875, 0.5791015625, -0.117431640625, 0, 
44, 4171008492, 0.7201225, -0.045889925, -0.67309153, 0.16206661, 9.55103588104248, -3.5045435428619385, 1.1801706552505493, -0.039738111197948456, -2.613187074661255, -2.8226478099823, -0.34033203125, 0.58056640625, -0.11328125, 0, 
45, 4171025159, 0.7202959, -0.044551574, -0.6727383, 0.16313322, 9.463833808898926, -3.291677713394165, 1.1002010107040405, 11.687138557434082, -0.9003508687019348, -2.6079375743865967, -0.340087890625, 0.57763671875, -0.118896484375, 0, 
46, 4171041826, 0.7206131, -0.043120805, -0.672171, 0.16444983, 9.401899337768555, -3.003856897354126, 1.167533040046692, 13.603842735290527, 0.6961344480514526, -1.891319990158081, -0.34423828125, 0.576904296875, -0.1201171875, 0, 
47, 4171058493, 0.72108006, -0.042411163, -0.6714812, 0.16540301, 9.435090065002441, -2.8502004146575928, 1.214181900024414, 8.542778968811035, 2.9542787075042725, -0.43136927485466003, -0.33984375, 0.578857421875, -0.123779296875, 0, 
48, 4171075160, 0.7217111, -0.042539783, -0.6706983, 0.16579387, 9.45875072479248, -3.128509283065796, 1.234303593635559, 1.9471735954284668, 5.321749687194824, 0.5759080052375793, -0.342529296875, 0.57568359375, -0.123779296875, 0, 
49, 4171091827, 0.7223579, -0.04302921, -0.66990876, 0.16604178, 9.353658676147461, -3.2766990661621094, 1.3167792558670044, -0.4812241792678833, 5.909688949584961, 1.5369861125946045, -0.34130859375, 0.574951171875, -0.12158203125, 0, 
50, 4171108494, 0.7230556, -0.043732323, -0.6690057, 0.16646233, 9.405814170837402, -3.2026150226593018, 1.2905244827270508, -0.5945989489555359, 6.915910243988037, 3.3416829109191895, -0.339599609375, 0.576904296875, -0.122802734375, 0, 
51, 4171125161, 0.7239067, -0.044826467, -0.6679449, 0.16673134, 9.462803840637207, -3.1619606018066406, 1.3069636821746826, -3.0024240016937256, 8.92298698425293, 4.266520023345947, -0.339111328125, 0.579345703125, -0.124267578125, 0, 
52, 4171141828, 0.72480714, -0.0457715, -0.6667856, 0.16720314, 9.512351989746094, -3.3077497482299805, 1.371525764465332, -1.1936930418014526, 9.432450294494629, 4.584463596343994, -0.3369140625, 0.580322265625, -0.124755859375, 0, 
53, 4171158495, 0.72582495, -0.04599008, -0.66534066, 0.16847903, 9.674283981323242, -3.172694206237793, 1.4053013324737549, 6.486119747161865, 10.32275104522705, 5.217547416687012, -0.334228515625, 0.58251953125, -0.126953125, 0, 
54, 4171175162, 0.7269676, -0.046373393, -0.6637443, 0.16973971, 9.657054901123047, -2.7720255851745605, 1.2760071754455566, 5.812492370605469, 11.860871315002441, 5.835544109344482, -0.33203125, 0.58056640625, -0.12841796875, 0, 
55, 4171191829, 0.7281128, -0.047628064, -0.66226315, 0.17026782, 9.560784339904785, -2.615077257156372, 1.1831878423690796, -2.015413284301758, 12.59397029876709, 6.210026741027832, -0.3271484375, 0.584716796875, -0.127197265625, 0, 
56, 4171208496, 0.729194, -0.049670484, -0.6609618, 0.17011356, 9.575931549072266, -2.719301223754883, 1.1531219482421875, -9.290580749511719, 12.610981941223145, 6.509544849395752, -0.327880859375, 0.587158203125, -0.12841796875, 0, 
57, 4171225163, 0.73034054, -0.051530078, -0.6595299, 0.17019895, 9.657752990722656, -2.9042434692382812, 1.159111738204956, -7.10028076171875, 13.335410118103027, 6.940451622009277, -0.32373046875, 0.587646484375, -0.123291015625, 0, 
58, 4171241830, 0.73150456, -0.05308451, -0.65801424, 0.1705885, 9.643428802490234, -2.660583734512329, 1.1104367971420288, -4.07089900970459, 13.439167976379395, 7.159607887268066, -0.31884765625, 0.589111328125, -0.124267578125, 0, 
59, 4171258497, 0.7325647, -0.0550435, -0.65667224, 0.1705902, 9.606131553649902, -2.25211763381958, 0.9660130143165588, -8.090394020080566, 12.788208961486816, 7.1971821784973145, -0.3193359375, 0.593017578125, -0.12841796875, 0, 
60, 4171275164, 0.7333961, -0.05750575, -0.6557149, 0.16988733, 9.560104370117188, -2.4422435760498047, 1.0849701166152954, -14.334460258483887, 10.770378112792969, 6.194419860839844, -0.3173828125, 0.59375, -0.121826171875, 0, 
61, 4171291831, 0.73415, -0.05969416, -0.65483093, 0.1692837, 9.518086433410645, -2.650710344314575, 1.260312795639038, -12.616266250610352, 9.766037940979004, 5.637252330780029, -0.316650390625, 0.597900390625, -0.116943359375, 0, 
62, 4171308498, 0.7348568, -0.061536103, -0.65399635, 0.16878265, 9.459402084350586, -2.469261884689331, 1.2055692672729492, -10.478571891784668, 8.907418251037598, 4.712400436401367, -0.31689453125, 0.594970703125, -0.1162109375, 0, 
63, 4171325165, 0.73546845, -0.06337439, -0.65333915, 0.1679819, 9.498220443725586, -2.529165029525757, 1.1547465324401855, -12.052703857421875, 7.758419036865234, 3.3172504901885986, -0.3134765625, 0.59814453125, -0.1123046875, 0, 
64, 4171341832, 0.735957, -0.0650066, -0.65287584, 0.1670173, 9.391637802124023, -2.680145502090454, 1.1618831157684326, -12.01920223236084, 6.116733074188232, 1.7116273641586304, -0.317138671875, 0.60009765625, -0.1123046875, 0, 
65, 4171358499, 0.7362923, -0.06631697, -0.6525821, 0.16617012, 9.4502592086792, -2.9187867641448975, 1.2553004026412964, -10.119171142578125, 4.200528621673584, 1.0262820720672607, -0.314453125, 0.6015625, -0.106689453125, 0, 
66, 4171375166, 0.73662406, -0.06726077, -0.65229183, 0.16545826, 9.53855037689209, -2.8676819801330566, 1.2653530836105347, -7.654101371765137, 3.726245641708374, 0.10398118197917938, -0.314453125, 0.598876953125, -0.107177734375, 0, 
67, 4171391833, 0.73688906, -0.06813265, -0.6521223, 0.16458756, 9.646541595458984, -2.8693501949310303, 1.265884280204773, -8.164280891418457, 2.844041585922241, -0.9583379030227661, -0.31591796875, 0.6025390625, -0.105712890625, 0, 
68, 4171408500, 0.7370233, -0.068902716, -0.6521428, 0.16358157, 9.661118507385254, -3.007690668106079, 1.2005999088287354, -8.526251792907715, 1.2799756526947021, -1.9955240488052368, -0.3154296875, 0.602783203125, -0.10302734375, 0, 
69, 4171425167, 0.7370388, -0.06910948, -0.6522891, 0.16284001, 9.643471717834473, -3.2446110248565674, 1.252437710762024, -4.673191070556641, -0.6058300733566284, -3.079146385192871, -0.320556640625, 0.60107421875, -0.101318359375, 0, 
70, 4171441834, 0.73710626, -0.06859585, -0.6523148, 0.16264883, 9.443928718566895, -3.1499900817871094, 1.1948158740997314, 1.6164624691009521, -0.7961068749427795, -3.521196126937866, -0.323486328125, 0.603515625, -0.099365234375, 0, 
71, 4171458501, 0.73716766, -0.06791556, -0.652353, 0.16250236, 9.171097755432129, -2.906090259552002, 1.1275807619094849, 2.6563634872436523, -1.0603786706924438, -4.038303375244141, -0.318115234375, 0.598876953125, -0.10107421875, 0, 
72, 4171475168, 0.7371773, -0.067469984, -0.652491, 0.16209069, 8.943239212036133, -3.0072739124298096, 1.110909342765808, 0.15067310631275177, -1.3773229122161865, -4.3013458251953125, -0.322265625, 0.5966796875, -0.099853515625, 0, 
73, 4171491835, 0.7371963, -0.06721105, -0.65260845, 0.16163692, 8.802651405334473, -2.967926025390625, 1.0968568325042725, -0.9451854825019836, -0.9725654721260071, -3.681377649307251, -0.324951171875, 0.597900390625, -0.101806640625, 0, 
74, 4171508502, 0.7372575, -0.067238234, -0.6526794, 0.16105914, 8.812355995178223, -2.919111728668213, 1.041957139968872, -2.870696783065796, -0.14325182139873505, -3.0570292472839355, -0.32373046875, 0.599609375, -0.10107421875, 0, 
75, 4171525169, 0.7372649, -0.06776107, -0.6528453, 0.1601306, 8.827925682067871, -2.92110276222229, 0.9815938472747803, -7.076009273529053, -0.12297940999269485, -2.595489025115967, -0.3271484375, 0.596923828125, -0.0986328125, 0, 
76, 4171541836, 0.7372611, -0.06853253, -0.65305, 0.15898204, 8.921463966369629, -2.9472463130950928, 0.9679835438728333, -9.358511924743652, 0.04380413144826889, -2.6021485328674316, -0.328857421875, 0.595703125, -0.095458984375, 0, 
77, 4171558503, 0.7371662, -0.069371685, -0.65336406, 0.15776323, 8.98701000213623, -3.0778071880340576, 1.0081331729888916, -10.167924880981445, -0.7755399942398071, -2.606656551361084, -0.332763671875, 0.595947265625, -0.09521484375, 0, 
78, 4171575170, 0.7369888, -0.06983076, -0.653745, 0.1568078, 9.093204498291016, -3.2398693561553955, 1.0927789211273193, -7.1579694747924805, -1.9898381233215332, -2.9339094161987305, -0.33203125, 0.597412109375, -0.0908203125, 0, 
79, 4171591837, 0.7366905, -0.06966852, -0.6542096, 0.15634382, 9.198424339294434, -3.2199716567993164, 1.0760436058044434, -1.9379596710205078, -3.8414316177368164, -3.1690337657928467, -0.335693359375, 0.596923828125, -0.08984375, 0, 
80, 4171608504, 0.73631287, -0.06904996, -0.65475386, 0.15611894, 9.357170104980469, -3.0756733417510986, 1.018204927444458, 1.3352092504501343, -5.18225622177124, -3.981494426727295, -0.338623046875, 0.59521484375, -0.08642578125, 0, 
81, 4171625171, 0.73588216, -0.068224154, -0.65536463, 0.15594955, 9.409579277038574, -3.004870653152466, 0.9853756427764893, 2.5469977855682373, -5.978875637054443, -4.608429431915283, -0.341064453125, 0.594482421875, -0.087158203125, 0, 
82, 4171641838, 0.7355277, -0.06737135, -0.65589625, 0.1557575, 9.324352264404297, -2.9914863109588623, 0.9755703806877136, 2.710496425628662, -5.222123146057129, -4.88386869430542, -0.34130859375, 0.593994140625, -0.088134765625, 0, 
83, 4171658505, 0.73522353, -0.06669843, -0.6563956, 0.15537857, 9.20312786102295, -2.896790027618408, 0.9382162690162659, 1.0245786905288696, -4.525393009185791, -5.052835941314697, -0.34375, 0.591064453125, -0.084716796875, 0, 
84, 4171675172, 0.7349387, -0.06615873, -0.6569124, 0.15477207, 8.995100021362305, -2.8085222244262695, 0.8499805331230164, -0.6789543628692627, -4.251977443695068, -5.624523639678955, -0.343994140625, 0.590087890625, -0.086181640625, 0, 
85, 4171691839, 0.7346405, -0.06565824, -0.6574753, 0.15400909, 9.082498550415039, -2.945405960083008, 0.9288263320922852, -1.62905752658844, -4.40185022354126, -6.238012790679932, -0.346435546875, 0.590576171875, -0.086669921875, 0, 
86, 4171708506, 0.7344043, -0.064630106, -0.657951, 0.1535382, 9.239059448242188, -2.9325695037841797, 0.9613162279129028, 2.4834909439086914, -4.347743511199951, -7.178471565246582, -0.349365234375, 0.5859375, -0.084228515625, 0, 
87, 4171725173, 0.73428816, -0.063015, -0.6582637, 0.15342496, 9.45427417755127, -3.055396318435669, 0.9619260430335999, 7.296786785125732, -3.7414026260375977, -8.08234691619873, -0.35302734375, 0.58642578125, -0.087158203125, 0, 
88, 4171741840, 0.7342605, -0.060892865, -0.6584508, 0.15360996, 9.47558879852295, -2.929699659347534, 1.0402878522872925, 11.383683204650879, -3.348978281021118, -8.918298721313477, -0.35009765625, 0.58544921875, -0.0859375, 0, 
89, 4171758507, 0.7342212, -0.058624692, -0.65864164, 0.15386263, 9.456914901733398, -2.8986637592315674, 1.09186589717865, 12.421934127807617, -3.5898919105529785, -9.226778984069824, -0.35400390625, 0.583251953125, -0.090576171875, 0, 
90, 4171775174, 0.7341733, -0.056197423, -0.65879905, 0.1543223, 9.466263771057129, -3.0378289222717285, 1.0500494241714478, 14.197102546691895, -3.7025628089904785, -8.878561973571777, -0.3583984375, 0.5791015625, -0.091796875, 0, 
91, 4171791841, 0.73417467, -0.05404595, -0.6588727, 0.15476899, 9.510766983032227, -2.995835542678833, 1.0813095569610596, 12.858321189880371, -2.7480013370513916, -7.729252815246582, -0.362060546875, 0.578125, -0.09619140625, 0, 
92, 4171808508, 0.7340349, -0.052315183, -0.65909153, 0.15509443, 9.69636344909668, -2.93253493309021, 1.1476260423660278, 9.982665061950684, -3.616349220275879, -6.349737644195557, -0.3623046875, 0.57763671875, -0.09765625, 0, 
93, 4171825175, 0.73381424, -0.051143583, -0.6594172, 0.15514497, 9.978304862976074, -2.8753154277801514, 1.172043800354004, 5.774057865142822, -3.821044445037842, -5.1587958335876465, -0.36376953125, 0.573974609375, -0.097900390625, 0, 
94, 4171841842, 0.7335269, -0.05035988, -0.6598373, 0.15497378, 10.132267951965332, -2.9791834354400635, 1.1764070987701416, 2.6881234645843506, -4.100042819976807, -4.474513530731201, -0.363525390625, 0.572509765625, -0.098876953125, 0, 
95, 4171858509, 0.73328185, -0.049469057, -0.66017944, 0.15496384, 10.217124938964844, -3.088822364807129, 1.182198166847229, 4.061054706573486, -3.678227663040161, -4.163498878479004, -0.36181640625, 0.57177734375, -0.10107421875, 0, 
96, 4171875176, 0.7331552, -0.048188753, -0.6603376, 0.15529247, 10.182994842529297, -3.100005626678467, 1.154033899307251, 7.798756122589111, -2.7367563247680664, -4.296275615692139, -0.36572265625, 0.57177734375, -0.100830078125, 0, 
97, 4171891843, 0.7330654, -0.046854533, -0.6604292, 0.15573421, 10.107806205749512, -2.7852272987365723, 1.0316286087036133, 8.671598434448242, -2.319397211074829, -3.9981305599212646, -0.367431640625, 0.568115234375, -0.1044921875, 0, 
98, 4171908510, 0.7329006, -0.04635103, -0.6607, 0.15551177, 10.048728942871094, -2.62321400642395, 1.0101444721221924, 1.254388451576233, -2.444207191467285, -3.539931535720825, -0.369873046875, 0.570556640625, -0.10205078125, 0, 
99, 4171925177, 0.7327353, -0.046469428, -0.6610157, 0.1549131, 9.992754936218262, -2.793060779571533, 1.0531474351882935, -3.633763074874878, -1.8701879978179932, -2.602762460708618, -0.367919921875, 0.56884765625, -0.101806640625, 0, 
100, 4171941844, 0.73254865, -0.04646646, -0.6613059, 0.15455782, 9.856912612915039, -2.938164234161377, 1.0917720794677734, -1.8933677673339844, -2.033174514770508, -1.8905500173568726, -0.371337890625, 0.566650390625, -0.103759765625, 0, 
101, 4171958511, 0.7323875, -0.046423964, -0.66152686, 0.15438844, 9.727066040039062, -2.637692451477051, 1.0137391090393066, -0.7641037106513977, -1.66111159324646, -1.1474874019622803, -0.37158203125, 0.57080078125, -0.1005859375, 0, 
102, 4171975178, 0.73216325, -0.046918895, -0.6618755, 0.15380704, 9.664178848266602, -2.4627413749694824, 0.9703736901283264, -5.498086452484131, -1.8781534433364868, -0.7393105030059814, -0.37646484375, 0.568603515625, -0.099853515625, 0, 
103, 4171991845, 0.7319548, -0.04769299, -0.662229, 0.15303716, 9.571603775024414, -2.723769187927246, 0.9691615700721741, -7.759150505065918, -1.4617809057235718, -0.4125950336456299, -0.3759765625, 0.56884765625, -0.096435546875, 0, 
104, 4172008512, 0.73178303, -0.048175063, -0.66246694, 0.1526779, 9.323311805725098, -2.739901542663574, 0.9217650294303894, -4.284351348876953, -1.1429026126861572, 0.3244808614253998, -0.373779296875, 0.56640625, -0.093994140625, 0, 
105, 4172025179, 0.7315742, -0.048746042, -0.6627091, 0.15244725, 9.010396003723145, -2.2934930324554443, 0.8360301852226257, -4.157492160797119, -1.2707998752593994, 1.4098832607269287, -0.376953125, 0.568603515625, -0.095458984375, 0, 
106, 4172041846, 0.7312973, -0.0498669, -0.6630705, 0.1518386, 8.741013526916504, -2.216327667236328, 0.7737937569618225, -8.792418479919434, -1.462575078010559, 2.067054033279419, -0.37646484375, 0.571044921875, -0.09033203125, 0, 
107, 4172058513, 0.7310702, -0.0506491, -0.6633167, 0.15159833, 8.715941429138184, -2.5513079166412354, 0.8938940763473511, -5.2698516845703125, -1.1201075315475464, 2.38472843170166, -0.376220703125, 0.56982421875, -0.089111328125, 0, 
108, 4172075180, 0.73106086, -0.050638467, -0.6631809, 0.15223914, 8.992478370666504, -2.329242706298828, 0.7929359078407288, 3.209841728210449, 0.6663208603858948, 3.099950075149536, -0.373779296875, 0.572265625, -0.088623046875, 0, 
109, 4172091847, 0.73124665, -0.05053739, -0.6628214, 0.15294547, 9.64267635345459, -2.241596221923828, 0.5393133759498596, 4.268375873565674, 2.5784881114959717, 2.909865617752075, -0.376708984375, 0.571533203125, -0.089599609375, 0, 
110, 4172108514, 0.7316122, -0.05044351, -0.66231674, 0.15341379, 10.089866638183594, -2.610769510269165, 0.45753905177116394, 3.36962628364563, 4.257068157196045, 1.645904302597046, -0.37451171875, 0.571044921875, -0.08837890625, 0, 
111, 4172125181, 0.7322044, -0.0496987, -0.66148525, 0.15441598, 10.405570030212402, -3.1022379398345947, 0.556370735168457, 9.510135650634766, 6.111597061157227, 1.2623673677444458, -0.37060546875, 0.57177734375, -0.093017578125, 0, 
112, 4172141848, 0.7330635, -0.04815871, -0.6602831, 0.15596476, 10.2998628616333, -2.790865898132324, 0.48825201392173767, 16.499982833862305, 8.20580005645752, 0.2324034869670868, -0.37353515625, 0.571044921875, -0.09326171875, 0, 
113, 4172158515, 0.7339047, -0.04620041, -0.65909874, 0.15760246, 10.017894744873047, -2.6951799392700195, 0.5588035583496094, 18.99831771850586, 7.609128952026367, -1.1948086023330688, -0.3671875, 0.571044921875, -0.10400390625, 0, 
114, 4172175182, 0.7347269, -0.04372661, -0.6578527, 0.15966934, 9.793852806091309, -2.761164426803589, 0.7609342336654663, 23.616716384887695, 7.1856255531311035, -1.3159960508346558, -0.36572265625, 0.5703125, -0.10693359375, 0, 
115, 4172191849, 0.73559487, -0.04109729, -0.6564732, 0.16203137, 9.473596572875977, -2.590531587600708, 0.8218671679496765, 25.905502319335938, 7.838564395904541, -0.5379577875137329, -0.366455078125, 0.569580078125, -0.113037109375, 0, 
116, 4172208516, 0.7363637, -0.03887518, -0.6551981, 0.16423467, 9.245603561401367, -2.408073902130127, 0.7628099918365479, 22.992931365966797, 7.388990879058838, 0.581172525882721, -0.3623046875, 0.56884765625, -0.119140625, 0, 
117, 4172225183, 0.7369247, -0.037273366, -0.654197, 0.16606967, 9.210505485534668, -2.5589046478271484, 0.839884340763092, 17.834238052368164, 5.895607948303223, 1.6842867136001587, -0.359619140625, 0.56640625, -0.126708984375, 0, 
118, 4172241850, 0.7372705, -0.035682797, -0.65336967, 0.16812818, 9.201635360717773, -2.711712598800659, 0.9828205704689026, 18.537206649780273, 4.029439926147461, 3.068834066390991, -0.358154296875, 0.56884765625, -0.133056640625, 0, 
119, 4172258517, 0.7374386, -0.03434879, -0.6526785, 0.17033844, 9.221060752868652, -2.380966901779175, 1.0671374797821045, 17.724197387695312, 2.818802833557129, 5.152302265167236, -0.35595703125, 0.567626953125, -0.135986328125, 0, 
120, 4172275184, 0.73740375, -0.03415753, -0.65231633, 0.17190796, 9.209431648254395, -2.2061684131622314, 1.0833147764205933, 8.623998641967773, 1.7435020208358765, 7.207142353057861, -0.350341796875, 0.566162109375, -0.137939453125, 0, 
121, 4172291851, 0.7372203, -0.035010662, -0.6522307, 0.17284618, 9.218449592590332, -2.342735528945923, 1.0477136373519897, 0.13784117996692657, 1.071846842765808, 8.829026222229004, -0.34814453125, 0.568359375, -0.13623046875, 0, 
122, 4172308518, 0.7368957, -0.03615176, -0.6523013, 0.17372693, 9.40998363494873, -2.6044363975524902, 1.10257887840271, -1.7949131727218628, 0.018550004810094833, 9.979793548583984, -0.34716796875, 0.570068359375, -0.1357421875, 0, 
123, 4172325185, 0.73649794, -0.037218153, -0.6523911, 0.17484805, 9.596976280212402, -2.5212154388427734, 1.0380045175552368, -0.3752902150154114, -0.5413630604743958, 10.95543384552002, -0.343505859375, 0.570556640625, -0.136474609375, 0, 
124, 4172341852, 0.73601294, -0.03837715, -0.6525744, 0.17595148, 9.760621070861816, -2.6084604263305664, 1.0542714595794678, -1.0500441789627075, -1.271389365196228, 11.382460594177246, -0.342529296875, 0.57373046875, -0.133056640625, 0, 
125, 4172358519, 0.7354765, -0.039278723, -0.65276146, 0.17729668, 9.84702205657959, -2.696489095687866, 0.988331139087677, 1.325054407119751, -1.8760284185409546, 11.53111743927002, -0.34033203125, 0.573974609375, -0.129150390625, 0, 
126, 4172375186, 0.73499477, -0.0394882, -0.6527996, 0.17909792, 10.04899787902832, -2.7805891036987305, 0.9899565577507019, 7.078746318817139, -1.8207184076309204, 10.722129821777344, -0.337158203125, 0.576171875, -0.12939453125, 0, 
127, 4172391853, 0.7346572, -0.039022803, -0.65259975, 0.1812999, 9.825701713562012, -2.7161920070648193, 0.8968209624290466, 12.62018871307373, -0.88065505027771, 9.619325637817383, -0.333740234375, 0.5771484375, -0.131591796875, 0, 
128, 4172408520, 0.734323, -0.038661636, -0.6524199, 0.18336672, 9.46996021270752, -2.765022039413452, 0.9187533855438232, 11.472518920898438, -0.771519124507904, 9.411053657531738, -0.330810546875, 0.578857421875, -0.135009765625, 0, 
129, 4172425187, 0.7339308, -0.038540922, -0.65232325, 0.18529677, 9.25103759765625, -2.753507614135742, 0.994060218334198, 9.545698165893555, -1.0903972387313843, 9.859940528869629, -0.32470703125, 0.579345703125, -0.1337890625, 0, 
130, 4172441854, 0.73356724, -0.03863719, -0.6522009, 0.18713725, 9.274918556213379, -2.883868932723999, 0.9765608906745911, 8.067140579223633, -0.5031105279922485, 10.35280704498291, -0.325927734375, 0.578857421875, -0.13623046875, 0, 
131, 4172458521, 0.7332668, -0.038602572, -0.6520004, 0.18901144, 9.314868927001953, -3.0957109928131104, 1.0983517169952393, 9.026119232177734, 0.007626185659319162, 9.878331184387207, -0.32373046875, 0.5791015625, -0.135498046875, 0, 
132, 4172475188, 0.73292714, -0.038662467, -0.6518392, 0.19086325, 9.386751174926758, -3.0423083305358887, 1.1467399597167969, 8.401388168334961, -0.2237655073404312, 10.21949291229248, -0.322021484375, 0.580322265625, -0.13623046875, 0, 
133, 4172491855, 0.73258764, -0.0386365, -0.6516574, 0.1927831, 9.399109840393066, -3.0247840881347656, 1.1283371448516846, 9.155694007873535, -0.23698163032531738, 10.175091743469238, -0.317138671875, 0.58447265625, -0.138671875, 0, 
134, 4172508522, 0.7322098, -0.039071694, -0.65160704, 0.19429514, 9.332938194274902, -2.9760499000549316, 1.255114197731018, 4.8151702880859375, -0.33390012383461, 10.200922012329102, -0.311767578125, 0.58544921875, -0.142333984375, 0, 
135, 4172525189, 0.7318096, -0.039461456, -0.65158856, 0.19578034, 9.28353500366211, -3.0708065032958984, 1.279707431793213, 4.947908401489258, -0.6675696969032288, 9.897027015686035, -0.30712890625, 0.587646484375, -0.137451171875, 0, 
136, 4172541856, 0.7315157, -0.039621606, -0.65139264, 0.19749069, 9.324041366577148, -3.015552520751953, 1.3095388412475586, 7.387173175811768, 0.3312044143676758, 9.90466022491455, -0.309326171875, 0.58642578125, -0.138916015625, 0, 
137, 4172558523, 0.73122585, -0.039581742, -0.65117896, 0.19926924, 9.201135635375977, -2.9641451835632324, 1.249697208404541, 8.560184478759766, 0.2038836032152176, 9.327553749084473, -0.3017578125, 0.587890625, -0.14111328125, 0, 
138, 4172575190, 0.73099786, -0.039020065, -0.65083563, 0.2013272, 9.177956581115723, -3.015690326690674, 1.2682218551635742, 12.739184379577637, 0.30771762132644653, 8.368385314941406, -0.302978515625, 0.586669921875, -0.142822265625, 0, 
139, 4172591857, 0.73082006, -0.03792682, -0.6503711, 0.2036693, 9.203512191772461, -3.006538152694702, 1.3375160694122314, 16.870189666748047, 0.33226752281188965, 7.383439064025879, -0.29541015625, 0.58984375, -0.144287109375, 0, 
140, 4172608524, 0.7307317, -0.036538787, -0.6498113, 0.20601286, 9.30570125579834, -2.882274866104126, 1.397489309310913, 18.512414932250977, 0.7968568801879883, 5.974457263946533, -0.29345703125, 0.591552734375, -0.148681640625, 0, 
141, 4172625191, 0.730625, -0.03527526, -0.649366, 0.20800647, 9.500958442687988, -2.766233205795288, 1.5223705768585205, 16.14469337463379, 0.40769699215888977, 4.7801737785339355, -0.2939453125, 0.5908203125, -0.153564453125, 0, 
142, 4172641858, 0.7304803, -0.034493133, -0.64910495, 0.20945542, 9.551223754882812, -2.836211919784546, 1.6139284372329712, 11.141075134277344, 0.0826842412352562, 4.250807762145996, -0.2900390625, 0.590087890625, -0.154296875, 0, 
143, 4172658525, 0.73029244, -0.03392029, -0.6489667, 0.21062936, 9.466978073120117, -2.8419463634490967, 1.6508008241653442, 8.60129165649414, -0.3485633432865143, 3.848623275756836, -0.289306640625, 0.587646484375, -0.152587890625, 0, 
144, 4172675192, 0.73005855, -0.033244286, -0.6489142, 0.21170668, 9.331236839294434, -2.863166570663452, 1.6948232650756836, 8.536620140075684, -1.1210553646087646, 2.96985125541687, -0.289306640625, 0.58984375, -0.15625, 0, 
145, 4172691859, 0.7297515, -0.03258926, -0.6490374, 0.21248843, 9.172861099243164, -2.7609808444976807, 1.7303965091705322, 6.827481746673584, -2.2470662593841553, 1.6642941236495972, -0.28662109375, 0.588134765625, -0.158935546875, 0, 
146, 4172708526, 0.7293699, -0.032056417, -0.6493674, 0.21287106, 9.20846176147461, -2.9015064239501953, 1.7468880414962769, 4.011749267578125, -3.3371427059173584, 0.27460014820098877, -0.289306640625, 0.589111328125, -0.160888671875, 0, 
147, 4172725193, 0.7290137, -0.031379797, -0.649697, 0.2131858, 9.260008811950684, -3.03542423248291, 1.8419451713562012, 4.540831089019775, -3.4799463748931885, -0.7113415598869324, -0.288330078125, 0.58935546875, -0.1572265625, 0, 
148, 4172741860, 0.72871226, -0.03096603, -0.65006125, 0.2131672, 9.132119178771973, -2.899686813354492, 1.7892392873764038, 1.7681277990341187, -3.0058932304382324, -1.2756787538528442, -0.28662109375, 0.5888671875, -0.161376953125, 0, 
149, 4172758527, 0.7283053, -0.030727232, -0.650645, 0.21281077, 8.911262512207031, -2.945624828338623, 1.784016489982605, -1.1354495286941528, -4.217873573303223, -2.0942094326019287, -0.290283203125, 0.58740234375, -0.155517578125, 0, 
150, 4172775194, 0.7277495, -0.030290587, -0.6513808, 0.21252376, 8.804079055786133, -3.0001955032348633, 1.8591655492782593, -0.129049614071846, -5.966005325317383, -2.44608998298645, -0.28955078125, 0.586181640625, -0.15869140625, 0, 
151, 4172791861, 0.72713405, -0.029635899, -0.6521655, 0.21231614, 8.72472095489502, -2.9834113121032715, 1.9723786115646362, 1.2205029726028442, -6.845648765563965, -2.9514670372009277, -0.295654296875, 0.585693359375, -0.159912109375, 0, 
152, 4172808528, 0.7265356, -0.029069757, -0.65297884, 0.21194242, 8.64405632019043, -2.8520290851593018, 2.0082147121429443, 0.3818277418613434, -6.927250385284424, -3.3555715084075928, -0.294921875, 0.584228515625, -0.156005859375, 0, 
153, 4172825195, 0.725944, -0.028832098, -0.6538558, 0.21129797, 8.67834758758545, -2.917534589767456, 1.9312342405319214, -3.076380491256714, -6.55882453918457, -3.3306760787963867, -0.297119140625, 0.585205078125, -0.150634765625, 0, 
154, 4172841862, 0.7254953, -0.028758008, -0.6546351, 0.2104345, 8.811491966247559, -3.1115028858184814, 1.8186590671539307, -4.431446075439453, -5.286142349243164, -3.8328258991241455, -0.300048828125, 0.582275390625, -0.15185546875, 0, 
155, 4172858529, 0.7252407, -0.028696444, -0.6552381, 0.20944099, 9.021650314331055, -3.1698436737060547, 1.6442532539367676, -4.950116157531738, -3.470585346221924, -4.7062578201293945, -0.3017578125, 0.581787109375, -0.150390625, 0, 
156, 4172875196, 0.72517174, -0.028385287, -0.655629, 0.20849714, 9.144331932067871, -3.32397198677063, 1.5907087326049805, -3.178114175796509, -1.9575666189193726, -5.822319030761719, -0.3056640625, 0.583251953125, -0.150146484375, 0, 
157, 4172891863, 0.72533846, -0.027995113, -0.6557499, 0.20758718, 9.202101707458496, -3.3158950805664062, 1.5440502166748047, -2.0987563133239746, 0.2778017818927765, -6.296818733215332, -0.308837890625, 0.579345703125, -0.148193359375, 0, 
158, 4172908530, 0.72569275, -0.027121423, -0.6555533, 0.20708583, 9.232027053833008, -3.438889741897583, 1.496507167816162, 2.57401967048645, 1.9457781314849854, -6.673032283782959, -0.307373046875, 0.579833984375, -0.14697265625, 0, 
159, 4172925197, 0.7262141, -0.025637044, -0.65503293, 0.2070935, 9.312722206115723, -3.448319435119629, 1.4275116920471191, 8.194371223449707, 3.4079697132110596, -7.119988441467285, -0.3115234375, 0.578369140625, -0.15234375, 0, 
160, 4172941864, 0.72683436, -0.02335117, -0.6542312, 0.20772177, 9.433359146118164, -3.523190498352051, 1.35614013671875, 15.4032564163208, 4.00433874130249, -7.74842643737793, -0.31298828125, 0.578369140625, -0.154052734375, 0, 
161, 4172958531, 0.72747, -0.020761115, -0.6533314, 0.20860119, 9.710358619689941, -3.4045965671539307, 1.264154076576233, 18.513317108154297, 3.986116886138916, -7.8506622314453125, -0.3125, 0.57373046875, -0.15869140625, 0, 
162, 4172975198, 0.7280683, -0.017970901, -0.65242153, 0.20961818, 10.033072471618652, -3.444939374923706, 1.2619680166244507, 20.25420570373535, 3.5387139320373535, -8.007530212402344, -0.311767578125, 0.57373046875, -0.16357421875, 0, 
163, 4172991865, 0.72866106, -0.014889156, -0.65140635, 0.21095285, 9.967491149902344, -3.4001543521881104, 1.2256815433502197, 23.397953033447266, 3.5637779235839844, -7.705200672149658, -0.312255859375, 0.569091796875, -0.1689453125, 0, 
164, 4173008532, 0.72920024, -0.012088917, -0.65041006, 0.21233854, 9.56794548034668, -2.9966816902160645, 1.2090615034103394, 21.8492431640625, 3.7573318481445312, -6.184287071228027, -0.31201171875, 0.56689453125, -0.176513671875, 0, 
165, 4173025199, 0.7294825, -0.010583404, -0.6499418, 0.21288285, 9.099837303161621, -2.582141399383545, 1.1624587774276733, 10.197758674621582, 2.126655340194702, -4.385152816772461, -0.311767578125, 0.56494140625, -0.179931640625, 0, 
166, 4173041866, 0.7294896, -0.010303771, -0.6499756, 0.21276867, 9.039834022521973, -2.6829919815063477, 1.2140932083129883, 0.06074691563844681, 0.32631218433380127, -1.8797415494918823, -0.311279296875, 0.56591796875, -0.177001953125, 0, 
167, 4173058533, 0.72943735, -0.010830402, -0.6501918, 0.21226086, 9.313087463378906, -2.800466537475586, 1.3473045825958252, -4.643813610076904, -0.061508908867836, 0.054843202233314514, -0.3154296875, 0.564208984375, -0.18115234375, 0, 
168, 4173075200, 0.72923225, -0.011806687, -0.65061814, 0.21160612, 9.60387897491455, -2.5196714401245117, 1.196700930595398, -7.679277420043945, -1.1860988140106201, 1.5689765214920044, -0.317138671875, 0.564697265625, -0.175048828125, 0, 
169, 4173091867, 0.72886163, -0.013406108, -0.6513633, 0.21049245, 9.788016319274902, -2.398122549057007, 1.0628077983856201, -15.15005111694336, -1.9987270832061768, 2.003420352935791, -0.314208984375, 0.568115234375, -0.171630859375, 0, 
170, 4173108534, 0.72849333, -0.01544935, -0.65228647, 0.20876218, 9.80884075164795, -2.664987325668335, 0.9652650952339172, -20.463308334350586, -2.1356027126312256, 0.9105392694473267, -0.318115234375, 0.569580078125, -0.166748046875, 0, 
171, 4173125201, 0.7281062, -0.016721318, -0.6531488, 0.20731232, 9.651761054992676, -3.2390310764312744, 1.1384059190750122, -14.553017616271973, -3.2437353134155273, -0.9743974804878235, -0.3193359375, 0.5693359375, -0.160400390625, 0, 
172, 4173141868, 0.72779804, -0.016017526, -0.6534941, 0.20736179, 9.450723648071289, -3.236590623855591, 1.225709319114685, 3.6693074703216553, -3.5396625995635986, -2.2755987644195557, -0.323974609375, 0.570556640625, -0.1591796875, 0, 
173, 4173158535, 0.7275604, -0.014242873, -0.65349716, 0.20831415, 9.32833480834961, -2.641247034072876, 1.1047097444534302, 13.81590461730957, -3.199054002761841, -2.616352081298828, -0.319580078125, 0.5693359375, -0.161376953125, 0, 
174, 4173175202, 0.72730595, -0.012877701, -0.6536467, 0.20882115, 9.304214477539062, -2.39077091217041, 0.9518810510635376, 9.025208473205566, -3.1985278129577637, -3.0652780532836914, -0.32373046875, 0.567626953125, -0.163330078125, 0, 
175, 4173191869, 0.727094, -0.011405243, -0.65373325, 0.20937338, 9.451913833618164, -2.817521810531616, 1.065400242805481, 9.410677909851074, -2.6911911964416504, -3.4223828315734863, -0.322021484375, 0.5654296875, -0.1650390625, 0, 
176, 4173208536, 0.7270622, -0.009598947, -0.6534625, 0.21041699, 9.650824546813965, -2.856313705444336, 1.0292341709136963, 14.19808578491211, -0.7146845459938049, -2.639416217803955, -0.325439453125, 0.56396484375, -0.1689453125, 0, 
177, 4173225203, 0.72708195, -0.008202451, -0.65320575, 0.21120365, 9.77477741241455, -2.57214093208313, 0.9110527634620667, 10.346451759338379, 0.2715267241001129, -2.253905773162842, -0.32373046875, 0.5654296875, -0.170166015625, 0, 
178, 4173241870, 0.72709787, -0.00780472, -0.65321034, 0.2111496, 9.894659042358398, -2.554617404937744, 0.9498760104179382, 1.7480987310409546, 0.30365774035453796, -1.8764245510101318, -0.326904296875, 0.560302734375, -0.173095703125, 0, 
179, 4173258537, 0.72707295, -0.007576852, -0.6532991, 0.21096864, 10.06230354309082, -2.949371814727783, 1.0246496200561523, 0.6094734072685242, -0.14368726313114166, -1.608708143234253, -0.32763671875, 0.562744140625, -0.17041015625, 0, 
180, 4173275204, 0.7269614, -0.0061740107, -0.653151, 0.21185611, 10.221490859985352, -3.1102285385131836, 1.134389042854309, 10.844902038574219, -0.8484338521957397, -1.5244812965393066, -0.32568359375, 0.561279296875, -0.172607421875, 0, 
181, 4173291871, 0.726715, -0.004290424, -0.6529958, 0.2132223, 10.21696949005127, -2.6048121452331543, 1.1595408916473389, 15.75265121459961, -2.2245163917541504, -1.0477012395858765, -0.324462890625, 0.5615234375, -0.1787109375, 0, 
182, 4173308538, 0.7263896, -0.0031951568, -0.6531181, 0.2139739, 10.02617073059082, -2.208709478378296, 1.105352520942688, 8.425010681152344, -2.711745023727417, -0.48409292101860046, -0.32666015625, 0.5595703125, -0.178466796875, 0, 
183, 4173325205, 0.7260597, -0.003213188, -0.6535288, 0.21383941, 9.735891342163086, -2.3642680644989014, 1.1271967887878418, -1.2425744533538818, -2.5864083766937256, 0.17572230100631714, -0.330078125, 0.559326171875, -0.179443359375, 0, 
184, 4173341872, 0.7257689, -0.0037680177, -0.6539951, 0.2133914, 9.488738059997559, -2.436997175216675, 1.0264390707015991, -6.987477779388428, -1.406009316444397, 0.7523794770240784, -0.3251953125, 0.559326171875, -0.1748046875, 0, 
185, 4173358539, 0.725644, -0.0047383234, -0.65438867, 0.21258877, 9.160653114318848, -2.4162731170654297, 1.002728819847107, -8.095433235168457, -0.4028365910053253, 1.0031023025512695, -0.3291015625, 0.5625, -0.174072265625, 0, 
186, 4173375206, 0.7255336, -0.0058149043, -0.65475374, 0.21181369, 8.872612953186035, -2.2779030799865723, 1.0107417106628418, -8.789114952087402, 0.07138901203870773, 1.5646610260009766, -0.327392578125, 0.561767578125, -0.171142578125, 0, 
187, 4173391873, 0.7255319, -0.006630972, -0.6548929, 0.21136428, 8.675369262695312, -2.151411533355713, 0.9853487610816956, -6.4634552001953125, 1.5368196964263916, 1.77020263671875, -0.329345703125, 0.5654296875, -0.17041015625, 0, 
188, 4173408540, 0.7256626, -0.007234886, -0.65483224, 0.21108373, 8.519485473632812, -2.2076456546783447, 0.9223803877830505, -3.9180514812469482, 2.6904022693634033, 1.561036229133606, -0.3310546875, 0.562744140625, -0.16748046875, 0, 
189, 4173425207, 0.72583365, -0.0072574466, -0.6545397, 0.21140215, 8.49259090423584, -2.2991960048675537, 0.9397456049919128, 0.7388944625854492, 3.555727958679199, 1.7081432342529297, -0.329345703125, 0.56396484375, -0.168212890625, 0, 
190, 4173441874, 0.7261653, -0.0068684826, -0.653914, 0.21221116, 8.77010440826416, -2.2498509883880615, 0.9148098826408386, 7.1124372482299805, 4.8342509269714355, 2.3420963287353516, -0.328369140625, 0.563720703125, -0.169189453125, 0, 
191, 4173458541, 0.7265455, -0.006720961, -0.6532664, 0.21290776, 9.17527961730957, -2.1758954524993896, 0.839173436164856, 5.035463333129883, 5.656046390533447, 2.751591920852661, -0.32666015625, 0.565673828125, -0.17041015625, 0, 
192, 4173475208, 0.7268984, -0.007149985, -0.6527995, 0.21312152, 9.69474983215332, -2.359968662261963, 0.7910271286964417, -0.7559717893600464, 5.663564682006836, 2.914898633956909, -0.32666015625, 0.562744140625, -0.1708984375, 0, 
193, 4173491875, 0.7272335, -0.007887539, -0.6524415, 0.21304819, 10.258934020996094, -2.7124099731445312, 0.8685274124145508, -3.315629005432129, 5.401854038238525, 2.979186773300171, -0.32666015625, 0.562744140625, -0.16943359375, 0, 
194, 4173508542, 0.7274819, -0.008320457, -0.65215266, 0.21306759, 10.695667266845703, -2.9593234062194824, 0.8856967687606812, -1.3489567041397095, 4.20596981048584, 2.238300085067749, -0.322509765625, 0.56591796875, -0.169189453125, 0, 
195, 4173525209, 0.7276358, -0.008233025, -0.6519308, 0.2132249, 10.652749061584473, -2.9819343090057373, 0.8380253911018372, 0.8539081811904907, 2.9919795989990234, 0.5953992009162903, -0.32568359375, 0.567626953125, -0.167236328125, 0, 
196, 4173541876, 0.7277758, -0.00804557, -0.6518395, 0.21303283, 10.186203956604004, -3.101889133453369, 0.8985098004341125, 0.9642093777656555, 1.7645548582077026, -1.3622241020202637, -0.321044921875, 0.565673828125, -0.166015625, 0, 
197, 4173558543, 0.72791606, -0.0074917166, -0.6516931, 0.21302183, 9.449398040771484, -3.0696606636047363, 0.992165207862854, 2.354326009750366, 1.9356096982955933, -2.3124172687530518, -0.32470703125, 0.56396484375, -0.16943359375, 0, 
198, 4173575210, 0.72793484, -0.0069962647, -0.6517195, 0.2128939, 8.916923522949219, -2.9781506061553955, 1.0005697011947632, 1.0415468215942383, 0.7070962190628052, -2.521582841873169, -0.319580078125, 0.56494140625, -0.173095703125, 0, 
199, 4173591877, 0.72792107, -0.006934282, -0.6518795, 0.21245216, 8.755521774291992, -3.0310890674591064, 1.1069934368133545, -1.3974289894104004, 0.14640860259532928, -1.915701985359192, -0.32861328125, 0.565673828125, -0.166259765625, 0, 
200, 4173608544, 0.7277407, -0.006122838, -0.6519959, 0.21273796, 8.83646297454834, -3.2264413833618164, 1.2575081586837769, 3.101807117462158, -0.7218939661979675, -1.8177077770233154, -0.325927734375, 0.565673828125, -0.1689453125, 0, 
201, 4173625211, 0.7275984, -0.0047599757, -0.65187216, 0.2136371, 8.998631477355957, -3.0345542430877686, 1.2916522026062012, 11.321028709411621, -0.9016570448875427, -0.9300231337547302, -0.327392578125, 0.56201171875, -0.169189453125, 0, 
202, 4173641878, 0.7274107, -0.003991443, -0.65184844, 0.21436355, 9.087274551391602, -2.714099645614624, 1.123245358467102, 7.304647445678711, -0.6925035119056702, 0.8924170732498169, -0.323486328125, 0.563232421875, -0.173095703125, 0, 
203, 4173658545, 0.7272271, -0.004440233, -0.65206575, 0.21431632, 9.229650497436523, -2.7286107540130615, 1.011466383934021, -2.3246726989746094, -0.14266273379325867, 2.5060808658599854, -0.325927734375, 0.56201171875, -0.173828125, 0, 
204, 4173675212, 0.72692585, -0.0051493207, -0.652358, 0.21443267, 9.505081176757812, -3.0766730308532715, 1.0468697547912598, -4.645056247711182, -0.15518738329410553, 4.404290199279785, -0.326904296875, 0.560546875, -0.17041015625, 0, 
205, 4173691879, 0.7267241, -0.005895572, -0.6524667, 0.2147666, 9.749728202819824, -3.2005743980407715, 1.140346884727478, -2.028320789337158, 0.7959338426589966, 5.748175144195557, -0.3203125, 0.56591796875, -0.16845703125, 0, 
206, 4173708546, 0.7263921, -0.006691622, -0.65270334, 0.21514735, 9.635446548461914, -2.87886905670166, 1.1761301755905151, -2.5487968921661377, -0.25608861446380615, 6.332914352416992, -0.320068359375, 0.567138671875, -0.1669921875, 0, 
207, 4173725213, 0.7258526, -0.0078256605, -0.65327054, 0.21520767, 9.58938980102539, -2.8971104621887207, 1.240302562713623, -5.711556911468506, -2.4608304500579834, 6.613373756408691, -0.323486328125, 0.56884765625, -0.163818359375, 0, 
208, 4173741880, 0.7251098, -0.008432677, -0.6539341, 0.21567309, 9.556800842285156, -3.162984848022461, 1.3271186351776123, -2.9411067962646484, -4.178712368011475, 6.329212665557861, -0.3203125, 0.568115234375, -0.16162109375, 0, 
209, 4173758547, 0.7243952, -0.008358509, -0.6543936, 0.21668178, 9.50906753540039, -3.1783883571624756, 1.3429051637649536, 4.631628513336182, -4.52678918838501, 6.1496806144714355, -0.31884765625, 0.5703125, -0.15966796875, 0, 
210, 4173775214, 0.723679, -0.007941502, -0.65476006, 0.21797925, 9.447402954101562, -2.964163303375244, 1.2293851375579834, 7.36091947555542, -4.47092866897583, 5.9754638671875, -0.31982421875, 0.57177734375, -0.162353515625, 0, 
211, 4173791881, 0.72302216, -0.007843797, -0.65513104, 0.21904528, 9.364029884338379, -2.9039525985717773, 1.1544346809387207, 5.007289886474609, -3.823502779006958, 6.208154201507568, -0.31787109375, 0.57080078125, -0.16259765625, 0, 
212, 4173808548, 0.72243536, -0.008017309, -0.65549093, 0.21989685, 9.30823040008545, -3.027438163757324, 1.16158127784729, 2.6698617935180664, -3.016920566558838, 6.250864028930664, -0.318603515625, 0.572265625, -0.159912109375, 0, 
213, 4173825215, 0.72202253, -0.0083982125, -0.65566176, 0.2207276, 9.343679428100586, -3.047823429107666, 1.169134259223938, 2.6160881519317627, -1.225811243057251, 6.936234951019287, -0.317138671875, 0.571533203125, -0.158935546875, 0, 
214, 4173841882, 0.72163486, -0.009107294, -0.6558363, 0.22144786, 9.372091293334961, -2.9740428924560547, 1.1568790674209595, -0.4428948760032654, -0.32748404145240784, 7.684598922729492, -0.3125, 0.57568359375, -0.160400390625, 0, 
215, 4173858549, 0.7212176, -0.010145515, -0.65610987, 0.22195166, 9.395217895507812, -2.9910342693328857, 1.1908820867538452, -3.15362811088562, -0.45386984944343567, 8.14076042175293, -0.31103515625, 0.57470703125, -0.15478515625, 0, 
216, 4173875216, 0.7208111, -0.011150999, -0.6563722, 0.22244734, 9.306835174560547, -3.1561198234558105, 1.2255758047103882, -2.645279884338379, -0.5195024609565735, 7.989723205566406, -0.31298828125, 0.5751953125, -0.156494140625, 0, 
217, 4173891883, 0.7203975, -0.011376208, -0.65642893, 0.2236053, 9.246997833251953, -3.2678017616271973, 1.2258391380310059, 4.5740647315979, -0.7981175780296326, 7.776125907897949, -0.31103515625, 0.579833984375, -0.154052734375, 0, 
218, 4173908550, 0.72001225, -0.010905943, -0.6562782, 0.22530515, 9.297325134277344, -3.048367977142334, 1.1863324642181396, 11.059037208557129, -0.8476271033287048, 7.3190693855285645, -0.30810546875, 0.578125, -0.157470703125, 0, 
219, 4173925217, 0.7195715, -0.010469259, -0.6562279, 0.22687544, 9.417177200317383, -2.7567551136016846, 1.0683872699737549, 9.779170036315918, -1.4118622541427612, 6.848781108856201, -0.309814453125, 0.57958984375, -0.15625, 0, 
220, 4173941884, 0.7191592, -0.010327751, -0.6562888, 0.2280096, 9.533743858337402, -2.940675973892212, 1.04111909866333, 6.045566082000732, -1.2932112216949463, 5.963515758514404, -0.304443359375, 0.578369140625, -0.156982421875, 0, 
221, 4173958551, 0.71879387, -0.009744959, -0.6562265, 0.22936277, 9.537834167480469, -3.112769365310669, 1.1438930034637451, 9.414406776428223, -1.1723579168319702, 4.99808406829834, -0.305419921875, 0.577392578125, -0.16064453125, 0, 
222, 4173975218, 0.7184752, -0.008646373, -0.65599394, 0.23106451, 9.446172714233398, -2.9025509357452393, 1.0758976936340332, 13.755138397216797, -0.9368492364883423, 4.322024822235107, -0.3017578125, 0.581298828125, -0.1611328125, 0, 
223, 4173991885, 0.71815, -0.0077929227, -0.6558823, 0.23241821, 9.241250991821289, -2.648813247680664, 1.0784140825271606, 10.998744010925293, -1.2215982675552368, 3.749617576599121, -0.302001953125, 0.578369140625, -0.160888671875, 0, 
224, 4174008552, 0.71780825, -0.007307547, -0.65595883, 0.23327239, 9.131993293762207, -2.6484575271606445, 1.0604088306427002, 6.371230125427246, -1.5222140550613403, 2.9394609928131104, -0.300537109375, 0.577880859375, -0.161865234375, 0, 
225, 4174025219, 0.71747404, -0.006720467, -0.65605295, 0.23405236, 9.136934280395508, -2.8175606727600098, 1.0881531238555908, 6.525573253631592, -1.7356449365615845, 2.118215560913086, -0.29931640625, 0.575927734375, -0.168212890625, 0, 
226, 4174041886, 0.7171641, -0.005894142, -0.65610087, 0.23488913, 9.156947135925293, -2.7326643466949463, 1.0715126991271973, 8.415560722351074, -1.9116684198379517, 1.3460566997528076, -0.299072265625, 0.580810546875, -0.166259765625, 0, 
227, 4174058553, 0.71683824, -0.0051063513, -0.6562087, 0.23559976, 9.21191120147705, -2.5525717735290527, 1.0192941427230835, 7.40411376953125, -2.1579601764678955, 0.9092958569526672, -0.298095703125, 0.5771484375, -0.167724609375, 0, 
228, 4174075220, 0.71650493, -0.0047237575, -0.6564754, 0.23587817, 9.358393669128418, -2.5783565044403076, 1.00680673122406, 3.1562983989715576, -2.2844481468200684, 0.6279786229133606, -0.296875, 0.57666015625, -0.16748046875, 0, 
229, 4174091887, 0.7161356, -0.0045336694, -0.6568727, 0.23589796, 9.427816390991211, -2.746183156967163, 1.0598951578140259, 0.674901008605957, -2.710963487625122, 0.27753281593322754, -0.301513671875, 0.576416015625, -0.164794921875, 0, 
230, 4174108554, 0.7156843, -0.003955424, -0.65727824, 0.23614772, 9.511895179748535, -2.884739637374878, 1.086241602897644, 3.1881470680236816, -3.613759756088257, -0.2567417025566101, -0.2978515625, 0.57568359375, -0.16650390625, 0, 
231, 4174125221, 0.7151814, -0.003103785, -0.6576983, 0.23651469, 9.570615768432617, -2.9127891063690186, 1.1960619688034058, 5.5304036140441895, -4.52876091003418, -0.7507595419883728, -0.30078125, 0.577392578125, -0.167236328125, 0, 
232, 4174141888, 0.71457785, -0.0020271274, -0.6582051, 0.23694031, 9.458442687988281, -2.789133310317993, 1.254453182220459, 6.766883850097656, -5.782926559448242, -1.3103972673416138, -0.301513671875, 0.575439453125, -0.1650390625, 0, 
233, 4174158555, 0.7139001, -0.0010891284, -0.6588506, 0.23719479, 9.412125587463379, -2.803844451904297, 1.1687545776367188, 5.217954158782959, -6.623726844787598, -1.373622179031372, -0.30078125, 0.577392578125, -0.167724609375, 0, 
234, 4174175222, 0.71321034, -2.4558307E-4, -0.6595459, 0.23733991, 9.355785369873047, -3.0238139629364014, 1.2525509595870972, 3.873889446258545, -6.66970157623291, -1.4958970546722412, -0.303466796875, 0.573486328125, -0.165771484375, 0, 
235, 4174191889, 0.71257967, 8.500119E-4, -0.66009474, 0.23770642, 9.370623588562012, -3.0585200786590576, 1.2692837715148926, 6.589361667633057, -6.183073043823242, -1.617877721786499, -0.304443359375, 0.575927734375, -0.16650390625, 0, 
236, 4174208556, 0.71199286, 0.0022684839, -0.6604883, 0.23836139, 9.451372146606445, -3.0890166759490967, 1.2456575632095337, 9.600778579711914, -5.714016437530518, -1.764613389968872, -0.30712890625, 0.572998046875, -0.168212890625, 0, 
237, 4174225223, 0.71144783, 0.0036097541, -0.66087174, 0.23890914, 9.476555824279785, -2.998183012008667, 1.2932087182998657, 8.739704132080078, -5.3528265953063965, -2.0135433673858643, -0.307373046875, 0.569580078125, -0.170166015625, 0, 
238, 4174241890, 0.7109027, 0.00471967, -0.6613187, 0.23927571, 9.529215812683105, -2.959808588027954, 1.2736451625823975, 7.052170753479004, -5.423145294189453, -1.7970900535583496, -0.30908203125, 0.572509765625, -0.1708984375, 0, 
239, 4174258557, 0.71038735, 0.005820649, -0.66174835, 0.23959377, 9.631718635559082, -3.0335824489593506, 1.353081226348877, 6.5434889793396, -5.109760284423828, -2.077651262283325, -0.30615234375, 0.569580078125, -0.169921875, 0, 
240, 4174275224, 0.70978594, 0.0072471714, -0.6621813, 0.24014078, 9.679678916931152, -3.0612545013427734, 1.3920695781707764, 8.82376480102539, -5.9442620277404785, -2.3439342975616455, -0.313232421875, 0.571044921875, -0.171630859375, 0, 
241, 4174291891, 0.7091828, 0.00889309, -0.6625737, 0.24078369, 9.654942512512207, -2.9176089763641357, 1.2809120416641235, 10.564738273620605, -6.180680274963379, -2.85408878326416, -0.313232421875, 0.565185546875, -0.171142578125, 0, 
242, 4174308558, 0.70851856, 0.010533147, -0.6630728, 0.24129874, 9.490739822387695, -2.8340601921081543, 1.1880351305007935, 9.341167449951172, -6.845073699951172, -3.395362138748169, -0.31640625, 0.567138671875, -0.175048828125, 0, 
243, 4174325225, 0.70783347, 0.012307496, -0.6635753, 0.2418437, 9.435482025146484, -2.853193759918213, 1.117993712425232, 9.953861236572266, -7.130297660827637, -3.8432257175445557, -0.313720703125, 0.562744140625, -0.17626953125, 0, 
244, 4174341892, 0.70717734, 0.014137742, -0.6640625, 0.2423253, 9.438848495483398, -2.866179943084717, 1.0261199474334717, 10.57894229888916, -7.227716445922852, -4.377047061920166, -0.316650390625, 0.564697265625, -0.17626953125, 0, 
245, 4174358559, 0.7066465, 0.015984723, -0.66438043, 0.24288672, 9.505496978759766, -2.797302007675171, 0.9365604519844055, 11.524203300476074, -5.9261674880981445, -4.262045383453369, -0.318359375, 0.562255859375, -0.175537109375, 0, 
246, 4174375226, 0.70616066, 0.017736923, -0.6646538, 0.24343008, 9.493300437927246, -2.7699427604675293, 0.8433469533920288, 9.951671600341797, -4.998384952545166, -4.12871789932251, -0.317626953125, 0.561279296875, -0.18212890625, 0, 
247, 4174391893, 0.7057001, 0.019403024, -0.6648788, 0.24402338, 9.461856842041016, -2.7926571369171143, 0.8177616000175476, 6.618315696716309, -3.4779746532440186, -3.925159454345703, -0.31884765625, 0.560791015625, -0.1826171875, 0, 
248, 4174408560, 0.705474, 0.020531787, -0.66503817, 0.24415024, 9.414213180541992, -2.900198459625244, 0.8020517230033875, 6.630802154541016, -2.715292453765869, -3.566620349884033, -0.320556640625, 0.55712890625, -0.18212890625, 0, 
249, 4174425227, 0.7052812, 0.021630393, -0.6651479, 0.24431309, 9.351698875427246, -2.8978424072265625, 0.8394486308097839, 6.729641914367676, -2.2585155963897705, -3.3207383155822754, -0.322021484375, 0.556884765625, -0.181396484375, 0, 
250, 4174441894, 0.70502126, 0.022677364, -0.6653048, 0.244541, 9.299275398254395, -2.7456037998199463, 0.8521678447723389, 5.52296257019043, -2.3261454105377197, -2.7964587211608887, -0.32177734375, 0.5576171875, -0.181884765625, 0, 
251, 4174458561, 0.70482934, 0.023362864, -0.6654854, 0.2445383, 9.326696395874023, -2.817492961883545, 0.8537415862083435, 3.654759645462036, -1.8626198768615723, -2.2525346279144287, -0.326904296875, 0.55517578125, -0.18505859375, 0, 
252, 4174475228, 0.70470846, 0.02357468, -0.66574925, 0.24414802, 9.310540199279785, -2.9031612873077393, 0.8634538054466248, 1.0866507291793823, -1.715103268623352, -1.8731977939605713, -0.32470703125, 0.5556640625, -0.18359375, 0, 
253, 4174491895, 0.70448405, 0.023930943, -0.6660136, 0.24404049, 9.346153259277344, -2.904707431793213, 0.8735634684562683, 1.2003711462020874, -1.8002912998199463, -1.2212903499603271, -0.327392578125, 0.554443359375, -0.185302734375, 0, 
254, 4174508562, 0.7041769, 0.024373613, -0.66628623, 0.24413836, 9.370625495910645, -2.948674201965332, 0.843309223651886, 1.0410984754562378, -1.8640154600143433, -0.663881242275238, -0.326904296875, 0.553955078125, -0.1845703125, 0, 
255, 4174525229, 0.7038586, 0.024743864, -0.6666044, 0.24415044, 9.406615257263184, -3.0617966651916504, 0.87990403175354, 1.7255980968475342, -2.488722324371338, -0.5528886318206787, -0.330078125, 0.55126953125, -0.18505859375, 0, 
256, 4174541896, 0.7034583, 0.02534907, -0.66689116, 0.24445915, 9.486122131347656, -2.972297430038452, 0.9161474108695984, 3.4102988243103027, -2.7848048210144043, -0.17484508454799652, -0.3291015625, 0.55419921875, -0.183837890625, 0, 
257, 4174558563, 0.7030664, 0.025671624, -0.6672558, 0.24455743, 9.449499130249023, -2.8695106506347656, 0.8480774760246277, 2.489561080932617, -3.159762382507324, 0.2722182273864746, -0.327880859375, 0.552734375, -0.184326171875, 0, 
258, 4174575230, 0.7025292, 0.025892328, -0.6677886, 0.24462384, 9.487553596496582, -2.925778388977051, 0.7761270999908447, 0.9666039943695068, -4.281354904174805, 0.7850356698036194, -0.326904296875, 0.55322265625, -0.1826171875, 0, 
259, 4174591897, 0.7020228, 0.026002897, -0.66829747, 0.24467692, 9.55117130279541, -2.9412152767181396, 0.7412996292114258, 1.13957941532135, -4.0604329109191895, 1.247037649154663, -0.3291015625, 0.55078125, -0.1796875, 0, 
260, 4174608564, 0.7014577, 0.02619652, -0.66881484, 0.24486242, 9.555835723876953, -2.9614756107330322, 0.6512330174446106, 1.4096910953521729, -4.2571001052856445, 1.5167649984359741, -0.33251953125, 0.553955078125, -0.178955078125, 0, 
261, 4174625231, 0.70094955, 0.02628424, -0.6693124, 0.24494928, 9.504137992858887, -2.993217945098877, 0.6628465056419373, 2.4816980361938477, -4.350522518157959, 1.643573522567749, -0.330078125, 0.5537109375, -0.180908203125, 0, 
262, 4174641898, 0.7003067, 0.026886994, -0.6697152, 0.24561988, 9.560023307800293, -2.931279420852661, 0.6531531810760498, 5.363216400146484, -4.5093464851379395, 2.0222699642181396, -0.335205078125, 0.552490234375, -0.1787109375, 0, 
263, 4174658565, 0.69965863, 0.027593158, -0.67008394, 0.24638183, 9.495159149169922, -2.725837469100952, 0.4802272319793701, 4.325863361358643, -3.900660991668701, 1.7702792882919312, -0.33203125, 0.552978515625, -0.18017578125, 0, 
264, 4174675232, 0.6990491, 0.027951725, -0.670597, 0.2466756, 9.491861343383789, -2.6494109630584717, 0.3922571837902069, 2.7665624618530273, -4.680721759796143, 1.3529975414276123, -0.334228515625, 0.55224609375, -0.17578125, 0, 
265, 4174691899, 0.69852686, 0.02809739, -0.67112815, 0.24669386, 9.583353042602539, -2.698890209197998, 0.436445027589798, 2.4742701053619385, -4.673421382904053, 1.0847299098968506, -0.33251953125, 0.552001953125, -0.17724609375, 0, 
266, 4174708566, 0.69798744, 0.028346678, -0.671624, 0.24684292, 9.591614723205566, -2.610278606414795, 0.5005869269371033, 1.5287514925003052, -4.070690155029297, 1.0453886985778809, -0.330810546875, 0.55517578125, -0.177734375, 0, 
267, 4174725233, 0.6975041, 0.02835114, -0.6721703, 0.24672176, 9.611540794372559, -2.5492093563079834, 0.45215094089508057, -1.2540489435195923, -3.5997371673583984, 0.7769932746887207, -0.334716796875, 0.552978515625, -0.177734375, 0, 
268, 4174741900, 0.69704306, 0.02812851, -0.67280793, 0.2463114, 9.520315170288086, -2.607235908508301, 0.5229967832565308, -4.041082859039307, -3.534475803375244, 0.4130368232727051, -0.335693359375, 0.5537109375, -0.172607421875, 0, 
269, 4174758567, 0.6966323, 0.027743334, -0.67346114, 0.24573107, 9.406028747558594, -2.651395082473755, 0.4954608380794525, -4.6662116050720215, -3.4296176433563232, 0.37302976846694946, -0.3369140625, 0.55126953125, -0.1728515625, 0, 
270, 4174775234, 0.6960863, 0.027780764, -0.67413217, 0.24543437, 9.348821640014648, -2.79764986038208, 0.5488302707672119, -2.495419979095459, -4.437016487121582, -0.0994541272521019, -0.33740234375, 0.554443359375, -0.171142578125, 0, 
271, 4174791901, 0.6954157, 0.028444776, -0.6747089, 0.24567465, 9.371861457824707, -2.7968316078186035, 0.6161594390869141, 3.7740509510040283, -5.698122501373291, -0.184116929769516, -0.339111328125, 0.552978515625, -0.169921875, 0, 
272, 4174808568, 0.6947029, 0.029240664, -0.67528284, 0.24602085, 9.408489227294922, -2.58532977104187, 0.5667098760604858, 5.1901397705078125, -6.169050216674805, -0.1940290480852127, -0.339599609375, 0.551513671875, -0.1728515625, 0, 
273, 4174825235, 0.6939474, 0.030015059, -0.67593515, 0.24626811, 9.43282699584961, -2.670213222503662, 0.5514708161354065, 3.9686050415039062, -6.559272289276123, -0.5213978886604309, -0.33837890625, 0.55419921875, -0.16943359375, 0, 
274, 4174841902, 0.6932903, 0.030868724, -0.6764372, 0.24663462, 9.477913856506348, -2.7836976051330566, 0.6338611245155334, 5.026039123535156, -5.459207534790039, -0.5246378779411316, -0.340087890625, 0.55419921875, -0.170654296875, 0, 
275, 4174858569, 0.69265014, 0.031910673, -0.6768377, 0.24720126, 9.484752655029297, -2.708569288253784, 0.5736128091812134, 7.339353561401367, -5.270902633666992, -0.46858444809913635, -0.342529296875, 0.55126953125, -0.171630859375, 0, 
276, 4174875236, 0.69208026, 0.032657743, -0.6772769, 0.24749646, 9.541496276855469, -2.615417718887329, 0.5893083810806274, 4.927929401397705, -4.790869235992432, -0.4691350758075714, -0.341552734375, 0.5517578125, -0.170166015625, 0, 
277, 4174891903, 0.691577, 0.033234067, -0.67770517, 0.24765426, 9.570656776428223, -2.7462880611419678, 0.6798741221427917, 3.279418706893921, -4.109314918518066, -0.4539339542388916, -0.343505859375, 0.551513671875, -0.169921875, 0, 
278, 4174908570, 0.69120246, 0.03390213, -0.67795146, 0.24793498, 9.59380054473877, -2.778593063354492, 0.7128790616989136, 4.4400835037231445, -2.7379469871520996, -0.567487895488739, -0.346923828125, 0.54736328125, -0.172119140625, 0, 
279, 4174925237, 0.69091564, 0.03447869, -0.678117, 0.24820212, 9.537993431091309, -2.6927802562713623, 0.7003358006477356, 3.9165215492248535, -1.7569160461425781, -0.3841136693954468, -0.34423828125, 0.548095703125, -0.170654296875, 0, 
280, 4174941904, 0.69072723, 0.03482815, -0.6782769, 0.24824047, 9.489038467407227, -2.7869246006011963, 0.7310989499092102, 1.7627490758895874, -0.9455055594444275, -0.5788725018501282, -0.345947265625, 0.546875, -0.17138671875, 0, 
281, 4174958571, 0.69059086, 0.035404008, -0.6783017, 0.24847117, 9.50789737701416, -2.9054131507873535, 0.8304158449172974, 4.015949249267578, -0.4292176067829132, -0.8372534513473511, -0.34814453125, 0.5478515625, -0.172607421875, 0, 
282, 4174975238, 0.6904889, 0.036393873, -0.6781277, 0.24908547, 9.526130676269531, -2.9117543697357178, 0.8700657486915588, 8.168769836425781, 0.031241102144122124, -1.0535532236099243, -0.343017578125, 0.5478515625, -0.1728515625, 0, 
283, 4174991905, 0.6903438, 0.037551157, -0.6779128, 0.24989961, 9.58413028717041, -2.815412759780884, 0.935564398765564, 9.844673156738281, -0.1847316473722458, -0.8399814367294312, -0.34765625, 0.5478515625, -0.17626953125, 0, 
284, 4175008572, 0.69027257, 0.038771365, -0.6775868, 0.2507924, 9.644351959228516, -2.754631519317627, 0.8802863359451294, 11.059408187866211, 0.47021734714508057, -0.8857898712158203, -0.344482421875, 0.54638671875, -0.1767578125, 0, 
285, 4175025239, 0.69029146, 0.039875418, -0.67719847, 0.25161478, 9.596145629882812, -2.688225507736206, 0.7822082042694092, 10.276593208312988, 1.3516145944595337, -0.8494710922241211, -0.345703125, 0.54638671875, -0.178466796875, 0, 
286, 4175041906, 0.6904074, 0.040901814, -0.6767131, 0.2524363, 9.617746353149414, -2.6872670650482178, 0.7027080655097961, 9.824323654174805, 2.4573276042938232, -0.7031328082084656, -0.34326171875, 0.544677734375, -0.1806640625, 0, 
287, 4175058573, 0.6906471, 0.041658282, -0.6761677, 0.2531175, 9.5967435836792, -2.718824625015259, 0.7463584542274475, 7.6488823890686035, 3.836174964904785, -0.3700779974460602, -0.34228515625, 0.542724609375, -0.1845703125, 0, 
288, 4175075240, 0.69094706, 0.04236558, -0.67558193, 0.25374487, 9.594075202941895, -2.6999824047088623, 0.7811524271965027, 7.589320182800293, 4.261717319488525, -0.4801742136478424, -0.343994140625, 0.544921875, -0.184814453125, 0, 
289, 4175091907, 0.6912994, 0.043047197, -0.67493176, 0.2544005, 9.603967666625977, -2.6057217121124268, 0.8173094987869263, 7.67053747177124, 4.864486217498779, -0.3367174565792084, -0.34375, 0.542236328125, -0.1865234375, 0, 
290, 4175108574, 0.691639, 0.043771565, -0.6742799, 0.2550808, 9.624738693237305, -2.638260841369629, 0.7493117451667786, 7.922759056091309, 4.7613701820373535, -0.3991355895996094, -0.34130859375, 0.542724609375, -0.188232421875, 0, 
291, 4175125241, 0.6919774, 0.04458015, -0.67359513, 0.25583157, 9.620633125305176, -2.6438565254211426, 0.770930826663971, 8.696852684020996, 4.78486967086792, -0.4589412808418274, -0.337890625, 0.541015625, -0.19091796875, 0, 
292, 4175141908, 0.6923553, 0.045176487, -0.6729394, 0.2564291, 9.560766220092773, -2.575371265411377, 0.8168871998786926, 7.47283411026001, 4.986326694488525, -0.20939669013023376, -0.340087890625, 0.5439453125, -0.193603515625, 0, 
293, 4175158575, 0.6926791, 0.045752034, -0.67235, 0.25699803, 9.543204307556152, -2.5773611068725586, 0.7972171306610107, 6.3588337898254395, 4.674901008605957, -0.20394115149974823, -0.33740234375, 0.537353515625, -0.19580078125, 0, 
294, 4175175242, 0.6929931, 0.046142142, -0.67183506, 0.25742787, 9.573601722717285, -2.6704137325286865, 0.8222390413284302, 4.775840759277344, 4.533300876617432, 0.044700562953948975, -0.33984375, 0.5380859375, -0.19384765625, 0, 
295, 4175191909, 0.6933099, 0.046556626, -0.6713001, 0.25789583, 9.609314918518066, -2.6492955684661865, 0.8504238128662109, 5.300235748291016, 4.548579692840576, 0.12069348245859146, -0.334228515625, 0.539794921875, -0.194580078125, 0, 
296, 4175208576, 0.6935186, 0.04731355, -0.6707215, 0.2587012, 9.607893943786621, -2.687431812286377, 0.8835451006889343, 6.313755512237549, 4.43337345123291, 0.09401782602071762, -0.334716796875, 0.541259765625, -0.19775390625, 0, 
297, 4175225243, 0.693851, 0.047766354, -0.6701517, 0.25920272, 9.571822166442871, -2.6032094955444336, 0.8368712067604065, 6.211830139160156, 4.566354751586914, 0.12047576159238815, -0.333984375, 0.539306640625, -0.19970703125, 0, 
298, 4175241910, 0.6942108, 0.04811915, -0.66958004, 0.25965053, 9.584151268005371, -2.644814968109131, 0.8582190275192261, 4.483304500579834, 5.1553826332092285, 0.17576076090335846, -0.334228515625, 0.54052734375, -0.20556640625, 0, 
299, 4175258577, 0.69467336, 0.048235502, -0.66901153, 0.25985783, 9.508275985717773, -2.612849712371826, 0.8299173712730408, 3.537607192993164, 5.558411121368408, 0.08107060194015503, -0.3349609375, 0.539306640625, -0.205810546875, 0, 
300, 4175275244, 0.6950408, 0.048406966, -0.66852134, 0.26010457, 9.536439895629883, -2.667156457901001, 0.8756621479988098, 3.369997978210449, 4.808740139007568, 0.1600857824087143, -0.3349609375, 0.539306640625, -0.205322265625, 0, 
301, 4175291911, 0.69535565, 0.04855953, -0.6680642, 0.2604088, 9.515410423278809, -2.6135499477386475, 0.9649486541748047, 1.893976092338562, 4.9352922439575195, 0.44922763109207153, -0.333984375, 0.53759765625, -0.20654296875, 0, 
302, 4175308578, 0.6955298, 0.048683334, -0.6677735, 0.2606662, 9.516779899597168, -2.6365411281585693, 0.9476920962333679, 0.3321007192134857, 3.8058876991271973, 0.560117781162262, -0.33203125, 0.54296875, -0.20654296875, 0, 
303, 4175325245, 0.69572747, 0.04861436, -0.6675612, 0.26069534, 9.53559684753418, -2.7055344581604004, 0.9219112992286682, 0.6091275811195374, 3.0956978797912598, 0.6049271821975708, -0.333251953125, 0.54150390625, -0.204345703125, 0, 
304, 4175341912, 0.6959477, 0.048550308, -0.6673059, 0.26077288, 9.556878089904785, -2.7299063205718994, 0.8384485244750977, 1.497440218925476, 3.240333318710327, 0.8225454688072205, -0.330810546875, 0.538330078125, -0.204833984375, 0, 
305, 4175358579, 0.696192, 0.04836883, -0.6670475, 0.26081577, 9.531319618225098, -2.669233798980713, 0.7830672860145569, 0.3766412138938904, 3.6807570457458496, 1.1077558994293213, -0.334716796875, 0.5390625, -0.20458984375, 0, 
306, 4175375246, 0.6965051, 0.047829576, -0.6668153, 0.2606732, 9.495301246643066, -2.6880431175231934, 0.8105838894844055, -3.1336758136749268, 4.714741230010986, 1.645699381828308, -0.33056640625, 0.53955078125, -0.205322265625, 0, 
307, 4175391913, 0.6967832, 0.04726217, -0.66660446, 0.26057255, 9.510396957397461, -2.7986178398132324, 0.8681004643440247, -3.6499507427215576, 4.676975727081299, 1.984055995941162, -0.329833984375, 0.542236328125, -0.20263671875, 0, 
308, 4175408580, 0.6971181, 0.04649912, -0.6664109, 0.26030916, 9.502979278564453, -2.7942447662353516, 0.9627470374107361, -4.028506755828857, 4.750496864318848, 2.156890630722046, -0.326904296875, 0.542724609375, -0.204345703125, 0, 
309, 4175425247, 0.69726175, 0.04603295, -0.6662801, 0.26034212, 9.525870323181152, -2.855875015258789, 0.9964964389801025, -3.3589649200439453, 3.7481307983398438, 2.3381643295288086, -0.331298828125, 0.543701171875, -0.20166015625, 0, 
310, 4175441914, 0.697604, 0.04528599, -0.66606987, 0.26009378, 9.522120475769043, -2.8873345851898193, 1.0441943407058716, -0.9898924827575684, 3.975468873977661, 2.4685587882995605, -0.32958984375, 0.5439453125, -0.203125, 0, 
311, 4175458581, 0.69787234, 0.044671856, -0.6658525, 0.2600371, 9.508240699768066, -2.7681820392608643, 1.0673152208328247, -1.098669409751892, 3.9829604625701904, 2.7128138542175293, -0.326416015625, 0.54248046875, -0.20166015625, 0, 
312, 4175475248, 0.6981634, 0.043934986, -0.6656478, 0.25990576, 9.541168212890625, -2.798109531402588, 1.135520339012146, -2.4643642902374268, 4.337440013885498, 2.8313238620758057, -0.329345703125, 0.54541015625, -0.199462890625, 0, 
313, 4175491915, 0.6984977, 0.043463644, -0.6653387, 0.25987786, 9.642635345458984, -2.953503370285034, 1.2646653652191162, 0.29129961133003235, 4.333611011505127, 2.1024887561798096, -0.327392578125, 0.54638671875, -0.2021484375, 0, 
314, 4175508582, 0.69886035, 0.043776292, -0.66471446, 0.26044735, 9.68320083618164, -2.9144182205200195, 1.383531093597412, 7.460590839385986, 4.706879138946533, 1.2540043592453003, -0.321533203125, 0.54638671875, -0.20166015625, 0, 
315, 4175525249, 0.6992055, 0.044489954, -0.66396147, 0.26131898, 9.661469459533691, -2.5840344429016113, 1.4099920988082886, 8.718904495239258, 5.295228958129883, 0.581901490688324, -0.32275390625, 0.54736328125, -0.201904296875, 0, 
316, 4175541916, 0.69957304, 0.04519108, -0.6632257, 0.2620825, 9.599393844604492, -2.516704797744751, 1.4783400297164917, 6.789384365081787, 5.693416118621826, -0.0786566212773323, -0.322265625, 0.54443359375, -0.206787109375, 0, 
317, 4175558583, 0.70013726, 0.046052426, -0.6622722, 0.26283595, 9.533429145812988, -2.7291221618652344, 1.6574723720550537, 10.187490463256836, 6.6218671798706055, -0.9740131497383118, -0.32177734375, 0.54345703125, -0.2080078125, 0, 
318, 4175575250, 0.70089835, 0.04757303, -0.66081196, 0.26420823, 9.613912582397461, -2.6829802989959717, 1.7376209497451782, 16.29810333251953, 9.163371086120605, -1.6078904867172241, -0.32177734375, 0.543701171875, -0.210693359375, 0, 
319, 4175591917, 0.7020148, 0.048843484, -0.65909004, 0.2653114, 9.735016822814941, -2.386568784713745, 1.6918292045593262, 16.21549415588379, 11.790802955627441, -2.229332447052002, -0.317138671875, 0.540283203125, -0.2177734375, 0, 
320, 4175608584, 0.7033516, 0.049939908, -0.65719235, 0.2662719, 9.741254806518555, -2.38100528717041, 1.7728756666183472, 11.539579391479492, 14.911416053771973, -3.0481839179992676, -0.31396484375, 0.54296875, -0.224365234375, 0, 
321, 4175625251, 0.70482385, 0.051090047, -0.6550761, 0.26737374, 9.663984298706055, -2.523799180984497, 1.9346733093261719, 8.31665325164795, 17.831735610961914, -3.5775997638702393, -0.315185546875, 0.542236328125, -0.228759765625, 0, 
322, 4175641918, 0.7065368, 0.052421413, -0.6525866, 0.26867902, 9.664529800415039, -2.6271958351135254, 2.1161327362060547, 10.329512596130371, 20.545503616333008, -4.069314956665039, -0.3134765625, 0.54150390625, -0.232177734375, 0, 
323, 4175658585, 0.7090042, 0.052797124, -0.6497999, 0.26886007, 9.670162200927734, -2.467470645904541, 2.1348981857299805, 11.889047622680664, 23.48607063293457, -5.0474748611450195, -0.31201171875, 0.5380859375, -0.237548828125, 0, 
324, 4175675252, 0.7117779, 0.052974857, -0.6467336, 0.26889, 9.742816925048828, -2.488999128341675, 2.0685386657714844, 9.41014575958252, 26.874549865722656, -5.731184482574463, -0.306884765625, 0.5400390625, -0.24609375, 0, 
325, 4175691919, 0.71481055, 0.053012513, -0.64344335, 0.2687313, 9.772133827209473, -2.568568468093872, 1.9936127662658691, 8.744024276733398, 29.140060424804688, -6.461394309997559, -0.30322265625, 0.536865234375, -0.246337890625, 0, 
326, 4175708586, 0.71799785, 0.05311645, -0.6399382, 0.26858318, 9.755623817443848, -2.5677216053009033, 1.9816721677780151, 10.616044044494629, 30.428606033325195, -6.810551643371582, -0.302490234375, 0.537841796875, -0.255126953125, 0, 
327, 4175725253, 0.72074693, 0.054723505, -0.6360752, 0.2700697, 9.631572723388672, -2.4833474159240723, 2.0136008262634277, 12.18990421295166, 32.024173736572266, -7.317713737487793, -0.2978515625, 0.533203125, -0.26220703125, 0, 
328, 4175741920, 0.7239323, 0.055490814, -0.6321372, 0.27063936, 9.557486534118652, -2.448570728302002, 1.9559062719345093, 10.863100051879883, 33.55847930908203, -7.704457759857178, -0.292236328125, 0.5380859375, -0.269775390625, 0, 
329, 4175758587, 0.7273241, 0.055908356, -0.62809736, 0.27086458, 9.495226860046387, -2.477052688598633, 1.8286563158035278, 8.92359733581543, 35.14396667480469, -8.078726768493652, -0.287109375, 0.53515625, -0.27734375, 0, 
330, 4175775254, 0.7308375, 0.056089975, -0.62396294, 0.27092597, 9.540278434753418, -2.5026986598968506, 1.9111169576644897, 7.834336280822754, 36.33445739746094, -7.994243144989014, -0.285400390625, 0.532470703125, -0.282958984375, 0, 
331, 4175791921, 0.73440766, 0.055998284, -0.61979437, 0.27085918, 9.508402824401855, -2.3493199348449707, 1.989693284034729, 5.80262565612793, 37.25362014770508, -7.618863582611084, -0.28076171875, 0.53076171875, -0.29052734375, 0, 
332, 4175808588, 0.73795617, 0.05547591, -0.61579067, 0.27045345, 9.460211753845215, -2.440922737121582, 1.9555878639221191, 1.7866867780685425, 37.03003692626953, -7.411334037780762, -0.27294921875, 0.531982421875, -0.295166015625, 0, 
333, 4175825255, 0.74137706, 0.054989316, -0.6118709, 0.27009332, 9.469428062438965, -2.5714824199676514, 2.020385265350342, 2.122175931930542, 36.00266647338867, -7.046017169952393, -0.271240234375, 0.531494140625, -0.30078125, 0, 
334, 4175841922, 0.7447116, 0.054840658, -0.60784566, 0.27003863, 9.472164154052734, -2.4697248935699463, 2.1019816398620605, 5.3475022315979, 35.67608642578125, -6.796438217163086, -0.26416015625, 0.533203125, -0.306884765625, 0, 
335, 4175858589, 0.74798, 0.054664794, -0.6038729, 0.26995435, 9.472920417785645, -2.29764723777771, 2.1628592014312744, 5.0114359855651855, 35.18047332763672, -6.695318222045898, -0.2646484375, 0.52880859375, -0.31494140625, 0, 
336, 4175875256, 0.75119585, 0.05390061, -0.60018146, 0.26941085, 9.444954872131348, -2.1799376010894775, 2.2960023880004883, -0.42376387119293213, 34.44221496582031, -6.407454013824463, -0.257568359375, 0.531982421875, -0.31689453125, 0, 
337, 4175891923, 0.7543517, 0.05298193, -0.59663355, 0.268654, 9.350485801696777, -2.395092248916626, 2.343729257583618, -2.347593069076538, 33.6685905456543, -6.7023725509643555, -0.2578125, 0.531494140625, -0.31787109375, 0, 
338, 4175908590, 0.7573891, 0.052871022, -0.5928937, 0.2684089, 9.31290054321289, -2.6126105785369873, 2.507197141647339, 4.337854385375977, 32.88155746459961, -7.215779781341553, -0.247314453125, 0.534912109375, -0.32470703125, 0, 
339, 4175925257, 0.76036584, 0.053195555, -0.58898234, 0.26853994, 9.283408164978027, -2.303102493286133, 2.6023826599121094, 8.478107452392578, 32.868125915527344, -6.9912519454956055, -0.245361328125, 0.530029296875, -0.33203125, 0, 
340, 4175941924, 0.76336294, 0.053074103, -0.5851612, 0.2684153, 9.580013275146484, -2.0427358150482178, 2.6449811458587646, 4.936804294586182, 33.215030670166016, -6.527737140655518, -0.241455078125, 0.5322265625, -0.33447265625, 0, 
341, 4175958591, 0.76640975, 0.052080978, -0.58161134, 0.26764232, 9.95829963684082, -2.2285311222076416, 2.8048882484436035, -2.7675979137420654, 33.37336730957031, -6.409136772155762, -0.23828125, 0.532470703125, -0.34033203125, 0, 
342, 4175975258, 0.76946604, 0.050994415, -0.57808816, 0.2667128, 9.895293235778809, -2.2806990146636963, 3.0609936714172363, -3.9402871131896973, 33.396724700927734, -6.86383581161499, -0.233642578125, 0.531005859375, -0.34375, 0, 
343, 4175991925, 0.7724288, 0.05012147, -0.5746251, 0.26579633, 9.52777099609375, -2.3362975120544434, 3.419483184814453, -2.8387303352355957, 32.326622009277344, -7.448099613189697, -0.227783203125, 0.533935546875, -0.35009765625, 0, 
344, 4176008592, 0.7752597, 0.049565833, -0.57119, 0.26506212, 9.315808296203613, -2.388371467590332, 3.7271013259887695, -0.44132766127586365, 31.135168075561523, -7.4858574867248535, -0.225341796875, 0.533203125, -0.3515625, 0, 
345, 4176025259, 0.77806926, 0.049480807, -0.5674799, 0.2648138, 9.461289405822754, -2.1865334510803223, 3.9554145336151123, 4.48056173324585, 31.81658935546875, -6.803790092468262, -0.218994140625, 0.53271484375, -0.358154296875, 0, 
346, 4176041926, 0.7810156, 0.049247906, -0.563568, 0.26453847, 9.545892715454102, -1.7513628005981445, 3.882472038269043, 3.8991005420684814, 33.67666244506836, -6.690326690673828, -0.217041015625, 0.530517578125, -0.36328125, 0, 
347, 4176058593, 0.7841827, 0.04841972, -0.55959237, 0.26375994, 9.378132820129395, -1.6442780494689941, 3.9039578437805176, -1.214361548423767, 35.77840805053711, -7.497673034667969, -0.21044921875, 0.5341796875, -0.365478515625, 0, 
348, 4176075260, 0.787484, 0.04743757, -0.55549425, 0.26276374, 9.2753324508667, -1.9204663038253784, 3.9510903358459473, -2.714787483215332, 37.154945373535156, -8.351569175720215, -0.206298828125, 0.5341796875, -0.3681640625, 0, 
349, 4176091927, 0.790982, 0.046815857, -0.55095667, 0.26192155, 9.170289039611816, -2.03277587890625, 4.03305721282959, 0.5490626692771912, 39.67816162109375, -9.389357566833496, -0.19970703125, 0.535888671875, -0.375244140625, 0, 
350, 4176108594, 0.79467845, 0.046366226, -0.5460504, 0.26108512, 9.142112731933594, -1.8335710763931274, 4.163299083709717, 2.100748300552368, 42.12095642089844, -10.485818862915039, -0.196044921875, 0.5322265625, -0.3798828125, 0, 
351, 4176125261, 0.798548, 0.045594003, -0.5409418, 0.26004714, 9.22038459777832, -1.6771000623703003, 4.287487030029297, -0.11824829131364822, 44.383636474609375, -10.748056411743164, -0.190185546875, 0.532470703125, -0.388671875, 0, 
352, 4176141928, 0.8025601, 0.044316012, -0.53566426, 0.25883877, 9.335684776306152, -1.6868633031845093, 4.471442222595215, -4.605144023895264, 47.00440979003906, -10.718792915344238, -0.1787109375, 0.533935546875, -0.392333984375, 0, 
353, 4176158595, 0.8066318, 0.043069817, -0.5301854, 0.25766975, 9.337627410888672, -1.8210723400115967, 4.685973644256592, -5.555117130279541, 48.663761138916016, -11.56873893737793, -0.17578125, 0.53662109375, -0.395751953125, 0, 
354, 4176175262, 0.81078595, 0.04254608, -0.5242804, 0.25680014, 9.396822929382324, -1.976718783378601, 4.943027019500732, 0.838119387626648, 49.9900016784668, -12.570758819580078, -0.164306640625, 0.532958984375, -0.40478515625, 0, 
355, 4176191929, 0.81480724, 0.04307062, -0.5179701, 0.25679028, 9.325797080993652, -1.8963618278503418, 5.099220275878906, 6.35252571105957, 51.13412857055664, -13.628352165222168, -0.16064453125, 0.533935546875, -0.41259765625, 0, 
356, 4176208596, 0.8189388, 0.04362654, -0.5113769, 0.25676802, 9.246131896972656, -1.717925786972046, 5.114748001098633, 6.6320319175720215, 53.094207763671875, -14.366053581237793, -0.150146484375, 0.535888671875, -0.421142578125, 0, 
357, 4176225263, 0.8231821, 0.043981917, -0.5045766, 0.2565917, 9.193349838256836, -1.7840572595596313, 5.173730850219727, 5.131703853607178, 54.96953201293945, -14.99427318572998, -0.144775390625, 0.5302734375, -0.425537109375, 0, 
358, 4176241930, 0.82754713, 0.04431942, -0.49742484, 0.2564572, 9.10151195526123, -1.8722251653671265, 5.153650760650635, 5.33017110824585, 57.49300003051758, -15.39120101928711, -0.131103515625, 0.5341796875, -0.434326171875, 0, 
359, 4176258597, 0.83198303, 0.044736378, -0.48994714, 0.25642788, 9.000265121459961, -1.9405618906021118, 5.18720817565918, 6.334489345550537, 59.53657913208008, -15.654134750366211, -0.123779296875, 0.53076171875, -0.444580078125, 0, 
360, 4176275264, 0.8364552, 0.04500357, -0.482226, 0.25646716, 8.936305046081543, -1.9317876100540161, 5.2574663162231445, 5.854659557342529, 61.3741340637207, -15.233132362365723, -0.11083984375, 0.52978515625, -0.453369140625, 0, 
361, 4176291931, 0.84088606, 0.045305945, -0.47438824, 0.25654227, 8.8628568649292, -1.93279230594635, 5.251663684844971, 7.17507791519165, 61.67070770263672, -14.791553497314453, -0.095703125, 0.53125, -0.461181640625, 0, 
362, 4176308598, 0.8452544, 0.046127964, -0.46628422, 0.25689757, 8.715608596801758, -2.016528844833374, 5.329808235168457, 11.899629592895508, 62.094608306884766, -14.80215072631836, -0.084716796875, 0.531005859375, -0.470458984375, 0, 
363, 4176325265, 0.8495239, 0.047505822, -0.45800248, 0.25746137, 8.4448881149292, -1.8300915956497192, 5.39619779586792, 16.63087272644043, 61.775634765625, -15.093646049499512, -0.072265625, 0.527099609375, -0.47802734375, 0, 
364, 4176341932, 0.8536475, 0.04878049, -0.44981202, 0.2580226, 8.306859970092773, -1.732709527015686, 5.43002986907959, 16.147048950195312, 60.89530944824219, -14.48558521270752, -0.059326171875, 0.52392578125, -0.48779296875, 0, 
365, 4176358599, 0.8576942, 0.04918675, -0.44190162, 0.2581944, 8.263949394226074, -1.6105488538742065, 5.469573020935059, 10.116771697998047, 60.26579284667969, -13.4617919921875, -0.047119140625, 0.523681640625, -0.496826171875, 0, 
366, 4176375266, 0.8616649, 0.048941977, -0.4341399, 0.2581879, 8.247760772705078, -1.5681252479553223, 5.429525375366211, 5.9640350341796875, 60.16264343261719, -12.129792213439941, -0.029541015625, 0.523193359375, -0.50048828125, 0, 
367, 4176391933, 0.86573035, 0.048550475, -0.42638522, 0.25758442, 8.003929138183594, -1.7975990772247314, 5.5317888259887695, 8.08151626586914, 59.563724517822266, -11.714693069458008, -0.0166015625, 0.52099609375, -0.507568359375, 0, 
368, 4176408600, 0.8696247, 0.04853356, -0.41859654, 0.25724396, 7.748856067657471, -1.5916579961776733, 5.709353923797607, 11.204293251037598, 58.705116271972656, -10.967225074768066, -0.00390625, 0.522216796875, -0.515380859375, 0, 
369, 4176425267, 0.8733529, 0.04815918, -0.41109386, 0.2567825, 7.554805278778076, -1.3090404272079468, 6.029877185821533, 8.271902084350586, 57.12040710449219, -10.28150463104248, 0.009765625, 0.51904296875, -0.517333984375, 0, 
370, 4176441934, 0.8769872, 0.046973042, -0.40385056, 0.25610885, 7.5624775886535645, -1.1976656913757324, 6.297300815582275, 2.3710079193115234, 56.66719055175781, -9.013463973999023, 0.025634765625, 0.52099609375, -0.52294921875, 0, 
371, 4176458601, 0.8805956, 0.04505448, -0.39666018, 0.25530797, 7.711881637573242, -1.077736496925354, 6.4436421394348145, -2.4857230186462402, 57.52902603149414, -7.686251640319824, 0.040283203125, 0.5224609375, -0.5244140625, 0, 
372, 4176475268, 0.88416755, 0.04318759, -0.38934067, 0.25455147, 7.73809814453125, -1.1020917892456055, 6.557417392730713, -1.8166474103927612, 58.1446418762207, -7.534521102905273, 0.049560546875, 0.52392578125, -0.52490234375, 0, 
373, 4176491935, 0.8876233, 0.042154577, -0.3819489, 0.25389588, 7.604997634887695, -1.2300879955291748, 6.750516414642334, 3.6798832416534424, 56.85258865356445, -8.970625877380371, 0.066162109375, 0.525634765625, -0.529052734375, 0, 
374, 4176508602, 0.8910252, 0.041522298, -0.3745209, 0.2531488, 7.373713970184326, -1.0634697675704956, 7.012748718261719, 5.962193012237549, 56.21642303466797, -10.502050399780273, 0.08154296875, 0.528076171875, -0.52880859375, 0, 
375, 4176525269, 0.89444304, 0.04030587, -0.36716384, 0.2520674, 7.194762229919434, -0.8281687498092651, 7.156731605529785, 1.3919256925582886, 56.74873733520508, -11.053987503051758, 0.094482421875, 0.526123046875, -0.53125, 0, 
376, 4176541936, 0.8978894, 0.03896356, -0.35962903, 0.25088552, 7.185770034790039, -1.1051030158996582, 7.2278032302856445, 0.6565768718719482, 58.10674285888672, -11.450613021850586, 0.1064453125, 0.527587890625, -0.531005859375, 0, 
377, 4176558603, 0.9013116, 0.03829579, -0.351678, 0.24998696, 7.04275369644165, -1.2125461101531982, 7.319393157958984, 6.244841575622559, 59.53367233276367, -11.441104888916016, 0.122314453125, 0.527099609375, -0.534423828125, 0, 
378, 4176575270, 0.9046665, 0.0376727, -0.34366474, 0.24910676, 6.748851776123047, -0.938777506351471, 7.373072147369385, 6.690520763397217, 59.690635681152344, -11.342533111572266, 0.135009765625, 0.529296875, -0.53369140625, 0, 
379, 4176591937, 0.9079621, 0.036385093, -0.3358786, 0.24792503, 6.634442329406738, -0.9169428944587708, 7.470629692077637, 1.4675111770629883, 59.201210021972656, -11.488844871520996, 0.15087890625, 0.530517578125, -0.533447265625, 0, 
380, 4176608604, 0.91124433, 0.03427739, -0.3281449, 0.24653585, 6.534231185913086, -1.010175108909607, 7.620418071746826, -4.219779968261719, 60.19291305541992, -10.856592178344727, 0.169189453125, 0.53271484375, -0.533935546875, 0, 
381, 4176625271, 0.9145276, 0.031058142, -0.32041323, 0.24497001, 6.463507175445557, -0.9314318895339966, 7.480083465576172, -11.587203979492188, 62.02770233154297, -9.46025562286377, 0.177001953125, 0.536376953125, -0.52783203125, 0, 
382, 4176641938, 0.9177614, 0.027578825, -0.31260118, 0.24338005, 6.3916473388671875, -1.2983603477478027, 7.349795818328857, -13.13170337677002, 62.86443328857422, -8.972600936889648, 0.19677734375, 0.5400390625, -0.52490234375, 0, 
383, 4176658605, 0.92084223, 0.025343338, -0.3044759, 0.24228439, 6.266481399536133, -1.548911690711975, 7.560580253601074, -3.6630454063415527, 62.53684997558594, -8.337492942810059, 0.2080078125, 0.540771484375, -0.51904296875, 0, 
384, 4176675272, 0.9237296, 0.023723498, -0.29649767, 0.24135092, 5.9336161613464355, -1.0500743389129639, 7.633036136627197, 0.37316909432411194, 60.21532440185547, -8.260132789611816, 0.21875, 0.54052734375, -0.5185546875, 0, 
385, 4176691939, 0.9264847, 0.021579044, -0.2888664, 0.24024327, 5.7954277992248535, -0.9382587671279907, 7.776859283447266, -3.8669824600219727, 58.5905647277832, -8.024678230285645, 0.2353515625, 0.543212890625, -0.513427734375, 0, 
386, 4176708606, 0.92913026, 0.018761903, -0.28154427, 0.23895212, 5.71730899810791, -1.1424394845962524, 7.711948871612549, -9.013351440429688, 57.49459457397461, -7.633029460906982, 0.248779296875, 0.547119140625, -0.510986328125, 0, 
387, 4176725273, 0.9316567, 0.01654224, -0.27415115, 0.23787273, 5.639440536499023, -1.369493007659912, 7.795689105987549, -4.650161266326904, 56.77314376831055, -7.253082275390625, 0.26220703125, 0.547607421875, -0.50634765625, 0, 
388, 4176741940, 0.9340524, 0.0151986955, -0.2666573, 0.23708434, 5.400477409362793, -1.0686789751052856, 7.796788692474365, 1.6967579126358032, 55.782005310058594, -6.844064235687256, 0.271728515625, 0.5517578125, -0.503173828125, 0, 
389, 4176758607, 0.936366, 0.014026593, -0.25923273, 0.23626348, 5.1305832862854, -1.1045215129852295, 7.779665946960449, 2.6359975337982178, 54.913177490234375, -7.230574131011963, 0.284423828125, 0.55078125, -0.5009765625, 0, 
390, 4176775274, 0.9385746, 0.012871376, -0.2520072, 0.2353823, 5.026632785797119, -1.1959694623947144, 7.989803314208984, 2.3270912170410156, 53.41908264160156, -7.464354515075684, 0.29736328125, 0.5537109375, -0.496826171875, 0, 
391, 4176791941, 0.940656, 0.011790848, -0.24496801, 0.23455912, 4.923040390014648, -1.1198276281356812, 8.157302856445312, 2.625429391860962, 51.88653564453125, -7.002868175506592, 0.307373046875, 0.552734375, -0.494140625, 0, 
392, 4176808608, 0.94261456, 0.010757741, -0.23815724, 0.23375909, 4.865639686584473, -0.8673844337463379, 8.230001449584961, 2.616425037384033, 50.133201599121094, -6.720390796661377, 0.320068359375, 0.554443359375, -0.490966796875, 0, 
393, 4176825275, 0.94445384, 0.009831293, -0.2316241, 0.23293932, 4.777496814727783, -0.8031217455863953, 8.294466018676758, 2.8372061252593994, 47.971214294433594, -6.811735153198242, 0.33056640625, 0.5556640625, -0.48779296875, 0, 
394, 4176841942, 0.9462173, 0.009183167, -0.22527441, 0.23203486, 4.487740516662598, -0.9282999038696289, 8.418580055236816, 4.220326900482178, 46.21533966064453, -7.673067092895508, 0.33935546875, 0.5556640625, -0.484619140625, 0, 
395, 4176858609, 0.9478766, 0.008337923, -0.21932238, 0.23099402, 4.271534442901611, -0.8733383417129517, 8.612676620483398, 2.100409746170044, 43.77513885498047, -8.066705703735352, 0.345703125, 0.556396484375, -0.482666015625, 0, 
396, 4176875276, 0.94943464, 0.0071729645, -0.21371636, 0.22988655, 4.291751861572266, -0.9283978939056396, 8.732166290283203, -0.6277776956558228, 41.87025451660156, -7.8414225578308105, 0.357421875, 0.555419921875, -0.478759765625, 0, 
397, 4176891943, 0.9509156, 0.006379943, -0.2081364, 0.22890703, 4.340709686279297, -1.014359712600708, 8.786602020263672, 1.9539408683776855, 41.00663757324219, -7.430936813354492, 0.36328125, 0.556884765625, -0.476806640625, 0, 
398, 4176908610, 0.95238245, 0.0061071306, -0.20240058, 0.22795731, 4.164761066436768, -0.8866622447967529, 8.832274436950684, 5.646392822265625, 41.19154739379883, -7.971202373504639, 0.370849609375, 0.557861328125, -0.473876953125, 0, 
399, 4176925277, 0.9537913, 0.0053709242, -0.19690241, 0.22689842, 3.9083030223846436, -0.7486017942428589, 8.934591293334961, 2.0921473503112793, 40.278846740722656, -7.94195032119751, 0.37646484375, 0.557861328125, -0.470947265625, 0, 
400, 4176941944, 0.9551755, 0.0037189496, -0.19152057, 0.22571182, 4.000884056091309, -0.8565416932106018, 8.935312271118164, -4.267274856567383, 40.90498733520508, -7.4996819496154785, 0.38427734375, 0.560546875, -0.467041015625, 0, 
401, 4176958611, 0.9565459, 0.0017619458, -0.18603761, 0.22451502, 3.9496123790740967, -1.088402509689331, 8.954400062561035, -6.124952793121338, 42.027042388916016, -7.147276878356934, 0.394775390625, 0.560546875, -0.45947265625, 0, 
402, 4176975278, 0.9578844, 8.906133E-5, -0.18044402, 0.2233778, 3.7557196617126465, -1.1330111026763916, 9.006473541259766, -4.0037336349487305, 42.28016662597656, -7.074524402618408, 0.40283203125, 0.565185546875, -0.457763671875, 0, 
403, 4176991945, 0.95916575, -0.0011289793, -0.17479914, 0.22236282, 3.655966281890869, -1.1203086376190186, 9.065701484680176, -0.7699801325798035, 41.85116958618164, -6.747368335723877, 0.408935546875, 0.566162109375, -0.4521484375, 0, 
404, 4177008612, 0.9603872, -0.0025053, -0.16918682, 0.2214182, 3.6098520755767822, -1.08955717086792, 9.14147663116455, -1.7734025716781616, 41.80769729614258, -6.007143974304199, 0.41748046875, 0.566650390625, -0.4482421875, 0, 
405, 4177025279, 0.961535, -0.0039991923, -0.16375135, 0.22049998, 3.5968048572540283, -1.08467698097229, 9.168050765991211, -2.7843408584594727, 40.736602783203125, -5.590676784515381, 0.419189453125, 0.56787109375, -0.443115234375, 0, 
406, 4177041946, 0.9626243, -0.0050573135, -0.15830201, 0.21970296, 3.5788135528564453, -1.1202908754348755, 9.240174293518066, 0.25863856077194214, 40.104061126708984, -5.194253921508789, 0.43017578125, 0.56689453125, -0.439453125, 0, 
407, 4177058613, 0.9636738, -0.0058568357, -0.15289237, 0.21891238, 3.408200740814209, -1.0291268825531006, 9.378317832946777, 1.9220904111862183, 39.4141960144043, -5.378485679626465, 0.4375, 0.567626953125, -0.435791015625, 0, 
408, 4177075280, 0.96469283, -0.006745335, -0.14751093, 0.21808924, 3.2255589962005615, -0.991448700428009, 9.461286544799805, 1.2588199377059937, 39.334320068359375, -5.459395885467529, 0.441650390625, 0.568603515625, -0.43701171875, 0, 
409, 4177091947, 0.96565807, -0.00835313, -0.14223053, 0.21726824, 3.064023494720459, -0.8357627987861633, 9.506817817687988, -3.6589934825897217, 39.6914176940918, -4.640323638916016, 0.44873046875, 0.56787109375, -0.4287109375, 0, 
410, 4177108614, 0.9665583, -0.010828822, -0.1371282, 0.21643397, 2.8899660110473633, -0.7844308018684387, 9.538875579833984, -9.702743530273438, 39.74321746826172, -3.792398452758789, 0.457275390625, 0.57421875, -0.42138671875, 0, 
411, 4177125281, 0.9674292, -0.013349195, -0.13192332, 0.21563569, 2.9135031700134277, -1.0808933973312378, 9.554594039916992, -9.815043449401855, 40.46149444580078, -3.4603540897369385, 0.4609375, 0.575927734375, -0.418701171875, 0, 
412, 4177141948, 0.9682955, -0.014920785, -0.12638123, 0.21496278, 2.8146119117736816, -1.1093422174453735, 9.543179512023926, -2.886997699737549, 41.28469467163086, -3.450993061065674, 0.470458984375, 0.576904296875, -0.409423828125, 0, 
413, 4177158615, 0.96911925, -0.016405744, -0.12092412, 0.21428074, 2.6452410221099854, -0.8820221424102783, 9.593847274780273, -2.441640615463257, 40.5579833984375, -3.534400224685669, 0.4765625, 0.57470703125, -0.40478515625, 0, 
414, 4177175282, 0.9699197, -0.01803713, -0.11558198, 0.2134751, 2.538161516189575, -0.9633957147598267, 9.749835968017578, -3.6908810138702393, 40.00382614135742, -4.215534210205078, 0.482666015625, 0.581298828125, -0.396240234375, 0, 
415, 4177191949, 0.97071517, -0.019241462, -0.110067524, 0.2126663, 2.4853675365448, -1.2182718515396118, 9.780282974243164, -0.591611921787262, 40.52361297607422, -4.548553943634033, 0.491455078125, 0.580322265625, -0.395751953125, 0, 
416, 4177208616, 0.9715026, -0.019890392, -0.10435568, 0.21188931, 2.38114070892334, -1.0844790935516357, 9.74655532836914, 3.4331724643707275, 41.021854400634766, -4.72197961807251, 0.496337890625, 0.57958984375, -0.390625, 0, 
417, 4177225283, 0.97226965, -0.02030702, -0.09858311, 0.21109454, 2.184565782546997, -0.9721982479095459, 9.745280265808105, 5.063226222991943, 41.078948974609375, -4.971846103668213, 0.5048828125, 0.58203125, -0.39111328125, 0, 
418, 4177241950, 0.97299707, -0.02077077, -0.09286487, 0.21028887, 2.1101319789886475, -0.928702175617218, 9.69313907623291, 4.658120155334473, 40.760963439941406, -4.964033603668213, 0.509521484375, 0.58154296875, -0.383056640625, 0, 
419, 4177258617, 0.973707, -0.021246998, -0.08714172, 0.2094029, 2.0261175632476807, -1.0845928192138672, 9.689366340637207, 4.531374931335449, 40.81346893310547, -5.4694390296936035, 0.51904296875, 0.582275390625, -0.38037109375, 0, 
420, 4177275284, 0.9743962, -0.021414412, -0.08137577, 0.2084982, 1.8798972368240356, -1.0510799884796143, 9.680642127990723, 6.649904251098633, 40.64849853515625, -5.74640417098999, 0.52294921875, 0.57763671875, -0.377197265625, 0, 
421, 4177291951, 0.9750642, -0.021634663, -0.07549298, 0.20756365, 1.775378704071045, -0.925464928150177, 9.600874900817871, 6.4492292404174805, 41.502159118652344, -5.87184476852417, 0.531982421875, 0.578857421875, -0.375244140625, 0, 
422, 4177308618, 0.9756944, -0.02233811, -0.069622986, 0.20657755, 1.5546725988388062, -0.9094367027282715, 9.56589126586914, 3.1624715328216553, 42.0967903137207, -5.915821552276611, 0.536865234375, 0.578369140625, -0.37255859375, 0, 
423, 4177325285, 0.9762897, -0.023176063, -0.06375354, 0.20556511, 1.5086747407913208, -1.0888350009918213, 9.51909065246582, 2.2452876567840576, 42.271217346191406, -5.979330062866211, 0.544189453125, 0.5791015625, -0.368408203125, 0, 
424, 4177341952, 0.97684944, -0.023843255, -0.05776957, 0.20459564, 1.4338691234588623, -1.170703649520874, 9.474546432495117, 3.5728156566619873, 42.77863693237305, -5.699970722198486, 0.552001953125, 0.581298828125, -0.360107421875, 0, 
425, 4177358619, 0.97736573, -0.02452351, -0.051685225, 0.20367542, 1.3124346733093262, -1.0545430183410645, 9.372633934020996, 3.6468634605407715, 43.44894790649414, -5.287822246551514, 0.55810546875, 0.578125, -0.359375, 0, 
426, 4177375286, 0.97785133, -0.025282461, -0.045606613, 0.20270139, 1.0617167949676514, -1.0562633275985718, 9.339646339416504, 3.0925114154815674, 43.52180862426758, -5.581282138824463, 0.562744140625, 0.576904296875, -0.353759765625, 0, 
427, 4177391953, 0.978294, -0.026033582, -0.039609525, 0.20172925, 0.827933669090271, -1.045319676399231, 9.471646308898926, 3.0316030979156494, 42.94963073730469, -5.526930809020996, 0.5703125, 0.57763671875, -0.349365234375, 0, 
428, 4177408620, 0.9786819, -0.027085612, -0.03391474, 0.20074336, 0.6700927019119263, -0.9727247357368469, 9.616965293884277, 0.5808098912239075, 41.31888961791992, -5.515990734100342, 0.575439453125, 0.578125, -0.344482421875, 0, 
429, 4177425287, 0.97902757, -0.027750935, -0.02832304, 0.19983178, 0.8509988188743591, -1.0448498725891113, 9.611326217651367, 3.05611252784729, 40.06407928466797, -5.068584442138672, 0.58447265625, 0.582275390625, -0.338134765625, 0, 
430, 4177441954, 0.9793706, -0.02775085, -0.022735372, 0.19886343, 0.720443069934845, -0.8965650200843811, 9.634027481079102, 7.523850440979004, 39.13631057739258, -5.578304290771484, 0.587158203125, 0.5791015625, -0.337158203125, 0, 
431, 4177458621, 0.9796956, -0.027944528, -0.017378248, 0.19777176, 0.4483572542667389, -0.6842353940010071, 9.709928512573242, 5.885279178619385, 37.8714485168457, -6.399143218994141, 0.599365234375, 0.5791015625, -0.33251953125, 0, 
432, 4177475288, 0.9800081, -0.028231766, -0.01196469, 0.1965807, 0.35867220163345337, -0.905376672744751, 9.70542049407959, 5.318044662475586, 38.39495086669922, -7.030397415161133, 0.60205078125, 0.57763671875, -0.3291015625, 0, 
433, 4177491955, 0.9803121, -0.0283564, -0.0063525965, 0.19530453, 0.2489432394504547, -0.8440250754356384, 9.5974760055542, 6.677052021026611, 39.52766799926758, -7.568077564239502, 0.610595703125, 0.5810546875, -0.326904296875, 0, 
434, 4177508622, 0.9806158, -0.028112471, -5.5153144E-4, 0.19391315, 0.22525343298912048, -0.7758219242095947, 9.49606704711914, 9.4141206741333, 40.32823944091797, -8.324568748474121, 0.61572265625, 0.579833984375, -0.321044921875, 0, 
435, 4177525289, 0.98092455, -0.027402269, 0.005496847, 0.19236961, 0.06440534442663193, -0.6976444721221924, 9.46975326538086, 12.891180038452148, 41.40357208251953, -9.312028884887695, 0.619873046875, 0.57373046875, -0.32080078125, 0, 
436, 4177541956, 0.98121613, -0.026850987, 0.011514912, 0.19068697, -0.07816725969314575, -0.5615918040275574, 9.421615600585938, 11.782193183898926, 41.43574523925781, -10.241764068603516, 0.63037109375, 0.57568359375, -0.3193359375, 0, 
437, 4177558623, 0.98147666, -0.026576623, 0.017516522, 0.18891895, -0.19869546592235565, -0.7298630475997925, 9.366999626159668, 9.893767356872559, 41.70452880859375, -10.802889823913574, 0.6328125, 0.575927734375, -0.314208984375, 0, 
438, 4177575290, 0.98169625, -0.026539834, 0.023357872, 0.18714423, -0.30560705065727234, -0.7809590697288513, 9.241943359375, 8.078849792480469, 40.93661117553711, -10.853574752807617, 0.637451171875, 0.5751953125, -0.31298828125, 0, 
439, 4177591957, 0.9819039, -0.025891848, 0.029129654, 0.1853268, -0.32586050033569336, -0.8578324913978577, 9.315604209899902, 12.124297142028809, 39.68943786621094, -11.041366577148438, 0.644287109375, 0.57421875, -0.310302734375, 0, 
440, 4177608624, 0.98208797, -0.024957828, 0.034664612, 0.18351743, -0.4139254093170166, -0.6897051930427551, 9.247389793395996, 13.753860473632812, 37.729736328125, -10.943918228149414, 0.6494140625, 0.572998046875, -0.305908203125, 0, 
441, 4177625291, 0.9822272, -0.024439448, 0.03981333, 0.18178971, -0.4606150686740875, -0.6054688692092896, 9.158705711364746, 10.43720531463623, 35.6428337097168, -10.501435279846191, 0.6533203125, 0.5732421875, -0.303955078125, 0, 
442, 4177641958, 0.98234797, -0.024074882, 0.044575505, 0.18007238, -0.5004288554191589, -0.7588977217674255, 9.15378475189209, 8.912118911743164, 33.229679107666016, -10.51552677154541, 0.65673828125, 0.572265625, -0.30322265625, 0, 
443, 4177658625, 0.98246646, -0.02341577, 0.04911832, 0.17832252, -0.6257452368736267, -0.7702668905258179, 9.119192123413086, 10.645694732666016, 31.39076042175293, -10.677767753601074, 0.662109375, 0.572509765625, -0.299560546875, 0, 
444, 4177675292, 0.98255795, -0.023277156, 0.05315895, 0.17667086, -0.6987918019294739, -0.6147795915603638, 9.127567291259766, 6.482812881469727, 28.631977081298828, -10.23825454711914, 0.665283203125, 0.5703125, -0.2998046875, 0, 
445, 4177691959, 0.9826145, -0.023727546, 0.056804676, 0.1751547, -0.7548439502716064, -0.5449081659317017, 9.078603744506836, 1.9733362197875977, 26.67132568359375, -9.558911323547363, 0.666015625, 0.572998046875, -0.295166015625, 0, 
446, 4177708626, 0.98266006, -0.024136815, 0.060269557, 0.17367858, -0.8365366458892822, -0.7382530570030212, 8.941166877746582, 2.0186829566955566, 25.399076461791992, -9.287053108215332, 0.6708984375, 0.570556640625, -0.290771484375, 0, 
447, 4177725293, 0.98271406, -0.024129165, 0.06369287, 0.17214613, -1.0410515069961548, -0.8165906071662903, 8.932153701782227, 4.817326545715332, 24.627086639404297, -9.511845588684082, 0.673583984375, 0.570556640625, -0.288818359375, 0, 
448, 4177741960, 0.98276067, -0.02390156, 0.06698961, 0.17065366, -1.034544587135315, -0.7401236295700073, 8.772940635681152, 6.142490386962891, 23.50588035583496, -9.155134201049805, 0.673095703125, 0.5732421875, -0.28662109375, 0, 
449, 4177758627, 0.9827814, -0.024138287, 0.070137545, 0.16923045, -0.9267599582672119, -0.6443485617637634, 8.606815338134766, 2.800818681716919, 23.045154571533203, -8.895367622375488, 0.676025390625, 0.574462890625, -0.28564453125, 0, 
450, 4177775294, 0.982794, -0.02484035, 0.07297204, 0.16785234, -1.140955924987793, -0.5595507025718689, 8.68014144897461, -0.7263070344924927, 21.466657638549805, -8.855165481567383, 0.676025390625, 0.57080078125, -0.2822265625, 0, 
451, 4177791961, 0.98282903, -0.025421865, 0.07529247, 0.16652946, -1.2668691873550415, -0.8265026807785034, 8.797747611999512, -0.5253620147705078, 17.831907272338867, -8.534080505371094, 0.67626953125, 0.572509765625, -0.278076171875, 0, 
452, 4177808628, 0.98289603, -0.025181951, 0.07740733, 0.16519478, -1.3461744785308838, -0.8923953771591187, 8.841357231140137, 4.8087897300720215, 15.486069679260254, -8.259343147277832, 0.67919921875, 0.578857421875, -0.2802734375, 0, 
453, 4177825295, 0.98298556, -0.025071159, 0.078902416, 0.16396818, -1.4276427030563354, -0.51371830701828, 8.795938491821289, 3.1886038780212402, 11.410170555114746, -7.728182315826416, 0.681396484375, 0.573974609375, -0.275634765625, 0, 
454, 4177841962, 0.9830945, -0.02529319, 0.07972913, 0.16287638, -1.3401538133621216, -0.7726158499717712, 8.931114196777344, 0.11762635409832001, 7.230992317199707, -7.133849620819092, 0.68115234375, 0.576416015625, -0.272216796875, 0, 
455, 4177858629, 0.98323226, -0.025186654, 0.080221735, 0.16181625, -1.5119863748550415, -0.955928385257721, 9.049721717834473, 1.958949327468872, 4.581997394561768, -6.82880163192749, 0.681396484375, 0.578369140625, -0.27490234375, 0, 
456, 4177875296, 0.9833856, -0.024939395, 0.08029822, 0.16088268, -1.581005334854126, -0.8448168635368347, 9.056715965270996, 2.3899850845336914, 1.5786516666412354, -5.981865406036377, 0.679931640625, 0.578857421875, -0.274169921875, 0, 
457, 4177891963, 0.98351675, -0.024747694, 0.0802477, 0.16013354, -1.4456707239151, -0.9354244470596313, 8.996445655822754, 1.7761000394821167, 0.7566760182380676, -4.76130485534668, 0.677490234375, 0.574951171875, -0.27734375, 0, 
458, 4177908630, 0.9836271, -0.02451987, 0.0801919, 0.15951735, -1.412028193473816, -0.9322541356086731, 9.082221031188965, 1.9467189311981201, 0.6666858196258545, -3.8180532455444336, 0.676513671875, 0.57763671875, -0.27587890625, 0, 
459, 4177925297, 0.9837273, -0.02434262, 0.08001036, 0.15901779, -1.5599782466888428, -0.804918646812439, 9.244784355163574, 1.4103248119354248, -0.14409063756465912, -3.0646297931671143, 0.677490234375, 0.577392578125, -0.2724609375, 0, 
460, 4177941964, 0.9838, -0.024578907, 0.079659946, 0.1587068, -1.5310165882110596, -0.8779870271682739, 9.396034240722656, -1.6723620891571045, -0.8539977669715881, -2.0121657848358154, 0.67578125, 0.5771484375, -0.277587890625, 0, 
461, 4177958631, 0.98386276, -0.024681617, 0.07925191, 0.1585065, -1.4427179098129272, -0.9140257239341736, 9.475937843322754, -0.8852580785751343, -1.4066941738128662, -1.1872702836990356, 0.675048828125, 0.57763671875, -0.277587890625, 0, 
462, 4177975298, 0.98393255, -0.024585677, 0.07876011, 0.15833248, -1.5305745601654053, -0.7228696346282959, 9.508638381958008, 0.36227884888648987, -2.2004315853118896, -0.9215257167816162, 0.671875, 0.581298828125, -0.276611328125, 0, 
463, 4177991965, 0.98400235, -0.024672648, 0.07802888, 0.15824822, -1.6962336301803589, -0.6557495594024658, 9.647810935974121, -1.177857756614685, -3.638585329055786, -0.4518016576766968, 0.671142578125, 0.58251953125, -0.278076171875, 0, 
464, 4178008632, 0.9840856, -0.024770807, 0.07712345, 0.15815814, -1.7174400091171265, -0.8512024283409119, 9.691518783569336, -1.4336518049240112, -4.817820072174072, -0.5404728651046753, 0.671142578125, 0.581787109375, -0.27685546875, 0, 
465, 4178025299, 0.9841785, -0.024067387, 0.07638871, 0.15804598, -1.5224939584732056, -0.9943652153015137, 9.591124534606934, 4.1962571144104, -4.5410871505737305, -0.24447964131832123, 0.671142578125, 0.581787109375, -0.276123046875, 0, 
466, 4178041966, 0.9842729, -0.023075305, 0.075734146, 0.1579204, -1.5317450761795044, -0.6502095460891724, 9.539151191711426, 6.253623008728027, -4.314965724945068, -0.1682562381029129, 0.66845703125, 0.580078125, -0.278564453125, 0, 
467, 4178058633, 0.9843596, -0.022579445, 0.074946046, 0.15782699, -1.4951090812683105, -0.5696993470191956, 9.626053810119629, 2.737536907196045, -4.685158729553223, -0.2217099368572235, 0.669921875, 0.581787109375, -0.278564453125, 0, 
468, 4178075300, 0.9844451, -0.022679107, 0.07396774, 0.15774097, -1.6620429754257202, -0.7950737476348877, 9.725631713867188, -1.500027060508728, -5.330048084259033, -0.5057291984558105, 0.6689453125, 0.580810546875, -0.2802734375, 0, 
469, 4178091967, 0.9845257, -0.022223417, 0.07319859, 0.15766244, -1.4308198690414429, -1.1469392776489258, 9.582508087158203, 2.4881973266601562, -4.521109104156494, -0.1323600560426712, 0.66455078125, 0.58056640625, -0.2822265625, 0, 
470, 4178108634, 0.9845999, -0.02145039, 0.0725843, 0.15758929, -1.3896782398223877, -0.8253014087677002, 9.486660957336426, 4.8123064041137695, -3.818142890930176, 0.09685443341732025, 0.661865234375, 0.580322265625, -0.28173828125, 0, 
471, 4178125301, 0.9846701, -0.021271326, 0.071728855, 0.1575669, -1.3697227239608765, -0.6760848164558411, 9.581815719604492, 0.5120234489440918, -4.815155506134033, 0.11465524137020111, 0.66552734375, 0.580810546875, -0.28369140625, 0, 
472, 4178141968, 0.9847373, -0.021704772, 0.0707726, 0.15752104, -1.192357063293457, -1.0450844764709473, 9.55925178527832, -3.728165626525879, -4.832226276397705, -0.35515210032463074, 0.662841796875, 0.582763671875, -0.282958984375, 0, 
473, 4178158635, 0.984811, -0.022053925, 0.06985773, 0.15742034, -1.15998375415802, -1.3038396835327148, 9.557857513427734, -3.0741329193115234, -4.638185024261475, -0.6829690933227539, 0.663818359375, 0.581298828125, -0.2841796875, 0, 
474, 4178175302, 0.9848929, -0.022264972, 0.06882747, 0.1573312, -1.2284163236618042, -1.140368103981018, 9.591506004333496, -2.254180431365967, -5.574214458465576, -0.5596311688423157, 0.6591796875, 0.58203125, -0.283447265625, 0, 
475, 4178191969, 0.984976, -0.022346167, 0.06772813, 0.15727618, -1.192726731300354, -1.141025185585022, 9.680663108825684, -1.4544751644134521, -6.189905643463135, -0.27616262435913086, 0.660888671875, 0.584228515625, -0.281982421875, 0, 
476, 4178208636, 0.9850582, -0.022353198, 0.066660315, 0.15721707, -1.2390985488891602, -1.0854437351226807, 9.71023178100586, -0.9050696492195129, -6.056820869445801, -0.258809894323349, 0.658203125, 0.58544921875, -0.283935546875, 0, 
477, 4178225303, 0.985141, -0.02237528, 0.065559834, 0.15715766, -1.255733847618103, -1.0777544975280762, 9.717994689941406, -1.0322753190994263, -6.262825012207031, -0.2701820433139801, 0.65576171875, 0.5830078125, -0.284912109375, 0, 
478, 4178241970, 0.9852257, -0.022576464, 0.06448245, 0.15704364, -1.3514093160629272, -1.1417557001113892, 9.755709648132324, -2.185499906539917, -5.908639430999756, -0.7177639603614807, 0.653076171875, 0.58544921875, -0.283935546875, 0, 
479, 4178258637, 0.98532516, -0.022472862, 0.063527055, 0.15682389, -1.378781795501709, -1.1546193361282349, 9.816466331481934, 0.07098560035228729, -5.405516147613525, -1.2901182174682617, 0.65087890625, 0.5849609375, -0.285400390625, 0, 
480, 4178275304, 0.98543453, -0.022108814, 0.06274184, 0.15650448, -1.383408784866333, -1.1587077379226685, 9.760751724243164, 2.0734894275665283, -4.526705741882324, -1.8325570821762085, 0.64990234375, 0.584228515625, -0.283935546875, 0, 
481, 4178291971, 0.9855361, -0.021467706, 0.062262375, 0.15614487, -1.420857310295105, -1.1427481174468994, 9.770621299743652, 4.30728816986084, -2.7485694885253906, -1.9274005889892578, 0.6484375, 0.58837890625, -0.286865234375, 0, 
482, 4178308638, 0.9856122, -0.020783631, 0.06201853, 0.15585469, -1.4660669565200806, -1.019903540611267, 9.685639381408691, 4.827943325042725, -1.2036755084991455, -1.3714898824691772, 0.6474609375, 0.584716796875, -0.287109375, 0, 
483, 4178325305, 0.9856628, -0.02036927, 0.06201849, 0.15558898, -1.4122790098190308, -1.0894083976745605, 9.707609176635742, 3.256040334701538, 0.738170862197876, -1.2553616762161255, 0.648681640625, 0.585205078125, -0.28857421875, 0, 
484, 4178341972, 0.98569053, -0.020197624, 0.06214883, 0.15538307, -1.314758539199829, -1.0860735177993774, 9.665888786315918, 1.731584906578064, 1.8766423463821411, -0.905773937702179, 0.650634765625, 0.586181640625, -0.28662109375, 0, 
485, 4178358639, 0.9857202, -0.020151397, 0.062327076, 0.15512915, -1.2469552755355835, -1.1508140563964844, 9.629646301269531, 0.9634089469909668, 2.3372485637664795, -1.2759414911270142, 0.646728515625, 0.582763671875, -0.288818359375, 0, 
486, 4178375306, 0.98575366, -0.019745177, 0.062602915, 0.15485816, -1.232153058052063, -1.1323307752609253, 9.533747673034668, 3.5256142616271973, 2.61161208152771, -1.223422884941101, 0.650634765625, 0.58544921875, -0.2861328125, 0, 
487, 4178391973, 0.98578334, -0.019431606, 0.06282264, 0.15461853, -1.205705165863037, -0.995743989944458, 9.513653755187988, 2.8341352939605713, 2.323981523513794, -1.0488978624343872, 0.650634765625, 0.587890625, -0.28564453125, 0, 
488, 4178408640, 0.9858163, -0.01974545, 0.0626828, 0.15442547, -1.2141485214233398, -0.8081178665161133, 9.547272682189941, -1.8121305704116821, 0.5433605909347534, -1.0514076948165894, 0.648681640625, 0.586669921875, -0.286376953125, 0, 
489, 4178425307, 0.9858782, -0.020418238, 0.06215844, 0.15415512, -1.144067645072937, -1.015750527381897, 9.619219779968262, -4.6099090576171875, -1.6867820024490356, -1.8100306987762451, 0.647705078125, 0.587158203125, -0.287353515625, 0, 
490, 4178441974, 0.9859858, -0.020778205, 0.06146456, 0.15369584, -1.235750675201416, -1.1576786041259766, 9.69870662689209, -2.5734167098999023, -3.16218900680542, -3.0245461463928223, 0.646484375, 0.585693359375, -0.28515625, 0, 
491, 4178458641, 0.9861298, -0.020472571, 0.060787167, 0.1530815, -1.341569423675537, -1.1096432209014893, 9.651805877685547, 2.03664493560791, -3.7502055168151855, -3.8257882595062256, 0.646484375, 0.58837890625, -0.282958984375, 0, 
492, 4178475308, 0.9862942, -0.019888315, 0.06015387, 0.1523479, -1.3277264833450317, -0.9665892124176025, 9.524160385131836, 4.034064769744873, -3.740293502807617, -4.529036998748779, 0.641845703125, 0.58935546875, -0.28662109375, 0, 
493, 4178491975, 0.98645675, -0.019415952, 0.05966463, 0.15154667, -1.3002052307128906, -0.9270122051239014, 9.584063529968262, 3.4621455669403076, -2.6415724754333496, -5.006201267242432, 0.6435546875, 0.58740234375, -0.287841796875, 0, 
494, 4178508642, 0.9866123, -0.019114094, 0.05930021, 0.15071267, -1.2247130870819092, -0.978619396686554, 9.660313606262207, 2.4548110961914062, -1.6138883829116821, -5.274161338806152, 0.640869140625, 0.5888671875, -0.287109375, 0, 
495, 4178525309, 0.9867763, -0.01868003, 0.05917114, 0.14974067, -1.1919575929641724, -1.065935492515564, 9.647042274475098, 3.660221576690674, -0.14320702850818634, -6.128818511962891, 0.6357421875, 0.587890625, -0.287353515625, 0, 
496, 4178541976, 0.98694766, -0.017933995, 0.05926525, 0.14866218, -1.2360877990722656, -0.9214966893196106, 9.64030933380127, 6.060004234313965, 1.0580096244812012, -6.699905872344971, 0.640869140625, 0.588623046875, -0.289794921875, 0, 
497, 4178558643, 0.9871186, -0.017547503, 0.05935053, 0.14753506, -1.3792613744735718, -0.7192044854164124, 9.67451286315918, 3.6374142169952393, 1.3681155443191528, -7.172794342041016, 0.64013671875, 0.588134765625, -0.2919921875, 0, 
498, 4178575310, 0.98728716, -0.017758168, 0.059369538, 0.14637008, -1.4043312072753906, -0.7813397645950317, 9.778299331665039, -0.4630841612815857, 1.5250189304351807, -7.67445707321167, 0.638427734375, 0.58837890625, -0.289794921875, 0, 
499, 4178591977, 0.9874735, -0.018000556, 0.059294734, 0.14510798, -1.4486820697784424, -0.8510941863059998, 9.803321838378906, -0.7265235781669617, 0.9195857048034668, -8.373311996459961, 0.6357421875, 0.59033203125, -0.28955078125, 0, 
500, 4178608644, 0.98767245, -0.01820919, 0.059191138, 0.14376374, -1.448368787765503, -0.836524248123169, 9.788679122924805, -0.48457321524620056, 0.6891739368438721, -8.927942276000977, 0.630615234375, 0.593017578125, -0.291259765625, 0, 
501, 4178625311, 0.9878651, -0.018904828, 0.058975317, 0.14243297, -1.4311950206756592, -0.7767192721366882, 9.787031173706055, -3.90438175201416, 0.40409165620803833, -9.037936210632324, 0.6279296875, 0.5908203125, -0.28857421875, 0, 
502, 4178641978, 0.98805904, -0.019759253, 0.058612987, 0.14111537, -1.3186168670654297, -0.9681476354598999, 9.811141967773438, -5.126428604125977, -0.4441307783126831, -9.030265808105469, 0.625244140625, 0.595458984375, -0.285400390625, 0, 
503, 4178658645, 0.9882713, -0.020099103, 0.058293153, 0.13970625, -1.278075098991394, -1.1156216859817505, 9.805862426757812, -1.5430183410644531, -0.6535530090332031, -9.450915336608887, 0.627197265625, 0.596923828125, -0.287109375, 0, 
504, 4178675312, 0.98848647, -0.020371847, 0.057926714, 0.13829054, -1.3683369159698486, -1.0086116790771484, 9.809884071350098, -1.1205494403839111, -1.0381150245666504, -9.471559524536133, 0.62255859375, 0.599609375, -0.290771484375, 0, 
505, 4178691979, 0.9886872, -0.021006584, 0.057454903, 0.1369502, -1.5010473728179932, -1.0458009243011475, 9.773247718811035, -3.7050254344940186, -1.4201669692993164, -9.10085391998291, 0.61865234375, 0.599853515625, -0.28857421875, 0, 
506, 4178708646, 0.98886406, -0.021502117, 0.05713339, 0.135725, -1.530714511871338, -1.161347508430481, 9.784239768981934, -2.65915584564209, -0.5435336232185364, -8.212899208068848, 0.61669921875, 0.598876953125, -0.2880859375, 0, 
