sep=,
DeviceTag:,Xsens_5,,,,,,,,,,,,,,,,,
FirmwareVersion:,2.2.1,,,,,,,,,,,,,,,,,
AppVersion:,2023.0.0,,,,,,,,,,,,,,,,,
SyncStatus:,Un-synced,,,,,,,,,,,,,,,,,
OutputRate:,60Hz,,,,,,,,,,,,,,,,,
FilterProfile:,General,,,,,,,,,,,,,,,,,
Measurement Mode:,Sensor fusion Mode - Extended (Quaternion),,,,,,,,,,,,,,,,,
StartTime:,2023-07-13 15:18:37.503 +0200,,,,,,,,,,,,,,,,,
© Movella Technologies B. V. 2005-2023,,,,,,,,,,,,,,,,,,,

PacketCounter,SampleTimeFine,Quat_W,Quat_X,Quat_Y,Quat_Z,FreeAcc_X,FreeAcc_Y,FreeAcc_Z,Status
1, 746495512, 0.7077002, 0.08665124, -0.69406605, 0.099621326, -0.010591832, -0.030533044, 0.078650475, 0
2, 746512179, 0.7076897, 0.08653195, -0.6940263, 0.100076064, -0.015104111, -0.041601628, 0.08773136, 0
3, 746528846, 0.7077188, 0.086370215, -0.6939418, 0.1005941, 0.030199282, -0.026288196, 0.089123726, 0
4, 746545513, 0.7075883, 0.0862752, -0.6940199, 0.101053685, -3.0978894E-4, 0.00916107, 0.09001732, 0
5, 746562180, 0.707472, 0.08630329, -0.69409144, 0.10135218, 0.0076311794, 0.027469967, 0.08419895, 0
6, 746578847, 0.70733553, 0.08642222, -0.6941853, 0.10156001, -0.030821543, 0.0034394732, 0.07773876, 0
7, 746595514, 0.70725435, 0.08658255, -0.69421554, 0.10178252, -0.0030317297, -0.02157347, 0.08505535, 0
8, 746612181, 0.7071549, 0.08672564, -0.69426334, 0.10202528, 0.011594511, -0.029981246, 0.079322815, 0
9, 746628848, 0.7070521, 0.086821005, -0.6943211, 0.10226324, 0.0056141983, 0.020588057, 0.084736824, 0
10, 746645515, 0.7069546, 0.0869491, -0.69437, 0.10249668, -0.015066561, 0.050399546, 0.07575989, 0
11, 746662182, 0.70684713, 0.087129004, -0.69442195, 0.10273204, -0.021195734, 0.006179854, 0.08815479, 0
12, 746678849, 0.7067459, 0.087265536, -0.6944829, 0.10290009, -0.05937443, -0.01946077, 0.08483887, 0
13, 746695516, 0.7066583, 0.08739817, -0.6945277, 0.103087425, -0.027716054, -0.01763031, 0.08077812, 0
14, 746712183, 0.7065937, 0.08747067, -0.69456124, 0.10324207, -0.014885516, -8.895816E-5, 0.09757519, 0
15, 746728850, 0.7065197, 0.08760562, -0.6945884, 0.1034511, -0.021379014, 0.018902099, 0.08881378, 0
16, 746745517, 0.70645195, 0.08769905, -0.6946193, 0.10362687, -0.054441497, 0.034054603, 0.07982159, 0
17, 746762184, 0.70635587, 0.087971576, -0.69463354, 0.10395626, -0.031368703, 0.016201895, 0.07582283, 0
18, 746778851, 0.70626867, 0.08816401, -0.6946622, 0.10419303, -0.020964174, -0.0025044067, 0.09410477, 0
19, 746795518, 0.70615894, 0.08846962, -0.69468087, 0.10455293, -0.012734874, 0.0037854712, 0.08740044, 0
20, 746812185, 0.70604175, 0.08884488, -0.69468665, 0.10498681, -0.018475581, 0.013528122, 0.09256554, 0
21, 746828852, 0.70599955, 0.08881447, -0.69473076, 0.10500386, -0.058372643, 0.043051723, 0.07995701, 0
22, 746845519, 0.7059074, 0.089032285, -0.69475675, 0.10526716, -0.063117824, 0.02344651, 0.08734703, 0
23, 746862186, 0.70587873, 0.088800065, -0.6948463, 0.10506395, -0.041138902, -0.0056378907, 0.07964802, 0
24, 746878853, 0.70580375, 0.0888853, -0.69489074, 0.10520176, -0.013656194, -7.487684E-6, 0.09294319, 0
25, 746895520, 0.7057518, 0.08884623, -0.69494706, 0.10521147, -0.02363426, 0.013806004, 0.095962524, 0
26, 746912187, 0.7056814, 0.08897589, -0.6949722, 0.105407976, -0.060579162, 0.022730317, 0.07968044, 0
27, 746928854, 0.70562947, 0.08887259, -0.6950459, 0.10535709, -0.06532032, 0.026837982, 0.08864784, 0
28, 746945521, 0.7055899, 0.088703945, -0.695123, 0.10525509, -0.07397787, 0.020056823, 0.08331299, 0
29, 746962188, 0.7055241, 0.088716574, -0.69517803, 0.10532209, -0.032456763, 0.005223386, 0.07727718, 0
30, 746978855, 0.7054422, 0.08887328, -0.6952076, 0.10554262, -0.05603604, 0.0045710076, 0.07924175, 0
31, 746995522, 0.7053774, 0.08895501, -0.69524187, 0.10568204, -0.05938963, 0.030186374, 0.07945633, 0
32, 747012189, 0.7052571, 0.08936561, -0.69523954, 0.106152505, -0.0831799, 0.053550072, 0.08374214, 0
33, 747028856, 0.7051803, 0.08947307, -0.6952816, 0.106296174, -0.06986836, 0.026530653, 0.085575104, 0
34, 747045523, 0.7050312, 0.0900062, -0.69527394, 0.106884435, -0.04296411, 0.0036232567, 0.08454418, 0
35, 747062190, 0.7049382, 0.09018883, -0.69531035, 0.10710757, -0.04684161, 0.006098607, 0.09038162, 0
36, 747078857, 0.70486015, 0.090381086, -0.6953255, 0.1073596, -0.031978447, 0.025985783, 0.09609985, 0
37, 747095524, 0.70466787, 0.0912305, -0.69526994, 0.10825902, -0.09294429, 0.03683801, 0.09065151, 0
38, 747112191, 0.7045573, 0.09152321, -0.6952898, 0.1086042, -0.08159251, 0.040616997, 0.075172424, 0
39, 747128858, 0.7043951, 0.09212026, -0.6952735, 0.109253556, -0.059110235, 0.02772695, 0.09828091, 0
40, 747145525, 0.7043624, 0.09199479, -0.6953369, 0.10916662, -0.040974393, 0.005257528, 0.08352184, 0
41, 747162192, 0.70427835, 0.09216091, -0.69536835, 0.109367594, -0.05956352, 0.0014147252, 0.0805006, 0
42, 747178859, 0.70416313, 0.0925079, -0.6953735, 0.1097838, -0.10041811, 0.023134764, 0.0985775, 0
43, 747195526, 0.7040498, 0.09279385, -0.6953965, 0.11012253, -0.12042207, 0.04731976, 0.08609295, 0
44, 747212193, 0.70398486, 0.09281438, -0.69544846, 0.11019185, -0.096440926, 0.045656376, 0.08213711, 0
45, 747228860, 0.7039142, 0.09284581, -0.6955046, 0.11026269, -0.07821031, 0.0040055756, 0.077967644, 0
46, 747245527, 0.703854, 0.092893116, -0.6955455, 0.11034972, -0.07657241, 0.017614776, 0.097364426, 0
47, 747262194, 0.703769, 0.09310692, -0.6955595, 0.11062312, -0.08301048, 0.025824798, 0.0707016, 0
48, 747278861, 0.7037001, 0.09316902, -0.6956055, 0.11071956, -0.09691432, 0.037574317, 0.07899952, 0
49, 747295528, 0.70347583, 0.09420135, -0.69551975, 0.11180438, -0.10854549, 0.04288571, 0.082850456, 0
50, 747312195, 0.70345664, 0.09396104, -0.6956048, 0.11159787, -0.0871629, 0.021728085, 0.09219742, 0
51, 747328862, 0.70341986, 0.093836345, -0.6956713, 0.11151986, -0.06325462, -0.009721808, 0.08390331, 0
52, 747345529, 0.7034103, 0.09357493, -0.69574934, 0.11131371, -0.07798099, 0.013313773, 0.08487606, 0
53, 747362196, 0.7033401, 0.093671225, -0.6957827, 0.1114671, -0.10854281, 0.040319726, 0.07876587, 0
54, 747378863, 0.70324904, 0.09381197, -0.69582623, 0.11165162, -0.12570727, 0.04920889, 0.080513954, 0
55, 747395530, 0.7032075, 0.09368935, -0.69589746, 0.1115727, -0.081613965, 0.028587755, 0.08569145, 0
56, 747412197, 0.7032293, 0.09322864, -0.69600254, 0.111163855, -0.050416477, 0.020721775, 0.083981514, 0
57, 747428864, 0.70318145, 0.09322712, -0.69604385, 0.11120994, -0.093984514, 0.026953874, 0.080060005, 0
58, 747445531, 0.70316607, 0.09302136, -0.6961115, 0.11105546, -0.14921144, 0.020295702, 0.0836277, 0
59, 747462198, 0.7031505, 0.09273452, -0.6962045, 0.11081105, -0.13210197, 0.03590188, 0.08582592, 0
60, 747478865, 0.70302045, 0.09315618, -0.69620496, 0.11127843, -0.09638952, 0.039023686, 0.09561062, 0
61, 747495532, 0.70294994, 0.09317482, -0.69626224, 0.11135029, -0.087543316, 0.043204326, 0.08828449, 0
62, 747512199, 0.7028887, 0.09332369, -0.69627035, 0.11156087, -0.087497726, 0.047410507, 0.07811546, 0
63, 747528866, 0.702779, 0.093729705, -0.6962532, 0.1120179, -0.13237466, 0.0056842696, 0.090242386, 0
64, 747545533, 0.7026588, 0.09406358, -0.69626755, 0.11240253, -0.12384942, 0.0063777748, 0.10178757, 0
65, 747562200, 0.70256484, 0.094212644, -0.6963092, 0.11260663, -0.11679535, 0.04801282, 0.07327843, 0
66, 747578867, 0.70251375, 0.09417393, -0.6963654, 0.112610385, -0.09222994, 0.07276459, 0.09650612, 0
67, 747595534, 0.70240027, 0.09462031, -0.69633704, 0.11311777, -0.07921299, 0.057476357, 0.08665371, 0
68, 747612201, 0.7023771, 0.09453874, -0.6963773, 0.11308232, -0.15020876, -0.0027423922, 0.08401108, 0
69, 747628868, 0.7022291, 0.095026836, -0.6963737, 0.113613, -0.1321042, -0.019533971, 0.07888031, 0
70, 747645535, 0.70214665, 0.09515821, -0.6964088, 0.11379781, -0.09746774, 0.033343382, 0.0712862, 0
71, 747662202, 0.7020809, 0.095201954, -0.69645447, 0.113887355, -0.08733724, 0.06822895, 0.05986595, 0
72, 747678869, 0.7020923, 0.094820485, -0.69655085, 0.11354563, -0.112726524, 0.09964202, 0.09341431, 0
73, 747695536, 0.70216364, 0.09426586, -0.6966331, 0.1130597, -0.15225032, 0.039230213, 0.08266926, 0
74, 747712203, 0.70212114, 0.0941484, -0.6967051, 0.11297849, -0.17011929, -0.016155014, 0.08431244, 0
75, 747728870, 0.70202905, 0.09433635, -0.6967362, 0.11320161, -0.120963424, 0.015929265, 0.07978916, 0
76, 747745537, 0.70199287, 0.09405558, -0.6968488, 0.1129669, -0.13203134, 0.07180119, 0.08391476, 0
77, 747762204, 0.7019226, 0.09414458, -0.6968859, 0.11309951, -0.015599417, 0.064809255, 0.09748554, 0
78, 747778871, 0.7018979, 0.094237395, -0.6968725, 0.11325919, -0.10839529, 0.02437733, 0.09121132, 0
79, 747795538, 0.7018651, 0.09416342, -0.6969217, 0.11322076, -0.16981754, 2.80397E-4, 0.08612442, 0
80, 747812205, 0.7017279, 0.094682656, -0.6968967, 0.113790445, -0.21138515, 0.05892472, 0.07916546, 0
81, 747828872, 0.7017022, 0.09430578, -0.69703156, 0.11343528, -0.15355518, 0.08449522, 0.07801151, 0
82, 747845539, 0.7016059, 0.094525345, -0.69705707, 0.11369096, -0.09169172, 0.066324, 0.087423325, 0
83, 747862206, 0.7015325, 0.09473966, -0.69705915, 0.113952436, -0.052943513, 0.030103115, 0.08705425, 0
84, 747878873, 0.701562, 0.09455277, -0.697078, 0.113811135, -0.16136652, 0.018316943, 0.0986042, 0
85, 747895540, 0.70147014, 0.09475147, -0.6971047, 0.11404842, -0.20786884, 0.012418436, 0.09701061, 0
86, 747912207, 0.70142955, 0.094533496, -0.69720405, 0.113871336, -0.15925433, 0.055305824, 0.09243584, 0
87, 747928874, 0.70147794, 0.09384093, -0.6973594, 0.113192156, -0.10790446, 0.092921264, 0.09195995, 0
88, 747945541, 0.7014267, 0.09394014, -0.6973742, 0.11333606, -0.075428024, 0.077237755, 0.097210884, 0
89, 747962208, 0.7014715, 0.09359062, -0.6974262, 0.11302812, -0.16474067, 0.0105744535, 0.076459885, 0
90, 747978875, 0.7013871, 0.09383232, -0.6974339, 0.11330377, -0.19534004, 0.016744865, 0.096019745, 0
91, 747995542, 0.70128065, 0.09412606, -0.69744873, 0.113628015, -0.19284475, 0.041974336, 0.08507156, 0
92, 748012209, 0.701167, 0.09438028, -0.6974808, 0.11392035, -0.11936888, 0.09912537, 0.09721565, 0
93, 748028876, 0.7011142, 0.09455321, -0.6974758, 0.11413271, -0.09290808, 0.084427215, 0.09325504, 0
94, 748045543, 0.70106107, 0.09470723, -0.69747764, 0.11431928, -0.14479214, 0.028365526, 0.09138107, 0
95, 748062210, 0.701019, 0.09477087, -0.697495, 0.11441939, -0.2003007, 0.0023067654, 0.08394146, 0
96, 748078877, 0.7009384, 0.09488422, -0.6975361, 0.11456824, -0.20061852, 0.031157706, 0.08384895, 0
97, 748095544, 0.7009214, 0.09455562, -0.6976481, 0.114261284, -0.15166159, 0.0681301, 0.084674835, 0
98, 748112211, 0.70093054, 0.09422996, -0.69773036, 0.11397211, -0.089357354, 0.08373276, 0.1037693, 0
99, 748128878, 0.70078444, 0.09497018, -0.697648, 0.114756815, -0.13024011, 0.06498667, 0.08693504, 0
100, 748145545, 0.70068437, 0.09549376, -0.6975837, 0.115323916, -0.18008529, 0.01642675, 0.09030628, 0
101, 748162212, 0.70071745, 0.09498329, -0.69769835, 0.11484983, -0.19096902, 0.01664596, 0.09100628, 0
102, 748178879, 0.70063955, 0.09510809, -0.69773626, 0.11499057, -0.16601917, 0.054406572, 0.08385563, 0
103, 748195546, 0.70057493, 0.09524122, -0.69775516, 0.11515933, -0.13304654, 0.08894413, 0.10089588, 0
104, 748212213, 0.7005542, 0.095282584, -0.6977576, 0.115237035, -0.13009349, 0.06571521, 0.08617973, 0
105, 748228880, 0.7004863, 0.09552321, -0.6977467, 0.11551625, -0.16940673, 0.027666768, 0.079226494, 0
106, 748245547, 0.70042634, 0.09564468, -0.69776666, 0.11565911, -0.19713396, 0.017119752, 0.09242725, 0
107, 748262214, 0.7003611, 0.095724255, -0.69780374, 0.115764394, -0.15421365, 0.053343825, 0.08248329, 0
108, 748278881, 0.70034385, 0.09552697, -0.69787556, 0.11559817, -0.13209794, 0.07910185, 0.08537769, 0
109, 748295548, 0.7003057, 0.095617756, -0.69788146, 0.11571924, -0.13032459, 0.08330456, 0.0851717, 0
110, 748312215, 0.7002756, 0.09562781, -0.6979043, 0.11575575, -0.1874411, 0.04800533, 0.08008385, 0
111, 748328882, 0.7002197, 0.09581711, -0.6978985, 0.11597171, -0.20472401, 0.028914474, 0.09359646, 0
112, 748345549, 0.7001434, 0.09600321, -0.6979125, 0.11619367, -0.1766396, 0.02814911, 0.08319664, 0
113, 748362216, 0.70005214, 0.096285835, -0.6979131, 0.11650597, -0.16268837, 0.079278536, 0.08506107, 0
114, 748378883, 0.69998693, 0.0965538, -0.69789165, 0.11680355, -0.1534099, 0.08319633, 0.0743351, 0
115, 748395550, 0.69996077, 0.09662152, -0.69789356, 0.116892636, -0.17073528, 0.07026365, 0.0826273, 0
116, 748412217, 0.6998611, 0.09701506, -0.6978717, 0.117294535, -0.20432705, 0.046040874, 0.09965515, 0
117, 748428884, 0.6997982, 0.09717249, -0.69788474, 0.1174613, -0.1889516, 0.02591683, 0.0809927, 0
118, 748445551, 0.69972134, 0.097466566, -0.6978675, 0.11777773, -0.17112912, 0.04480686, 0.08873844, 0
119, 748462218, 0.70738554, 0.08939735, -0.69338065, 0.10410288, 0.030438889, 0.016340306, 0.084033966, 0
120, 748478885, 0.707408, 0.089393996, -0.69335705, 0.10410913, 0.004019657, 0.026891124, 0.088419914, 0
121, 748495552, 0.7074064, 0.08939299, -0.6933588, 0.10411034, -0.019448757, -0.0065246224, 0.08919048, 0
122, 748512219, 0.7074074, 0.08938907, -0.6933577, 0.104113966, -0.0052212626, -0.026645482, 0.09591293, 0
123, 748528886, 0.70739377, 0.089388184, -0.69337314, 0.10410525, 0.01912958, 1.1790308E-4, 0.09850979, 0
124, 748545553, 0.70739764, 0.0893882, -0.69336915, 0.104104966, 0.030271702, -0.0026501932, 0.08453941, 0
125, 748562220, 0.707412, 0.0893796, -0.6933551, 0.10410869, -0.017510004, 0.018046884, 0.09810257, 0
126, 748578887, 0.70742303, 0.08936944, -0.69334507, 0.10411026, -0.022277536, 0.013473305, 0.09356308, 0
127, 748595554, 0.70742387, 0.08935655, -0.6933449, 0.104116485, -0.02986312, -0.020949421, 0.082880974, 0
128, 748612221, 0.7074109, 0.089362785, -0.6933562, 0.10412346, 0.02312912, -0.010424365, 0.077010155, 0
129, 748628888, 0.70741284, 0.08936241, -0.69335383, 0.104126215, 0.0237259, 0.005762611, 0.096297264, 0
130, 748645555, 0.7074207, 0.08935704, -0.69334644, 0.10412785, 0.023976682, 0.022320898, 0.07739258, 0
131, 748662222, 0.70743376, 0.08935076, -0.6933335, 0.10413059, -0.017302139, 0.020318221, 0.08398533, 0
132, 748678889, 0.7074249, 0.08935066, -0.69334275, 0.10412922, -0.0032753588, -0.0017284257, 0.08734894, 0
133, 748695556, 0.7074157, 0.08935148, -0.69335204, 0.10412898, 0.0061711925, -0.0010308417, 0.0837574, 0
134, 748712223, 0.7074116, 0.08934078, -0.69335854, 0.10412312, 0.01755426, -0.010171181, 0.09566212, 0
135, 748728890, 0.7074162, 0.08934212, -0.6933553, 0.10411131, 0.020101862, 0.009401346, 0.082582474, 0
136, 748745557, 0.70741886, 0.08935053, -0.6933513, 0.104112804, -0.016047783, 0.032781135, 0.08585739, 0
137, 748762224, 0.7074214, 0.08934674, -0.6933493, 0.10411286, -0.010374578, 0.016807392, 0.09745216, 0
138, 748778891, 0.70741343, 0.089348935, -0.6933559, 0.10412128, -0.014249845, -0.0063634138, 0.07820797, 0
139, 748795558, 0.7074043, 0.08935937, -0.693365, 0.104113996, 0.018222118, 0.007462483, 0.10049534, 0
140, 748812225, 0.7074207, 0.08936888, -0.69334763, 0.10410953, 0.025398672, 0.01077148, 0.0815382, 0
141, 748828892, 0.70742583, 0.08936276, -0.6933435, 0.104108, -0.008402746, 0.02529865, 0.08596802, 0
142, 748845559, 0.7074286, 0.08936203, -0.6933403, 0.10411114, -0.036834043, 0.018531011, 0.08995819, 0
143, 748862226, 0.7074299, 0.08934695, -0.69334036, 0.104114346, -0.006627606, 0.013439778, 0.08391094, 0
144, 748878893, 0.707435, 0.08933791, -0.6933377, 0.10410556, 0.01143537, -0.016282583, 0.088703156, 0
145, 748895560, 0.70744115, 0.089332804, -0.69333225, 0.10410509, 0.011565007, -0.008757852, 0.08594036, 0
146, 748912227, 0.7074481, 0.08933027, -0.6933246, 0.10411113, -0.008949012, 0.019007877, 0.08386803, 0
147, 748928894, 0.70745534, 0.089329146, -0.69331825, 0.104105145, 0.008328539, 0.012783041, 0.08860493, 0
148, 748945561, 0.7074574, 0.08931978, -0.6933173, 0.10410533, -0.023196174, -2.5106093E-4, 0.08541489, 0
149, 748962228, 0.7074549, 0.089313515, -0.6933214, 0.104100265, -0.0025900682, -0.006390459, 0.09133148, 0
150, 748978895, 0.707449, 0.089312494, -0.69332856, 0.104095, 0.029528745, 0.010796403, 0.07847977, 0
151, 748995562, 0.7074562, 0.0893113, -0.6933214, 0.10409439, 0.012634293, -2.4105872E-4, 0.10242081, 0
152, 749012229, 0.70745593, 0.0893126, -0.6933223, 0.10408823, 0.022305699, 0.005251437, 0.087166786, 0
153, 749028896, 0.70745933, 0.08931043, -0.69331783, 0.10409698, -0.016045101, 0.013297903, 0.09167862, 0
154, 749045563, 0.70745414, 0.089309655, -0.69332325, 0.10409751, 0.02431955, 0.02058342, 0.084786415, 0
155, 749062230, 0.70746166, 0.089312, -0.6933157, 0.104094915, -0.013382615, -0.0017206027, 0.09133816, 0
156, 749078897, 0.707453, 0.089312315, -0.69332486, 0.10409243, -0.0038998541, -0.0084675085, 0.08871269, 0
157, 749095564, 0.7074672, 0.0892829, -0.6933188, 0.10406205, -0.009843064, 0.0038901311, 0.09170818, 0
158, 749112231, 0.70745975, 0.08928055, -0.6933268, 0.104060926, -0.009826076, 0.021459535, 0.08937836, 0
159, 749128898, 0.70748174, 0.08914028, -0.69334143, 0.10393335, 0.012942295, 0.012419386, 0.0841074, 0
160, 749145565, 0.7074457, 0.08942225, -0.6933002, 0.104213044, -0.003937404, -0.011151117, 0.08051777, 0
161, 749162232, 0.7074401, 0.08949669, -0.69328326, 0.104298465, 0.023006635, -0.0021904828, 0.09705925, 0
162, 749178899, 0.7074345, 0.08954597, -0.69327646, 0.10433953, -0.0076396726, 0.0055659194, 0.07693672, 0
163, 749195566, 0.7073522, 0.0901439, -0.6931918, 0.10494355, -0.0025444715, 0.008453987, 0.08030987, 0
164, 749212233, 0.707373, 0.090056166, -0.6931964, 0.10484816, -0.0044049933, 0.008314291, 0.071424484, 0
165, 749228900, 0.707358, 0.09011683, -0.6931934, 0.10491747, 0.018003521, 0.0083082, 0.09037113, 0
166, 749245567, 0.7073949, 0.08992159, -0.69321007, 0.10472589, -0.006295913, 0.0047991583, 0.08098221, 0
167, 749262234, 0.70741934, 0.08977598, -0.69322497, 0.104585856, -0.019563194, -0.021738647, 0.09570885, 0
168, 749278901, 0.70745, 0.08956066, -0.69325286, 0.10437931, -0.010775113, 0.0061318544, 0.08786774, 0
169, 749295568, 0.70743865, 0.0896175, -0.69324654, 0.104449086, 0.00520964, 0.01933538, 0.081150055, 0
170, 749312235, 0.70743024, 0.089603476, -0.69325876, 0.10443657, 0.0064107985, 0.014088692, 0.085969925, 0
171, 749328902, 0.7074176, 0.089770004, -0.6932247, 0.10460503, -0.014008898, 7.3418417E-4, 0.09270096, 0
172, 749345569, 0.70742387, 0.08966495, -0.6932466, 0.1045081, -0.0010286067, -3.9304752E-4, 0.08433151, 0
173, 749362236, 0.7074071, 0.08980598, -0.693223, 0.10465685, 0.015513587, 0.004748309, 0.082333565, 0
174, 749378903, 0.7073919, 0.089840814, -0.6932294, 0.10468738, 0.008736675, 0.00828244, 0.09275818, 0
175, 749395570, 0.7073873, 0.08991653, -0.6932095, 0.10478576, 0.002674556, 0.0088855345, 0.08269024, 0
176, 749412237, 0.7073734, 0.090032086, -0.6931911, 0.104900666, 0.008933812, 0.0074672885, 0.08746052, 0
177, 749428904, 0.7073594, 0.09012795, -0.69317937, 0.104991205, 0.020753626, 0.01951771, 0.09283352, 0
178, 749445571, 0.70734507, 0.090258345, -0.6931566, 0.10512545, -0.0017416129, -0.0068982802, 0.08543968, 0
179, 749462238, 0.7073071, 0.09040347, -0.69315434, 0.105271034, -0.005604364, -0.010874241, 0.088947296, 0
180, 749478905, 0.70730954, 0.09041721, -0.69314843, 0.10528079, 0.0047134412, 0.011583392, 0.0939703, 0
181, 749495572, 0.7073071, 0.09041527, -0.6931523, 0.10527386, -0.010860494, 0.023133758, 0.07480049, 0
182, 749512239, 0.7073068, 0.090399206, -0.69315547, 0.10526987, -0.010590491, -0.0017843039, 0.08176327, 0
183, 749528906, 0.70729244, 0.09050262, -0.6931408, 0.10537266, 0.015071926, 0.01475342, 0.08522034, 0
184, 749545573, 0.70730644, 0.09043426, -0.6931475, 0.105294526, -0.0153218135, -0.0061672814, 0.09031296, 0
185, 749562240, 0.7072995, 0.09048596, -0.6931416, 0.10533526, 0.013674523, 0.0026639393, 0.076517105, 0
186, 749578907, 0.70729554, 0.09050276, -0.6931401, 0.10535755, 0.011306627, 0.01105171, 0.09047985, 0
187, 749595574, 0.7073068, 0.09044268, -0.6931466, 0.10529057, -0.0022816202, 0.0070520015, 0.0818491, 0
188, 749612241, 0.70730925, 0.09042641, -0.693151, 0.10525845, 0.007985224, 3.2308797E-4, 0.08736515, 0
189, 749628908, 0.70729506, 0.09052186, -0.69313693, 0.1053647, 0.014587796, 0.009315461, 0.09261513, 0
190, 749645575, 0.7073025, 0.09044317, -0.69315124, 0.105287924, 0.008083123, -0.0038183837, 0.102983475, 0
191, 749662242, 0.7072811, 0.09060053, -0.693126, 0.10546276, -0.013529239, 0.009174257, 0.084282875, 0
192, 749678909, 0.70727205, 0.09061572, -0.69313127, 0.10547583, -0.022587325, 0.008875979, 0.08686733, 0
193, 749695576, 0.7072724, 0.09064103, -0.6931236, 0.10550224, -0.0032512194, 0.006265571, 0.085556984, 0
194, 749712243, 0.7072726, 0.09059802, -0.69313747, 0.10544525, -0.0021278434, 0.006486402, 0.093437195, 0
195, 749728910, 0.7072418, 0.09080771, -0.6931101, 0.10565187, 0.0074809785, 0.015282251, 0.09215069, 0
196, 749745577, 0.70723575, 0.09086064, -0.69310045, 0.10571041, -0.004916391, 0.01499582, 0.08591747, 0
197, 749762244, 0.7072388, 0.09085414, -0.6930991, 0.1057048, -7.8855373E-4, 0.003313412, 0.0972538, 0
198, 749778911, 0.70723665, 0.09088256, -0.69309217, 0.10574016, 0.002448361, 0.0062675825, 0.08011913, 0
199, 749795578, 0.70734584, 0.09013044, -0.69319415, 0.104982674, 0.02264052, 0.00979322, 0.07578182, 0
200, 749812245, 0.7073335, 0.09025695, -0.69317156, 0.10510639, 0.0013620879, -0.0066082724, 0.08175564, 0
201, 749828912, 0.7073588, 0.09006335, -0.6932014, 0.1049046, 0.0086964425, 0.0067348364, 0.09229088, 0
202, 749845579, 0.70738435, 0.08993989, -0.69321036, 0.10477888, 0.020327609, 0.01916171, 0.08123779, 0
203, 749862246, 0.70738333, 0.089929655, -0.6932165, 0.10475398, 0.027150119, 0.02029263, 0.07722187, 0
204, 749878913, 0.70737314, 0.09005278, -0.6931916, 0.10488187, -5.029042E-4, -8.8477606E-4, 0.084495544, 0
205, 749895580, 0.70737064, 0.09001522, -0.6932049, 0.10484281, -0.014063883, -0.016782694, 0.08054733, 0
206, 749912247, 0.7073661, 0.09004218, -0.69320273, 0.104864955, 0.03036066, 0.001284082, 0.089904785, 0
207, 749928914, 0.70735836, 0.09005996, -0.6932048, 0.10488739, -0.007181024, 0.008007463, 0.08738804, 0
208, 749945581, 0.70735073, 0.09010268, -0.6932014, 0.10492599, 0.0029047744, 0.022120072, 0.07934952, 0
209, 749962248, 0.7073524, 0.090083726, -0.69320506, 0.104905605, -0.0054264474, -0.0020555928, 0.085448265, 0
210, 749978915, 0.70734954, 0.090047486, -0.69321996, 0.10485791, -0.02965391, 0.014827346, 0.09039593, 0
211, 749995582, 0.7073411, 0.090123296, -0.6932104, 0.104913294, 0.020787599, -0.011387594, 0.0982151, 0
212, 750012249, 0.70732623, 0.09017487, -0.6932128, 0.104953915, 0.016299905, 7.558091E-4, 0.08250427, 0
213, 750028916, 0.7073479, 0.09007876, -0.69321823, 0.10485317, 0.008522102, 0.020675004, 0.08604908, 0
214, 750045583, 0.7073543, 0.09007503, -0.693215, 0.10483468, 0.009157773, 0.005510712, 0.09844589, 0
215, 750062250, 0.70734656, 0.0901281, -0.6932068, 0.104894936, -0.021006642, 0.008579377, 0.08653736, 0
216, 750078917, 0.707329, 0.09015046, -0.69321823, 0.10491954, 0.009459068, -0.0055840802, 0.078326225, 0
217, 750095584, 0.7073073, 0.09024076, -0.6932132, 0.105020784, 0.0110768555, -0.007462874, 0.08703327, 0
218, 750112251, 0.70731753, 0.0902407, -0.69320405, 0.105012655, 0.023838105, 0.015713353, 0.09306717, 0
219, 750128918, 0.70729446, 0.09038436, -0.6931881, 0.10514973, 5.936504E-4, -0.008259307, 0.099671364, 0
220, 750145585, 0.70728564, 0.09045727, -0.6931763, 0.10522398, -0.009193535, 0.009020927, 0.09292889, 0
221, 750162252, 0.7072771, 0.090473175, -0.69318134, 0.105234355, 1.931152E-4, 0.009135421, 0.08472252, 0
222, 750178919, 0.70727265, 0.09049, -0.6931819, 0.10524655, 0.021421928, 0.0062707677, 0.08128071, 0
223, 750195586, 0.70725006, 0.09059047, -0.6931732, 0.105369054, 0.0054286825, -0.0013119093, 0.08587742, 0
224, 750212253, 0.7072501, 0.09063495, -0.693162, 0.10540386, 0.004897616, -0.0014906637, 0.08962536, 0
225, 750228920, 0.7072358, 0.09073247, -0.6931508, 0.10548959, -0.009620892, 0.0054141544, 0.08782482, 0
226, 750245587, 0.7072342, 0.09076737, -0.6931425, 0.105525255, -0.020318221, -0.0015918034, 0.097587585, 0
227, 750262254, 0.70722276, 0.09081404, -0.6931423, 0.1055636, -0.029661957, -0.022860346, 0.081635475, 0
228, 750278921, 0.7071933, 0.09099793, -0.69311976, 0.10575014, -0.013044663, 0.008564569, 0.087926865, 0
229, 750295588, 0.7071968, 0.0909954, -0.69311535, 0.10575893, 0.007388891, 0.005598273, 0.093608856, 0
230, 750312255, 0.70722276, 0.09085611, -0.69312704, 0.10562748, -0.00949483, 7.811778E-5, 0.081326485, 0
231, 750328922, 0.7072193, 0.09087736, -0.69312465, 0.10564758, 0.0063432977, -0.0037000894, 0.077477455, 0
232, 750345589, 0.7072234, 0.090857945, -0.69312704, 0.10562095, -0.00434688, 0.009348653, 0.09734535, 0
233, 750362256, 0.7071987, 0.09101887, -0.6931078, 0.10577462, -1.8775088E-5, 0.005141301, 0.094768524, 0
234, 750378923, 0.70721215, 0.09090896, -0.6931255, 0.10566325, 0.012279355, 0.008540765, 0.1032505, 0
235, 750395590, 0.7072184, 0.09088156, -0.69312644, 0.10563799, 0.0141881555, 0.0076250327, 0.08564377, 0
236, 750412257, 0.7072172, 0.090899415, -0.6931211, 0.105666615, 0.004484117, 0.006739251, 0.091765404, 0
237, 750428924, 0.70721626, 0.090908974, -0.6931182, 0.10568265, -0.0024599836, 0.014690668, 0.085954666, 0
238, 750445591, 0.7072111, 0.09088799, -0.69312936, 0.105662465, -0.008298142, 0.005398732, 0.08155537, 0
239, 750462258, 0.7071623, 0.09099513, -0.69316256, 0.10567904, 0.011877925, -0.003711265, 0.088297844, 0
240, 750478925, 0.7071433, 0.091098115, -0.69315207, 0.1057862, 0.008829209, 0.009030202, 0.0976944, 0
241, 750495592, 0.7071538, 0.091099106, -0.69314253, 0.1057777, 0.013401837, 0.019081077, 0.09239483, 0
242, 750512259, 0.70714396, 0.09117307, -0.6931299, 0.105862275, -0.020509548, -0.006929125, 0.08398914, 0
243, 750528926, 0.7071483, 0.09112997, -0.6931387, 0.10581219, -0.007455945, 0.0036020789, 0.091342926, 0
244, 750545593, 0.7071288, 0.09123858, -0.69312865, 0.105916, -0.007140792, -0.001247314, 0.08701801, 0
245, 750562260, 0.70712227, 0.09125695, -0.69312984, 0.10593559, -0.0024984279, 0.0039286874, 0.08376789, 0
246, 750578927, 0.70710546, 0.091374025, -0.69311017, 0.1060757, -0.0043500094, 0.007727402, 0.08579922, 0
247, 750595594, 0.7071099, 0.091318645, -0.6931223, 0.10601404, -0.0012351326, 0.0057414332, 0.08954525, 0
248, 750612261, 0.7071259, 0.09120728, -0.69313884, 0.105895214, -0.0043562674, 0.0014398705, 0.08279133, 0
249, 750628928, 0.70711756, 0.0912117, -0.69314474, 0.10590824, -0.0042002555, 0.008692419, 0.08762646, 0
250, 750645595, 0.707106, 0.09124848, -0.69314617, 0.10594439, 0.027356645, 0.018078621, 0.077861786, 0
251, 750662262, 0.7070978, 0.091287956, -0.69314015, 0.106003925, 0.016731286, 0.0050693857, 0.0855093, 0
252, 750678929, 0.70708746, 0.091365404, -0.69312906, 0.10608028, 0.011257007, -3.2549075E-4, 0.09657192, 0
253, 750695596, 0.70710045, 0.091317736, -0.69312906, 0.1060344, -0.006552953, -0.0047811656, 0.07089424, 0
254, 750712263, 0.70708305, 0.09140377, -0.6931214, 0.10612657, 0.0076611303, 0.005990706, 0.08979511, 0
255, 750728930, 0.70708334, 0.09137418, -0.6931293, 0.10609771, 0.018961946, 0.00392852, 0.07610893, 0
256, 750745597, 0.70708716, 0.091357894, -0.6931324, 0.10606632, -0.005274906, -0.016088128, 0.08704567, 0
257, 750762264, 0.7071024, 0.0913033, -0.6931328, 0.106008895, -0.004899404, -0.015206369, 0.10007, 0
258, 750778931, 0.70709264, 0.09135039, -0.6931289, 0.10605903, -0.006968687, 0.015476484, 0.088534355, 0
259, 750795598, 0.7070915, 0.091358714, -0.6931274, 0.10606944, -0.009035734, 0.01672391, 0.09039974, 0
260, 750812265, 0.7071099, 0.09120308, -0.69315225, 0.105917685, -0.008272215, 0.0062487517, 0.087389946, 0
261, 750828932, 0.7071077, 0.091195576, -0.6931573, 0.10590512, -0.0026517578, 0.007316082, 0.09248066, 0
262, 750845599, 0.7070793, 0.091352135, -0.69314355, 0.10604975, -0.0023567206, -2.9967498E-4, 0.102910995, 0
263, 750862266, 0.70711356, 0.09117507, -0.69315946, 0.1058698, -0.029201074, 0.0023449862, 0.09507942, 0
264, 750878933, 0.7071062, 0.09123292, -0.6931513, 0.10592307, -0.033028957, -0.006626265, 0.091786385, 0
265, 750895600, 0.7071008, 0.09124228, -0.69315386, 0.105934076, -0.008983432, 0.00804507, 0.09412098, 0
266, 750912267, 0.70709914, 0.091240324, -0.6931558, 0.10593403, 0.012113955, 0.016587958, 0.097784996, 0
267, 750928934, 0.70709926, 0.091222316, -0.6931607, 0.10591724, -0.022426397, -0.009733318, 0.09411335, 0
268, 750945601, 0.7070984, 0.09124013, -0.69315517, 0.10594368, -0.003346436, -1.2729062E-4, 0.093055725, 0
269, 750962268, 0.7071039, 0.09120304, -0.6931611, 0.10590013, -0.0053196084, 0.0026127547, 0.10412979, 0
270, 750978935, 0.70710045, 0.091229536, -0.6931564, 0.10593055, -0.00943627, 0.009798808, 0.09397793, 0
271, 750995602, 0.7071056, 0.09120756, -0.6931574, 0.10590955, -0.020848842, 0.007481705, 0.08877468, 0
272, 751012269, 0.7070993, 0.091218196, -0.6931611, 0.10591761, 0.004490375, -5.6420255E-4, 0.10069752, 0
273, 751028936, 0.7070982, 0.09124205, -0.6931579, 0.10592568, -0.007092066, -0.0032268006, 0.09370804, 0
274, 751045603, 0.7071128, 0.091157, -0.6931681, 0.10583413, -0.020323139, -0.004169746, 0.092741966, 0
275, 751062270, 0.70710045, 0.091197476, -0.6931682, 0.10588044, 0.001482338, -6.42041E-4, 0.09284401, 0
276, 751078937, 0.70707756, 0.09129749, -0.69316304, 0.105981305, -0.0068265325, 0.009560208, 0.090584755, 0
277, 751095604, 0.7070647, 0.09133486, -0.6931654, 0.10602049, 0.013379932, 0.012904855, 0.092139244, 0
278, 751112271, 0.70707256, 0.09129883, -0.693167, 0.10598857, -0.0038944897, -0.021655444, 0.094857216, 0
279, 751128938, 0.7070617, 0.09132202, -0.6931714, 0.10601145, -0.003038435, -0.010957443, 0.09458351, 0
280, 751145605, 0.70705754, 0.09131674, -0.69317764, 0.106002435, -0.012187268, 6.1996904E-4, 0.098142624, 0
281, 751162272, 0.70703995, 0.091372326, -0.69317955, 0.10605989, 0.015345058, 0.00993163, 0.088217735, 0
282, 751178939, 0.70704216, 0.091319926, -0.6931919, 0.106009185, 0.0024944046, 0.020051012, 0.08714008, 0
283, 751195606, 0.7070497, 0.09133008, -0.6931819, 0.10601636, -0.014776888, 0.0058477693, 0.08514309, 0
284, 751212273, 0.70704633, 0.091362104, -0.6931766, 0.10604557, -0.0012118872, -0.0106912395, 0.104771614, 0
285, 751228940, 0.70705205, 0.09132362, -0.6931838, 0.10599395, 0.0012954811, 2.855378E-5, 0.095103264, 0
286, 751245607, 0.7070702, 0.09118654, -0.69320744, 0.10583639, -0.0040831347, 0.01650917, 0.08773041, 0
287, 751262274, 0.70706433, 0.091230154, -0.69320023, 0.105885066, -0.0070764204, 0.0053504533, 0.08584404, 0
288, 751278941, 0.70706, 0.09124305, -0.6932016, 0.10589477, 0.008165822, 0.0054494133, 0.09353542, 0
289, 751295608, 0.70705366, 0.091306664, -0.6931907, 0.10595317, 0.0038582806, 0.012111887, 0.083343506, 0
290, 751312275, 0.707057, 0.09130568, -0.69318646, 0.105959125, -0.013116634, -0.0017430099, 0.091893196, 0
291, 751328942, 0.7070649, 0.09126049, -0.6931917, 0.10591038, -0.015863162, -0.009313729, 0.08515644, 0
292, 751345609, 0.7070624, 0.09126813, -0.6931919, 0.105919264, 0.0028873403, 0.0117317485, 0.09703922, 0
293, 751362276, 0.7070661, 0.09123607, -0.69319886, 0.10587695, 0.013599869, 0.023223722, 0.08916092, 0
294, 751378943, 0.70706576, 0.09127204, -0.69318867, 0.10591522, -0.010974039, -0.004903483, 0.090678215, 0
295, 751395610, 0.7070469, 0.09137377, -0.69317937, 0.106013134, -0.0366673, -0.02405765, 0.08650303, 0
296, 751412277, 0.70703715, 0.091388896, -0.6931868, 0.1060176, -0.02359805, -0.0019792072, 0.08670235, 0
297, 751428944, 0.7070111, 0.09147482, -0.6931896, 0.106097914, 0.002052743, -0.0042980984, 0.08863163, 0
298, 751445611, 0.7070053, 0.09148982, -0.6931912, 0.106114194, 0.006000876, 0.0016415908, 0.07375431, 0
299, 751462278, 0.7070046, 0.09149464, -0.6931893, 0.10612677, 0.016729945, -0.0016311416, 0.08829975, 0
300, 751478945, 0.70702124, 0.09141424, -0.69319355, 0.10605702, -0.0032400438, -0.009924534, 0.07944584, 0
301, 751495612, 0.70702124, 0.09138946, -0.6931996, 0.10603931, -0.004661139, -0.013091377, 0.078475, 0
302, 751512279, 0.70702684, 0.09133603, -0.69320744, 0.105996884, -0.005932928, 0.0044668503, 0.077251434, 0
303, 751528946, 0.70700794, 0.0914758, -0.6931866, 0.10613867, -2.4005292E-4, 0.012300141, 0.102965355, 0
304, 751545613, 0.70701075, 0.091485485, -0.69318056, 0.10615113, 0.0015413454, 0.013110376, 0.0869236, 0
305, 751562280, 0.7070153, 0.091517076, -0.6931677, 0.106177665, 0.0011166708, 0.009109885, 0.09959793, 0
306, 751578947, 0.7070069, 0.09153533, -0.6931713, 0.10619408, -0.03043576, -0.018105052, 0.09337902, 0
307, 751595614, 0.70700747, 0.09150065, -0.69317913, 0.10616894, -0.0027098712, -0.005636829, 0.105187416, 0
308, 751612281, 0.7070069, 0.09149165, -0.69318026, 0.10617322, 0.004533737, 0.0018367177, 0.09212685, 0
309, 751628948, 0.70700055, 0.091523424, -0.6931788, 0.10619757, 0.021610126, 0.0098704435, 0.07432842, 0
310, 751645615, 0.70700604, 0.091520846, -0.69317263, 0.106203675, -0.0027939118, 0.0013296786, 0.079325676, 0
311, 751662282, 0.7070059, 0.0914852, -0.693184, 0.10616, -0.0061640404, -0.0025560383, 0.1016655, 0
312, 751678949, 0.70701396, 0.09146544, -0.69318074, 0.106145166, -0.007804625, -0.004192209, 0.08275223, 0
313, 751695616, 0.70700264, 0.09146938, -0.6931913, 0.10614927, 0.0058873314, -0.007447452, 0.09223747, 0
314, 751712283, 0.70700115, 0.09148037, -0.69318926, 0.10616225, 0.021335205, 0.004288487, 0.105134964, 0
315, 751728950, 0.70699966, 0.091480464, -0.6931927, 0.10614943, 0.009429118, 0.0041900855, 0.06911945, 0
316, 751745617, 0.7069981, 0.0915009, -0.69318676, 0.10618069, -0.011959732, 0.015177424, 0.08263588, 0
317, 751762284, 0.7069931, 0.091511324, -0.6931911, 0.106176496, -0.005911471, 0.00566678, 0.094610214, 0
318, 751778951, 0.706983, 0.09151482, -0.6932015, 0.10617326, 0.0088980505, 0.010762037, 0.08657932, 0
319, 751795618, 0.70698535, 0.09150102, -0.69320214, 0.10616584, 0.0031703077, 0.015274038, 0.09358883, 0
320, 751812285, 0.7069986, 0.091424115, -0.6932099, 0.10609331, 0.0055301576, 0.0055597173, 0.092508316, 0
321, 751828952, 0.70699084, 0.091481194, -0.69320184, 0.10614826, -0.007833682, 0.015693292, 0.091483116, 0
322, 751845619, 0.706994, 0.09142556, -0.69321346, 0.10609858, -5.5654725E-4, -0.0033972294, 0.08149147, 0
323, 751862286, 0.7069796, 0.09147351, -0.6932144, 0.10614639, 0.002930702, -5.810778E-4, 0.077890396, 0
324, 751878953, 0.70697737, 0.09147082, -0.69321823, 0.10613903, 0.007624027, -0.0053057508, 0.089120865, 0
325, 751895620, 0.7069906, 0.09138862, -0.6932267, 0.106066264, -0.014114396, 0.007815968, 0.08352852, 0
326, 751912287, 0.70698535, 0.09136244, -0.69323784, 0.10605185, -0.006592738, 0.0076568834, 0.08868122, 0
327, 751928954, 0.7069899, 0.09135272, -0.6932374, 0.10603283, -0.004731322, 0.00436152, 0.08583069, 0
328, 751945621, 0.70697415, 0.09142429, -0.69323236, 0.10610977, -4.7071828E-4, -0.010899441, 0.08847141, 0
329, 751962288, 0.70697397, 0.09141828, -0.6932341, 0.10610389, 0.012527901, -0.004434441, 0.09203911, 0
330, 751978955, 0.7069655, 0.09148693, -0.69322103, 0.10618656, -0.0042690975, 0.005509818, 0.08361721, 0
331, 751995622, 0.7069593, 0.09148733, -0.6932278, 0.10618345, -0.008439402, 0.0043350896, 0.08992672, 0
332, 752012289, 0.70695204, 0.09155931, -0.6932161, 0.1062462, -0.0144671, -0.0150945, 0.089328766, 0
333, 752028956, 0.70694673, 0.09155386, -0.69322306, 0.10624133, -0.020748261, -0.0035009393, 0.09304619, 0
334, 752045623, 0.7069371, 0.09159904, -0.6932197, 0.1062877, 0.014572151, 0.0036900314, 0.078959465, 0
335, 752062290, 0.7069485, 0.09151221, -0.69323367, 0.10619626, -0.010511368, -0.0018120195, 0.08555412, 0
336, 752078957, 0.70695186, 0.09149974, -0.6932314, 0.10619881, -6.535519E-4, 0.0038541458, 0.0873909, 0
337, 752095624, 0.7069548, 0.091516085, -0.6932234, 0.10621647, 0.0055082534, 4.940754E-4, 0.08353138, 0
338, 752112291, 0.7069572, 0.091509596, -0.693225, 0.10619646, -0.011050927, -0.0050180336, 0.097335815, 0
339, 752128958, 0.70695746, 0.091502436, -0.69322854, 0.10617758, 0.0133946845, -0.004495404, 0.092858315, 0
340, 752145625, 0.7069469, 0.09150952, -0.6932386, 0.10617611, -0.003209199, -0.005248699, 0.09126377, 0
341, 752162292, 0.70694804, 0.09152524, -0.6932341, 0.10618452, 0.008331669, 0.022549216, 0.09272289, 0
342, 752178959, 0.7069547, 0.09152421, -0.6932286, 0.1061763, -0.012140777, 0.005181589, 0.077334404, 0
343, 752195626, 0.7069536, 0.091497436, -0.69323707, 0.106151804, -0.009764834, 0.0032166308, 0.096616745, 0
344, 752212293, 0.7069461, 0.09149548, -0.69324243, 0.10616923, -0.0065489295, -0.0014008675, 0.102274895, 0
345, 752228960, 0.70693016, 0.091550715, -0.6932422, 0.1062285, 0.010601667, 0.00978305, 0.08048153, 0
346, 752245627, 0.70692974, 0.0915594, -0.6932395, 0.10624111, 0.014431338, -0.010104015, 0.088443756, 0
347, 752262294, 0.7069339, 0.091487035, -0.69325715, 0.10616176, 0.007891349, 0.020647345, 0.09323788, 0
348, 752278961, 0.70693755, 0.091491535, -0.69324994, 0.106179476, -0.018328063, -0.002799444, 0.09589672, 0
349, 752295628, 0.70694524, 0.09145792, -0.69325024, 0.10615533, -0.020788046, -2.7262993E-4, 0.10013962, 0
350, 752312295, 0.70693237, 0.091492265, -0.6932538, 0.1061877, -0.00570271, 0.0011593617, 0.07546234, 0
351, 752328962, 0.70692843, 0.091496855, -0.69325453, 0.1062069, 0.002430033, 0.005945724, 0.09435463, 0
352, 752345629, 0.7069163, 0.091551445, -0.69325376, 0.10624535, 0.0023352634, -0.002626389, 0.091115, 0
353, 752362296, 0.70692325, 0.09153496, -0.6932499, 0.10623785, -0.010210519, 0.017778667, 0.090369225, 0
354, 752378963, 0.7069184, 0.09151869, -0.69325876, 0.10622625, -0.0053513474, 0.008120058, 0.090159416, 0
355, 752395630, 0.7069155, 0.09151516, -0.6932627, 0.10622284, 0.009733989, -0.0016619306, 0.102365494, 0
356, 752412297, 0.7069089, 0.091510236, -0.69326854, 0.106232345, 0.013108141, 0.0067333835, 0.08845043, 0
357, 752428964, 0.7069054, 0.091558926, -0.69325876, 0.10627818, -8.171634E-4, 1.4528342E-5, 0.09160328, 0
358, 752445631, 0.7069053, 0.091614045, -0.69324166, 0.106342666, -0.019978482, -0.0025155824, 0.09597492, 0
359, 752462298, 0.707028, 0.091694824, -0.69310033, 0.106378414, -0.0029745104, 0.007685549, 0.09719467, 0
360, 752478965, 0.7070425, 0.091599815, -0.6931103, 0.106299, 0.006584692, 0.0064267796, 0.08307934, 0
361, 752495632, 0.7070549, 0.09150359, -0.693124, 0.106210366, -0.010674532, 0.0037702166, 0.081873894, 0
362, 752512299, 0.70705813, 0.09150178, -0.6931209, 0.10621077, 0.025235955, 0.0033830921, 0.09948158, 0
363, 752528966, 0.70705795, 0.091506146, -0.6931202, 0.10621244, -0.0088725705, 0.006400573, 0.08851528, 0
364, 752545633, 0.70705754, 0.091538005, -0.693111, 0.10624748, 0.016597625, 0.0013360487, 0.09418678, 0
365, 752562300, 0.7070511, 0.09157056, -0.69310915, 0.106275015, -0.012173857, -0.007018251, 0.083109856, 0
366, 752578967, 0.70704055, 0.09160338, -0.69311166, 0.10630033, -0.007782274, -0.0029098592, 0.08991337, 0
367, 752595634, 0.7070469, 0.09156315, -0.6931176, 0.10625406, 0.0030062492, -0.0049055507, 0.086024284, 0
368, 752612301, 0.70704645, 0.09154641, -0.69312215, 0.106241815, -0.0011850657, 0.010410898, 0.09262562, 0
369, 752628968, 0.7070412, 0.09162052, -0.6931073, 0.10630994, 0.015588688, 0.020087669, 0.09576893, 0
370, 752645635, 0.7070363, 0.09163003, -0.69311047, 0.10631346, 0.005729084, 0.015232966, 0.08978653, 0
371, 752662302, 0.707042, 0.09158162, -0.6931156, 0.10628377, -0.0021117504, -0.005369005, 0.09135437, 0
372, 752678969, 0.70704603, 0.09158573, -0.6931106, 0.106285684, 0.010910561, 0.005501548, 0.09395599, 0
373, 752695636, 0.7070441, 0.09160288, -0.69310987, 0.10628844, -0.009678111, -0.008349494, 0.08844566, 0
374, 752712303, 0.7070395, 0.091635495, -0.6931061, 0.1063154, 0.015017388, 0.0019859686, 0.09597969, 0
375, 752728970, 0.7070348, 0.091653846, -0.6931071, 0.106324404, -0.009232426, 0.0014440613, 0.090423584, 0
376, 752745637, 0.70701176, 0.09179416, -0.6930906, 0.106464885, 0.0085958615, 0.013939218, 0.087408066, 0
377, 752762304, 0.7069964, 0.09188859, -0.69308025, 0.106552154, -0.018340131, 0.0110578565, 0.087088585, 0
378, 752778971, 0.7070166, 0.09182805, -0.69307625, 0.1064958, 6.633864E-4, 0.005132081, 0.084275246, 0
379, 752795638, 0.70700383, 0.0918969, -0.6930683, 0.106573224, 0.016352655, 0.007177001, 0.09686375, 0
380, 752812305, 0.7070111, 0.091863915, -0.6930703, 0.106540814, -0.0019101417, -0.0036238714, 0.09406376, 0
381, 752828972, 0.70701134, 0.09186864, -0.69306743, 0.10655296, 0.014207377, -0.0027616702, 0.090600014, 0
382, 752845639, 0.7070193, 0.09187809, -0.6930567, 0.10656237, 0.026203318, -0.0017967648, 0.08690071, 0
383, 752862306, 0.70703304, 0.091884166, -0.69304025, 0.10657371, -0.013653065, -4.5110504E-4, 0.08634758, 0
384, 752878973, 0.7070364, 0.09188309, -0.6930387, 0.106562465, 0.004680808, -0.0025775514, 0.08395386, 0
385, 752895640, 0.707037, 0.0918967, -0.69303507, 0.10656979, -0.010633405, -5.986795E-4, 0.09249878, 0
386, 752912307, 0.70704305, 0.091838546, -0.69304496, 0.106514975, 0.028483598, -0.0034476314, 0.09205723, 0
387, 752928974, 0.70704246, 0.09189117, -0.693029, 0.106577866, -0.0040518427, -0.0029364573, 0.08841133, 0
388, 752945641, 0.7070402, 0.09189718, -0.6930296, 0.10658371, 0.014202461, -0.008832674, 0.096302986, 0
389, 752962308, 0.7070345, 0.0919007, -0.6930333, 0.10659461, -0.019479154, 0.0024910518, 0.08823681, 0
390, 752978975, 0.7070308, 0.091922276, -0.69303256, 0.10660491, 0.0061327484, 0.00896544, 0.09510994, 0
391, 752995642, 0.70703137, 0.09192269, -0.6930326, 0.10660033, 0.012058971, 0.02261046, 0.09185505, 0
392, 753012309, 0.70702827, 0.091970935, -0.6930217, 0.106650494, -0.01200354, -0.009561493, 0.08451557, 0
393, 753028976, 0.7070288, 0.09199461, -0.6930136, 0.1066784, 0.0018649921, 0.011081437, 0.08506489, 0
394, 753045643, 0.7070345, 0.092000805, -0.69300604, 0.10668506, 0.0045265844, -0.013412286, 0.09345341, 0
395, 753062310, 0.70703095, 0.09198979, -0.69301325, 0.10667156, -0.018721445, -8.4264384E-4, 0.08942604, 0
396, 753078977, 0.7070358, 0.0919943, -0.6930083, 0.106667645, 0.022902032, 0.0010576634, 0.094062805, 0
397, 753095644, 0.70703727, 0.092027165, -0.69299763, 0.10669841, 0.0022293183, -0.009690069, 0.08450413, 0
398, 753112311, 0.7070619, 0.091906026, -0.69300747, 0.10657608, -0.016322704, 0.005851066, 0.09137249, 0
399, 753128978, 0.707056, 0.09194865, -0.6930011, 0.106620066, 0.007523893, 0.005866712, 0.08290577, 0
400, 753145645, 0.7070538, 0.09196768, -0.69299734, 0.106643185, 0.010758125, 0.008817195, 0.110547066, 0
401, 753162312, 0.7070616, 0.091911905, -0.69300455, 0.106592104, 0.006733998, 0.007826138, 0.07941532, 0
402, 753178979, 0.70706236, 0.091906175, -0.6930046, 0.10659161, 0.0030867138, 0.013890548, 0.07773495, 0
403, 753195646, 0.70706046, 0.09192701, -0.69300145, 0.10660668, 0.0062892074, -0.014678934, 0.09730244, 0
404, 753212313, 0.7070679, 0.09186271, -0.6930099, 0.10655762, -0.016023643, -0.0022586542, 0.10549736, 0
405, 753228980, 0.707066, 0.09186926, -0.6930108, 0.106558405, 0.0035775483, -0.002109683, 0.10349178, 0
406, 753245647, 0.70706594, 0.091889516, -0.6930057, 0.106575355, -0.020756308, 0.0016189043, 0.09962845, 0
407, 753262314, 0.70707685, 0.09184088, -0.6930096, 0.106518775, 0.00837503, 0.0062929513, 0.10015392, 0
408, 753278981, 0.70708317, 0.0918256, -0.6930065, 0.10651062, 0.019333871, 0.012952352, 0.10848045, 0
409, 753295648, 0.70708776, 0.09181681, -0.6930041, 0.10650426, -0.0024631128, -0.0036103488, 0.099022865, 0
410, 753312315, 0.7070837, 0.091835946, -0.6930041, 0.10651327, 0.0041488474, -0.003914103, 0.086936, 0
411, 753328982, 0.7070703, 0.091852516, -0.6930146, 0.10651972, 0.0066816965, 0.007271938, 0.076963425, 0
412, 753345649, 0.70704955, 0.091953136, -0.6930085, 0.106610894, -0.008825633, 0.01343419, 0.09207249, 0
413, 753362316, 0.7070573, 0.09188291, -0.6930202, 0.10654362, 0.027665539, 0.008656042, 0.08019161, 0
414, 753378983, 0.70705676, 0.09188041, -0.6930189, 0.10655743, 0.008900733, 2.1457243E-5, 0.088150024, 0
415, 753395650, 0.70705473, 0.09188458, -0.6930177, 0.106574744, 0.0016611483, -0.007844076, 0.09627628, 0
416, 753412317, 0.7070579, 0.091864556, -0.6930196, 0.10655967, -0.011532822, -0.0016180662, 0.07556534, 0
417, 753428984, 0.7070524, 0.09185889, -0.6930261, 0.10655726, 9.874803E-4, 0.0023637053, 0.071715355, 0
418, 753445651, 0.70705414, 0.091837145, -0.693033, 0.106521025, 0.023795636, 0.012676593, 0.08879471, 0
419, 753462318, 0.7070628, 0.091804124, -0.6930337, 0.106487185, 0.012362055, -6.777472E-4, 0.09708023, 0
420, 753478985, 0.70706457, 0.09178541, -0.69303864, 0.10645919, 0.015278451, -0.006643308, 0.07927418, 0
421, 753495652, 0.70709074, 0.09161488, -0.6930606, 0.10629045, -0.0111018885, 0.0060498253, 0.083844185, 0
422, 753512319, 0.7070875, 0.09158984, -0.6930704, 0.10626916, -0.011940509, 0.0053925854, 0.09716606, 0
423, 753528986, 0.70706546, 0.091682576, -0.6930641, 0.106376424, 0.015403172, 0.0072299177, 0.07929039, 0
424, 753545653, 0.7070719, 0.09167099, -0.69306326, 0.106349915, 0.015470672, 0.01784047, 0.0817709, 0
425, 753562320, 0.70706713, 0.09171767, -0.69305336, 0.10640482, -0.017518498, -0.010248739, 0.08990097, 0
426, 753578987, 0.7070676, 0.09173009, -0.693051, 0.10640725, -0.027305683, -0.0021709255, 0.08314705, 0
427, 753595654, 0.70705366, 0.091812596, -0.6930414, 0.106490165, -5.726402E-4, -0.012276393, 0.09270859, 0
428, 753612321, 0.70704114, 0.09185053, -0.6930419, 0.106537506, -0.0036772352, 0.005754788, 0.08829117, 0
429, 753628988, 0.70703644, 0.09185075, -0.69304377, 0.10655632, 0.0056329737, 0.008423141, 0.08362007, 0
430, 753645655, 0.70704406, 0.091867, -0.69303006, 0.10658101, 0.012985656, 0.0077853473, 0.09634495, 0
431, 753662322, 0.7070288, 0.091929935, -0.69302756, 0.10664347, -0.010811321, 4.4702592E-5, 0.0829916, 0
432, 753678989, 0.70701766, 0.091995575, -0.6930214, 0.106701955, -0.008386206, 0.003282679, 0.08800602, 0
433, 753695656, 0.7070135, 0.0920225, -0.69301623, 0.10673952, -0.011326742, 0.0024685888, 0.088947296, 0
434, 753712323, 0.70700943, 0.09203009, -0.69301796, 0.106749505, 0.013208722, 0.025364082, 0.08752823, 0
435, 753728990, 0.7070027, 0.092057146, -0.69301575, 0.10678375, 0.0064277854, 0.0070362994, 0.0855732, 0
436, 753745657, 0.70699465, 0.09211501, -0.69300675, 0.10684584, -0.0052816113, -0.013825171, 0.09096718, 0
437, 753762324, 0.7069926, 0.09210483, -0.69301146, 0.106837675, -0.0027322224, -0.0055784923, 0.08841133, 0
438, 753778991, 0.7069903, 0.092129655, -0.69300735, 0.10685855, 0.010961075, 0.0030313944, 0.078074455, 0
439, 753795658, 0.70699215, 0.09213081, -0.6930053, 0.10685815, 3.8176012E-4, -7.479302E-4, 0.08616161, 0
440, 753812325, 0.70700264, 0.09211581, -0.69299895, 0.1068431, -0.0046155425, 0.004935166, 0.07280636, 0
441, 753828992, 0.7069966, 0.09213832, -0.69299996, 0.10685654, -9.418836E-4, -0.0032339531, 0.06936836, 0
442, 753845659, 0.7070022, 0.09213346, -0.6929958, 0.10685107, -0.0029047744, -0.011987223, 0.09164047, 0
443, 753862326, 0.7069991, 0.09214094, -0.69299716, 0.106856056, 0.01210278, 0.0013223026, 0.09182167, 0
444, 753878993, 0.70699114, 0.09217565, -0.69299465, 0.10689507, 0.022160415, 0.006488246, 0.09378815, 0
445, 753895660, 0.706991, 0.09219153, -0.6929903, 0.10691083, -0.0046508578, 0.0023728136, 0.08904362, 0
446, 753912327, 0.7069957, 0.09218605, -0.6929854, 0.10691521, -0.0056392318, 0.0076256474, 0.08812523, 0
447, 753928994, 0.7070025, 0.092115484, -0.69299895, 0.106843546, -0.012393793, 0.0026310827, 0.09223747, 0
448, 753945661, 0.7069905, 0.09211026, -0.6930129, 0.10683725, 0.012055395, 0.0038619686, 0.08783531, 0
449, 753962328, 0.7069899, 0.09208777, -0.6930207, 0.106810436, -0.012935142, 0.0031588527, 0.08830547, 0
450, 753978995, 0.7069937, 0.09210029, -0.6930158, 0.10680667, 0.0061819213, -5.325196E-4, 0.08481407, 0
451, 753995662, 0.70698506, 0.09213704, -0.6930142, 0.1068416, 0.017732177, 0.0072355615, 0.08668518, 0
452, 754012329, 0.7069818, 0.092155546, -0.69301254, 0.10685845, -0.014518955, 0.0045826305, 0.080391884, 0
453, 754028996, 0.7069761, 0.09215945, -0.6930185, 0.10685427, 0.0059458916, -0.005425777, 0.082016945, 0
454, 754045663, 0.7069778, 0.09218847, -0.6930091, 0.10687945, 0.013991017, 0.0065352395, 0.087179184, 0
455, 754062330, 0.7069768, 0.0922134, -0.6930041, 0.10689676, 0.0015078183, -0.004698522, 0.085980415, 0
456, 754078997, 0.70697707, 0.092232406, -0.69299823, 0.10691648, -0.013889989, -0.004648399, 0.094548225, 0
457, 754095664, 0.7069759, 0.09228378, -0.6929844, 0.10696897, -0.009314232, 0.0017945855, 0.08388424, 0
458, 754112331, 0.70697135, 0.09228697, -0.6929875, 0.10697672, -0.017083095, -0.013904909, 0.09547043, 0
459, 754128998, 0.70695376, 0.09236458, -0.6929837, 0.10705023, -0.017122433, -0.004032062, 0.08436012, 0
460, 754145665, 0.7069589, 0.09233699, -0.69298613, 0.107024245, -0.012980292, 0.002966967, 0.08930683, 0
461, 754162332, 0.70696247, 0.09230222, -0.6929906, 0.10700151, 0.002468924, 0.014113949, 0.08509922, 0
462, 754178999, 0.7069733, 0.09230311, -0.69297814, 0.10700975, -5.234673E-4, 0.010998402, 0.0874424, 0
463, 754195666, 0.70696056, 0.09230638, -0.6929897, 0.1070163, 0.0011189058, 0.002321629, 0.09139156, 0
464, 754212333, 0.7069582, 0.0923873, -0.69296885, 0.10709789, 0.008525678, 0.006406384, 0.08684158, 0
465, 754229000, 0.7069653, 0.0924049, -0.6929571, 0.10711193, -0.008653081, -0.010869323, 0.077952385, 0
466, 754245667, 0.70696074, 0.09247314, -0.6929404, 0.10719159, 0.009516288, 0.019426182, 0.0748806, 0
467, 754262334, 0.7069611, 0.09247891, -0.69293785, 0.107199565, -6.991485E-4, 0.007666997, 0.08971977, 0
468, 754279001, 0.7069593, 0.09245799, -0.69294524, 0.10718234, 0.015889537, 0.008671744, 0.09558296, 0
469, 754295668, 0.70696247, 0.09245981, -0.69294053, 0.10719042, 0.0038310122, 0.0014822821, 0.08063698, 0
470, 754312335, 0.706965, 0.09241314, -0.6929507, 0.107147925, -0.023982493, -0.011708447, 0.074832916, 0
471, 754329002, 0.70696056, 0.09242186, -0.6929539, 0.10714885, -0.005793903, 0.01143699, 0.08875942, 0
472, 754345669, 0.7069472, 0.09249634, -0.69294673, 0.10721945, -0.0057183555, -0.004964614, 0.08189297, 0
473, 754362336, 0.70694876, 0.0924503, -0.6929585, 0.107173055, -0.004513174, 0.0012821262, 0.09448528, 0
474, 754379003, 0.70695853, 0.09240603, -0.6929601, 0.10713624, -0.0038100018, 0.002234459, 0.086974144, 0
475, 754395670, 0.7069715, 0.09236969, -0.6929557, 0.107110426, 0.0057062856, -0.008908779, 0.08130741, 0
476, 754412337, 0.7069808, 0.09233268, -0.6929583, 0.107064, -0.018818002, -0.008355473, 0.100214005, 0
477, 754429004, 0.70697737, 0.09233607, -0.69295985, 0.1070738, 0.011577077, 0.009843175, 0.08308792, 0
478, 754445671, 0.7069853, 0.09233156, -0.6929522, 0.107073955, 0.023699973, 0.011270808, 0.08161163, 0
479, 754462338, 0.7069443, 0.092397906, -0.69298273, 0.10709082, 0.0018426408, -0.0056518046, 0.08926582, 0
480, 754479005, 0.7069385, 0.09241415, -0.69298416, 0.107106134, 0.016185021, -0.010538077, 0.1037941, 0
481, 754495672, 0.70693594, 0.09242564, -0.6929841, 0.10711289, -0.0024032113, -0.011614124, 0.08228874, 0
482, 754512339, 0.70693326, 0.09245029, -0.69298035, 0.10713379, 0.00442198, 0.014331092, 0.08208561, 0
483, 754529006, 0.70692885, 0.09245275, -0.6929854, 0.10712845, -0.008100109, -0.014685416, 0.07735157, 0
484, 754545673, 0.7069254, 0.09247462, -0.69298214, 0.107152686, -0.0024023172, -0.01161161, 0.08297539, 0
485, 754562340, 0.70692074, 0.09247734, -0.69298655, 0.10715267, 0.013931115, -0.004006246, 0.09325504, 0
486, 754579007, 0.7069305, 0.09243357, -0.692989, 0.10711052, -0.026743772, -0.006489978, 0.091817856, 0
487, 754595674, 0.70693123, 0.09243785, -0.6929864, 0.10711866, 0.008709853, -0.0067177936, 0.08732128, 0
488, 754612341, 0.7069289, 0.09240326, -0.6929973, 0.10709295, -0.012898932, -0.007771266, 0.08293247, 0
489, 754629008, 0.7069258, 0.09244697, -0.69298714, 0.10714146, 0.009503771, 0.0077594197, 0.09706402, 0
490, 754645675, 0.7069342, 0.0923972, -0.69299054, 0.107107654, -0.010788077, -0.0044765733, 0.0913353, 0
491, 754662342, 0.70692766, 0.092401996, -0.69299364, 0.10712657, 0.022259654, -0.0010387206, 0.08536148, 0
492, 754679009, 0.7069331, 0.09241838, -0.6929834, 0.10714314, 0.0205319, 0.0027728458, 0.094415665, 0
493, 754695676, 0.70693296, 0.09240748, -0.6929877, 0.107124545, 0.002930255, 0.010013771, 0.09186077, 0
494, 754712343, 0.70693797, 0.09237366, -0.6929916, 0.10709496, -0.0041206847, 2.2368059E-4, 0.08712959, 0
495, 754729010, 0.70695096, 0.092322044, -0.69299257, 0.10704774, -0.0143897645, -0.0043965, 0.07831764, 0
496, 754745677, 0.70695055, 0.092348404, -0.6929849, 0.10707784, -7.827424E-4, -0.016135009, 0.09876156, 0
497, 754762344, 0.70694876, 0.09233387, -0.6929908, 0.10706428, -0.0054908195, -0.01115095, 0.09585667, 0
498, 754779011, 0.7069503, 0.09235224, -0.69298404, 0.107081994, 0.0015181, -0.0048490018, 0.08792114, 0
499, 754795678, 0.7069559, 0.09231284, -0.69299155, 0.10703031, -0.0024421026, -0.004262336, 0.101421356, 0
500, 754812345, 0.7069603, 0.09231984, -0.6929864, 0.107027836, 0.008536407, 0.008267353, 0.07798195, 0
501, 754829012, 0.7069619, 0.092323415, -0.69298285, 0.10703722, -0.0011805955, 7.169178E-4, 0.09630585, 0
502, 754845679, 0.70697135, 0.092255585, -0.6929917, 0.10697621, 0.006001323, -0.0057258434, 0.09407997, 0
503, 754862346, 0.7069604, 0.092308484, -0.6929864, 0.107037164, -0.0088681, 5.810778E-4, 0.088303566, 0
504, 754879013, 0.70695615, 0.09232933, -0.6929854, 0.10705412, 0.008271768, 0.0024547311, 0.091835976, 0
505, 754895680, 0.7069535, 0.09235569, -0.69298023, 0.10708174, -0.010777348, -0.0013594617, 0.09783459, 0
506, 754912347, 0.7069599, 0.092359915, -0.6929727, 0.10708457, -0.012792988, -0.002236694, 0.08677864, 0
507, 754929014, 0.70695883, 0.092351094, -0.6929758, 0.10707934, 0.007240479, 0.003626833, 0.08975983, 0
508, 754945681, 0.7069487, 0.09239355, -0.69297564, 0.10711119, 0.010382623, 0.0034793704, 0.07915592, 0
509, 754962348, 0.7069477, 0.09240993, -0.69297147, 0.107130565, -0.0050938604, -0.0093369745, 0.08464527, 0
510, 754979015, 0.70694774, 0.0923821, -0.6929784, 0.10710949, -0.024252497, 0.01318162, 0.08690548, 0
511, 754995682, 0.7069491, 0.092359014, -0.6929856, 0.107074134, -0.003555644, 0.004837044, 0.08783436, 0
512, 755012349, 0.7069497, 0.09234204, -0.69299024, 0.10705481, 0.0035328458, -0.0116483215, 0.08994484, 0
513, 755029016, 0.7069565, 0.09233088, -0.6929858, 0.107048646, 0.02320288, -0.010509021, 0.08110714, 0
514, 755045683, 0.7069571, 0.09233579, -0.69298285, 0.10705861, 0.026624864, 7.22338E-4, 0.09320545, 0
515, 755062350, 0.7069618, 0.092312396, -0.6929848, 0.10703419, -0.007949909, 8.5834565E-4, 0.09628582, 0
516, 755079017, 0.7069612, 0.092290714, -0.69299394, 0.106998906, -0.008471141, -0.011063053, 0.06890488, 0
517, 755095684, 0.70695454, 0.09229045, -0.69300145, 0.10699484, -0.004918179, 0.004630406, 0.09684086, 0
518, 755112351, 0.7069457, 0.09230696, -0.6930044, 0.107019424, 0.0062847375, -0.01009379, 0.07566357, 0
519, 755129018, 0.70695835, 0.09228469, -0.69299763, 0.10699875, -0.0012333444, -0.011564672, 0.08577347, 0
520, 755145685, 0.70696646, 0.09226655, -0.69299483, 0.10697849, -0.0045288196, -0.003022007, 0.08348656, 0
521, 755162352, 0.70696366, 0.092294, -0.6929899, 0.10700564, -0.010043778, 0.008693816, 0.08378029, 0
522, 755179019, 0.7069678, 0.09228257, -0.6929885, 0.10699758, 0.004570393, 0.012844005, 0.09014225, 0
523, 755195686, 0.70696485, 0.092281945, -0.6929908, 0.1070032, -0.007487684, -0.01528823, 0.08749008, 0
524, 755212353, 0.70696026, 0.09230625, -0.69298846, 0.10702672, 0.0086968895, 0.0050661447, 0.088318825, 0
525, 755229020, 0.7069577, 0.092320874, -0.6929857, 0.10704934, -9.937386E-4, 0.0017743576, 0.08787346, 0
526, 755245687, 0.706953, 0.09233632, -0.69298464, 0.10707395, -9.566355E-5, 0.020905893, 0.082613945, 0
527, 755262354, 0.70694786, 0.09234303, -0.6929867, 0.10708839, 0.014244481, 0.016640484, 0.08041382, 0
528, 755279021, 0.7069371, 0.09239139, -0.69298464, 0.1071319, -0.0025440245, -0.010202304, 0.08222389, 0
529, 755295688, 0.706933, 0.09238714, -0.6929875, 0.10714342, 0.026527412, -9.0623327E-4, 0.068834305, 0
530, 755312355, 0.7069388, 0.09238182, -0.69298273, 0.107140556, -0.028427271, 0.003763958, 0.09083748, 0
531, 755329022, 0.7069406, 0.09236905, -0.69298345, 0.10713485, -0.01626638, -0.0019780337, 0.10312939, 0
532, 755345689, 0.7069389, 0.092386976, -0.69298065, 0.107148536, -0.010595408, 0.004253675, 0.09436798, 0
533, 755362356, 0.70693076, 0.092406295, -0.6929821, 0.10717652, 0.005244508, 0.002480435, 0.08696365, 0
534, 755379023, 0.70692605, 0.092450105, -0.6929755, 0.10721272, -0.008115308, 9.106477E-4, 0.08197975, 0
535, 755395690, 0.70692825, 0.09246302, -0.69296855, 0.10723233, -0.0040397733, -0.00891392, 0.0777235, 0
536, 755412357, 0.70694363, 0.09241889, -0.69296736, 0.10717697, -0.003723726, -0.008520872, 0.08767414, 0
537, 755429024, 0.70694494, 0.09241161, -0.6929672, 0.1071754, 8.261039E-4, 0.011447943, 0.0953064, 0
538, 755445691, 0.7069348, 0.092465125, -0.69296145, 0.107233025, -0.013140326, 0.012335066, 0.08649826, 0
539, 755462358, 0.7069335, 0.092466295, -0.6929612, 0.107241936, -0.00148502, -0.0069571203, 0.09138489, 0
540, 755479025, 0.70693487, 0.092479855, -0.69295585, 0.10725586, 0.005417507, -0.013392449, 0.08895588, 0
541, 755495692, 0.70692223, 0.092523985, -0.6929544, 0.10731062, -0.009989241, -0.00772919, 0.08431816, 0
542, 755512359, 0.7069188, 0.09250824, -0.6929639, 0.10728518, 7.9257693E-4, 0.007550882, 0.08634281, 0
543, 755529026, 0.70692074, 0.09252112, -0.69296, 0.10728609, 0.01064324, 0.0063365363, 0.094246864, 0
544, 755545693, 0.706925, 0.09251826, -0.6929566, 0.10728259, 0.0042328886, 0.015178542, 0.08390331, 0
545, 755562360, 0.70693284, 0.092525505, -0.69294715, 0.1072859, 0.004938295, -0.0019578058, 0.09413147, 0
546, 755579027, 0.7069416, 0.09247024, -0.69295603, 0.10721781, -0.012005775, -0.020901814, 0.10472965, 0
547, 755595694, 0.70694226, 0.09245898, -0.6929613, 0.10718937, -9.342842E-4, -0.009678782, 0.073698044, 0
548, 755612361, 0.7069389, 0.09246157, -0.6929641, 0.10719189, -0.025299432, -0.003793015, 0.08215809, 0
549, 755629028, 0.7069404, 0.09246075, -0.69295967, 0.10721156, 0.005224839, 0.015637469, 0.0930872, 0
550, 755645695, 0.70694274, 0.09245288, -0.6929592, 0.10720576, -0.007381292, 0.0013323049, 0.09161949, 0
551, 755662362, 0.70693386, 0.09252788, -0.6929458, 0.10728635, -0.0103969285, -0.00585766, 0.09109211, 0
552, 755679029, 0.7069382, 0.09254206, -0.6929372, 0.10730064, -0.010083564, -0.0075735687, 0.0882597, 0
553, 755695696, 0.706942, 0.0925204, -0.692939, 0.10728235, 0.02030794, -0.0057982053, 0.098324776, 0
554, 755712363, 0.7069415, 0.092572704, -0.69292593, 0.107325315, 0.009932022, -0.0068451962, 0.088461876, 0
555, 755729030, 0.70693713, 0.09258109, -0.6929306, 0.107316904, 0.012450119, 0.00790191, 0.07894707, 0
556, 755745697, 0.70693475, 0.092595614, -0.69292784, 0.10733782, -0.0077889794, 0.014078578, 0.081064224, 0
557, 755762364, 0.7069395, 0.09254285, -0.6929405, 0.10727066, 0.015874784, 0.0018452671, 0.09118271, 0
558, 755779031, 0.7069423, 0.092537984, -0.6929388, 0.10726725, 0.003901642, -0.015300803, 0.083999634, 0
559, 755795698, 0.7069418, 0.09257789, -0.69292825, 0.10730417, 0.009520758, -0.0019803247, 0.09337616, 0
560, 755812365, 0.70694256, 0.09262154, -0.69291437, 0.107350945, -0.020060735, 4.5691637E-4, 0.087322235, 0
561, 755829032, 0.7069412, 0.092613176, -0.6929201, 0.10732996, -0.02349434, -1.0326299E-4, 0.09599304, 0
562, 755845699, 0.7069309, 0.092616424, -0.6929313, 0.10732266, -0.015404513, -5.865539E-4, 0.081762314, 0
563, 755862366, 0.70692194, 0.09264717, -0.692933, 0.107343756, -0.003278488, -0.0030649772, 0.091394424, 0
564, 755879033, 0.70692855, 0.09261095, -0.6929388, 0.107294135, -0.0127894115, -0.005951312, 0.08802891, 0
565, 755895700, 0.7069342, 0.09261913, -0.6929318, 0.10729549, -4.4255564E-4, 0.014707432, 0.094781876, 0
566, 755912367, 0.70694005, 0.09259749, -0.6929342, 0.107260354, -0.0021931091, 0.0047179675, 0.09165573, 0
567, 755929034, 0.70693856, 0.09260137, -0.6929368, 0.10724989, -0.003571737, 0.014866461, 0.08271217, 0
568, 755945701, 0.7069393, 0.09260198, -0.6929363, 0.10724756, 0.021410307, 0.008074629, 0.08514786, 0
569, 755962368, 0.706941, 0.09261395, -0.6929305, 0.10726342, 0.0044179573, 0.0058605657, 0.09427929, 0
570, 755979035, 0.70693743, 0.092640296, -0.69292754, 0.107283495, -0.009588705, -0.003084479, 0.09452152, 0
571, 755995702, 0.70694697, 0.092648774, -0.69291615, 0.10728711, 0.0037872035, 0.009792773, 0.0833416, 0
572, 756012369, 0.70694745, 0.09264882, -0.6929133, 0.107301906, -0.008539983, -0.010379829, 0.098911285, 0
573, 756029036, 0.7069451, 0.09264707, -0.69291556, 0.10730441, 0.008498857, -0.002796594, 0.09260273, 0
574, 756045703, 0.70694345, 0.092653, -0.6929147, 0.107315525, -0.0017688816, -0.02579887, 0.104263306, 0
575, 756062370, 0.7069351, 0.092678316, -0.69291717, 0.107332945, -0.008013386, -0.004000044, 0.08726692, 0
576, 756079037, 0.7069366, 0.09266775, -0.692918, 0.10732702, 0.011014719, 0.0049975263, 0.08809376, 0
577, 756095704, 0.706926, 0.09268477, -0.692926, 0.10733045, 0.011019636, 0.004903204, 0.08142567, 0
578, 756112371, 0.7069227, 0.0927119, -0.69292253, 0.10735062, -0.0062234947, 0.0047774776, 0.09430218, 0
579, 756129038, 0.7069184, 0.09271702, -0.6929254, 0.107355624, 0.0031551088, -0.005099001, 0.08847046, 0
580, 756145705, 0.7069108, 0.09270244, -0.6929364, 0.10734783, 0.014269067, -0.008404814, 0.09339142, 0
581, 756162372, 0.7069096, 0.092712946, -0.6929296, 0.10738935, -0.0039932826, -0.010267347, 0.08465481, 0
582, 756179039, 0.70690167, 0.09271174, -0.6929386, 0.107385084, 6.6159834E-4, 0.001379466, 0.08439922, 0
583, 756195706, 0.7068899, 0.092745155, -0.6929387, 0.107433446, 0.001552074, 0.006207402, 0.08337021, 0
584, 756212373, 0.7068934, 0.092715904, -0.692942, 0.10741459, -0.006261045, 0.00670645, 0.090945244, 0
585, 756229040, 0.70688736, 0.09274834, -0.6929383, 0.10744956, -5.082685E-4, -0.0039031508, 0.09257507, 0
586, 756245707, 0.7068785, 0.0927823, -0.6929369, 0.10748799, -0.0022373646, 0.0011146591, 0.0849762, 0
587, 756262374, 0.7068774, 0.09277392, -0.69294053, 0.107478306, -0.0016066111, 0.012916087, 0.07835007, 0
588, 756279041, 0.70688957, 0.09268465, -0.692954, 0.10738929, -0.005781386, -0.001592474, 0.106217384, 0
589, 756295708, 0.7068848, 0.09268659, -0.6929588, 0.10738744, 0.0066852723, 0.0038839288, 0.08003235, 0
590, 756312375, 0.7068833, 0.092680894, -0.6929617, 0.107384026, -0.018662885, -0.010541486, 0.094753265, 0
591, 756329042, 0.70688564, 0.09270031, -0.6929543, 0.10739945, 5.149738E-4, 1.6539959E-4, 0.082102776, 0
592, 756345709, 0.706889, 0.09268391, -0.69295794, 0.107369065, 0.014555611, -0.0036875168, 0.0731163, 0
593, 756362376, 0.70688134, 0.092681706, -0.6929653, 0.10737346, -0.010669167, 0.0050363615, 0.09258652, 0
594, 756379043, 0.7068755, 0.09271042, -0.6929618, 0.10740918, -3.2677595E-4, 0.019172328, 0.09092331, 0
595, 756395710, 0.7068767, 0.09272768, -0.6929562, 0.107422546, -0.019904276, 1.5310638E-4, 0.09283733, 0
596, 756412377, 0.7068736, 0.09273569, -0.69295806, 0.10742437, -9.923975E-4, -0.005799211, 0.09462929, 0
597, 756429044, 0.7068715, 0.09274888, -0.69295347, 0.10745579, 0.007350447, 0.00929054, 0.09548187, 0
598, 756445711, 0.7068766, 0.09269837, -0.6929625, 0.10740721, -0.0019731724, -0.016708376, 0.0780735, 0
599, 756462378, 0.706899, 0.092714846, -0.69293624, 0.107415885, -0.013900718, -0.0053968322, 0.08824539, 0
600, 756479045, 0.70689297, 0.09272126, -0.69294155, 0.10741617, -0.024994113, 0.01842786, 0.09438515, 0
601, 756495712, 0.7068881, 0.09271649, -0.69294804, 0.107411, 0.03039508, 0.010179786, 0.084368706, 0
602, 756512379, 0.706885, 0.09276254, -0.6929377, 0.10745812, 0.008676773, -0.005220201, 0.08220863, 0
603, 756529046, 0.7068825, 0.09278027, -0.6929341, 0.10748253, 0.034861315, 0.0048977835, 0.09053898, 0
604, 756545713, 0.70688534, 0.09278125, -0.6929289, 0.10749617, -0.010193084, -0.009759582, 0.08528614, 0
605, 756562380, 0.7068919, 0.09276724, -0.69292605, 0.107482925, -0.01874916, 0.0046720915, 0.09715843, 0
606, 756579047, 0.7068873, 0.09276077, -0.6929328, 0.107475445, -0.008828762, -0.0036335941, 0.085700035, 0
607, 756595714, 0.70688504, 0.09276231, -0.6929352, 0.10747323, 0.011174306, 0.005483164, 0.08422184, 0
608, 756612381, 0.70690036, 0.09272386, -0.6929317, 0.10742815, 0.011339259, -0.012934583, 0.0907259, 0
609, 756629048, 0.7069086, 0.09270598, -0.6929273, 0.10741823, 0.008321388, 0.0031810363, 0.089972496, 0
610, 756645715, 0.7069082, 0.092717074, -0.6929242, 0.10743147, -0.028619492, 0.0011755663, 0.08925533, 0
611, 756662382, 0.70689976, 0.09272548, -0.6929313, 0.107433364, -0.014758561, 0.020267708, 0.09508991, 0
612, 756679049, 0.7068979, 0.09270826, -0.69293684, 0.10742523, 0.013484537, 0.0012221129, 0.095419884, 0
613, 756695716, 0.70690846, 0.09264156, -0.6929444, 0.10736373, 0.0056781233, 0.009355693, 0.091529846, 0
614, 756712383, 0.7069201, 0.092624985, -0.6929369, 0.10734941, 0.0035234583, -0.011612951, 0.090016365, 0
615, 756729050, 0.70692706, 0.092611514, -0.69293296, 0.107340425, 0.0035757602, -0.001369855, 0.10043621, 0
616, 756745717, 0.70691824, 0.092660725, -0.692927, 0.10739504, -0.012649045, -0.003337216, 0.088760376, 0
617, 756762384, 0.7069243, 0.092659555, -0.69292045, 0.10739926, 0.0028632008, -2.9794278E-4, 0.09269047, 0
618, 756779051, 0.7069327, 0.09263984, -0.6929176, 0.10737949, 0.012206042, -0.0030075344, 0.09598446, 0
619, 756795718, 0.7069361, 0.09266599, -0.69290775, 0.107397035, -0.011936039, -0.014586846, 0.08909321, 0
620, 756812385, 0.7069415, 0.09266355, -0.6929026, 0.10739704, -0.022110349, -0.004428518, 0.090703964, 0
621, 756829052, 0.70693004, 0.092743926, -0.69289184, 0.10747287, -0.0013956149, -0.001624101, 0.103759766, 0
622, 756845719, 0.70693, 0.09275648, -0.69288737, 0.107490994, 0.018658862, -0.0020346385, 0.09001732, 0
623, 756862386, 0.70692873, 0.092792384, -0.69287974, 0.10751763, -0.017922163, -0.012978448, 0.09110737, 0
624, 756879053, 0.7069397, 0.09279306, -0.69286674, 0.10752842, -8.466671E-4, -0.008426438, 0.0891428, 0
625, 756895720, 0.7069451, 0.09279004, -0.69286156, 0.10752822, 0.009765281, -0.0023953884, 0.07723713, 0
626, 756912387, 0.70694613, 0.0928007, -0.6928598, 0.107524425, 6.244952E-4, -0.019420426, 0.09911442, 0
627, 756929054, 0.7069525, 0.09278524, -0.6928573, 0.10751191, 0.011844398, 0.010867032, 0.09759903, 0
628, 756945721, 0.7069566, 0.09277386, -0.69285643, 0.10750085, -0.016872546, 9.0964185E-4, 0.09698582, 0
629, 756962388, 0.70694345, 0.09283463, -0.6928529, 0.10755767, 0.017237319, 0.015397193, 0.09362507, 0
630, 756979055, 0.7069361, 0.09284104, -0.6928554, 0.107584015, -0.005403649, -0.007364584, 0.08679676, 0
631, 756995722, 0.706937, 0.09283347, -0.6928546, 0.107590474, -0.007904313, 0.0049928324, 0.08205795, 0
632, 757012389, 0.70693046, 0.092888966, -0.69284576, 0.10764141, 2.9056684E-5, -0.009791432, 0.08666992, 0
633, 757029056, 0.7069295, 0.092918284, -0.6928418, 0.10764806, 0.008816692, -1.7143444E-4, 0.09253979, 0
634, 757045723, 0.7069202, 0.09296541, -0.69283694, 0.10770006, 0.007171637, 0.008108156, 0.09802055, 0
635, 757062390, 0.70691824, 0.092993446, -0.69283116, 0.107726045, -0.015956143, 5.8867724E-4, 0.091817856, 0
636, 757079057, 0.70691544, 0.09301704, -0.6928262, 0.10775547, 0.004380407, -0.015943402, 0.08574867, 0
637, 757095724, 0.70692295, 0.09302336, -0.69281715, 0.107758746, 0.0103084175, -0.0018063199, 0.08703804, 0
638, 757112391, 0.70692515, 0.09302985, -0.6928128, 0.107766405, 0.001500219, 0.006131631, 0.09894657, 0
639, 757129058, 0.70693237, 0.0929875, -0.69281864, 0.10771844, -0.00449261, 0.019072026, 0.09350777, 0
640, 757145725, 0.7069308, 0.092979245, -0.69282234, 0.10771216, 0.012887757, -0.002261057, 0.09105396, 0
641, 757162392, 0.70692617, 0.09300025, -0.69282115, 0.107732385, 0.020771505, -0.003830174, 0.09501648, 0
642, 757179059, 0.7069243, 0.09300109, -0.69282395, 0.10772601, 0.021186346, -0.0077177905, 0.08287525, 0
643, 757195726, 0.7069287, 0.092987366, -0.6928238, 0.10770987, 6.401411E-4, 0.016135344, 0.08679867, 0
644, 757212393, 0.70692754, 0.09299309, -0.69282484, 0.1077058, 0.00903484, 0.003956235, 0.09291172, 0
645, 757229060, 0.70690924, 0.09306916, -0.6928204, 0.10778947, 0.0126888305, 0.005452822, 0.09558296, 0
646, 757245727, 0.70691085, 0.09306983, -0.6928171, 0.107798964, 0.014915466, -0.004626774, 0.08246994, 0
647, 757262394, 0.706915, 0.093061976, -0.6928151, 0.10779081, 0.004385771, -0.0012412792, 0.09225178, 0
648, 757279061, 0.7069153, 0.09306679, -0.6928129, 0.10779884, -0.023994563, -0.003927402, 0.091552734, 0
649, 757295728, 0.7069071, 0.093071364, -0.69282156, 0.10779346, 0.008334351, -6.4544956E-4, 0.09053612, 0
650, 757312395, 0.70690525, 0.093088135, -0.6928209, 0.10779501, -0.00198256, 0.009931351, 0.08978367, 0
651, 757329062, 0.70690846, 0.09308452, -0.69282055, 0.10777934, 0.0075480323, -0.017492292, 0.09505367, 0
652, 757345729, 0.7069231, 0.09305044, -0.69281477, 0.107749365, -0.0062556807, -0.011670059, 0.07975292, 0
653, 757362396, 0.7069176, 0.093058474, -0.69281805, 0.107758366, -0.024245344, -0.011035058, 0.09132099, 0
654, 757379063, 0.7069116, 0.09305424, -0.69282424, 0.10776066, -0.010879717, -0.0094514685, 0.08897877, 0
655, 757395730, 0.7069106, 0.093028635, -0.69283354, 0.10773058, -0.010375919, 0.003664942, 0.08308411, 0
656, 757412397, 0.7069108, 0.09304276, -0.69283116, 0.107732795, 0.022695506, -6.434938E-4, 0.0942812, 0
657, 757429064, 0.7069273, 0.09299762, -0.6928259, 0.107696384, 0.0013991911, -0.004918179, 0.083034515, 0
658, 757445731, 0.7069345, 0.09300364, -0.6928159, 0.1077083, 3.1157705E-4, -0.0070143393, 0.09645748, 0
659, 757462398, 0.70692724, 0.09301239, -0.6928224, 0.10770627, -0.007471144, 0.0055127796, 0.09618378, 0
660, 757479065, 0.70692176, 0.09298826, -0.6928322, 0.107701115, 0.010814004, 0.0025342458, 0.08703995, 0
661, 757495732, 0.7069289, 0.09296324, -0.6928323, 0.10767444, 0.014898927, 0.0057145, 0.081931114, 0
662, 757512399, 0.70693284, 0.09296837, -0.6928274, 0.107675046, -0.008288307, 0.0031335398, 0.082178116, 0
663, 757529066, 0.70692843, 0.092988275, -0.6928255, 0.10769877, -0.011529245, -0.001410702, 0.08332729, 0
664, 757545733, 0.70693034, 0.09298747, -0.69282264, 0.10770598, -0.0022007085, -0.0057820007, 0.09751701, 0
665, 757562400, 0.7069279, 0.09297318, -0.692828, 0.107700266, 0.016054489, 0.009287466, 0.09149361, 0
666, 757579067, 0.7069374, 0.09295554, -0.6928241, 0.10767815, 0.004520326, 0.016735645, 0.09406662, 0
667, 757595734, 0.7069536, 0.09294212, -0.6928134, 0.10765273, -0.008299036, -4.7161232E-4, 0.08637142, 0
668, 757612401, 0.7069492, 0.09298453, -0.6928077, 0.107680924, 0.02357257, -0.0045246845, 0.08983421, 0
669, 757629068, 0.7069464, 0.09299942, -0.69280994, 0.107672006, 0.016708935, 0.01884801, 0.091358185, 0
670, 757645735, 0.70693964, 0.093029015, -0.6928103, 0.10768843, 0.010196214, 0.0059380126, 0.09419155, 0
671, 757662402, 0.7069339, 0.093035005, -0.692814, 0.10769702, 0.011050927, 0.007639505, 0.100790024, 0
672, 757679069, 0.70694387, 0.092999876, -0.6928135, 0.10766562, 0.007329437, 0.0063764337, 0.08834839, 0
673, 757695736, 0.7069481, 0.093023755, -0.69280475, 0.10767346, -8.9852205E-5, -0.011364795, 0.08919811, 0
674, 757712403, 0.70694476, 0.093087085, -0.69278914, 0.107741594, 0.009025901, -0.005426671, 0.099814415, 0
675, 757729070, 0.70693606, 0.093104795, -0.69279313, 0.10775722, 0.0069373953, 0.0050299913, 0.09779644, 0
676, 757745737, 0.7069267, 0.093116894, -0.69279945, 0.10776727, -0.0029946265, 0.0069941673, 0.08259678, 0
677, 757762404, 0.7069167, 0.09313225, -0.6928053, 0.107782334, 1.7344605E-4, 0.0031076125, 0.09052086, 0
678, 757779071, 0.70691043, 0.09315579, -0.6928054, 0.107801944, -0.0019038834, -0.006110509, 0.08014107, 0
679, 757795738, 0.7069077, 0.0931894, -0.6928, 0.107825845, 0.0011318696, -0.01524431, 0.088871, 0
680, 757812405, 0.7069031, 0.093198806, -0.6928015, 0.107838795, -0.007593182, 0.0010164252, 0.09131718, 0
681, 757829072, 0.7068978, 0.09319793, -0.6928072, 0.10783779, 0.0054760673, 0.011177659, 0.0967989, 0
682, 757845739, 0.70689225, 0.0931978, -0.6928107, 0.10785138, 0.011679893, 0.007874585, 0.07551098, 0
683, 757862406, 0.70688665, 0.093212254, -0.6928127, 0.10786284, -0.005329443, -0.0036729884, 0.08579731, 0
684, 757879073, 0.70689225, 0.09320523, -0.6928085, 0.10785924, -0.0030639155, 9.510476E-5, 0.07998371, 0
685, 757895740, 0.70688987, 0.09320826, -0.6928082, 0.10787331, -0.015539515, -0.016016044, 0.09059334, 0
686, 757912407, 0.70688426, 0.09320786, -0.6928135, 0.10787633, -0.015273535, -0.006227574, 0.08941078, 0
687, 757929074, 0.7068757, 0.09320448, -0.6928248, 0.10786355, 8.779589E-4, 0.0073323427, 0.10488701, 0
688, 757945741, 0.70687306, 0.093226016, -0.69282126, 0.107884414, 0.014739338, -0.0038656567, 0.079460144, 0
689, 757962408, 0.70686835, 0.09329087, -0.69280714, 0.10794999, 0.010979404, -0.007284064, 0.09225559, 0
690, 757979075, 0.706868, 0.09329253, -0.6928077, 0.10794709, -0.0016365618, -0.006621627, 0.08594704, 0
691, 757995742, 0.7068605, 0.09330792, -0.6928091, 0.107974134, 6.580221E-4, -0.0021177293, 0.098591805, 0
692, 758012409, 0.7068626, 0.09331373, -0.6928034, 0.107991464, -0.019103205, 0.0056686797, 0.09427643, 0
693, 758029076, 0.7068574, 0.093329504, -0.6928053, 0.10800098, 0.004603473, 0.028290985, 0.09156513, 0
694, 758045743, 0.706853, 0.09332568, -0.6928107, 0.10799732, 0.012540418, -0.0036492401, 0.09196472, 0
695, 758062410, 0.7068565, 0.09331163, -0.69281137, 0.10798303, 0.0028864464, -0.012095963, 0.07934952, 0
696, 758079077, 0.70686066, 0.093311295, -0.6928061, 0.107989535, -0.019893548, -0.013572433, 0.09013462, 0
697, 758095744, 0.7068617, 0.09329143, -0.692811, 0.10796836, -0.0051005655, 0.005926949, 0.09785175, 0
698, 758112411, 0.7068635, 0.093261115, -0.6928186, 0.10793416, 0.032342326, 0.009040596, 0.09771061, 0
699, 758129078, 0.7068539, 0.09332223, -0.6928097, 0.10800106, 0.03812103, 0.010158608, 0.09130287, 0
700, 758145745, 0.7068581, 0.09332661, -0.6928032, 0.10801103, 0.010418833, 0.0153213665, 0.09712124, 0
701, 758162412, 0.7068502, 0.0933456, -0.6928055, 0.10803291, -0.0016960163, -0.008982482, 0.09621048, 0
702, 758179079, 0.70684546, 0.09337524, -0.69280255, 0.10805596, -0.008799705, -0.012088084, 0.094537735, 0
703, 758195746, 0.7068402, 0.09335871, -0.69281214, 0.108043626, 0.022220764, 0.009808475, 0.093808174, 0
704, 758212413, 0.70684266, 0.093351774, -0.69281083, 0.10804224, 0.011986553, 0.009534728, 0.0960989, 0
705, 758229080, 0.70685035, 0.09334384, -0.6928052, 0.108035386, -0.009758129, 0.0021677963, 0.08681965, 0
706, 758245747, 0.7068595, 0.09332381, -0.6927995, 0.10802833, -0.009059874, -0.009370781, 0.09062672, 0
707, 758262414, 0.70685273, 0.09340129, -0.6927834, 0.1081088, 0.015987882, -0.007910905, 0.08274555, 0
708, 758279081, 0.7068451, 0.09340976, -0.69278926, 0.10811348, 0.011902959, -0.0015911328, 0.079338074, 0
709, 758295748, 0.70683956, 0.093417086, -0.69279265, 0.10812215, 0.014894457, 0.011852389, 0.087096214, 0
710, 758312415, 0.7068444, 0.093405604, -0.69279134, 0.10810906, 0.025138056, 0.012891389, 0.094260216, 0
711, 758329082, 0.7068526, 0.09337645, -0.692791, 0.108083285, 0.0034027612, -0.0028267126, 0.09063721, 0
712, 758345749, 0.7068487, 0.09337511, -0.69279754, 0.108067684, -0.01540049, -0.009690236, 0.08980274, 0
713, 758362416, 0.7068424, 0.093379416, -0.6928039, 0.108064145, -0.0020433555, -5.330784E-4, 0.10501003, 0
714, 758379083, 0.70683765, 0.093366705, -0.692815, 0.10803574, 0.010350438, 0.016716367, 0.08811474, 0
715, 758395750, 0.70684373, 0.09336101, -0.6928113, 0.10802427, 0.016501961, 0.011065456, 0.07940388, 0
716, 758412417, 0.7068458, 0.09335547, -0.6928113, 0.108015604, -0.009746953, 0.0115662925, 0.09428787, 0
717, 758429084, 0.70684206, 0.09336375, -0.6928103, 0.10803936, -8.377266E-4, -0.0086602885, 0.09754181, 0
718, 758445751, 0.7068306, 0.09340736, -0.6928101, 0.10807827, 6.5846916E-4, -0.01361138, 0.089276314, 0
719, 758462418, 0.7068046, 0.09337549, -0.6928396, 0.1080863, 0.007020095, -0.0069798627, 0.09624004, 0
720, 758479085, 0.7068142, 0.09336869, -0.69283086, 0.10808571, 0.011085795, 0.019475298, 0.08701801, 0
721, 758495752, 0.70681655, 0.09335796, -0.69283354, 0.10806221, -0.0028345913, 0.012970569, 0.0896616, 0
722, 758512419, 0.7068229, 0.093342915, -0.69283265, 0.10803991, -0.011649495, -0.00833301, 0.08739185, 0
723, 758529086, 0.7068291, 0.09332189, -0.69283307, 0.10801518, -0.014616854, -0.020625496, 0.092336655, 0
724, 758545753, 0.7068299, 0.09330891, -0.6928351, 0.10800758, -0.0058591687, -0.0055470327, 0.09161949, 0
725, 758562420, 0.70682573, 0.09331042, -0.6928386, 0.1080104, -0.00985111, 0.014684801, 0.09990692, 0
726, 758579087, 0.70683867, 0.0932635, -0.6928388, 0.1079654, -0.012772424, 0.0034011966, 0.09109497, 0
727, 758595754, 0.7068499, 0.09324965, -0.6928292, 0.10796544, 0.007539539, -0.0067298072, 0.09351826, 0
728, 758612421, 0.706854, 0.09326181, -0.69282186, 0.10797479, 0.013241354, 0.014461959, 0.081840515, 0
729, 758629088, 0.7068542, 0.09324189, -0.69282806, 0.1079503, 0.0038569395, -0.0121868765, 0.08879185, 0
730, 758645755, 0.7068496, 0.09324188, -0.6928331, 0.107948564, 0.027379444, 0.01865562, 0.08514881, 0
731, 758662422, 0.7068554, 0.093189664, -0.692843, 0.10789246, 0.014253421, 0.0037815599, 0.10098839, 0
732, 758679089, 0.7068528, 0.093209244, -0.6928384, 0.10792224, 7.0808904E-4, -0.0076092193, 0.09798145, 0
733, 758695756, 0.706855, 0.09318443, -0.69284016, 0.10791801, -0.010166263, -9.1947644E-4, 0.08827686, 0
734, 758712423, 0.7068598, 0.09318743, -0.69283324, 0.10792789, -0.018673614, -0.0077917734, 0.09033871, 0
735, 758729090, 0.7068482, 0.09319548, -0.69284314, 0.10793368, -0.00725836, -0.0068683857, 0.08948612, 0
736, 758745757, 0.70685697, 0.09316317, -0.69284225, 0.10790968, 0.0069610877, -0.0047366866, 0.097182274, 0
737, 758762424, 0.70685565, 0.09314449, -0.6928468, 0.107905604, 0.015213186, -0.0011681346, 0.08941364, 0
738, 758779091, 0.70685744, 0.09314867, -0.69284415, 0.107906386, 0.0022892198, 0.0038619128, 0.09027767, 0
739, 758795758, 0.70685613, 0.09318999, -0.6928338, 0.10794565, -0.009844852, -0.02783636, 0.0902195, 0
740, 758812425, 0.7068587, 0.09319248, -0.69283223, 0.10793628, -0.008155541, -0.018775871, 0.08456707, 0
741, 758829092, 0.7068642, 0.093121454, -0.69284564, 0.10787716, 0.0028734826, 0.012919943, 0.09626293, 0
742, 758845759, 0.7068579, 0.0931474, -0.6928433, 0.10791022, 0.009438505, 0.015337682, 0.085868835, 0
743, 758862426, 0.7068669, 0.09311453, -0.6928418, 0.10788897, -0.00576127, 0.0014783705, 0.076602936, 0
744, 758879093, 0.7068675, 0.093123816, -0.6928404, 0.10788692, -0.007525234, -0.009007963, 0.09040165, 0
745, 758895760, 0.7068689, 0.09313248, -0.69283783, 0.107887104, -0.014947653, -0.00911497, 0.0898571, 0
746, 758912427, 0.7068685, 0.09313683, -0.6928373, 0.1078885, 0.015874337, 0.0065127765, 0.087893486, 0
747, 758929094, 0.70686305, 0.093127474, -0.6928444, 0.107887045, 0.0120469015, 0.005199079, 0.0868721, 0
748, 758945761, 0.7068732, 0.093113184, -0.69283783, 0.107874535, -0.006248975, 0.006860451, 0.084365845, 0
749, 758962428, 0.70687586, 0.093109004, -0.69283503, 0.10787898, -0.021525191, -0.0025577706, 0.08730793, 0
750, 758979095, 0.70687515, 0.093123324, -0.6928335, 0.107881814, -0.011217669, -0.006923146, 0.08998871, 0
751, 758995762, 0.70687175, 0.09315201, -0.6928291, 0.10790729, -0.0043781716, 0.0017229497, 0.08595848, 0
752, 759012429, 0.70687157, 0.09319347, -0.69281614, 0.10795605, 0.017329406, 0.0014909431, 0.07868576, 0
753, 759029096, 0.7068764, 0.09318881, -0.6928126, 0.10795088, -0.013090706, 0.0019335547, 0.08796406, 0
754, 759045763, 0.70687836, 0.09320989, -0.69280285, 0.1079829, -0.012305729, 0.015018059, 0.084132195, 0
755, 759062430, 0.7068663, 0.09325378, -0.6928028, 0.10802408, -0.025106763, -0.010872397, 0.08932209, 0
756, 759079097, 0.7068656, 0.09327384, -0.6927978, 0.10804264, 0.009971807, -0.011319925, 0.09667206, 0
757, 759095764, 0.70686084, 0.09328043, -0.69280046, 0.10805108, 0.005570837, -0.0012111049, 0.09070492, 0
758, 759112431, 0.70686454, 0.09328017, -0.6927948, 0.108063176, -5.8068667E-4, -0.0024394204, 0.09418297, 0
759, 759129098, 0.70687187, 0.09328539, -0.69278437, 0.10807747, 0.006455501, 0.011259745, 0.0925045, 0
760, 759145765, 0.7068776, 0.09329379, -0.69277644, 0.1080837, -0.014345955, 0.0026126988, 0.10414696, 0
761, 759162432, 0.70688134, 0.0932741, -0.69277835, 0.10806459, 5.69064E-4, -0.005763505, 0.07973766, 0
762, 759179099, 0.70688206, 0.0932906, -0.6927733, 0.10807862, 0.013781362, -0.010279641, 0.085814476, 0
763, 759195766, 0.70686847, 0.093310624, -0.6927839, 0.10808231, -0.0013830982, -0.013338359, 0.10006046, 0
764, 759212433, 0.70686984, 0.093344815, -0.6927732, 0.10811152, 0.015526551, 0.0088127805, 0.096437454, 0
765, 759229100, 0.706879, 0.0933493, -0.6927625, 0.10811593, -0.023502834, -0.0189791, 0.085427284, 0
766, 759245767, 0.70685416, 0.093399994, -0.6927742, 0.10815912, 0.01489088, 0.008570939, 0.090351105, 0
767, 759262434, 0.7068846, 0.0933732, -0.6927489, 0.10814655, -0.026175601, 0.0074655563, 0.09148121, 0
768, 759279101, 0.7068613, 0.09335547, -0.69277763, 0.108129546, 6.267303E-4, 2.814587E-4, 0.10232067, 0
769, 759295768, 0.7068908, 0.09342727, -0.69272524, 0.10821108, 0.014791193, -0.0053799567, 0.089292526, 0
770, 759312435, 0.7068712, 0.09347614, -0.69273055, 0.10826158, -0.028017797, -0.027346699, 0.094680786, 0
771, 759329102, 0.7068664, 0.09347162, -0.6927351, 0.10826843, 0.006780489, 0.0035640257, 0.10328293, 0
772, 759345769, 0.70685977, 0.093489416, -0.6927371, 0.108283594, -0.022678966, 0.011681514, 0.082286835, 0
773, 759362436, 0.7068555, 0.0934654, -0.6927501, 0.10824939, 0.056914892, 0.029212473, 0.09131813, 0
774, 759379103, 0.706876, 0.09347094, -0.6927256, 0.10826816, -0.012603449, -0.0154734105, 0.09727478, 0
775, 759395770, 0.7068648, 0.093479455, -0.6927342, 0.10827852, 0.016695077, -0.0055493237, 0.091192245, 0
776, 759412437, 0.70687747, 0.0934947, -0.69271594, 0.10829877, -0.023822011, -0.004815587, 0.07975006, 0
777, 759429104, 0.7068544, 0.09348191, -0.69274235, 0.10829081, -0.008882852, 0.02222339, 0.088887215, 0
778, 759445771, 0.70686305, 0.09347719, -0.69273514, 0.10828478, -0.008320941, 0.01371699, 0.07972813, 0
779, 759462438, 0.7068586, 0.09348421, -0.69273835, 0.10828733, 0.013581541, 1.9803247E-4, 0.08506203, 0
780, 759479105, 0.70688385, 0.093504034, -0.69270605, 0.108312815, 0.0021984733, -0.0026872405, 0.08900356, 0
781, 759495772, 0.7068886, 0.09349734, -0.6927033, 0.10830377, -0.03765925, -0.022038937, 0.090358734, 0
782, 759512439, 0.7068753, 0.09348618, -0.6927194, 0.10829818, -0.01924089, 0.012146477, 0.094078064, 0
783, 759529106, 0.70688033, 0.093493015, -0.6927131, 0.10830008, 0.009617763, 0.016148029, 0.08642864, 0
784, 759545773, 0.7068752, 0.09348526, -0.6927191, 0.10830186, 0.022810392, 0.008825242, 0.08392334, 0
785, 759562440, 0.70689, 0.09349154, -0.6927022, 0.108308285, -0.007623133, -0.026277859, 0.083250046, 0
786, 759579107, 0.7068802, 0.09348038, -0.6927125, 0.10831554, -2.0831407E-4, -0.0047053946, 0.08617306, 0
787, 759595774, 0.706877, 0.09349282, -0.69271183, 0.108330786, -0.0070639034, 0.008942977, 0.08932686, 0
788, 759612441, 0.7068593, 0.09350449, -0.69272494, 0.10835175, 0.00994588, 0.023687568, 0.08272648, 0
789, 759629108, 0.706872, 0.09349593, -0.69271135, 0.10836314, 0.0320379, 0.02435453, 0.0848999, 0
790, 759645775, 0.7068772, 0.093471624, -0.6927122, 0.10834459, 0.014710729, 0.0025450862, 0.10294247, 0
791, 759662442, 0.70688516, 0.09346222, -0.6927073, 0.10833166, 0.0042860843, -0.010299589, 0.09178257, 0
792, 759679109, 0.70688564, 0.093456544, -0.69271046, 0.10831351, 0.005297704, 1.2963751E-5, 0.08946991, 0
793, 759695776, 0.70687854, 0.09347083, -0.692714, 0.108325295, 0.007938733, 0.012800923, 0.093307495, 0
794, 759712443, 0.70687425, 0.09352386, -0.6927061, 0.108358264, 0.0028153693, 0.012559473, 0.08362675, 0
795, 759729110, 0.7068798, 0.09354107, -0.69269675, 0.10836568, 0.019951213, 0.025842624, 0.09289265, 0
796, 759745777, 0.7068908, 0.09356925, -0.6926786, 0.10838709, -0.0041881856, -0.01671145, 0.09117985, 0
797, 759762444, 0.7068828, 0.093571685, -0.6926837, 0.10840429, -0.006330781, -0.024079219, 0.08595848, 0
798, 759779111, 0.70687926, 0.093578964, -0.6926868, 0.108401045, 0.015265041, 0.009902574, 0.0803051, 0
799, 759795778, 0.70687574, 0.09356721, -0.69269323, 0.1083935, 0.024779987, 0.02965771, 0.08753681, 0
800, 759812445, 0.706892, 0.093539774, -0.69268477, 0.10836409, 0.030929275, 0.01814696, 0.08586502, 0
801, 759829112, 0.7068988, 0.09353945, -0.6926782, 0.10836183, 0.0058721323, -0.0046509695, 0.09114742, 0
802, 759845779, 0.7068853, 0.09356414, -0.69268584, 0.10838007, -0.003485908, -0.009110612, 0.08786011, 0
803, 759862446, 0.70688075, 0.093558654, -0.69269353, 0.10836543, 0.0017483183, -0.005853078, 0.09074879, 0
804, 759879113, 0.7068715, 0.09356746, -0.69269955, 0.10838029, 0.02017562, 0.012113005, 0.086247444, 0
805, 759895780, 0.706881, 0.093558684, -0.6926923, 0.10837245, 0.01869373, 0.029128209, 0.10293865, 0
806, 759912447, 0.70688844, 0.09356113, -0.69268537, 0.108365044, 0.002933384, 0.010114408, 0.08434105, 0
807, 759929114, 0.7068839, 0.09356766, -0.69268924, 0.10836472, -0.017900705, -0.021102417, 0.0998106, 0
808, 759945781, 0.7068657, 0.0935705, -0.6927055, 0.10837712, -0.0047335573, -0.021561401, 0.09099007, 0
809, 759962448, 0.7068607, 0.093577296, -0.6927097, 0.108376764, 0.013573048, 0.014130154, 0.080430984, 0
810, 759979115, 0.70685405, 0.09359282, -0.69271284, 0.10838638, 0.0018430878, 0.037051406, 0.10258579, 0
811, 759995782, 0.70686775, 0.0935898, -0.692701, 0.10837501, 8.97628E-4, 0.020132873, 0.08969021, 0
812, 760012449, 0.7068721, 0.09359425, -0.6926946, 0.1083845, -0.0036477314, -0.011601663, 0.093520164, 0
813, 760029116, 0.7068695, 0.093590535, -0.6926993, 0.10837499, 0.025659734, -0.013482693, 0.08815956, 0
814, 760045783, 0.70686764, 0.09357485, -0.6927052, 0.10836238, 0.017460385, -0.0058293296, 0.09656811, 0
815, 760062450, 0.70686936, 0.09356547, -0.6927039, 0.108368374, 0.004747862, 0.03417893, 0.08092785, 0
816, 760079117, 0.7068724, 0.09356208, -0.69270253, 0.10835987, 0.0049543884, 0.009039646, 0.09978771, 0
817, 760095784, 0.7068769, 0.093564264, -0.69269645, 0.10836714, 0.00906658, -0.0017914005, 0.075665474, 0
818, 760112451, 0.70687455, 0.09355073, -0.6927019, 0.108359315, 0.016290965, -0.020641478, 0.09144592, 0
819, 760129118, 0.70686543, 0.093547344, -0.69271374, 0.108345725, 0.035270344, -0.013015886, 0.09815788, 0
820, 760145785, 0.7068699, 0.09352242, -0.6927157, 0.10832622, 0.03605398, 0.014722183, 0.08600235, 0
821, 760162452, 0.7068734, 0.09355227, -0.692703, 0.10835808, -0.012236888, 0.027923306, 0.08153248, 0
822, 760179119, 0.7068794, 0.09355557, -0.6926957, 0.10836267, -0.012301706, 0.007650569, 0.092167854, 0
823, 760195786, 0.7068783, 0.093561165, -0.69269687, 0.10835796, 7.4832136E-4, -0.014953575, 0.09771824, 0
824, 760212453, 0.7068676, 0.09357827, -0.6927022, 0.10837928, 0.0104224095, -0.006210084, 0.09849739, 0
825, 760229120, 0.706858, 0.093624525, -0.692697, 0.10843484, 0.022680307, 0.0118642915, 0.093182564, 0
826, 760245787, 0.7068649, 0.093624696, -0.69268954, 0.10843736, -0.006912809, 0.033889927, 0.09640789, 0
827, 760262454, 0.7068683, 0.09365667, -0.692679, 0.108454935, -0.0034447818, 0.014290692, 0.07486153, 0
828, 760279121, 0.7068672, 0.09366236, -0.69267786, 0.108464725, -0.014773759, -0.008496566, 0.08947182, 0
829, 760295788, 0.7068592, 0.09366117, -0.6926855, 0.10846906, 0.0025560942, -0.0112655, 0.08682537, 0
830, 760312455, 0.7068557, 0.09367097, -0.6926865, 0.10847717, 0.025163088, -0.002413884, 0.09149265, 0
831, 760329122, 0.7068658, 0.09370722, -0.6926664, 0.10850818, 0.010945876, 0.013660497, 0.09294987, 0
832, 760345789, 0.70687157, 0.093725756, -0.69265664, 0.10851665, -0.011585124, 0.017326277, 0.07646847, 0
833, 760362456, 0.70685816, 0.09372788, -0.6926677, 0.10853159, -0.012387535, -0.004320394, 0.08917332, 0
834, 760379123, 0.7068432, 0.09375342, -0.69267374, 0.108568355, 0.021184111, -0.006236403, 0.083477974, 0
835, 760395790, 0.7068381, 0.09378321, -0.6926698, 0.10860126, 0.029747339, -0.0066627534, 0.08740997, 0
836, 760412457, 0.7068463, 0.09379183, -0.6926575, 0.10861987, 0.017871648, 0.004641973, 0.087301254, 0
837, 760429124, 0.70685655, 0.09377769, -0.69265157, 0.10860242, -0.005624033, 4.0640243E-4, 0.0873394, 0
838, 760445791, 0.70685625, 0.093777984, -0.69265264, 0.10859651, -0.013308856, 0.014832711, 0.097720146, 0
839, 760462458, 0.70676434, 0.09379123, -0.6927531, 0.10854257, -0.019933332, 0.002861804, 0.09134388, 0
840, 760479125, 0.7067627, 0.09376769, -0.6927622, 0.10851583, 0.0046861726, -0.002930199, 0.090821266, 0
841, 760495792, 0.7067618, 0.09378506, -0.6927564, 0.1085436, 0.021847498, -0.009483487, 0.07597637, 0
842, 760512459, 0.7067689, 0.0937821, -0.6927488, 0.108548276, -0.007885984, 0.007028756, 0.08559704, 0
843, 760529126, 0.70676595, 0.093800865, -0.6927484, 0.10855395, -0.015021412, 0.025219917, 0.078850746, 0
844, 760545793, 0.70675766, 0.09380085, -0.69275635, 0.10855769, -0.011606134, -0.011722081, 0.093509674, 0
845, 760562460, 0.7067629, 0.09378665, -0.6927545, 0.10854769, 0.021902034, -0.023437513, 0.10260391, 0
846, 760579127, 0.70675975, 0.0937707, -0.69276226, 0.10853147, 0.02205, -0.002068836, 0.08516979, 0
847, 760595794, 0.70677286, 0.09373555, -0.6927592, 0.10849618, 0.004778707, -0.0077430476, 0.0951004, 0
848, 760612461, 0.7067766, 0.09371374, -0.69276196, 0.108472936, -0.0321358, 0.0022084198, 0.10044479, 0
849, 760629128, 0.70677006, 0.09373482, -0.69276196, 0.10849726, -0.015208716, 0.01092414, 0.09217358, 0
850, 760645795, 0.7067636, 0.093739115, -0.69276696, 0.10850411, -0.021532344, -0.0050920723, 0.08996296, 0
851, 760662462, 0.7067626, 0.093749106, -0.69276625, 0.108506754, 0.019376785, 0.00501496, 0.08331776, 0
852, 760679129, 0.70676553, 0.09376851, -0.69275784, 0.10852409, -0.00842912, -0.015219724, 0.0910902, 0
853, 760695796, 0.70677024, 0.09379565, -0.69274396, 0.10855824, -0.014957934, -0.005046811, 0.08128929, 0
854, 760712463, 0.7067727, 0.093795925, -0.6927417, 0.10855691, -0.014105009, 0.0063990084, 0.09074688, 0
855, 760729130, 0.7067649, 0.09382548, -0.69274014, 0.1085923, -0.004928014, 0.0049625463, 0.083455086, 0
856, 760745797, 0.70675707, 0.093847156, -0.69274163, 0.10861578, 0.03094805, -0.005314747, 0.10044575, 0
857, 760762464, 0.70676, 0.09384512, -0.69273615, 0.108632796, 0.027739746, -0.018840801, 0.07610226, 0
858, 760779131, 0.70677, 0.09383562, -0.69272816, 0.10862631, -0.0034541693, -0.004212213, 0.08252621, 0
859, 760795798, 0.7067743, 0.09381976, -0.69272864, 0.108609, -0.027542608, 0.0027204321, 0.086037636, 0
860, 760812465, 0.7067751, 0.09381899, -0.6927277, 0.108610496, -0.022134935, 0.010556294, 0.08634663, 0
861, 760829132, 0.706766, 0.09383307, -0.69273275, 0.10862639, 0.007107712, 0.0027730693, 0.09795761, 0
862, 760845799, 0.7067755, 0.09383202, -0.6927234, 0.108624555, 0.019239102, -0.00807055, 0.08684158, 0
863, 760862466, 0.70678246, 0.093831055, -0.6927183, 0.108611755, -1.4304829E-5, -0.0031149324, 0.08820534, 0
864, 760879133, 0.7067808, 0.093807966, -0.69272447, 0.108603805, -0.018377682, 0.02433, 0.068837166, 0
865, 760895800, 0.7067832, 0.093799345, -0.69272417, 0.10859827, -0.01947826, 0.012660892, 0.0766058, 0
866, 760912467, 0.7067743, 0.09380345, -0.69273335, 0.10859416, 0.009325407, -1.3176088E-4, 0.08575535, 0
867, 760929134, 0.7067773, 0.093800426, -0.6927323, 0.10858433, 0.019223455, -0.004617107, 0.09179306, 0
868, 760945801, 0.70677453, 0.09382554, -0.6927275, 0.10860993, 0.016068347, -0.013680055, 0.08183575, 0
869, 760962468, 0.7067751, 0.09379864, -0.69273484, 0.108582966, -0.027232818, -0.010459568, 0.077492714, 0
870, 760979135, 0.70679235, 0.09368157, -0.69275314, 0.10845538, 0.0047554616, 0.0037937972, 0.085427284, 0
871, 760995802, 0.7067802, 0.093682036, -0.6927642, 0.10846327, 0.0016638305, 0.012827744, 0.09115982, 0
872, 761012469, 0.70677984, 0.0936818, -0.6927667, 0.108449265, 0.002088952, 0.023066929, 0.09306431, 0
873, 761029136, 0.70678157, 0.09366934, -0.69276524, 0.108458675, -0.0052802702, -0.017192394, 0.07471657, 0
874, 761045803, 0.70679283, 0.093657754, -0.6927583, 0.10843936, -0.028430847, -0.009493936, 0.0866518, 0
875, 761062470, 0.7067949, 0.093628496, -0.69276375, 0.10841575, -0.0077876383, 0.0105656255, 0.07974625, 0
876, 761079137, 0.70678896, 0.09361249, -0.6927761, 0.108390726, -0.013332101, 0.015593829, 0.08935547, 0
877, 761095804, 0.70678043, 0.09364397, -0.6927776, 0.1084088, -0.0015471567, 0.013573048, 0.07769585, 0
878, 761112471, 0.7067847, 0.09362766, -0.69277674, 0.10840088, 0.0154715665, 0.004386442, 0.10015392, 0
879, 761129138, 0.70678407, 0.093624614, -0.69278014, 0.108386256, -0.0021788043, -0.013247054, 0.08900356, 0
880, 761145805, 0.70677984, 0.09362959, -0.6927815, 0.10840029, 0.009958397, -0.014243699, 0.0823946, 0
881, 761162472, 0.7067761, 0.0936254, -0.6927854, 0.10840346, -0.0038100018, -7.6944334E-4, 0.08646393, 0
882, 761179139, 0.7067655, 0.09363694, -0.6927928, 0.108414546, -6.674097E-4, 0.0060680974, 0.093354225, 0
883, 761195806, 0.7067669, 0.093628034, -0.69279295, 0.10841291, -0.004748309, -0.010687216, 0.08720112, 0
884, 761212473, 0.7067653, 0.093616456, -0.69279474, 0.10842184, -0.0054206364, -0.025604695, 0.09120464, 0
885, 761229140, 0.70675737, 0.09362172, -0.6928007, 0.108430415, -0.019988764, -0.004945224, 0.083898544, 0
886, 761245807, 0.70674884, 0.093578026, -0.69281965, 0.10840226, -0.0032007056, 0.008115979, 0.08409119, 0
887, 761262474, 0.7067498, 0.093586825, -0.69281787, 0.10840036, 0.017316889, 0.022752445, 0.10602093, 0
888, 761279141, 0.7067495, 0.093603924, -0.6928135, 0.1084155, 0.02323149, -0.0014531136, 0.10266113, 0
889, 761295808, 0.70675206, 0.09360908, -0.6928096, 0.10841895, -0.007266853, -0.026152916, 0.08588791, 0
890, 761312475, 0.70675004, 0.09360758, -0.6928134, 0.10840875, -0.0015261464, -0.005548821, 0.08988571, 0
891, 761329142, 0.7067493, 0.093600936, -0.692815, 0.10840965, -0.0030674918, 0.0018038055, 0.080571175, 0
892, 761345809, 0.7067422, 0.09363654, -0.69281304, 0.10843715, -0.010747397, 0.021038214, 0.08886337, 0
893, 761362476, 0.70676136, 0.093530916, -0.6928246, 0.10832999, 0.0035762072, 0.011661677, 0.09984398, 0
894, 761379143, 0.70675606, 0.093589984, -0.6928129, 0.108388744, -0.0026866258, -0.009457056, 0.083553314, 0
895, 761395810, 0.70675075, 0.09359138, -0.6928165, 0.108399175, -0.01056367, -0.008227903, 0.08567333, 0
896, 761412477, 0.7067449, 0.09359413, -0.69282275, 0.10839497, -0.029783996, -0.0029760192, 0.10655117, 0
897, 761429144, 0.70673877, 0.09360049, -0.6928282, 0.10839419, -0.0021841687, 0.0078035076, 0.099015236, 0
898, 761445811, 0.7067468, 0.093562745, -0.69282895, 0.10836948, 0.0015578853, 0.017431552, 0.09581375, 0
899, 761462478, 0.7067488, 0.093573496, -0.692823, 0.10838649, 0.006884199, 0.005903592, 0.09423256, 0
900, 761479145, 0.7067507, 0.09358056, -0.6928164, 0.10841008, -0.0015256994, -0.008127881, 0.08276653, 0
901, 761495812, 0.706748, 0.093566224, -0.69282335, 0.10839514, -0.0058453106, 0.008494666, 0.0797348, 0
902, 761512479, 0.70675105, 0.09355552, -0.6928248, 0.108375676, -0.0144595, 0.010401455, 0.10194874, 0
903, 761529146, 0.70673746, 0.09356763, -0.6928351, 0.10838734, 0.010510921, 0.029823054, 0.08510971, 0
904, 761545813, 0.70673865, 0.09354084, -0.6928409, 0.10836586, 0.023672704, 0.008495672, 0.0803318, 0
905, 761562480, 0.7067379, 0.09354659, -0.6928428, 0.10835429, -0.02284973, -0.018164562, 0.09128857, 0
906, 761579147, 0.7067303, 0.09357069, -0.69284135, 0.108391665, -0.01564546, -0.018267825, 0.08703995, 0
907, 761595814, 0.70672446, 0.09356882, -0.69284844, 0.10838565, 0.011712079, -0.0151494285, 0.09186554, 0
908, 761612481, 0.7067185, 0.09358435, -0.6928514, 0.1083924, 1.6629364E-4, 0.010096863, 0.08765507, 0
909, 761629148, 0.7067249, 0.09356523, -0.692849, 0.10838305, -0.0047661904, 0.019187525, 0.09106636, 0
910, 761645815, 0.7067231, 0.093579896, -0.69284874, 0.10838325, -0.023075925, -0.021864317, 0.08222294, 0
911, 761662482, 0.70672226, 0.09359287, -0.6928457, 0.10839738, -0.015834104, -0.03156506, 0.09431934, 0
912, 761679149, 0.70671946, 0.093598306, -0.69284576, 0.10841004, -0.0060057933, 0.002461157, 0.08961105, 0
913, 761695816, 0.7067097, 0.0936074, -0.6928533, 0.10841818, -0.007417054, 0.0190637, 0.106170654, 0
914, 761712483, 0.70671105, 0.093596496, -0.6928526, 0.10842249, 0.007277135, 0.02997795, 0.08870888, 0
915, 761729150, 0.7067203, 0.09360802, -0.6928394, 0.10843655, 0.005712544, 0.0019022629, 0.08619213, 0
916, 761745817, 0.70671934, 0.093606874, -0.6928414, 0.108431175, -0.0020643657, -0.01844211, 0.08441639, 0
917, 761762484, 0.7067079, 0.09363793, -0.69284415, 0.10846185, 0.00858245, -0.011272652, 0.07596111, 0
918, 761779151, 0.7067063, 0.09364884, -0.69284165, 0.10847878, -6.231541E-4, -0.003408908, 0.078391075, 0
919, 761795818, 0.706704, 0.093675196, -0.6928366, 0.10850422, -0.007070162, 0.02486833, 0.09232521, 0
920, 761812485, 0.7067018, 0.09368248, -0.6928372, 0.10850776, -0.023051338, 0.010274611, 0.094397545, 0
921, 761829152, 0.7066899, 0.09371882, -0.6928376, 0.1085506, -0.012182797, 0.008760143, 0.08837128, 0
922, 761845819, 0.7066995, 0.093699254, -0.6928313, 0.1085456, 0.0011756781, -0.018022409, 0.090786934, 0
923, 761862486, 0.70669454, 0.09370344, -0.6928333, 0.10856161, 0.023146555, -0.012877699, 0.08645153, 0
924, 761879153, 0.70670056, 0.09367314, -0.6928345, 0.10854039, 0.009937386, 0.02763056, 0.08400822, 0
925, 761895820, 0.7067017, 0.09367277, -0.69283223, 0.10854795, 0.0013938268, 0.035933506, 0.085063934, 0
926, 761912487, 0.7066989, 0.09370394, -0.69282615, 0.10857806, -0.012400946, -5.811337E-6, 0.09159565, 0
927, 761929154, 0.7066881, 0.093697816, -0.6928405, 0.10856185, -0.002930255, -0.026677724, 0.082286835, 0
928, 761945821, 0.7066744, 0.09373139, -0.6928473, 0.10857906, 0.01777241, 0.0047742366, 0.08029652, 0
929, 761962488, 0.7066717, 0.093725674, -0.6928517, 0.10857386, 0.009592282, -0.0074644946, 0.08146858, 0
930, 761979155, 0.70667285, 0.0937291, -0.6928479, 0.108587265, 0.0038073198, 0.008446387, 0.07756424, 0
931, 761995822, 0.7066739, 0.09373378, -0.6928438, 0.108602054, -0.008405875, 0.023484562, 0.09741783, 0
932, 762012489, 0.7066752, 0.09372701, -0.6928445, 0.108595945, -0.0010947664, -0.004421645, 0.094142914, 0
933, 762029156, 0.70665973, 0.09377116, -0.69284946, 0.10862571, 0.012189056, -0.021431595, 0.07736015, 0
934, 762045823, 0.7066546, 0.09376248, -0.69285685, 0.10861913, 0.014063883, -0.014197599, 0.08157253, 0
935, 762062490, 0.7066542, 0.09375134, -0.6928582, 0.108623885, 0.018715186, 0.020493232, 0.09629345, 0
936, 762079157, 0.70666295, 0.09374906, -0.6928487, 0.10862989, -0.010836802, 0.035187922, 0.086369514, 0
937, 762095824, 0.706668, 0.09374077, -0.6928459, 0.1086217, -0.008102791, 0.009276849, 0.103302956, 0
938, 762112491, 0.70666015, 0.09373633, -0.69285345, 0.10862809, -0.0021966854, -0.015362772, 0.08976269, 0
939, 762129158, 0.70666164, 0.09374374, -0.6928497, 0.10863584, 0.012243593, -0.0055696634, 0.08096886, 0
940, 762145825, 0.7066615, 0.09379386, -0.692837, 0.10867445, 6.320946E-4, 0.0018058729, 0.09003639, 0
941, 762162492, 0.70666474, 0.09377747, -0.692837, 0.108667806, -0.00619265, 0.0050308853, 0.08339405, 0
942, 762179159, 0.70666444, 0.093772426, -0.69283915, 0.10866003, -0.031265885, 0.0160161, 0.09140682, 0
943, 762195826, 0.7066595, 0.09375067, -0.69284964, 0.10864404, -0.0029083507, 0.010442637, 0.10016346, 0
944, 762212493, 0.70665866, 0.09375994, -0.6928474, 0.10865607, 0.024020491, 7.3278724E-4, 0.08347416, 0
945, 762229160, 0.7066625, 0.093761794, -0.6928411, 0.10866913, 0.010488122, -0.020594036, 0.10330963, 0
946, 762245827, 0.70667744, 0.09375268, -0.69282573, 0.10867784, -0.014927983, 0.015331089, 0.07922268, 0
947, 762262494, 0.7066886, 0.0937531, -0.6928142, 0.10867826, -0.014458159, 0.03346682, 0.089304924, 0
948, 762279161, 0.7066861, 0.093752585, -0.69281656, 0.108680576, -0.0020746472, 0.027618323, 0.090587616, 0
949, 762295828, 0.7066804, 0.093759455, -0.6928205, 0.108686104, 0.022285135, -0.005776357, 0.090434074, 0
950, 762312495, 0.7066932, 0.09376286, -0.6928064, 0.10869036, 0.019754522, -4.485905E-4, 0.09235668, 0
951, 762329162, 0.70669836, 0.09376818, -0.69279927, 0.10869792, -0.034303874, 0.0038783408, 0.09379387, 0
952, 762345829, 0.70668393, 0.09377807, -0.6928112, 0.10870687, -0.014737103, 0.029374128, 0.08101177, 0
953, 762362496, 0.706663, 0.093791924, -0.6928275, 0.108727194, 0.003053187, 0.029456325, 0.08290386, 0
954, 762379163, 0.7066603, 0.09380429, -0.6928265, 0.10874126, 0.030670894, 0.008303283, 0.09072018, 0
955, 762395830, 0.70668066, 0.09380068, -0.6928043, 0.10875359, 0.019943167, -0.01843926, 0.082611084, 0
956, 762412497, 0.70668036, 0.09383247, -0.69279563, 0.10878217, -0.014284266, -0.0035958765, 0.08502102, 0
957, 762429164, 0.7066794, 0.09383688, -0.6927929, 0.108801916, -0.006834579, 0.021313582, 0.09286022, 0
958, 762445831, 0.7066675, 0.09383998, -0.6928038, 0.108807415, -0.015452345, 0.033701953, 0.07789135, 0
959, 762462498, 0.7067191, 0.093945876, -0.6927463, 0.10874746, 0.03186043, 0.016198486, 0.085609436, 0
960, 762479165, 0.7067252, 0.09395788, -0.69273865, 0.10874559, -5.5878237E-4, -0.0349182, 0.08418846, 0
961, 762495832, 0.706725, 0.09395569, -0.6927392, 0.10874563, -0.0052682003, -0.019136397, 0.090875626, 0
962, 762512499, 0.7067301, 0.093963385, -0.69273186, 0.108751886, -0.009917269, -0.01751995, 0.08900452, 0
963, 762529166, 0.7067178, 0.093968704, -0.6927434, 0.108754076, -0.015121993, 0.044899337, 0.0878458, 0
964, 762545833, 0.70671386, 0.093957566, -0.69275165, 0.108736165, 0.022139406, 0.027138552, 0.07970333, 0
965, 762562500, 0.70672065, 0.09394758, -0.6927464, 0.1087348, 0.0017004865, -0.0013756664, 0.098288536, 0
966, 762579167, 0.70672286, 0.09394862, -0.6927432, 0.108739965, -9.812219E-4, -0.020777987, 0.09083271, 0
967, 762595834, 0.7067229, 0.09396247, -0.6927371, 0.10876648, -0.01639691, 0.0063691135, 0.09073925, 0
968, 762612501, 0.7067162, 0.09398198, -0.69273937, 0.10877846, -0.010557411, 0.013528345, 0.08026123, 0
969, 762629168, 0.7067152, 0.093980044, -0.69274074, 0.108777195, 0.0034340532, 0.021694502, 0.07728195, 0
970, 762645835, 0.7067209, 0.093976244, -0.69273615, 0.10877411, 0.004810446, 0.003793406, 0.09326172, 0
971, 762662502, 0.7067145, 0.09397047, -0.69274247, 0.10878042, 0.0045453594, -0.007940298, 0.07814121, 0
972, 762679169, 0.7067164, 0.0939467, -0.6927464, 0.10876249, -0.004958411, -0.025864305, 0.09036541, 0
973, 762695836, 0.70672005, 0.09393637, -0.69274914, 0.1087311, -0.009513158, 0.0057114265, 0.079805374, 0
974, 762712503, 0.70672274, 0.09392433, -0.6927493, 0.10872208, -5.502889E-4, 0.033080757, 0.09599686, 0
975, 762729170, 0.70672363, 0.09394041, -0.6927433, 0.10874151, 0.0051497384, 0.016959101, 0.098012924, 0
976, 762745837, 0.7067237, 0.09394074, -0.6927435, 0.10873972, -0.006608831, -0.013140941, 0.08151436, 0
977, 762762504, 0.7067253, 0.09394211, -0.6927423, 0.10873504, -3.1649435E-4, -0.022276307, 0.086868286, 0
978, 762779171, 0.70671505, 0.09392935, -0.69275695, 0.10871941, 0.0073066386, -0.010136033, 0.09834385, 0
979, 762795838, 0.706707, 0.093962274, -0.69275564, 0.10875138, -0.023220314, 0.021810338, 0.09277439, 0
980, 762812505, 0.70670986, 0.09396171, -0.6927547, 0.108739644, -6.2807143E-4, 0.012403684, 0.09544468, 0
981, 762829172, 0.7067173, 0.09395824, -0.6927476, 0.10873923, 0.0066124075, 0.011184085, 0.08215332, 0
982, 762845839, 0.7067194, 0.09397145, -0.69273967, 0.10876573, -0.023384819, -0.007509141, 0.08001232, 0
983, 762862506, 0.7067108, 0.09398547, -0.69274193, 0.108794816, 0.005123364, -0.004544186, 0.091980934, 0
984, 762879173, 0.7067042, 0.09401884, -0.6927393, 0.10882538, 0.009311102, 0.018194346, 0.0786047, 0
985, 762895840, 0.7067078, 0.094020426, -0.69273514, 0.1088269, 0.008936495, 0.0340755, 0.09220028, 0
986, 762912507, 0.70672184, 0.09399152, -0.69272745, 0.10881003, -0.023801448, 0.025994165, 0.07467651, 0
987, 762929174, 0.70671666, 0.09401055, -0.69272804, 0.10882352, -5.315138E-4, -0.026769755, 0.09834194, 0
988, 762945841, 0.70671237, 0.0940204, -0.6927316, 0.10881926, 0.0043871123, -0.033842098, 0.08748913, 0
989, 762962508, 0.7067089, 0.09400031, -0.69273937, 0.10881006, 0.0037053977, 0.0014303153, 0.0970335, 0
990, 762979175, 0.70670974, 0.093983114, -0.69274294, 0.10879643, 6.070612E-4, 0.02035091, 0.088409424, 0
991, 762995842, 0.706709, 0.09398836, -0.6927419, 0.108804055, -0.006726399, 0.022984229, 0.078816414, 0
992, 763012509, 0.70671403, 0.09398704, -0.6927371, 0.108803004, 0.007712985, 0.0028334737, 0.101745605, 0
993, 763029176, 0.70671123, 0.09397565, -0.6927441, 0.10878637, -0.0035940884, -0.022518931, 0.08675957, 0
994, 763045843, 0.70669734, 0.09399225, -0.6927538, 0.108800344, 0.030505048, -0.020240495, 0.08358002, 0
995, 763062510, 0.7066947, 0.09398774, -0.6927593, 0.10878616, -0.0056660534, 0.0033621378, 0.08102512, 0
996, 763079177, 0.70669514, 0.09401344, -0.6927503, 0.10881866, -0.005800608, 0.023817318, 0.074430466, 0
997, 763095844, 0.7066922, 0.094037935, -0.6927448, 0.10885193, -0.024109896, 0.014443016, 0.07474136, 0
998, 763112511, 0.7066802, 0.09407031, -0.69275016, 0.10886775, -6.298595E-4, -0.014388479, 0.088005066, 0
999, 763129178, 0.7066846, 0.09403413, -0.692758, 0.10881994, -6.2360114E-4, -0.016121877, 0.07784176, 0
1000, 763145845, 0.7066757, 0.0940264, -0.6927688, 0.10881543, 0.009403637, -0.013246719, 0.09023476, 0
1001, 763162512, 0.70668286, 0.09402576, -0.69276196, 0.108814165, -0.02865749, 0.0044038757, 0.07603264, 0
1002, 763179179, 0.70668226, 0.09401938, -0.6927642, 0.10880816, -0.0143642835, 0.017244862, 0.08347893, 0
1003, 763195846, 0.70667213, 0.094044924, -0.69276625, 0.10883871, -0.018965522, 0.0037082476, 0.07916832, 0
1004, 763212513, 0.7066754, 0.09403493, -0.69276834, 0.10881356, 0.01475409, -0.012146309, 0.09317684, 0
1005, 763229180, 0.70665866, 0.09408189, -0.6927721, 0.108857475, 0.031576123, -0.02338778, 0.0894289, 0
1006, 763245847, 0.7066554, 0.09411353, -0.69276524, 0.10889501, -1.2337916E-4, 0.015103832, 0.1003809, 0
1007, 763262514, 0.7066546, 0.09410271, -0.69276935, 0.10888261, -0.012124237, -0.001498822, 0.090955734, 0
1008, 763279181, 0.7066517, 0.094092116, -0.692777, 0.10886333, -0.028801432, 0.019618403, 0.083848, 0
1009, 763295848, 0.70664966, 0.09408088, -0.6927822, 0.10885266, 0.0039208643, -0.0096864365, 0.09725952, 0
1010, 763312515, 0.7066399, 0.09408438, -0.69279236, 0.10884865, 0.025611008, -0.015953125, 0.08580971, 0
1011, 763329182, 0.7066467, 0.094102114, -0.69277865, 0.108876444, 0.0075708306, -0.002501557, 0.113749504, 0
1012, 763345849, 0.70665133, 0.094103605, -0.69277227, 0.10888585, -0.013560084, -0.0061748805, 0.09420681, 0
