sep=									
DeviceTag:	Xsens_5								
FirmwareVersion:	2.2.1								
AppVersion:	2023.0.0								
SyncStatus:	Un-synced								
OutputRate:	60Hz								
FilterProfile:	General								
Measurement Mode:	Sensor fusion Mode - Extended (Quaternion)								
StartTime:	2023-07-13 15:18:37.503 +0200								
© Movella Technologies B. V. 2005-2023									
PacketCounter	SampleTimeFine	Quat_W	Quat_X	Quat_Y	Quat_Z	FreeAcc_X	FreeAcc_Y	FreeAcc_Z	Status
1	746495512	0	1.04E-17	0.707106781	0.707106781	0.010591832	0.078650475	-0.030533044	0
2	746512179	0.000335413	-0.000233405	-0.707273627	-0.706939778	0.015057969	0.087713881	-0.041655176	0
3	746528846	0.000766498	-0.000465088	-0.707450812	-0.706762014	-0.03028308	0.089085211	-0.026322322	0
4	746545513	0.000988816	-0.000823959	-0.707630901	-0.7065811	0.000312114	0.090030894	0.009026619	0
5	746562180	0.001060412	-0.001048689	-0.7077932	-0.706418121	-0.007550851	0.084252107	0.027328819	0
6	746578847	0.001011821	-0.001219277	-0.707956184	-0.706254579	0.030854754	0.077737647	0.003155099	0
7	746595514	0.000999419	-0.001312145	-0.708148132	-0.706061968	0.002998381	0.084989984	-0.021834168	0
8	746612181	0.000992676	-0.001441269	-0.708341172	-0.705868063	-0.011647827	0.079224913	-0.030218506	0
9	746628848	0.00100424	-0.00159582	-0.708507424	-0.705700839	-0.005468147	0.084822549	0.020271931	0
10	746645515	0.001001014	-0.001726677	-0.708688088	-0.705519107	0.015338067	0.075969268	0.050000905	0
11	746662182	0.000964261	-0.001843909	-0.70889593	-0.705310024	0.021328889	0.088158331	0.005648348	0
12	746678849	0.000912712	-0.001951367	-0.709048125	-0.705156803	0.059418648	0.084642582	-0.020167697	0
13	746695516	0.000887004	-0.00205221	-0.709208062	-0.704995692	0.027774517	0.080625596	-0.018226399	0
14	746712183	0.000891295	-0.002144742	-0.709321347	-0.704881432	0.015056622	0.097545968	-0.000765825	0
15	746728850	0.000889936	-0.002236599	-0.709493382	-0.704707987	0.021630277	0.088898391	0.018205668	0
16	746745517	0.000894183	-0.002329895	-0.709627752	-0.704572371	0.054757105	0.079951271	0.033234509	0
17	746762184	0.000879611	-0.002421914	-0.709929377	-0.704268159	0.031608036	0.075880846	0.015447583	0
18	746778851	0.000855365	-0.002510041	-0.710144165	-0.7040513	0.021170213	0.094029967	-0.003415228	0
19	746795518	0.000831681	-0.002611701	-0.710477445	-0.703714635	0.012971139	0.087399993	0.002886967	0
20	746812185	0.000812986	-0.002713519	-0.710882698	-0.703304888	0.018789262	0.092654622	0.012442709	0
21	746828852	0.00080252	-0.002782249	-0.710875239	-0.703312171	0.058812249	0.080247272	0.041897904	0
22	746845519	0.000778024	-0.002872636	-0.711115772	-0.703068632	0.063494319	0.087418816	0.022125195	0
23	746862186	0.000742833	-0.002947397	-0.710896367	-0.703290208	0.041354705	0.079453015	-0.006708873	0
24	746878853	0.000721371	-0.00303913	-0.711007325	-0.703177664	0.013957795	0.092891747	-0.001109796	0
25	746895520	0.000702183	-0.003120607	-0.710991673	-0.703193152	0.024034014	0.096026723	0.012618424	0
26	746912187	0.000699159	-0.003206032	-0.711154429	-0.703028172	0.060983805	0.079718986	0.021478677	0
27	746928854	0.000674357	-0.003297647	-0.711076001	-0.703107098	0.065796215	0.088699378	0.025470367	0
28	746945521	0.000661221	-0.003389256	-0.710939093	-0.703245108	0.074410235	0.083237741	0.01872568	0
29	746962188	0.000639942	-0.003481208	-0.710978021	-0.703205322	0.032794537	0.077197789	0.004184201	0
30	746978855	0.000628454	-0.003574758	-0.711166311	-0.703014441	0.056389298	0.079053035	0.003324388	0
31	746995522	0.000618609	-0.003657246	-0.711276336	-0.702902707	0.059909889	0.07954976	0.028884159	0
32	747012189	0.000602885	-0.003757466	-0.711717214	-0.702455781	0.083879463	0.084060312	0.051936034	0
33	747028856	0.000572521	-0.003842115	-0.711842191	-0.702328702	0.070424794	0.085597007	0.024941179	0
34	747045523	0.00054443	-0.003955731	-0.71240303	-0.701759203	0.043389733	0.084378778	0.002077046	0
35	747062190	0.000512186	-0.004049598	-0.712605246	-0.701553349	0.047327204	0.090227982	0.004383342	0
36	747078857	0.000506391	-0.004131778	-0.712826842	-0.701327716	0.03263643	0.096342357	0.024209024	0
37	747095524	0.000478454	-0.004246422	-0.713700964	-0.700437487	0.093666223	0.090823496	0.034512424	0
38	747112191	0.000452866	-0.004348179	-0.714018837	-0.70011284	0.08227642	0.075499818	0.038579004	0
39	747128858	0.000421505	-0.004464256	-0.714640577	-0.699477475	0.059855708	0.098508384	0.02520582	0
40	747145525	0.000401504	-0.004532781	-0.714533597	-0.699586328	0.041491491	0.083370377	0.003205727	0
41	747162192	0.000372019	-0.004616048	-0.714716058	-0.699399392	0.060048014	0.080148853	-0.000747223	0
42	747178859	0.000360367	-0.004720528	-0.715096048	-0.699010178	0.101181198	0.098448497	0.020169188	0
43	747195526	0.00033241	-0.004825608	-0.715406711	-0.69869152	0.121304733	0.086409032	0.044399005	0
44	747212193	0.00030971	-0.004913052	-0.7154505	-0.698646082	0.097304447	0.08255976	0.04298363	0
45	747228860	0.000277506	-0.005002139	-0.715500458	-0.698594301	0.078750558	0.07750977	0.001560744	0
46	747245527	0.000256576	-0.005077232	-0.71556658	-0.698526038	0.077357628	0.097228957	0.014689218	0
47	747262194	0.000248274	-0.005162993	-0.715808663	-0.698277337	0.083690538	0.070732909	0.023433431	0
48	747278861	0.00021843	-0.005243748	-0.715886771	-0.698196668	0.097756299	0.079213645	0.034843126	0
49	747295528	0.000191786	-0.005363919	-0.716940932	-0.697113256	0.109477362	0.083211016	0.039700624	0
50	747312195	0.000165242	-0.005432783	-0.71671739	-0.697342556	0.088008709	0.092096203	0.018509499	0
51	747328862	0.000146743	-0.005508934	-0.716615386	-0.697446785	0.063799127	0.083120364	-0.012494094	0
52	747345529	0.000139373	-0.005577484	-0.716381386	-0.697686593	0.078728731	0.084587434	0.010439815	0
53	747362196	0.00012733	-0.005662505	-0.7165048	-0.697559166	0.109478047	0.078952591	0.037313935	0
54	747378863	9.46E-05	-0.005759932	-0.716665703	-0.697393063	0.126747605	0.080799664	0.045965077	0
55	747395530	7.03E-05	-0.005840138	-0.716564199	-0.697496693	0.082539958	0.085752195	0.025589842	0
56	747412197	6.23E-05	-0.005901036	-0.716129805	-0.697942173	0.051274182	0.084061356	0.018131585	0
57	747428864	5.08E-05	-0.00597197	-0.716151104	-0.697919716	0.094871827	0.079927256	0.024086818	0
58	747445531	4.33E-05	-0.00603725	-0.715970553	-0.698104374	0.150076981	0.082829103	0.016905654	0
59	747462198	1.96E-05	-0.006111462	-0.715704494	-0.698376494	0.133137374	0.085523324	0.03265218	0
60	747478865	9.38E-06	0.006212717	0.71614674	0.697922093	0.097559237	0.095720354	0.035706968	0
61	747495532	3.43E-05	0.006308185	0.716190618	0.69787621	0.088706314	0.088573299	0.040131756	0
62	747512199	2.88E-05	0.00637701	0.716368968	0.697692507	0.088620201	0.078532222	0.044550907	0
63	747528866	3.86E-05	0.006458984	0.716798119	0.697250842	0.133233753	0.089128121	0.001998741	0
64	747545533	6.67E-05	0.006563072	0.717154738	0.696883063	0.124839028	0.100746437	0.002331726	0
65	747562200	9.35E-05	0.006666173	0.717329272	0.696702425	0.117928383	0.073509945	0.044780549	0
66	747578867	0.000115862	0.006744334	0.717310808	0.696720679	0.093836828	0.097668636	0.06906494	0
67	747595534	0.000116632	0.00682728	0.71778458	0.696231765	0.080597899	0.087569018	0.054062376	0
68	747612201	0.000118184	0.006881616	0.717725589	0.696292042	0.15098724	0.082376867	-0.006705145	0
69	747628868	0.000154664	0.006990538	0.718231094	0.695769505	0.132684175	0.076862053	-0.023288058	0
70	747645535	0.000174659	0.007082463	0.718387112	0.695607479	0.098509441	0.071302277	0.030088854	0
71	747662202	0.000196605	0.007165952	0.71845226	0.69553933	0.088625823	0.061115123	0.065401226	0
72	747678869	0.000211994	0.007223967	0.718091706	0.695910965	0.114686801	0.095280334	0.095554331	0
73	747695536	0.000179802	0.007249863	0.717573443	0.696445088	0.153488804	0.082175532	0.035238403	0
74	747712203	0.000208979	0.007327866	0.717473437	0.696547289	0.170821816	0.081955222	-0.020332083	0
75	747728870	0.000241502	0.007415998	0.717676887	0.696336722	0.121966033	0.078899651	0.01230176	0
76	747745537	0.000280418	0.007514494	0.717418847	0.696601501	0.133674808	0.084507643	0.067962316	0
77	747762204	0.000301711	0.007595596	0.717528075	0.696488103	0.017350457	0.099184112	0.061712928	0
78	747778871	0.000268607	0.00763304	0.717653244	0.696358733	0.109645398	0.090668763	0.020502686	0
79	747795538	0.00028407	0.007693302	0.717596441	0.696416599	0.170758373	0.084146477	-0.004054582	0
80	747812205	0.000302181	0.007788182	0.718137065	0.695858038	0.212886245	0.078520243	0.054194024	0
81	747828872	0.000360189	0.0078808	0.717771455	0.696234085	0.155346018	0.078723783	0.080464973	0
82	747845539	0.000391481	0.007969164	0.718006724	0.695990433	0.093421831	0.088336097	0.062595349	0
83	747862206	0.000396657	0.008036269	0.718242492	0.69574635	0.054290631	0.087319222	0.026749512	0
84	747878873	0.000367016	0.008046805	0.718079055	0.695914927	0.162704221	0.097174389	0.013488028	0
85	747895540	0.000395587	0.008134038	0.718294706	0.695691308	0.2091326	0.094806655	0.007069962	0
86	747912207	0.000433412	0.008226478	0.718096838	0.695894438	0.160968666	0.092138255	0.050642778	0
87	747928874	0.0004741	0.00827943	0.717413262	0.696598477	0.110055407	0.093288475	0.088991201	0
88	747945541	0.000476987	0.008337994	0.717533473	0.696473951	0.077485965	0.09850222	0.073472794	0
89	747962208	0.0004578	0.008353743	0.717205814	0.696811184	0.165777925	0.074647216	0.006549375	0
90	747978875	0.000477475	0.008424891	0.717462438	0.696546081	0.19669625	0.093972771	0.011731015	0
91	747995542	0.00051146	0.008511884	0.71776883	0.696229268	0.194370469	0.083806805	0.037210926	0
92	748012209	0.000551787	0.008615202	0.718039334	0.695948984	0.121744141	0.09868042	0.094689968	0
93	748028876	0.000549556	0.008662594	0.718230329	0.695751286	0.095077801	0.094650062	0.080361346	0
94	748045543	0.000554341	0.008710638	0.718399046	0.695576472	0.146283334	0.090315061	0.023753797	0
95	748062210	0.000559133	0.008761212	0.71847973	0.695492491	0.201387486	0.081287144	-0.002709477	0
96	748078877	0.000591068	0.008847254	0.718608845	0.695357969	0.202060453	0.082102203	0.026077599	0
97	748095544	0.000635396	0.008923028	0.718291637	0.695684627	0.153578971	0.084718078	0.06363272	0
98	748112211	0.000647337	0.008973999	0.717984975	0.696000449	0.091739175	0.105073719	0.079419247	0
99	748128878	0.000647246	0.009043194	0.718742429	0.69521732	0.132179009	0.087224904	0.060530822	0
100	748145545	0.00063638	0.009092199	0.719283728	0.694656639	0.181479118	0.088298923	0.01115365	0
101	748162212	0.000652627	0.009144407	0.718793663	0.69516302	0.192383052	0.088817793	0.011338372	0
102	748178879	0.000693007	0.009218769	0.718924543	0.695026644	0.167817683	0.083272781	0.049568901	0
103	748195546	0.000708394	0.009283802	0.719073596	0.694871551	0.135528002	0.101955437	0.083843117	0
104	748212213	0.000697747	0.009313543	0.71913231	0.6948104	0.132089203	0.086505591	0.061147168	0
105	748228880	0.000699713	0.009367001	0.719389769	0.694543109	0.170833433	0.077691356	0.02282365	0
106	748245547	0.00072161	0.009423541	0.719520195	0.694407204	0.198619369	0.090094953	0.011442306	0
107	748262214	0.000750838	0.00949377	0.719610932	0.694312186	0.156035464	0.08205729	0.048481356	0
108	748278881	0.000772275	0.009553721	0.719429484	0.69449935	0.134304029	0.086139068	0.074423163	0
109	748295548	0.000773849	0.009593452	0.719534094	0.694390419	0.132590598	0.086123391	0.078618457	0
110	748312215	0.000781666	0.00963498	0.719556579	0.694366535	0.189181234	0.078927215	0.042814205	0
111	748328882	0.000787552	0.009678364	0.719757158	0.694158009	0.20642036	0.091492659	0.022978099	0
112	748345549	0.000805542	0.009748298	0.719958663	0.693948013	0.17819157	0.08148673	0.022875289	0
113	748362216	0.000827365	0.0098182	0.72025283	0.693641679	0.164947	0.085478828	0.07398537	0
114	748378883	0.000828595	0.009860796	0.720532747	0.6933503	0.155571703	0.075104884	0.078349445	0
115	748395550	0.000828397	0.009887208	0.720610117	0.693269512	0.172853578	0.082636337	0.064866504	0
116	748412217	0.000855812	0.009941939	0.721003655	0.692859404	0.206387721	0.098220523	0.039462536	0
117	748428884	0.00088266	0.009991626	0.721163576	0.692692201	0.19047961	0.079004096	0.020250372	0
118	748445551	0.000894702	0.010040426	0.721465327	0.692377188	0.173036313	0.087799717	0.038948493	0
119	748462218	0.001144802	-0.000605387	-0.710738033	-0.703455593	-0.030463582	0.084174954	0.015549481	0
120	748478885	0.00117	-0.000583681	-0.710739688	-0.703453898	-0.004027512	0.088689009	0.025988655	0
121	748495552	0.001169803	-0.000586516	-0.710739752	-0.703453832	0.0193578	0.089134275	-0.007491546	0
122	748512219	0.001174943	-0.000588577	-0.710739582	-0.703453993	0.005074139	0.095637506	-0.027645143	0
123	748528886	0.001158035	-0.000601444	-0.710734642	-0.703459001	-0.019208023	0.098490946	-0.000847914	0
124	748545553	0.001161245	-0.000596899	-0.710734554	-0.703459088	-0.030346729	0.084483865	-0.003444389	0
125	748562220	0.00118037	-0.000586199	-0.710732189	-0.703461455	0.017471258	0.098297419	0.016993443	0
126	748578887	0.001195994	-0.000579334	-0.710727917	-0.70346575	0.022228423	0.093715638	0.01245572	0
127	748595554	0.001207153	-0.000586919	-0.710724488	-0.70346919	0.029736178	0.082687412	-0.021874452	0
128	748612221	0.001197157	-0.000600988	-0.710730999	-0.703462617	-0.023221434	0.076879699	-0.011156362	0
129	748628888	0.001200771	-0.000599935	-0.710732203	-0.703461395	-0.023794249	0.096331549	0.004832754	0
130	748645555	0.001211252	-0.000594348	-0.710730359	-0.703463244	-0.023988234	0.077597279	0.021585692	0
131	748662222	0.001227488	-0.000583594	-0.710728672	-0.70346493	0.017276438	0.084205131	0.019410059	0
132	748678889	0.001218988	-0.000593202	-0.710727848	-0.703465769	0.003192473	0.087329402	-0.002633711	0
133	748695556	0.001210447	-0.000603133	-0.710728052	-0.703465569	-0.006246848	0.083737144	-0.001875072	0
134	748712223	0.001208582	-0.000611009	-0.710719657	-0.703474048	-0.017662428	0.095538228	-0.011105482	0
135	748728890	0.001204553	-0.000600858	-0.710714512	-0.703479261	-0.02014941	0.082657427	0.008607337	0
136	748745557	0.001203547	-0.00059424	-0.71071955	-0.703474178	0.016055824	0.086202393	0.031858805	0
137	748762224	0.001207652	-0.000593309	-0.710717673	-0.703476069	0.010331335	0.097628034	0.015782084	0
138	748778891	0.001204901	-0.000604264	-0.710722898	-0.703470785	0.014166083	0.078150476	-0.007201586	0
139	748795558	0.001187119	-0.000606914	-0.710724469	-0.703469226	-0.018286918	0.100551877	0.006477365	0
140	748812225	0.001193795	-0.000581995	-0.710727246	-0.70346643	-0.025443178	0.081622839	0.009997613	0
141	748828892	0.00120034	-0.000578697	-0.710723424	-0.703470283	0.008389565	0.086230268	0.024394352	0
142	748845559	0.001205083	-0.00057703	-0.710724646	-0.703469042	0.036799467	0.090175822	0.017514033	0
143	748862226	0.001215867	-0.000584081	-0.710718608	-0.703475117	0.006585665	0.084050027	0.012562666	0
144	748878893	0.001219317	-0.000579666	-0.710709692	-0.703484123	-0.011558071	0.088521893	-0.017158833	0
145	748895560	0.001226897	-0.000575093	-0.710706922	-0.703486912	-0.011667578	0.085835901	-0.009605233	0
146	748912227	0.001237993	-0.000570613	-0.710708714	-0.703485085	0.008917253	0.084066146	0.018127229	0
147	748928894	0.001241094	-0.000560828	-0.710705237	-0.7034886	-0.008382389	0.088722846	0.011899429	0
148	748945561	0.001247737	-0.000563156	-0.710700599	-0.703493273	0.023111638	0.085430008	-0.001181056	0
149	748962228	0.001245557	-0.000567271	-0.710694872	-0.703499059	0.002484907	0.091264121	-0.007326062	0
150	748978895	0.001237548	-0.000572721	-0.710691655	-0.703502318	-0.029575855	0.078558082	0.010073728	0
151	748995562	0.001244046	-0.000564892	-0.710690823	-0.703503154	-0.012734564	0.10240105	-0.00124962	0
152	749012229	0.001239348	-0.000562298	-0.710688422	-0.70350559	-0.02237685	0.08719453	0.004422763	0
153	749028896	0.001248873	-0.000562634	-0.710691711	-0.70350225	0.015988876	0.091824421	0.012323979	0
154	749045563	0.001245044	-0.000569149	-0.710691521	-0.703502443	-0.024348898	0.084968357	0.019782903	0
155	749062230	0.001248747	-0.000558563	-0.710691493	-0.703502474	0.013287838	0.091328789	-0.00268327	0
156	749078897	0.001239511	-0.000567344	-0.710690327	-0.703503661	0.003792764	0.088625656	-0.009378537	0
157	749095564	0.001247585	-0.000554994	-0.710660404	-0.703533884	0.009761922	0.091752204	0.002940634	0
158	749112231	0.001241628	-0.000564163	-0.71065858	-0.703535729	0.009793958	0.089599262	0.020533028	0
159	749128898	0.001251511	-0.000562975	-0.710524057	-0.703671572	-0.012993379	0.084211338	0.011637074	0
160	749145565	0.001253322	-0.000564348	-0.710806107	-0.703386656	0.003829244	0.080400065	-0.012005342	0
161	749162232	0.00126461	-0.000564198	-0.71088638	-0.703305507	-0.023109685	0.097007668	-0.003171155	0
162	749178899	0.001260652	-0.000560841	-0.710931776	-0.70325963	0.007576734	0.077000004	0.004711197	0
163	749195566	0.001266938	-0.0005734	-0.711534875	-0.702649406	0.002486331	0.080412186	0.007437606	0
164	749212233	0.001269319	-0.000559297	-0.711443135	-0.702742301	0.004353572	0.071525709	0.007423459	0
165	749228900	0.001269216	-0.000570969	-0.711508228	-0.702676387	-0.018072587	0.090450331	0.00722588	0
166	749245567	0.00127937	-0.000557557	-0.711314256	-0.702872735	0.006224406	0.081040024	0.003815757	0
167	749262234	0.001286164	-0.00055192	-0.711170959	-0.703017715	0.019405926	0.095471776	-0.022891514	0
168	749278901	0.00129163	-0.000550181	-0.710959188	-0.703231869	0.010697622	0.087940607	0.00514325	0
169	749295568	0.001296928	-0.000559751	-0.711022657	-0.70316768	-0.005244745	0.081354461	0.018446491	0
170	749312235	0.001288867	-0.000571733	-0.711009229	-0.703181263	-0.006462221	0.086114189	0.013153092	0
171	749328902	0.001299674	-0.000563677	-0.71117745	-0.703011115	0.013912875	0.092717575	-0.000373319	0
172	749345569	0.001297206	-0.00057405	-0.711075961	-0.703113765	0.000940064	0.08432273	-0.001345213	0
173	749362236	0.001304924	-0.000576249	-0.711221381	-0.702966651	-0.015587042	0.082367602	0.003828305	0
174	749378903	0.001293323	-0.00058714	-0.71125409	-0.702933568	-0.008808749	0.092840592	0.00721378	0
175	749395570	0.001312894	-0.000589921	-0.711341405	-0.702845171	-0.00273657	0.082788311	0.007898643	0
176	749412237	0.001314821	-0.000589275	-0.711457063	-0.702728092	-0.009004908	0.087536981	0.00641128	0
177	749428904	0.001311141	-0.000590009	-0.711550569	-0.702633418	-0.020797438	0.093051432	0.01840147	0
178	749445571	0.001317341	-0.000589405	-0.711683328	-0.702498938	0.0016336	0.085344583	-0.008011987	0
179	749462238	0.0013027	-0.000612377	-0.711828923	-0.702351417	0.005486513	0.088798873	-0.012080474	0
180	749478905	0.001304089	-0.000606197	-0.711840775	-0.702339407	-0.004776655	0.094112862	0.010332548	0
181	749495572	0.00129856	-0.000607512	-0.711836315	-0.702343937	0.010848202	0.075114708	0.022098225	0
182	749512239	0.001303816	-0.000614461	-0.711826173	-0.7023542	0.010504424	0.081742124	-0.002908053	0
183	749528906	0.001303921	-0.000615952	-0.711929579	-0.702249383	-0.015116401	0.085399917	0.013626491	0
184	749545573	0.001301341	-0.00060628	-0.711856202	-0.702323777	0.015214739	0.090236345	-0.007425484	0
185	749562240	0.00129488	-0.000603018	-0.711902597	-0.702276764	-0.013743599	0.076533116	0.001658975	0
186	749578907	0.001296965	-0.000607124	-0.711922153	-0.702256931	-0.011366829	0.090611606	0.009844567	0
187	749595574	0.00129494	-0.000600296	-0.711858508	-0.702321456	0.002218581	0.081938936	0.005941405	0
188	749612241	0.001285127	-0.000594126	-0.711834318	-0.702345997	-0.008071267	0.087353918	-0.000827838	0
189	749628908	0.001291453	-0.000600725	-0.71193539	-0.702243527	-0.014655038	0.092720094	0.008084421	0
190	749645575	0.001289334	-0.000603947	-0.711857402	-0.702322584	-0.008194966	0.102914884	-0.005184818	0
191	749662242	0.001301313	-0.000612415	-0.712023878	-0.702153778	0.013470247	0.084415616	0.007960307	0
192	749678909	0.001294011	-0.000619809	-0.712037982	-0.702139483	0.022526727	0.087004146	0.007597917	0
193	749695576	0.001298156	-0.000616264	-0.712063942	-0.702113152	0.003183993	0.085639724	0.005052242	0
194	749712243	0.001284276	-0.000616994	-0.712013827	-0.702163998	0.00205531	0.093520416	0.005178608	0
195	749728910	0.001281724	-0.000621502	-0.712222484	-0.701952351	-0.007527759	0.092356067	0.01396251	0
196	749745577	0.001286594	-0.000622937	-0.712278336	-0.701895668	0.004874423	0.086132888	0.01371943	0
197	749762244	0.001288966	-0.000620735	-0.712272282	-0.701901809	0.000703646	0.097292624	0.001884742	0
198	749778911	0.001295017	-0.000621632	-0.712304235	-0.701869371	-0.002509305	0.080200584	0.005091339	0
199	749795578	0.001292762	-0.000601128	-0.71154745	-0.702636601	-0.02268966	0.075877427	0.008898314	0
200	749812245	0.001295985	-0.000596518	-0.711673014	-0.70250942	-0.001462014	0.081661766	-0.007663402	0
201	749828912	0.001288825	-0.000591841	-0.711474721	-0.702710261	-0.008771026	0.092358802	0.005613693	0
202	749845579	0.001294302	-0.000579219	-0.711349809	-0.702836708	-0.020360323	0.081442344	0.018236314	0
203	749862246	0.001282935	-0.000576608	-0.711332215	-0.702854538	-0.027175121	0.077432905	0.019436949	0
204	749878913	0.001292321	-0.00057275	-0.711458195	-0.702727002	0.000413215	0.084478636	-0.001929233	0
205	749895580	0.001284569	-0.000580258	-0.711419688	-0.702765993	0.013938143	0.080349632	-0.017804181	0
206	749912247	0.001280922	-0.00057998	-0.71144433	-0.702741054	-0.030447744	0.089884133	0.000257629	0
207	749928914	0.001279382	-0.000587865	-0.71146444	-0.70272069	0.007115205	0.087487247	0.006907352	0
208	749945581	0.001275374	-0.000589231	-0.711505216	-0.70267941	-0.00292487	0.079616647	0.021135664	0
209	749962248	0.001273656	-0.000589365	-0.711485492	-0.702699384	0.005336934	0.085421247	-0.003131358	0
210	749978915	0.00125946	-0.000593627	-0.711443348	-0.702742075	0.02960599	0.090598962	0.01363606	0
211	749995582	0.001248673	-0.00058545	-0.711509259	-0.702675368	-0.020910699	0.098045956	-0.012559484	0
212	750012249	0.00123524	-0.000591304	-0.711555462	-0.702628599	-0.016374373	0.082492626	-0.000243512	0
213	750028916	0.001239316	-0.000578349	-0.711456835	-0.702728469	-0.008550842	0.086289883	0.01963327	0
214	750045583	0.001235132	-0.000566391	-0.711445806	-0.702739652	-0.009238378	0.098497722	0.004321702	0
215	750062250	0.001239541	-0.000570283	-0.711502628	-0.70268211	0.020945186	0.086657163	0.007445444	0
216	750078917	0.001228411	-0.000587964	-0.711526019	-0.702658431	-0.009545547	0.078241586	-0.006541423	0
217	750095584	0.001227689	-0.000603822	-0.711621961	-0.702561252	-0.011174332	0.086920868	-0.008548585	0
218	750112251	0.001231475	-0.000589397	-0.711617987	-0.702565283	-0.023883685	0.093239436	0.014582182	0
219	750128918	0.00122515	-0.000593196	-0.711758771	-0.702422664	-0.000705606	0.099553059	-0.009572871	0
220	750145585	0.001227412	-0.000593478	-0.711832572	-0.70234787	0.009131761	0.093049585	0.007750001	0
221	750162252	0.00121851	-0.000598972	-0.711845708	-0.702334568	-0.000245381	0.084837543	0.0079956	0
222	750178919	0.001213801	-0.000600068	-0.71186025	-0.702319835	-0.021477753	0.081339671	0.005228714	0
223	750195586	0.00122055	-0.000619425	-0.711971865	-0.702206657	-0.005506615	0.085846564	-0.002483473	0
224	750212253	0.001220072	-0.0006097	-0.712011719	-0.702166256	-0.004980423	0.089591743	-0.002725587	0
225	750228920	0.001212403	-0.000608092	-0.712103617	-0.702073073	0.009558103	0.087900804	0.004143069	0
226	750245587	0.001215822	-0.00060532	-0.712139012	-0.702037166	0.020228008	0.097572016	-0.003038096	0
227	750262254	0.001206447	-0.00060885	-0.712181599	-0.701993977	0.029532802	0.081322116	-0.024110266	0
228	750278921	0.001205537	-0.000617346	-0.712367189	-0.701805638	0.01299181	0.088055554	0.007216708	0
229	750295588	0.001215302	-0.000617828	-0.712370301	-0.701802462	-0.007455293	0.093675939	0.004217972	0
230	750312255	0.001225418	-0.000610648	-0.712234673	-0.701940094	0.009422755	0.081327048	-0.001130491	0
231	750328922	0.001224378	-0.000611142	-0.712255401	-0.701919063	-0.006421515	0.077409678	-0.004815606	0
232	750345589	0.00122099	-0.00060665	-0.71223237	-0.701942442	0.004284564	0.097474751	0.007919933	0
233	750362256	0.001215057	-0.000609546	-0.712390017	-0.701782456	-5.10E-05	0.094834972	0.003719146	0
234	750378923	0.001212066	-0.000609231	-0.712279119	-0.701895018	-0.012347341	0.103354523	0.007055407	0
235	750395590	0.00121547	-0.000606676	-0.712252754	-0.701921768	-0.014243849	0.085734058	0.006409698	0
236	750412257	0.001223368	-0.000609415	-0.712276007	-0.701898156	-0.004548095	0.091850592	0.005403499	0
237	750428924	0.001227888	-0.000611338	-0.712288823	-0.701885141	0.002421501	0.086163583	0.013418093	0
238	750445591	0.001221258	-0.000620458	-0.712268101	-0.701906173	0.00824129	0.081632593	0.004181483	0
239	750462258	0.001135346	-0.000628738	-0.71233011	-0.70184338	-0.011952017	0.08822478	-0.004990533	0
240	750478925	0.00113436	-0.00063728	-0.712435343	-0.701736552	-0.008877129	0.097813788	0.007573284	0
241	750495592	0.001137632	-0.000621879	-0.712431728	-0.701740231	-0.013423546	0.092663237	0.017715367	0
242	750512259	0.001145038	-0.000626359	-0.712511124	-0.7016596	0.020428939	0.083887537	-0.008268593	0
243	750528926	0.001139054	-0.000624988	-0.712464455	-0.701706999	0.007396748	0.091392411	0.002193503	0
244	750545593	0.001132625	-0.000630222	-0.712570834	-0.701598978	0.007074157	0.086993093	-0.002615101	0
245	750562260	0.001130052	-0.000635436	-0.712589809	-0.701579706	0.002447985	0.083820588	0.002617742	0
246	750578927	0.001144618	-0.00064614	-0.712718535	-0.701448902	0.004307306	0.08591444	0.006348037	0
247	750595594	0.001137604	-0.000646662	-0.712659908	-0.701508477	0.001185633	0.089625473	0.004325527	0
248	750612261	0.001132822	-0.000641601	-0.712544629	-0.701625582	0.004300741	0.082806616	0.000150398	0
249	750628928	0.001131562	-0.000653458	-0.712553258	-0.70161681	0.004161182	0.087753162	0.007325571	0
250	750645595	0.001125738	-0.000661164	-0.712589728	-0.701579771	-0.027363646	0.078116394	0.016933402	0
251	750662262	0.001136221	-0.000671937	-0.712639224	-0.701529467	-0.016776152	0.085567728	0.003768241	0
252	750678929	0.001136167	-0.000672487	-0.712716253	-0.701451209	-0.01132309	0.096547306	-0.00183497	0
253	750695596	0.001142609	-0.000665086	-0.712669459	-0.701498748	0.006491427	0.070814137	-0.005917214	0
254	750712263	0.001142146	-0.000674861	-0.712758633	-0.701408135	-0.007706932	0.089874782	0.004568371	0
255	750728930	0.001139195	-0.0006789	-0.712729325	-0.701437917	-0.019002903	0.07614999	0.002761618	0
256	750745597	0.001130948	-0.000671558	-0.712705518	-0.701462126	0.005175648	0.086782153	-0.017483473	0
257	750762264	0.001135562	-0.000660959	-0.712649501	-0.701519039	0.00479167	0.099821404	-0.016791961	0
258	750778931	0.001134905	-0.000666469	-0.712698154	-0.701469606	0.006947567	0.088773413	0.014050927	0
259	750795598	0.00113626	-0.000667339	-0.712707528	-0.70146008	0.009016489	0.090660114	0.015260844	0
260	750812265	0.001135187	-0.000669747	-0.712553507	-0.701616535	0.008228858	0.087481408	0.004875263	0
261	750828932	0.001129198	-0.000671454	-0.712543447	-0.70162676	0.002608659	0.092584236	0.005880775	0
262	750845599	0.001116672	-0.000677376	-0.712694299	-0.701473542	0.00228995	0.102894679	-0.001938541	0
263	750862266	0.001122382	-0.000662487	-0.712515566	-0.701655093	0.029143202	0.095122628	0.000810644	0
264	750878933	0.001120327	-0.000661111	-0.712571253	-0.701598544	0.032950784	0.091693291	-0.00813302	0
265	750895600	0.001117862	-0.000666479	-0.712581409	-0.701588228	0.008941736	0.094240221	0.006558209	0
266	750912267	0.001117384	-0.000669302	-0.71258038	-0.701589271	-0.012135966	0.09802357	0.015096746	0
267	750928934	0.001115958	-0.000672183	-0.712562912	-0.701607012	0.022340848	0.093964859	-0.011247009	0
268	750945601	0.001122879	-0.000673683	-0.712585065	-0.701584499	0.00328515	0.093044525	-0.001583355	0
269	750962268	0.00111894	-0.000670392	-0.712544697	-0.701625508	0.005258102	0.104160971	0.000991102	0
270	750978935	0.001121771	-0.00067191	-0.712573203	-0.701596551	0.009399408	0.094124519	0.008314884	0
271	750995602	0.001124034	-0.000669597	-0.71255168	-0.701618409	0.020808919	0.088892724	0.006055282	0
272	751012269	0.001118319	-0.00067428	-0.712561013	-0.701608934	-0.004556997	0.100673951	-0.002112261	0
273	751028936	0.001110408	-0.000666617	-0.712577088	-0.701592629	0.007023309	0.0936509	-0.004699835	0
274	751045603	0.001108374	-0.000659698	-0.712488675	-0.701682424	0.020252049	0.092679899	-0.005637358	0
275	751062270	0.001106435	-0.000670009	-0.712532069	-0.701638352	-0.001543041	0.092822197	-0.002068475	0
276	751078937	0.001099605	-0.000682212	-0.712632598	-0.701536247	0.006795295	0.090727507	0.008120369	0
277	751095604	0.0010942	-0.000692255	-0.712670847	-0.70149739	-0.013401556	0.092324308	0.011481225	0
278	751112271	0.001099093	-0.000689869	-0.712636824	-0.701531947	0.00378301	0.094507582	-0.023152159	0
279	751128938	0.001092432	-0.000698736	-0.712659832	-0.701508576	0.002956169	0.094400561	-0.012455247	0
280	751145605	0.001085843	-0.000702836	-0.712652641	-0.701515887	0.01213368	0.09814656	-0.000956595	0
281	751162272	0.001078687	-0.000715647	-0.712709146	-0.701458478	-0.015366918	0.088357011	0.008565826	0
282	751178939	0.00107512	-0.000721102	-0.712657447	-0.701511003	-0.002488913	0.087444119	0.018681273	0
283	751195606	0.001081012	-0.000710137	-0.712666223	-0.70150209	0.014745268	0.085232249	0.004465351	0
284	751212273	0.001080357	-0.000708418	-0.71269692	-0.701470905	0.001127671	0.104589273	-0.012356157	0
285	751228940	0.001072203	-0.000702759	-0.712651839	-0.701516724	-0.001346972	0.095091258	-0.001465715	0
286	751245607	0.001057883	-0.000694279	-0.712504307	-0.701666596	0.004077187	0.087975152	0.015152513	0
287	751262274	0.001061446	-0.000696567	-0.712550527	-0.701619651	0.007043733	0.085919998	0.004005244	0
288	751278941	0.001057237	-0.000698607	-0.712561825	-0.701608181	-0.008201523	0.093604618	0.004020217	0
289	751295608	0.00105646	-0.00069495	-0.712622999	-0.701546052	-0.003872543	0.083521108	0.010814439	0
290	751312275	0.001063623	-0.000693722	-0.712625499	-0.701543503	0.013062408	0.091861187	-0.003215515	0
291	751328942	0.001062625	-0.000689821	-0.712578481	-0.701591265	0.015793533	0.085009485	-0.010675041	0
292	751345609	0.001062188	-0.000692026	-0.712586738	-0.701582877	-0.002910946	0.09720857	0.01022747	0
293	751362276	0.001054912	-0.000688753	-0.712549509	-0.701620703	-0.01359052	0.089502418	0.021876525	0
294	751378943	0.001060553	-0.000684907	-0.712586736	-0.701582889	0.010912008	0.090596534	-0.00634102	0
295	751395610	0.001054614	-0.000690506	-0.71268672	-0.701481326	0.036561677	0.08612908	-0.025515895	0
296	751412277	0.001041272	-0.000695754	-0.712696483	-0.701471421	0.023549067	0.086671066	-0.003413283	0
297	751428944	0.001025982	-0.0007111	-0.712779631	-0.70138694	-0.002104501	0.088549994	-0.005720388	0
298	751445611	0.001023568	-0.000716098	-0.712795241	-0.701371074	-0.00603036	0.073768709	0.000464645	0
299	751462278	0.001028467	-0.00071892	-0.712803926	-0.701362237	-0.016774336	0.088254799	-0.003018204	0
300	751478945	0.001039539	-0.000715133	-0.712728745	-0.701438625	0.003177422	0.079278665	-0.011199687	0
301	751495612	0.001040842	-0.00072117	-0.712707394	-0.701460311	0.004591519	0.078258851	-0.014349433	0
302	751512279	0.001045908	-0.000726258	-0.712659317	-0.701509143	0.00590764	0.077314823	0.003233317	0
303	751528946	0.001048314	-0.000728674	-0.712800334	-0.701365849	0.000222282	0.103150889	0.010632972	0
304	751545613	0.001053711	-0.000725105	-0.712811456	-0.701354541	-0.001550575	0.087123918	0.011704213	0
305	751562280	0.001058445	-0.000713702	-0.712840677	-0.701324846	-0.001144462	0.099732551	0.007489531	0
306	751578947	0.001052309	-0.000719974	-0.712857988	-0.701307253	0.030344556	0.093084482	-0.019704236	0
307	751595614	0.001054453	-0.00072759	-0.71282795	-0.701337773	0.002644903	0.105083118	-0.007352037	0
308	751612281	0.001061172	-0.000734207	-0.712825514	-0.701340232	-0.004573563	0.092142518	0.000351719	0
309	751628948	0.001054989	-0.000734288	-0.71285363	-0.701311664	-0.02162036	0.07447027	0.008710693	0
310	751645615	0.001064882	-0.000731506	-0.712855414	-0.701309839	0.002758232	0.079338063	2.73E-05	0
311	751662282	0.001055304	-0.000733774	-0.712815682	-0.701350235	0.00610925	0.101613356	-0.004219663	0
312	751678949	0.001062881	-0.000729211	-0.712798386	-0.701367806	0.007753248	0.082677163	-0.005549076	0
313	751695616	0.001053579	-0.000741642	-0.71280229	-0.70136384	-0.005948775	0.092102443	-0.008923456	0
314	751712283	0.001054971	-0.000742413	-0.712814296	-0.701351635	-0.021372886	0.105181668	0.002638026	0
315	751728950	0.001045581	-0.000739512	-0.71280796	-0.701358091	-0.009449854	0.069174342	0.003094213	0
316	751745617	0.001053623	-0.000742189	-0.712833824	-0.701331789	0.011960081	0.082876841	0.013800861	0
317	751762284	0.00104141	-0.000741209	-0.712836967	-0.701328614	0.005883612	0.094692292	0.004111385	0
318	751778951	0.001028817	-0.000749829	-0.712837018	-0.701328571	-0.008906917	0.086739674	0.009373965	0
319	751795618	0.001033101	-0.000751411	-0.712826365	-0.701339391	-0.003171001	0.093823402	0.01375973	0
320	751812285	0.001037684	-0.000748808	-0.712751532	-0.701415438	-0.005555776	0.092583405	0.004090009	0
321	751828952	0.001036793	-0.000748775	-0.712807652	-0.701358407	0.0078341	0.091728247	0.01419021	0
322	751845619	0.001036336	-0.000755097	-0.712754844	-0.701412067	0.000513883	0.081426694	-0.004705322	0
323	751862286	0.001029815	-0.000764547	-0.712802731	-0.701363402	-0.002962983	0.077869758	-0.001833559	0
324	751878953	0.001024571	-0.000765848	-0.712797683	-0.701368538	-0.007671851	0.089020826	-0.006726108	0
325	751895620	0.001031673	-0.000765777	-0.712720052	-0.701447415	0.014101092	0.083647522	0.006447509	0
326	751912287	0.001031171	-0.000779655	-0.712699571	-0.701468211	0.006578956	0.088793857	0.006230505	0
327	751928954	0.001028048	-0.000772588	-0.712685245	-0.701482778	0.004709661	0.085890625	0.002989192	0
328	751945621	0.001026691	-0.000782301	-0.712759539	-0.701407281	0.00041047	0.088285172	-0.012319486	0
329	751962288	0.001025921	-0.000783323	-0.712753582	-0.701413334	-0.012572658	0.09195211	-0.005877759	0
330	751978955	0.001036008	-0.000788184	-0.712829322	-0.701336341	0.004252223	0.08369712	0.004139056	0
331	751995622	0.001028457	-0.000793932	-0.712827913	-0.701337778	0.008418826	0.089987907	0.002851554	0
332	752012289	0.001025393	-0.000788735	-0.712895447	-0.701269141	0.014396589	0.08907304	-0.016598226	0
333	752028956	0.001020428	-0.000795777	-0.712890207	-0.701274467	0.020707686	0.092982275	-0.005082191	0
334	752045623	0.001018545	-0.000800667	-0.712936018	-0.701227891	-0.014588629	0.079005556	0.002419723	0
335	752062290	0.001014572	-0.000798458	-0.712846751	-0.701318646	0.010478756	0.085516197	-0.003233474	0
336	752078957	0.001025412	-0.000801658	-0.712841748	-0.701323712	0.000634006	0.087442274	0.002428508	0
337	752095624	0.001030907	-0.0007964	-0.712858837	-0.70130634	-0.005536424	0.083526589	-0.000856371	0
338	752112291	0.001023616	-0.000789892	-0.712845626	-0.701319785	0.011003828	0.097244507	-0.0066322	0
339	752128958	0.001015584	-0.000786453	-0.712832627	-0.701333014	-0.013438098	0.09276886	-0.005970682	0
340	752145625	0.001001926	-0.000794407	-0.712835371	-0.701330235	0.003167199	0.091167162	-0.00674099	0
341	752162292	0.001000283	-0.000788325	-0.712847517	-0.701317899	-0.008304367	0.093075903	0.021055449	0
342	752178959	0.001001459	-0.000778321	-0.71284299	-0.70132251	0.012127777	0.077412138	0.003890406	0
343	752195626	0.000998544	-0.000784193	-0.712817249	-0.70134867	0.009741641	0.096658963	0.001624616	0
344	752212293	0.001003923	-0.000799887	-0.71282483	-0.70134094	0.006513709	0.102240406	-0.003078318	0
345	752228960	0.000999616	-0.000811515	-0.712882077	-0.701282743	-0.010599696	0.08062858	0.008488737	0
346	752245627	0.001002834	-0.000812121	-0.712892738	-0.701271901	-0.01448292	0.088262171	-0.011518979	0
347	752262294	0.000992874	-0.000815271	-0.712816713	-0.701349187	-0.00786392	0.093558642	0.019152749	0
348	752278961	0.001005	-0.000815062	-0.712827845	-0.701337856	0.018293039	0.095843108	-0.004404448	0
349	752295628	0.001013404	-0.00081444	-0.712798912	-0.701367251	0.020757003	0.100127537	-0.001945223	0
350	752312295	0.001005338	-0.000823442	-0.712832251	-0.701333368	0.005684689	0.07547256	-8.26E-05	0
351	752328962	0.001011569	-0.000832565	-0.712844053	-0.701321352	-0.002440421	0.094438423	0.004413779	0
352	752345629	0.000997769	-0.000832879	-0.712890665	-0.701273991	-0.002365234	0.09105906	-0.004116775	0
353	752362296	0.001007424	-0.000830446	-0.712878675	-0.701286169	0.010232113	0.09065088	0.016268201	0
354	752378963	0.00100411	-0.00083989	-0.712864626	-0.701300444	0.005349628	0.09028128	0.00663057	0
355	752395630	0.001001227	-0.000843717	-0.712861114	-0.701304012	-0.009763273	0.102322696	-0.003309285	0
356	752412297	0.00100399	-0.000856945	-0.712863281	-0.70130179	-0.013110683	0.088546253	0.005320851	0
357	752428964	0.001005233	-0.000853078	-0.712910653	-0.701253636	0.000795504	0.091591228	-0.001497671	0
358	752445631	0.001017988	-0.000848679	-0.712970588	-0.701192687	0.019946687	0.095924048	-0.004166519	0
359	752462298	0.001106372	-0.000682178	-0.713030511	-0.7011318	0.002933527	0.097311941	0.006041505	0
360	752478965	0.001116804	-0.000684702	-0.712943128	-0.701220636	-0.00662085	0.083170568	0.005065499	0
361	752495632	0.001120218	-0.000686961	-0.712850514	-0.701314778	0.010632241	0.081930809	0.002406788	0
362	752512299	0.00112418	-0.000684345	-0.712849831	-0.701315469	-0.025291185	0.099508341	0.001824687	0
363	752528966	0.001122899	-0.000682951	-0.712852873	-0.70131238	0.008831938	0.088613273	0.004932483	0
364	752545633	0.001128569	-0.00068001	-0.712886406	-0.701278287	-0.016655881	0.094185823	-0.000167673	0
365	752562300	0.00112387	-0.000680993	-0.712916489	-0.701247712	0.012102136	0.082990074	-0.008419784	0
366	752578967	0.001114133	-0.000685646	-0.712945569	-0.701218157	0.007718475	0.089857278	-0.004420393	0
367	752595634	0.001110782	-0.000682009	-0.712902287	-0.70126217	-0.003072608	0.085930098	-0.006313217	0
368	752612301	0.001111112	-0.000686476	-0.712887725	-0.701276968	0.00115392	0.092784753	0.008885645	0
369	752628968	0.001112099	-0.000679847	-0.712959022	-0.701204488	-0.015598391	0.096080409	0.018532535	0
370	752645635	0.001105288	-0.000681926	-0.712965535	-0.701197874	-0.005746284	0.09002428	0.013751211	0
371	752662302	0.001115923	-0.000688919	-0.712926344	-0.701237697	0.002040975	0.091254351	-0.006883641	0
372	752678969	0.001118581	-0.000682962	-0.712929421	-0.701234571	-0.010956395	0.094027622	0.003974819	0
373	752695636	0.001110013	-0.000677637	-0.712939451	-0.701224392	0.00960108	0.088300887	-0.009838049	0
374	752712303	0.001106574	-0.000676231	-0.712969304	-0.701194045	-0.015072766	0.095990612	0.000425431	0
375	752728970	0.001098918	-0.000675671	-0.712983015	-0.701180117	0.009179996	0.090440408	-8.86E-05	0
376	752745637	0.001096639	-0.000682046	-0.713123551	-0.701037184	-0.008613967	0.087628688	0.012464882	0
377	752762304	0.00109075	-0.000683485	-0.71321452	-0.700944643	0.018315706	0.087277502	0.009498989	0
378	752778971	0.00110332	-0.000670601	-0.713156116	-0.701004056	-0.000703924	0.084350592	0.003684773	0
379	752795638	0.001106292	-0.000678363	-0.713229266	-0.700929618	-0.016395269	0.096964381	0.005532508	0
380	752812305	0.001108777	-0.000675038	-0.713196553	-0.700962903	0.001841264	0.093988097	-0.005255408	0
381	752828972	0.001114309	-0.000676639	-0.713204988	-0.700954311	-0.014272372	0.090530071	-0.004294709	0
382	752845639	0.001122349	-0.000666305	-0.713214518	-0.700944611	-0.026265715	0.086840107	-0.003237858	0
383	752862306	0.001138308	-0.00065178	-0.713223357	-0.700935605	0.01359057	0.086335776	-0.001986052	0
384	752878973	0.001134688	-0.000644538	-0.713217263	-0.700941819	-0.004747288	0.0838933	-0.004022667	0
385	752895640	0.001133011	-0.000639658	-0.713227799	-0.700931105	0.010565321	0.092481547	-0.002233733	0
386	752912307	0.001133059	-0.00064219	-0.713171221	-0.700988668	-0.02855803	0.09196499	-0.00496132	0
387	752928974	0.001145611	-0.000639055	-0.713229067	-0.700929795	0.003979162	0.08834967	-0.004483924	0
388	752945641	0.001144307	-0.000640701	-0.713234987	-0.700923771	-0.014295355	0.096124778	-0.010471918	0
389	752962308	0.001144434	-0.000649285	-0.71324212	-0.700916505	0.019421654	0.088280015	0.000903213	0
390	752978975	0.00113688	-0.0006464	-0.713258118	-0.70090024	-0.006178238	0.095247961	0.007317488	0
391	752995642	0.001134297	-0.000643917	-0.713256061	-0.70090234	-0.012067926	0.092227939	0.021032697	0
392	753012309	0.001138881	-0.000641285	-0.713305342	-0.700852182	0.011918142	0.084342229	-0.011078578	0
393	753028976	0.001145049	-0.000638741	-0.71333119	-0.700825866	-0.001899906	0.085246251	0.009580133	0
394	753045643	0.001151029	-0.000631617	-0.713337682	-0.700819255	-0.004631023	0.093198065	-0.015053022	0
395	753062310	0.001144969	-0.00063636	-0.713325366	-0.700831796	0.018652953	0.089410219	-0.002469676	0
396	753078977	0.001144452	-0.000627243	-0.713325754	-0.70083141	-0.022970192	0.094050541	-0.000546883	0
397	753095644	0.001148591	-0.000620121	-0.713357676	-0.700798917	-0.002318514	0.084317056	-0.011183638	0
398	753112311	0.001153897	-0.000609023	-0.713235897	-0.700922858	0.016264807	0.091472721	0.004218414	0
399	753128978	0.001154999	-0.000610156	-0.713279241	-0.700878747	-0.007574956	0.08299025	0.004430846	0
400	753145645	0.001158031	-0.000611433	-0.71330032	-0.700857289	-0.010823969	0.110676998	0.006897671	0
401	753162312	0.001160754	-0.000612117	-0.713246824	-0.700911725	-0.006777759	0.07953466	0.006456625	0
402	753178979	0.00116399	-0.00061391	-0.713243688	-0.700914909	-0.003114047	0.077962971	0.012540953	0
403	753195646	0.001161346	-0.000611067	-0.713261694	-0.700896593	-0.00640373	0.097026084	-0.016362193	0
404	753212313	0.001169293	-0.000617121	-0.713204878	-0.700954388	0.015933209	0.105454525	-0.004126444	0
405	753228980	0.001164864	-0.000616285	-0.713208566	-0.700950644	-0.003665382	0.103436929	-0.003894217	0
406	753245647	0.001165231	-0.000612383	-0.713227221	-0.700931664	0.020680226	0.099657282	-0.000165893	0
407	753262314	0.001163619	-0.000604047	-0.713174636	-0.700985178	-0.008440726	0.100241044	0.004586651	0
408	753278981	0.001171632	-0.0006016	-0.713162915	-0.700997092	-0.019391202	0.108672041	0.011132777	0
409	753295648	0.001175976	-0.000598578	-0.713155345	-0.701004788	0.002371079	0.098948131	-0.005317395	0
410	753312315	0.001168591	-0.00059677	-0.713169477	-0.700990425	-0.004230747	0.086852394	-0.005400346	0
411	753328982	0.001152671	-0.000606055	-0.713180925	-0.700978795	-0.006724781	0.077072411	0.005959507	0
412	753345649	0.001141369	-0.000612019	-0.713276889	-0.700881161	0.008787901	0.092300239	0.011796242	0
413	753362316	0.001141114	-0.000614217	-0.713208036	-0.700951224	-0.027705492	0.080309566	0.007333674	0
414	753378983	0.001150618	-0.000620905	-0.713213628	-0.700945512	-0.008968598	0.08813063	-0.001485428	0
415	753395650	0.001157676	-0.000627221	-0.713224319	-0.700934617	-0.001755224	0.096124168	-0.009511814	0
416	753412317	0.001160945	-0.000628306	-0.713206723	-0.700952515	0.011470123	0.075534364	-0.002956505	0
417	753428984	0.001157605	-0.000636367	-0.71320262	-0.700956688	-0.001035933	0.071744811	0.001123977	0
418	753445651	0.001147157	-0.000632494	-0.713173624	-0.70098621	-0.023830283	0.088983187	0.011204415	0
419	753462318	0.001150014	-0.000627046	-0.713140202	-0.701020211	-0.012437599	0.09704545	-0.002310328	0
420	753478985	0.001143367	-0.0006244	-0.713116849	-0.70104398	-0.015354837	0.07913829	-0.007957402	0
421	753495652	0.001145649	-0.000619625	-0.71294699	-0.701216724	0.01105281	0.083941017	0.004630418	0
422	753512319	0.001142078	-0.000628124	-0.712923712	-0.701240388	0.011881304	0.097250305	0.003756567	0
423	753528986	0.001143784	-0.000645079	-0.713023707	-0.701138694	-0.015442477	0.079390157	0.005935341	0
424	753545653	0.001138472	-0.000634222	-0.713004733	-0.701158008	-0.01548603	0.082047597	0.016506935	0
425	753562320	0.001145457	-0.000635828	-0.713055591	-0.701106274	0.017425978	0.089727167	-0.011810569	0
426	753578987	0.001141085	-0.000630085	-0.713063078	-0.701098671	0.027238319	0.083117546	-0.003645908	0
427	753595654	0.00113971	-0.000634248	-0.713145878	-0.701014448	0.000473653	0.092484697	-0.013866393	0
428	753612321	0.00113953	-0.0006464	-0.713188451	-0.700971124	0.003628225	0.088379886	0.00421925	0
429	753628988	0.001147177	-0.000658258	-0.713197857	-0.70096153	-0.005671162	0.083749522	0.00698937	0
430	753645655	0.001161149	-0.000650293	-0.713218418	-0.700940595	-0.013037461	0.096456491	0.006144766	0
431	753662322	0.001155595	-0.000658428	-0.713281126	-0.700876784	0.010751181	0.082986952	-0.001438844	0
432	753678989	0.00114963	-0.000659313	-0.713343244	-0.70081357	0.008331537	0.088055976	0.001701354	0
433	753695656	0.001156141	-0.000663923	-0.713375477	-0.700780744	0.011269087	0.08898476	0.000854812	0
434	753712323	0.001155019	-0.000668373	-0.713384223	-0.700771839	-0.013205677	0.087957913	0.023833038	0
435	753728990	0.001157211	-0.000674575	-0.713414857	-0.700740642	-0.006469971	0.085681316	0.005518156	0
436	753745657	0.001160181	-0.000676982	-0.713474864	-0.700679538	0.005181462	0.090705578	-0.015482546	0
437	753762324	0.001158378	-0.000681471	-0.713465639	-0.700688929	0.002656028	0.088297857	-0.007182048	0
438	753778991	0.001157009	-0.000679186	-0.713488531	-0.700665624	-0.011007777	0.078109424	0.001643715	0
439	753795658	0.001157814	-0.000676335	-0.713488941	-0.700665208	-0.000444387	0.086133606	-0.002309254	0
440	753812325	0.001164977	-0.000666577	-0.713473988	-0.700680431	0.004575256	0.072886862	0.003605207	0
441	753828992	0.00115691	-0.000666974	-0.71349199	-0.700662114	0.000883875	0.069298878	-0.004494363	0
442	753845659	0.001160746	-0.000661136	-0.713486869	-0.700667327	0.00280707	0.091410046	-0.013653965	0
443	753862326	0.001157449	-0.000662685	-0.713493099	-0.700660987	-0.012165731	0.091822339	-0.000312858	0
444	753878993	0.001157639	-0.000668285	-0.713529939	-0.700623465	-0.022210737	0.093876119	0.004832792	0
445	753895660	0.00115943	-0.000666167	-0.713545788	-0.700607322	0.004592736	0.089075244	0.000731223	0
446	753912327	0.001169094	-0.000665003	-0.713545251	-0.700607854	0.005594028	0.088253865	0.005997472	0
447	753928994	0.001165351	-0.000666988	-0.713474052	-0.700680365	0.012333381	0.092278399	0.00092975	0
448	753945661	0.001153577	-0.00068099	-0.713468157	-0.700686374	-0.012106117	0.087882976	0.00230509	0
449	753962328	0.00114746	-0.000683385	-0.713443458	-0.70071153	0.012883245	0.088356202	0.001534905	0
450	753978995	0.001142067	-0.000671584	-0.713447957	-0.70070697	-0.006241652	0.084786718	-0.002044624	0
451	753995662	0.001138133	-0.000675427	-0.713483807	-0.700670468	-0.017772337	0.086790853	0.005709266	0
452	754012329	0.00113657	-0.000675945	-0.713501493	-0.700652461	0.014476384	0.080470986	0.003083864	0
453	754028996	0.001127018	-0.000679015	-0.713501332	-0.700652637	-0.006013562	0.081901168	-0.006899828	0
454	754045663	0.001129717	-0.00067164	-0.713528521	-0.700624951	-0.01403286	0.08727517	0.004979112	0
455	754062330	0.001127224	-0.000666516	-0.713549715	-0.700603375	-0.001577717	0.085879014	-0.006267953	0
456	754078997	0.001130326	-0.000663738	-0.71356912	-0.700583609	0.013813588	0.094455738	-0.006419081	0
457	754095664	0.001136558	-0.000658083	-0.713621149	-0.700530606	0.009260013	0.083909153	0.000217781	0
458	754112331	0.001135847	-0.00066444	-0.713626556	-0.700525093	0.016981825	0.095207372	-0.015714817	0
459	754128998	0.001127856	-0.000671837	-0.713702109	-0.700448125	0.017055722	0.08428034	-0.005656124	0
460	754145665	0.001129838	-0.000670503	-0.713675316	-0.700475423	0.01292765	0.089354759	0.00126633	0
461	754162332	0.001136119	-0.000675642	-0.713646488	-0.700504777	-0.002490281	0.085345267	0.012536362	0
462	754178999	0.001150272	-0.000665809	-0.713651141	-0.700500023	0.000489646	0.087632157	0.009368968	0
463	754195666	0.001141684	-0.000680954	-0.713655913	-0.700495161	-0.00117467	0.091418219	0.000623272	0
464	754212333	0.001150263	-0.000672384	-0.713737291	-0.700412239	-0.008569972	0.086941311	0.004790921	0
465	754229000	0.001156416	-0.000660567	-0.71375323	-0.700395997	0.008568641	0.077738994	-0.012362021	0
466	754245667	0.001168279	-0.000660045	-0.71382721	-0.700320579	-0.009521827	0.075231381	0.018017065	0
467	754262334	0.001170792	-0.000659488	-0.713834102	-0.700313551	0.000651844	0.089850434	0.005948392	0
468	754279001	0.001168855	-0.000665878	-0.713814952	-0.700333067	-0.01593739	0.095719992	0.006889236	0
469	754295668	0.001175773	-0.000664236	-0.713819913	-0.700328001	-0.003887485	0.080647887	-4.64E-05	0
470	754312335	0.001174694	-0.000669484	-0.713775258	-0.700373509	0.023896636	0.074614088	-0.01318718	0
471	754329002	0.001167048	-0.000670515	-0.713780083	-0.700368605	0.005759014	0.088964281	0.009736485	0
472	754345669	0.001162436	-0.000673682	-0.71385263	-0.700294665	0.005646836	0.081786516	-0.006548628	0
473	754362336	0.001157702	-0.000678396	-0.713806344	-0.700341847	0.0044501	0.09449549	-0.00052885	0
474	754379003	0.001165273	-0.000676253	-0.713765795	-0.700383163	0.003753502	0.087003377	0.000578194	0
475	754395670	0.001178552	-0.000670441	-0.713734744	-0.700414789	-0.005789924	0.081121186	-0.010423672	0
476	754412337	0.001176013	-0.000661851	-0.713693086	-0.700457249	0.018720971	0.100053246	-0.010278675	0
477	754429004	0.001177493	-0.000667525	-0.713699628	-0.700450576	-0.011613371	0.08324968	0.008315029	0
478	754445671	0.001186804	-0.000660741	-0.713697516	-0.700452719	-0.023733227	0.081791354	0.009802361	0
479	754462338	0.001128401	-0.000680419	-0.713739	-0.700410525	-0.001915761	0.089142289	-0.007328508	0
480	754479005	0.00112482	-0.000684374	-0.71375475	-0.700394477	-0.016279022	0.103566755	-0.0124556	0
481	754495672	0.001121117	-0.000683914	-0.713763893	-0.700385166	0.002320761	0.08205568	-0.013174954	0
482	754512339	0.001119543	-0.000682129	-0.713786697	-0.700361929	-0.004438297	0.082340254	0.012781456	0
483	754529006	0.001111091	-0.000684061	-0.713785242	-0.700363425	0.00801431	0.077063571	-0.016171441	0
484	754545673	0.001112412	-0.000685617	-0.713808299	-0.700339921	0.002320762	0.082740548	-0.013195897	0
485	754562340	0.001106981	-0.000689559	-0.713809616	-0.700338583	-0.013998528	0.093153892	-0.005746477	0
486	754579007	0.001110897	-0.000685346	-0.713766667	-0.700382354	0.02666977	0.091693999	-0.008294684	0
487	754595674	0.001114516	-0.000685251	-0.71377288	-0.700376016	-0.008781996	0.08717324	-0.008348596	0
488	754612341	0.001113721	-0.00069593	-0.713742612	-0.700406853	0.012828044	0.082778454	-0.009366881	0
489	754629008	0.001119597	-0.000694893	-0.713788753	-0.700359821	-0.009544533	0.097188383	0.005939215	0
490	754645675	0.001130578	-0.000698163	-0.713746891	-0.700402463	0.010718407	0.091240871	-0.00622724	0
491	754662342	0.001134401	-0.000709866	-0.713758636	-0.700390476	-0.022315629	0.085313758	-0.002594006	0
492	754679009	0.001141296	-0.000701451	-0.713775195	-0.700373597	-0.020585676	0.094438978	0.001036689	0
493	754695676	0.001135022	-0.00070036	-0.713760468	-0.700388618	-0.002963031	0.092031964	0.008282575	0
494	754712343	0.001137778	-0.000700963	-0.713728742	-0.700420943	0.004065296	0.087120797	-0.00142674	0
495	754729010	0.001145257	-0.000695177	-0.713679338	-0.700471276	0.014326545	0.078230648	-0.005896022	0
496	754745677	0.001150566	-0.000693237	-0.713707596	-0.700442477	0.000674479	0.09844196	-0.017986733	0
497	754762344	0.001147763	-0.00069771	-0.713693495	-0.700456844	0.005398416	0.095634477	-0.012957545	0
498	754779011	0.001151019	-0.000693106	-0.713711592	-0.700438405	-0.001589797	0.087813665	-0.006494393	0
499	754795678	0.001143157	-0.000688046	-0.713666076	-0.700484797	0.002363359	0.101325771	-0.006158362	0
500	754812345	0.00114195	-0.000678655	-0.713668442	-0.700482398	-0.008568106	0.078117155	0.00683385	0
501	754829012	0.001147446	-0.000678381	-0.713674923	-0.700475786	0.001116235	0.096303188	-0.001083786	0
502	754845679	0.00115133	-0.000679768	-0.713610435	-0.700541475	-0.006081083	0.093954195	-0.007447926	0
503	754862346	0.001153604	-0.000687469	-0.713667328	-0.700483506	0.008809225	0.088304663	-0.001088416	0
504	754879013	0.001150082	-0.000687976	-0.713686236	-0.700464246	-0.008327618	0.091860597	0.000758785	0
505	754895680	0.001151958	-0.000687609	-0.713713253	-0.700436716	0.010707148	0.097798613	-0.003224083	0
506	754912347	0.001157174	-0.000679254	-0.71371686	-0.70043304	0.012726381	0.086729622	-0.003899684	0
507	754929014	0.001157376	-0.000683007	-0.713709791	-0.700440239	-0.007293442	0.089807386	0.001960794	0
508	754945681	0.00114725	-0.000684743	-0.713746954	-0.700402385	-0.010427301	0.079200933	0.002012	0
509	754962348	0.001150351	-0.000684586	-0.713764842	-0.700384151	0.005011841	0.084456642	-0.010950131	0
510	754979015	0.001151106	-0.000690899	-0.713740311	-0.700409142	0.024227973	0.087153719	0.011477618	0
511	754995682	0.001141613	-0.000688357	-0.713711102	-0.700438923	0.003509687	0.087911852	0.003178476	0
512	755012349	0.0011385	-0.000689275	-0.713692935	-0.700457439	-0.003622187	0.089708876	-0.013320512	0
513	755029016	0.001146109	-0.000684949	-0.713684298	-0.70046623	-0.023284802	0.080881935	-0.01196294	0
514	755045683	0.001150497	-0.000685267	-0.713691743	-0.700458637	-0.026686482	0.093185756	-0.000952638	0
515	755062350	0.00115103	-0.000682834	-0.713667853	-0.70048298	0.007886022	0.096290137	-0.000957677	0
516	755079017	0.001139113	-0.000681923	-0.713639356	-0.700512032	0.008396491	0.068692882	-0.01236207	0
517	755095684	0.00113088	-0.000688205	-0.713637131	-0.700514305	0.004867111	0.096913059	0.002819851	0
518	755112351	0.001130412	-0.000698679	-0.713657596	-0.700493447	-0.006358784	0.075458843	-0.011484216	0
519	755129018	0.001139588	-0.000688059	-0.713636206	-0.700515235	0.001146693	0.085544851	-0.013157297	0
520	755145685	0.001143027	-0.000680663	-0.713617065	-0.700534734	0.004464448	0.083419196	-0.004577651	0
521	755162352	0.00114386	-0.000679849	-0.713644389	-0.700506899	0.010009129	0.083933686	0.00710989	0
522	755179019	0.001148102	-0.000678004	-0.713634647	-0.700516818	-0.004599373	0.090362065	0.011181468	0
523	755195686	0.001149359	-0.000683683	-0.713637084	-0.700514328	0.0073884	0.08719602	-0.016928529	0
524	755212353	0.001148028	-0.000685057	-0.713661013	-0.700489951	-0.008743712	0.088392366	0.003442907	0
525	755229020	0.001152662	-0.00068873	-0.713679603	-0.700471	0.000938556	0.087891883	0.000130139	0
526	755245687	0.001156307	-0.000695087	-0.713699578	-0.700450635	9.44E-05	0.082991196	0.019354117	0
527	755262354	0.001157587	-0.00070265	-0.713710088	-0.700439916	-0.014254473	0.08070312	0.015166076	0
528	755279021	0.001151267	-0.000706311	-0.713756013	-0.700393125	0.002463496	0.082017926	-0.011760871	0
529	755295688	0.001157144	-0.000717064	-0.713759546	-0.700389504	-0.026574273	0.068789008	-0.002137013	0
530	755312355	0.001163053	-0.000712108	-0.713755495	-0.700393627	0.02837692	0.090909785	0.001971361	0
531	755329022	0.001167456	-0.000714364	-0.713746227	-0.700403062	0.016192399	0.103083696	-0.003966944	0
532	755345689	0.001165597	-0.000712221	-0.713762068	-0.700386925	0.010543765	0.094438065	0.002439861	0
533	755362356	0.001166415	-0.000721772	-0.713785635	-0.700362896	-0.005294766	0.086991885	0.000843365	0
534	755379023	0.00116308	-0.000718191	-0.713825697	-0.700322073	0.008064036	0.081987075	-0.000676587	0
535	755395690	0.001170823	-0.000716235	-0.713841976	-0.700305469	0.003964075	0.077541093	-0.010410825	0
536	755412357	0.001171482	-0.000701174	-0.713792349	-0.700356065	0.003640684	0.087498764	-0.010194999	0
537	755429024	0.001175307	-0.000702719	-0.713787905	-0.700360586	-0.000861867	0.095506051	0.009638423	0
538	755445691	0.001175903	-0.000707992	-0.713843455	-0.700303961	0.013113618	0.086726933	0.010641578	0
539	755462358	0.001179815	-0.000712002	-0.713848458	-0.700298851	0.001403647	0.091235724	-0.008710758	0
540	755479025	0.001182952	-0.000708643	-0.713862236	-0.700284804	-0.005515176	0.088678813	-0.015083322	0
541	755495692	0.001184267	-0.000720421	-0.713911583	-0.700234482	0.009910928	0.084159161	-0.009385444	0
542	755512359	0.0011732	-0.000723128	-0.713890969	-0.700255514	-0.000829558	0.086471862	0.005886747	0
543	755529026	0.001169011	-0.000714835	-0.713897957	-0.700248406	-0.010689314	0.094345039	0.004544637	0
544	755545693	0.001171934	-0.000710199	-0.713894817	-0.700251607	-0.004249509	0.08417788	0.013568241	0
545	755562360	0.001177172	-0.0006989	-0.713900201	-0.700246121	-0.005009535	0.094072881	-0.003761788	0
546	755579027	0.001169725	-0.0006923	-0.713838574	-0.700308963	0.011877481	0.104318328	-0.022933292	0
547	755595694	0.001158033	-0.000687133	-0.713818773	-0.70032917	0.000858175	0.073500572	-0.011085253	0
548	755612361	0.001155353	-0.000690609	-0.71382129	-0.700326606	0.02523342	0.082086721	-0.005426305	0
549	755629028	0.001169438	-0.000696262	-0.713830648	-0.700317038	-0.005248297	0.093365665	0.013869541	0
550	755645695	0.001171787	-0.000695446	-0.713823818	-0.700323997	0.007320748	0.091632994	-0.000436483	0
551	755662362	0.001177114	-0.000696768	-0.713901629	-0.700244666	0.010317197	0.090968762	-0.007643341	0
552	755679029	0.001182783	-0.000689817	-0.713915938	-0.700230076	0.009999731	0.088103334	-0.009306974	0
553	755695696	0.001185473	-0.000689768	-0.713895956	-0.700250443	-0.020394642	0.098180836	-0.007640371	0
554	755712363	0.001185781	-0.00067959	-0.713943705	-0.70020177	-0.010015585	0.088305263	-0.008536615	0
555	755729030	0.001172463	-0.000677447	-0.713943724	-0.700201775	-0.012486727	0.079077309	0.00639893	0
556	755745697	0.001176271	-0.000680313	-0.713961419	-0.700183723	0.007766889	0.081328395	0.012476001	0
557	755762364	0.001164597	-0.000677443	-0.71390147	-0.700244869	-0.015935042	0.091190784	0.000125497	0
558	755779031	0.001167336	-0.000675465	-0.713897348	-0.700249068	-0.00400194	0.083686021	-0.01690888	0
559	755795698	0.001170101	-0.000669259	-0.713935836	-0.70020983	-0.009594353	0.0933136	-0.003767513	0
560	755812365	0.001178292	-0.00066323	-0.713981117	-0.700163649	0.019996023	0.08732857	-0.001301742	0
561	755829032	0.001168111	-0.000661512	-0.713966466	-0.700178608	0.023422797	0.095988992	-0.002035782	0
562	755845699	0.001152939	-0.000669012	-0.713964381	-0.700180753	0.015344944	0.081745482	-0.002219876	0
563	755862366	0.001143021	-0.000671336	-0.713990301	-0.700154335	0.003207375	0.09131904	-0.004860964	0
564	755879033	0.001135708	-0.000664318	-0.713947441	-0.700198058	0.012713397	0.087904738	-0.007694333	0
565	755895700	0.001137327	-0.000654372	-0.713952301	-0.700193109	0.000412651	0.095050384	0.01285934	0
566	755912367	0.001131141	-0.000646103	-0.713923987	-0.700221996	0.002139828	0.091731374	0.002935642	0
567	755929034	0.001121318	-0.000642174	-0.713920743	-0.700225323	0.00355066	0.082986907	0.013252852	0
568	755945701	0.001120198	-0.000640198	-0.713919905	-0.700226181	-0.021450037	0.085274228	0.006477721	0
569	755962368	0.00112565	-0.000637919	-0.713933843	-0.700211963	-0.004470674	0.094372303	0.004041108	0
570	755979035	0.001121939	-0.000636002	-0.713957082	-0.700188276	0.009513784	0.094449875	-0.004948143	0
571	755995702	0.001128224	-0.000622274	-0.713963257	-0.700181982	-0.003824658	0.083513989	0.008176137	0
572	756012369	0.001137962	-0.000626882	-0.713970631	-0.700174443	0.008440226	0.098695879	-0.012328846	0
573	756029036	0.00113837	-0.000631306	-0.713970963	-0.700174099	-0.00857447	0.092524626	-0.004581392	0
574	756045703	0.00114097	-0.000634137	-0.71397946	-0.700165428	0.001627009	0.103740602	-0.027835013	0
575	756062370	0.001131952	-0.00063722	-0.714000811	-0.700143667	0.007940185	0.087177163	-0.005729373	0
576	756079037	0.00113482	-0.000638683	-0.713992544	-0.700152092	-0.011066152	0.088167224	0.003300125	0
577	756095704	0.001119226	-0.000643478	-0.71400274	-0.700141715	-0.01106418	0.081498977	0.003333792	0
578	756112371	0.001115466	-0.000640835	-0.714026431	-0.700117562	0.006169709	0.094381913	0.002906276	0
579	756129038	0.001112335	-0.000644906	-0.714031461	-0.700112433	-0.00322838	0.088350922	-0.006831473	0
580	756145705	0.001108115	-0.000658055	-0.71402014	-0.700123974	-0.01435169	0.093199464	-0.010202614	0
581	756162372	0.001128022	-0.000668727	-0.71404605	-0.700097507	0.003910141	0.084438281	-0.011945255	0
582	756179039	0.001119017	-0.000676866	-0.714043235	-0.700100384	-0.000712986	0.084409599	-0.000283171	0
583	756195706	0.001122437	-0.00069072	-0.714083989	-0.700058797	-0.001589208	0.083476007	0.004556681	0
584	756212373	0.001128284	-0.000694624	-0.714059885	-0.700083371	0.006220181	0.091063698	0.004891498	0
585	756229040	0.001128809	-0.000697659	-0.714093571	-0.700049006	0.000439391	0.092479566	-0.005742246	0
586	756245707	0.001128226	-0.000704446	-0.714129701	-0.700012144	0.002187115	0.084982786	-0.000587797	0
587	756262374	0.001125433	-0.000706372	-0.714120659	-0.70002137	0.001591533	0.078592928	0.01134719	0
588	756279041	0.001124734	-0.00070554	-0.714031497	-0.700112318	0.005711582	0.106168719	-0.00369783	0
589	756295708	0.001118493	-0.000709286	-0.714031518	-0.700112304	-0.006723581	0.080089585	0.002325203	0
590	756312375	0.001117868	-0.000712651	-0.714026924	-0.700116987	0.018578881	0.09453777	-0.012451616	0
591	756329042	0.001119868	-0.000705794	-0.714044415	-0.700099151	-0.000564712	0.082089769	-0.001452355	0
592	756345709	0.001111819	-0.000699503	-0.714021075	-0.700122974	-0.014609458	0.073021567	-0.005086392	0
593	756362376	0.001109073	-0.000710792	-0.714022067	-0.700121956	0.010627574	0.092673358	0.003187971	0
594	756379043	0.001112104	-0.000715721	-0.714054246	-0.700089126	0.000322938	0.09128438	0.017372129	0
595	756395710	0.001112888	-0.000710516	-0.714069612	-0.700073457	0.019849406	0.092832977	-0.001735781	0
596	756412377	0.001107298	-0.000710735	-0.71407453	-0.70006845	0.000922039	0.094496376	-0.007674827	0
597	756429044	0.001118676	-0.000717589	-0.714096768	-0.700045741	-0.007382969	0.095643635	0.007410634	0
598	756445711	0.001117915	-0.000719696	-0.714047196	-0.700096303	0.001883871	0.077729708	-0.018250427	0
599	756462378	0.001134488	-0.000689259	-0.714060049	-0.700083198	0.013828974	0.088129857	-0.007175819	0
600	756479045	0.001126182	-0.000693055	-0.714063366	-0.700079825	0.02498111	0.09474577	0.016493376	0
601	756495712	0.001121058	-0.000699168	-0.714058333	-0.70008496	-0.030421312	0.084536021	0.008589092	0
602	756512379	0.001124919	-0.000696436	-0.714104953	-0.700037403	-0.008742076	0.082083459	-0.006832105	0
603	756529046	0.001129209	-0.000699084	-0.714125996	-0.700015927	-0.034905965	0.090598365	0.003180625	0
604	756545713	0.001139798	-0.000700148	-0.71413329	-0.700008467	0.010112473	0.08508023	-0.011487666	0
605	756562380	0.00114423	-0.000694938	-0.714119714	-0.700022315	0.018696965	0.097243673	0.002685421	0
606	756579047	0.001138762	-0.000700745	-0.714112684	-0.70002949	0.008763996	0.085615893	-0.005362584	0
607	756595714	0.00113465	-0.000701742	-0.714112343	-0.700029843	-0.011213798	0.084307769	0.003833963	0
608	756612381	0.001138884	-0.000687543	-0.714070707	-0.700072322	-0.011432771	0.090445096	-0.014698556	0
609	756629048	0.001148743	-0.000683606	-0.714056828	-0.700086466	-0.008374621	0.090012504	0.001424593	0
610	756645715	0.001151146	-0.000683241	-0.714068997	-0.70007405	0.028561081	0.089279298	-0.00066546	0
611	756662382	0.001140827	-0.000689264	-0.714074105	-0.700068851	0.014747674	0.095481713	0.018342158	0
612	756679049	0.001142708	-0.000697086	-0.714061341	-0.700081859	-0.013543902	0.095417228	-0.000629239	0
613	756695716	0.001146716	-0.000696434	-0.713997236	-0.700147233	-0.005714395	0.091692047	0.007576083	0
614	756712383	0.001156161	-0.000686368	-0.713981877	-0.700162889	-0.003615724	0.089769953	-0.013360517	0
615	756729050	0.001163331	-0.000681965	-0.713970685	-0.700174295	-0.003650239	0.100387999	-0.003319666	0
616	756745717	0.001165299	-0.000686866	-0.714022557	-0.700121388	0.012577942	0.088685829	-0.00511457	0
617	756762384	0.001173749	-0.000682131	-0.714024112	-0.700119793	-0.002930802	0.092664752	-0.002112811	0
618	756779051	0.001178492	-0.000675421	-0.714004424	-0.70013987	-0.012284613	0.095898645	-0.004856688	0
619	756795718	0.001179425	-0.000664693	-0.714026394	-0.700117473	0.011830923	0.088797407	-0.016367496	0
620	756812385	0.001185329	-0.000659798	-0.714025216	-0.700118669	0.022029008	0.090615167	-0.006269183	0
621	756829052	0.001182721	-0.000659701	-0.714103335	-0.700038994	0.001311958	0.103707906	-0.003690997	0
622	756845719	0.001187802	-0.000659895	-0.714118671	-0.70002334	-0.01873364	0.089945409	-0.003779544	0
623	756862386	0.00118543	-0.000652928	-0.714150015	-0.699991375	0.017817477	0.090842238	-0.014846621	0
624	756879053	0.001201431	-0.000643923	-0.714155824	-0.699985429	0.00075213	0.088956652	-0.010213169	0
625	756895720	0.001207559	-0.000639165	-0.714154262	-0.699987017	-0.009835584	0.077166016	-0.003916644	0
626	756912387	0.00120065	-0.000631451	-0.714157768	-0.699983458	-0.000757005	0.098704696	-0.021401429	0
627	756929054	0.001206072	-0.000627474	-0.714143814	-0.699997689	-0.011898655	0.097787485	0.008943301	0
628	756945721	0.001208352	-0.000624611	-0.714132613	-0.700009115	0.016792262	0.096998101	-0.001071375	0
629	756962388	0.001202185	-0.000629417	-0.714191372	-0.699949172	-0.017275776	0.093902659	0.013553251	0
630	756979055	0.001209198	-0.000643821	-0.714207606	-0.699932582	0.005312698	0.086634547	-0.009129327	0
631	756995722	0.001217804	-0.000648885	-0.714206985	-0.699933196	0.007849218	0.08214814	0.003314604	0
632	757012389	0.001216402	-0.000646631	-0.714260236	-0.69987886	-0.000126928	0.086452802	-0.011551833	0
633	757029056	0.001205019	-0.000635543	-0.714278337	-0.699860416	-0.008894084	0.092510161	-0.002035069	0
634	757045723	0.001206004	-0.000641059	-0.714327837	-0.699809886	-0.007231436	0.098160794	0.006112913	0
635	757062390	0.001206579	-0.000638539	-0.714354867	-0.699782296	0.01588139	0.091822848	-0.001345266	0
636	757079057	0.001210867	-0.000640329	-0.714381355	-0.699755245	-0.0044935	0.085397104	-0.017701909	0
637	757095724	0.001216291	-0.000629813	-0.714386252	-0.699750246	-0.010387617	0.086973707	-0.003580286	0
638	757112391	0.001219786	-0.000626771	-0.714393354	-0.699742992	-0.001569909	0.09905112	0.004084396	0
639	757129058	0.001217082	-0.000622737	-0.714348242	-0.699789054	0.004460952	0.093884261	0.017131091	0
640	757145725	0.001215903	-0.000626408	-0.71434094	-0.699796507	-0.012971925	0.090977761	-0.004099568	0
641	757162392	0.001214051	-0.000628391	-0.714361531	-0.699775488	-0.020862621	0.09490058	-0.00573482	0
642	757179059	0.001207983	-0.00062786	-0.714358774	-0.699778314	-0.021276446	0.082681651	-0.009369639	0
643	757195726	0.001208535	-0.000623987	-0.714343882	-0.699793518	-0.000672527	0.087111773	0.014347643	0
644	757212393	0.001202092	-0.000621029	-0.714344745	-0.699792651	-0.009103451	0.092966247	0.002066853	0
645	757229060	0.001200654	-0.000633574	-0.714424471	-0.699711249	-0.012753916	0.095665864	0.003495995	0
646	757245727	0.001207737	-0.000634705	-0.71442954	-0.69970606	-0.014996493	0.082344014	-0.006303787	0
647	757262394	0.001210187	-0.000630973	-0.714421578	-0.699714189	-0.004467036	0.092202503	-0.003148127	0
648	757279061	0.001213088	-0.000631072	-0.714427995	-0.699707632	0.023906427	0.091470203	-0.005895036	0
649	757295728	0.00120025	-0.000636253	-0.714427549	-0.699708105	-0.008410647	0.090496618	-0.002508035	0
650	757312395	0.00119122	-0.000630551	-0.714436775	-0.699698705	0.00193446	0.089972654	0.008052891	0
651	757329062	0.00118595	-0.000623191	-0.714427212	-0.699708485	-0.007670789	0.094663134	-0.019447449	0
652	757345729	0.001196932	-0.00061289	-0.714395288	-0.69974107	0.006157906	0.079498915	-0.013336219	0
653	757362396	0.001193727	-0.000618395	-0.714403742	-0.699732438	0.024140345	0.091091426	-0.012989544	0
654	757379063	0.001192151	-0.000628026	-0.71440269	-0.699733507	0.010782069	0.088771911	-0.011323202	0
655	757395730	0.001185121	-0.000631364	-0.714374815	-0.699761974	0.010317999	0.083149931	0.001920597	0
656	757412397	0.001179567	-0.000624951	-0.714383048	-0.699753585	-0.022773496	0.094230479	-0.002535655	0
657	757429064	0.001193694	-0.00061572	-0.714342365	-0.699795099	-0.001481782	0.082914627	-0.006621616	0
658	757445731	0.001204427	-0.000608765	-0.714351389	-0.699785875	-0.000413299	0.096292241	-0.008998718	0
659	757462398	0.00119247	-0.000611921	-0.714354733	-0.69978248	0.007403644	0.096282869	0.00351049	0
660	757479065	0.001196509	-0.00062838	-0.714339916	-0.699797584	-0.010879684	0.087065233	0.000771824	0
661	757495732	0.001198525	-0.000623232	-0.714314128	-0.699823908	-0.014953016	0.082019259	0.00407301	0
662	757512399	0.001199795	-0.000616378	-0.714317068	-0.69982091	0.008226335	0.082231679	0.001426985	0
663	757529066	0.00120093	-0.000619837	-0.714338848	-0.699798674	0.011454903	0.083289806	-0.003153454	0
664	757545733	0.00120749	-0.000620663	-0.714342029	-0.699795415	0.002102284	0.097379162	-0.007792375	0
665	757562400	0.001208921	-0.000628541	-0.714331945	-0.699805699	-0.016107909	0.091652319	0.007447952	0
666	757579067	0.001212105	-0.000618721	-0.714312163	-0.699825894	-0.004558552	0.094386031	0.014816912	0
667	757595734	0.001216866	-0.000598097	-0.714292936	-0.699845528	0.008219957	0.086350767	-0.002257413	0
668	757612401	0.001209555	-0.00059192	-0.71432831	-0.69980944	-0.023664783	0.089702362	-0.0063078	0
669	757629068	0.001194029	-0.000584574	-0.714331383	-0.699806336	-0.016742734	0.091712074	0.017009712	0
670	757645735	0.001183645	-0.000583343	-0.714354412	-0.699782846	-0.010263778	0.094285489	0.004021471	0
671	757662402	0.001181071	-0.000589897	-0.714361641	-0.699775466	-0.011118686	0.100917179	0.005586752	0
672	757679069	0.001187559	-0.000584998	-0.714328417	-0.699809374	-0.007391039	0.088454604	0.004579637	0
673	757695736	0.001184182	-0.000571115	-0.714344414	-0.699793062	-1.79E-05	0.088945393	-0.013197966	0
674	757712403	0.001192361	-0.000567522	-0.714410156	-0.699725936	-0.009130101	0.099672418	-0.007475523	0
675	757729070	0.00118579	-0.000574064	-0.714426768	-0.69970898	-0.007012032	0.097874092	0.003010886	0
676	757745737	0.001177935	-0.000582194	-0.714437771	-0.699697752	0.002940236	0.082727047	0.005263554	0
677	757762404	0.001171005	-0.000591253	-0.714452892	-0.699682317	-0.000242297	0.090565857	0.001216688	0
678	757779071	0.00116613	-0.000593545	-0.714474448	-0.699660311	0.001821743	0.079996932	-0.007792712	0
679	757795738	0.001161916	-0.000588413	-0.714503245	-0.699630914	-0.001243857	0.0885298	-0.017107079	0
680	757812405	0.001161319	-0.00059357	-0.714514364	-0.699619556	0.007519967	0.091324199	-0.000926057	0
681	757829072	0.001156515	-0.000599673	-0.714513367	-0.699620577	-0.005527138	0.097008648	0.009150262	0
682	757845739	0.001160351	-0.000610777	-0.714519987	-0.6996138	-0.011720873	0.075651409	0.006310512	0
683	757862406	0.001155444	-0.000614	-0.714532911	-0.699600605	0.005252304	0.085704531	-0.005497174	0
684	757879073	0.001161562	-0.000609869	-0.714527635	-0.699605987	0.002999628	0.079970193	-0.001600292	0
685	757895740	0.001166896	-0.000615942	-0.714536127	-0.6995973	0.015426217	0.090246426	-0.017965465	0
686	757912407	0.001164132	-0.000623562	-0.714537365	-0.699596033	0.015187051	0.089270473	-0.008153976	0
687	757929074	0.00115029	-0.000630521	-0.714529224	-0.699604364	-0.00093943	0.105017757	0.005119282	0
688	757945741	0.001150367	-0.000630125	-0.714550426	-0.69958271	-0.014809566	0.079350045	-0.005509359	0
689	757962408	0.001155024	-0.000626374	-0.714615644	-0.699516086	-0.011069108	0.092071076	-0.009224459	0
690	757979075	0.001152071	-0.000624914	-0.714615043	-0.699516706	0.001553593	0.085787215	-0.0084592	0
691	757995742	0.001154856	-0.000635316	-0.714636143	-0.699495136	-0.000738472	0.098523365	-0.00422646	0
692	758012409	0.001164716	-0.000636105	-0.714647695	-0.699483317	0.01904448	0.094390049	0.003596943	0
693	758029076	0.001158188	-0.000637639	-0.714660311	-0.699470437	-0.004601736	0.092148445	0.026329317	0
694	758045743	0.001154057	-0.000643141	-0.714656533	-0.699474299	-0.012618574	0.091856428	-0.005590786	0
695	758062410	0.001155093	-0.000641184	-0.71464238	-0.699488759	-0.002976894	0.079070041	-0.013786116	0
696	758079077	0.001162998	-0.000638886	-0.714645482	-0.699485578	0.019789735	0.089837101	-0.015552348	0
697	758095744	0.001160538	-0.000640106	-0.714624964	-0.699506543	0.005040914	0.097959693	0.003820624	0
698	758112411	0.00115576	-0.000641088	-0.714592715	-0.699539495	-0.032393069	0.097858236	0.007041051	0
699	758129078	0.001158912	-0.000645167	-0.714656651	-0.699474168	-0.038163891	0.091473264	0.008293596	0
700	758145745	0.001166674	-0.000641696	-0.714663853	-0.6994668	-0.010454508	0.097420615	0.013257401	0
701	758162412	0.001163975	-0.000649048	-0.714684193	-0.699446015	0.001600335	0.095995733	-0.011057856	0
702	758179079	0.00115959	-0.000647715	-0.714710554	-0.699419087	0.00869783	0.094260326	-0.014151984	0
703	758195746	0.001155517	-0.000657585	-0.714696032	-0.699433924	-0.022264261	0.093982969	0.00783876	0
704	758212413	0.001160241	-0.000657776	-0.714691864	-0.699438175	-0.012033019	0.096274011	0.007490553	0
705	758229080	0.001166548	-0.000650622	-0.714684533	-0.699445662	0.009697901	0.086853032	0.000271273	0
706	758245747	0.001180175	-0.000647606	-0.714671025	-0.699459444	0.008964923	0.09041071	-0.01134147	0
707	758262414	0.001186116	-0.000645133	-0.714749973	-0.699378762	-0.016073875	0.082542228	-0.009666021	0
708	758279081	0.001178211	-0.000651202	-0.714756495	-0.699372104	-0.01196838	0.079276121	-0.003285825	0
709	758295748	0.001175151	-0.000656943	-0.714764429	-0.699363995	-0.014930073	0.087323174	0.00999153	0
710	758312415	0.001176853	-0.000652569	-0.71475219	-0.699376505	-0.025177255	0.094500288	0.010904106	0
711	758329082	0.001182333	-0.000648711	-0.71472477	-0.699404521	-0.003480983	0.090552195	-0.004780751	0
712	758345749	0.001169811	-0.000648286	-0.714716325	-0.699413173	0.01530687	0.089582902	-0.011670956	0
713	758362416	0.001159965	-0.00065203	-0.714716683	-0.699412819	0.001963647	0.104975283	-0.002810697	0
714	758379083	0.001144273	-0.000653799	-0.714696127	-0.699433849	-0.010371556	0.0884481	0.014837126	0
715	758395750	0.001145207	-0.000645665	-0.714687632	-0.699442535	-0.016532225	0.079612764	0.009393004	0
716	758412417	0.001144318	-0.000643027	-0.714680559	-0.699449767	0.009706659	0.094521747	0.009508144	0
717	758429084	0.001151882	-0.000651516	-0.714696477	-0.699433481	0.000744	0.097332702	-0.010765626	0
718	758445751	0.001144533	-0.000656592	-0.714737666	-0.699391398	-0.000757103	0.088959431	-0.015543809	0
719	758462418	0.001143046	-0.000704676	-0.714725287	-0.699404004	-0.007100646	0.096062044	-0.009044896	0
720	758479085	0.001154405	-0.000696978	-0.714721656	-0.699407704	-0.011093659	0.0874125	0.017615385	0
721	758495752	0.001147038	-0.000691355	-0.714704616	-0.699425134	0.002807915	0.089922664	0.01102285	0
722	758512419	0.001146016	-0.000683822	-0.714686023	-0.699444141	0.011568393	0.087199201	-0.010244843	0
723	758529086	0.001146346	-0.000678556	-0.714663206	-0.69946746	0.014500079	0.091881343	-0.022642612	0
724	758545753	0.001148807	-0.000681365	-0.714652897	-0.699477985	0.005781724	0.091483042	-0.007526955	0
725	758562420	0.001146254	-0.000686275	-0.714655023	-0.699475813	0.009821262	0.100205241	0.012511314	0
726	758579087	0.001152661	-0.000679086	-0.714609146	-0.699522679	0.012717641	0.091154982	0.001423871	0
727	758595754	0.001169393	-0.00067323	-0.714602286	-0.699529665	-0.007625211	0.093348461	-0.008701779	0
728	758612421	0.001172767	-0.000665801	-0.71461311	-0.699518609	-0.01326476	0.082121434	0.012746284	0
729	758629088	0.001167552	-0.00066679	-0.714590917	-0.699541288	-0.003953775	0.088509718	-0.014063642	0
730	758645755	0.001162436	-0.000671444	-0.714589998	-0.699542231	-0.027392573	0.085508254	0.01691069	0
731	758662422	0.001158318	-0.00067106	-0.714535864	-0.699597532	-0.01431596	0.101036286	0.001684412	0
732	758679089	0.001164983	-0.000674783	-0.71456049	-0.699572365	-0.000798451	0.097797658	-0.009682285	0
733	758695756	0.001176685	-0.00068311	-0.714545881	-0.699587259	0.010099742	0.088244448	-0.002813362	0
734	758712423	0.001185608	-0.000679607	-0.714552349	-0.69958064	0.018585886	0.090166303	-0.009751961	0
735	758729090	0.001175119	-0.000690837	-0.714559163	-0.699573688	0.007176473	0.089325214	-0.008782285	0
736	758745757	0.001183848	-0.000688456	-0.714531036	-0.699602404	-0.007044365	0.097055909	-0.006768664	0
737	758762424	0.00118949	-0.000697815	-0.71451956	-0.699614105	-0.015280921	0.08935898	-0.003011762	0
738	758779091	0.001189499	-0.000693908	-0.714522089	-0.699611527	-0.002344759	0.090337471	0.001963687	0
739	758795758	0.001192358	-0.000688704	-0.714562415	-0.699570339	0.009704176	0.089615754	-0.029768906	0
740	758812425	0.001187468	-0.000681219	-0.714559059	-0.699573782	0.008043126	0.084155768	-0.020585198	0
741	758829092	0.001190544	-0.000689556	-0.714493907	-0.699640311	-0.002910105	0.096511107	0.010902798	0
742	758845759	0.001192932	-0.00069539	-0.714523349	-0.699610232	-0.009460461	0.086166814	0.013548671	0
743	758862426	0.001203885	-0.000693981	-0.714496305	-0.699637834	0.005707808	0.076621061	-0.000146964	0
744	758879093	0.001198389	-0.000688054	-0.714499975	-0.699634101	0.007433467	0.090197491	-0.010926439	0
745	758895760	0.001195347	-0.000682264	-0.714504454	-0.699629538	0.014855757	0.089655879	-0.011042793	0
746	758912427	0.001193755	-0.000680976	-0.71450735	-0.699626585	-0.015923248	0.087999989	0.004704024	0
747	758929094	0.001192779	-0.000691316	-0.714501842	-0.699632202	-0.01209708	0.086953994	0.003403463	0
748	758945761	0.001200924	-0.000682442	-0.714488531	-0.69964579	0.006202954	0.084495648	0.005071499	0
749	758962428	0.001208114	-0.000683086	-0.714488647	-0.699645658	0.021451014	0.087250358	-0.004447438	0
750	758979095	0.001202043	-0.00067785	-0.714497271	-0.699636867	0.011130055	0.089831321	-0.00884249	0
751	758995762	0.001200756	-0.000676417	-0.714524361	-0.699609204	0.004316571	0.0859788	-0.00010205	0
752	759012429	0.001210492	-0.000673224	-0.714569474	-0.699563113	-0.017387387	0.078686982	-0.000132805	0
753	759029096	0.001213788	-0.000668213	-0.71456461	-0.69956808	0.013025438	0.087994988	3.28E-05	0
754	759045763	0.001225048	-0.000666837	-0.714591145	-0.699540956	0.012276926	0.08444212	0.013191085	0
755	759062430	0.0012185	-0.000673213	-0.714633606	-0.699497585	0.025006236	0.089087513	-0.012849025	0
756	759079097	0.001219568	-0.000670516	-0.71465294	-0.699477833	-0.010079762	0.09639938	-0.013364984	0
757	759095764	0.001217441	-0.000675618	-0.714660403	-0.699470207	-0.005646155	0.090653839	-0.003144194	0
758	759112431	0.001228422	-0.000675784	-0.714666307	-0.699464154	0.000497805	0.094109167	-0.004465046	0
759	759129098	0.001241183	-0.000669895	-0.714676106	-0.699454126	-0.006502567	0.092720396	0.009283459	0
760	759145765	0.001245859	-0.00066143	-0.714683493	-0.699446577	0.014263822	0.104190483	0.000329325	0
761	759162432	0.001246909	-0.000660288	-0.714664108	-0.699466384	-0.000653013	0.079594887	-0.007474211	0
762	759179099	0.001248049	-0.000656273	-0.714679396	-0.699450765	-0.0138832	0.085562025	-0.012087924	0
763	759195766	0.001228517	-0.000663058	-0.714691199	-0.699438733	0.00126463	0.099750507	-0.015497014	0
764	759212433	0.00123101	-0.000654734	-0.714722969	-0.699406272	-0.015584443	0.096593486	0.006763513	0
765	759229100	0.001239519	-0.000643635	-0.714727519	-0.699401618	0.023377922	0.085014963	-0.020888731	0
766	759245767	0.001219749	-0.000661806	-0.714774277	-0.69935385	-0.014942	0.090505186	0.006638477	0
767	759262434	0.001251631	-0.000636254	-0.714754814	-0.699373709	0.026113093	0.091643942	0.005403946	0
768	759279101	0.00122962	-0.000665453	-0.7147372	-0.699391722	-0.000710584	0.102302169	-0.001937222	0
769	759295768	0.001270528	-0.000625095	-0.714814161	-0.699313028	-0.014889625	0.089140029	-0.007296081	0
770	759312435	0.001260896	-0.000640713	-0.71486368	-0.699262411	0.027858565	0.094078086	-0.029504309	0
771	759329102	0.001263265	-0.000650871	-0.714864734	-0.699261319	-0.006863376	0.103330721	0.001302726	0
772	759345769	0.00125813	-0.000654894	-0.714881166	-0.699244526	0.02263771	0.082543671	0.009797603	0
773	759362436	0.001244892	-0.000659666	-0.714852042	-0.699274319	-0.056914537	0.091894076	0.027347552	0
774	759379103	0.001271702	-0.000640314	-0.714864343	-0.699261714	0.012471958	0.096920512	-0.01764995	0
775	759395770	0.001264258	-0.000652401	-0.714873666	-0.699252184	-0.016791631	0.091033417	-0.007516937	0
776	759412437	0.001280421	-0.000637518	-0.714891536	-0.699233899	0.023734002	0.079644786	-0.006644955	0
777	759429104	0.001261833	-0.00066718	-0.714880905	-0.699244774	0.008865804	0.08936407	0.020228237	0
778	759445771	0.001267897	-0.000657612	-0.714875619	-0.699250176	0.008286921	0.080018677	0.011929247	0
779	759462438	0.001262109	-0.000660081	-0.714880381	-0.699245316	-0.013655923	0.08503443	-0.00164559	0
780	759479105	0.001290096	-0.000630627	-0.714903268	-0.699221893	-0.002291418	0.088920057	-0.004654155	0
781	759495772	0.001291977	-0.000625258	-0.714895471	-0.699229866	0.037511667	0.089882634	-0.024137556	0
782	759512439	0.001282439	-0.000644002	-0.714886919	-0.69923861	0.019186007	0.09434058	0.010009142	0
783	759529106	0.001284551	-0.000635601	-0.71489136	-0.699234074	-0.009655954	0.086756438	0.014256684	0
784	759545773	0.001285112	-0.000645892	-0.714888273	-0.699237219	-0.022864685	0.084078154	0.007028229	0
785	759562440	0.001298839	-0.000628275	-0.714894775	-0.699230562	0.007470309	0.082654461	-0.028136146	0
786	759579107	0.001300535	-0.000647438	-0.71489264	-0.699232724	0.000113185	0.086047869	-0.006612999	0
787	759595774	0.001301066	-0.000650323	-0.714906434	-0.699218618	0.007003524	0.089509529	0.006939616	0
788	759612441	0.001293095	-0.000671922	-0.71492254	-0.699202144	-0.00995547	0.083224192	0.021870399	0
789	759629108	0.001315603	-0.000665761	-0.714923991	-0.699200624	-0.032050435	0.085391981	0.022550884	0
790	759645775	0.001320637	-0.00066539	-0.714902582	-0.699222505	-0.014802135	0.10296038	0.000303446	0
791	759662442	0.00132415	-0.000656446	-0.714891513	-0.699233824	-0.004404314	0.091528047	-0.012317096	0
792	759679109	0.001315955	-0.000652366	-0.714879655	-0.699245967	-0.005384357	0.089443481	-0.001950122	0
793	759695776	0.001310017	-0.00065751	-0.714892631	-0.699232707	-0.007992186	0.093560987	0.01075372	0
794	759712443	0.00130044	-0.000647668	-0.714935698	-0.6991887	-0.002860648	0.083883158	0.010701984	0
795	759729110	0.001301386	-0.000635324	-0.714948134	-0.699175993	-0.019970957	0.093427739	0.023819213	0
796	759745777	0.001310191	-0.000616513	-0.714973065	-0.699150499	0.004050597	0.090787018	-0.018758694	0
797	759762444	0.001312883	-0.000630397	-0.714982738	-0.699140589	0.006179237	0.085403309	-0.026016143	0
798	759779111	0.001304126	-0.000629641	-0.714984772	-0.699138526	-0.01531706	0.080492722	0.008142541	0
799	759795778	0.001302181	-0.000636855	-0.714975058	-0.699148457	-0.024783918	0.088156092	0.02775935	0
800	759812445	0.00131161	-0.000621595	-0.714946813	-0.699177337	-0.030966134	0.086219091	0.016312595	0
801	759829112	0.001316265	-0.000613232	-0.714945601	-0.699178575	-0.005978136	0.09101535	-0.006665856	0
802	759845779	0.001303624	-0.000622732	-0.714966963	-0.699156745	0.0033739	0.087637654	-0.011082061	0
803	759862446	0.001293191	-0.000625481	-0.714956892	-0.699167061	-0.001852567	0.090593827	-0.007873028	0
804	759879113	0.001290063	-0.000636878	-0.714968599	-0.699155085	-0.020224948	0.086478708	0.010236537	0
805	759895780	0.001297762	-0.00062772	-0.714960378	-0.699163486	-0.018715316	0.103546498	0.026872541	0
806	759912447	0.0012984	-0.000615372	-0.714958032	-0.699165894	-0.002990121	0.084543121	0.008236421	0
807	759929114	0.001290945	-0.000617207	-0.714961117	-0.699162752	0.017745811	0.099330685	-0.023375291	0
808	759945781	0.001281526	-0.000640806	-0.714968508	-0.69915519	0.004589935	0.090489242	-0.023603452	0
809	759962448	0.001273566	-0.000642958	-0.714971715	-0.699151923	-0.013609002	0.080715255	0.012364251	0
810	759979115	0.00126608	-0.000646151	-0.714984253	-0.699139112	-0.001836293	0.103388689	0.034748454	0
811	759995782	0.001272347	-0.000628088	-0.714977238	-0.69914629	-0.000928135	0.090117642	0.018122399	0
812	760012449	0.001279819	-0.000624349	-0.714984222	-0.699139138	0.00352709	0.093239943	-0.013703949	0
813	760029116	0.001273405	-0.000625834	-0.714977604	-0.699145917	-0.025779086	0.087812834	-0.01538369	0
814	760045783	0.001271752	-0.000631247	-0.714963424	-0.699160415	-0.017566314	0.096398387	-0.007938618	0
815	760062450	0.001281677	-0.000636126	-0.714961666	-0.699162191	-0.004731828	0.081667107	0.032375174	0
816	760079117	0.001280683	-0.000631341	-0.714955776	-0.69916822	-0.005024661	0.099960223	0.006823114	0
817	760095784	0.001288102	-0.000627675	-0.714960531	-0.699163347	-0.009144333	0.075598345	-0.003456498	0
818	760112451	0.001287921	-0.000634308	-0.714949797	-0.699174318	-0.01643409	0.090948054	-0.022631719	0
819	760129118	0.001273155	-0.000641532	-0.714941264	-0.699183064	-0.035395949	0.097812965	-0.015103994	0
820	760145785	0.001277205	-0.000642035	-0.714919052	-0.699205767	-0.036093865	0.086276937	0.012905791	0
821	760162452	0.001285397	-0.000634381	-0.714949955	-0.699174161	0.012234828	0.082146023	0.026064107	0
822	760179119	0.001291851	-0.000627542	-0.714953958	-0.699170062	0.012232965	0.092326809	0.005558011	0
823	760195786	0.001285089	-0.000624397	-0.714954433	-0.699169592	-0.000882784	0.097359365	-0.017128882	0
824	760212453	0.001280626	-0.000635568	-0.714973519	-0.699150072	-0.010531966	0.098324529	-0.008384044	0
825	760229120	0.001284123	-0.000642992	-0.715024305	-0.699098119	-0.022735345	0.093406241	0.009824774	0
826	760245787	0.001291619	-0.000635964	-0.715025711	-0.699096675	0.006912458	0.097153018	0.031690762	0
827	760262454	0.001289604	-0.000622414	-0.715050595	-0.699071239	0.003410337	0.075168468	0.012586108	0
828	760279121	0.001291948	-0.000624298	-0.715058303	-0.699063348	0.014663549	0.089270192	-0.010558185	0
829	760295788	0.001288333	-0.000635483	-0.715059769	-0.699061845	-0.002669444	0.086545957	-0.013219737	0
830	760312455	0.001285478	-0.000637451	-0.715068696	-0.699052717	-0.025256184	0.091392185	-0.004416631	0
831	760329122	0.001295624	-0.000618874	-0.715102464	-0.699018172	-0.011000812	0.09322637	0.01157263	0
832	760345789	0.00129669	-0.000606082	-0.715116079	-0.699004253	0.011554481	0.076854328	0.015548253	0
833	760362456	0.001293396	-0.000625488	-0.715124415	-0.698995713	0.012288823	0.089062855	-0.006386745	0
834	760379123	0.001290772	-0.000642686	-0.715155367	-0.698964035	-0.021280127	0.083294504	-0.008087849	0
835	760395790	0.001292122	-0.000645264	-0.715186648	-0.698932023	-0.029848108	0.087207406	-0.00858825	0
836	760412457	0.001306586	-0.000638302	-0.715200289	-0.698918044	-0.017944123	0.087368635	0.002680072	0
837	760429124	0.001311632	-0.000627499	-0.715184622	-0.698934076	0.005537871	0.087330898	-0.001616152	0
838	760445791	0.001307552	-0.00062555	-0.715181849	-0.698936923	0.01325187	0.09804749	0.012547489	0
839	760462458	0.001187071	-0.000704304	-0.715160873	-0.698958525	0.019875729	0.091398449	0.00071478	0
840	760479125	0.001180577	-0.000708487	-0.715135724	-0.698984264	-0.004757363	0.090727639	-0.004991156	0
841	760495792	0.001188595	-0.000710629	-0.71515824	-0.698961211	-0.021926501	0.075725103	-0.011162254	0
842	760512459	0.001199205	-0.000705673	-0.715159137	-0.698960279	0.00784245	0.085740834	0.005044879	0
843	760529126	0.001190796	-0.000701708	-0.715171388	-0.698947763	0.015031692	0.079418523	0.023363937	0
844	760545793	0.001185929	-0.000712474	-0.715173142	-0.698945966	0.011509224	0.093223444	-0.013895896	0
845	760562460	0.001191297	-0.000710072	-0.715161074	-0.698958307	-0.022037769	0.102025683	-0.025723048	0
846	760579127	0.001186406	-0.00071578	-0.715144967	-0.698974789	-0.022114767	0.085086196	-0.003956272	0
847	760595794	0.001193165	-0.000705981	-0.715109874	-0.699010691	-0.004867849	0.094896296	-0.009893127	0
848	760612461	0.001192709	-0.000704392	-0.715087389	-0.699033696	0.032069164	0.100490229	-0.000158812	0
849	760629128	0.001191792	-0.000709884	-0.715110014	-0.699010546	0.015172314	0.092408282	0.008781858	0
850	760645795	0.001188318	-0.00071752	-0.715115504	-0.699004928	0.02145592	0.089837251	-0.007198409	0
851	760662462	0.001184088	-0.000714644	-0.715121844	-0.698998451	-0.019421145	0.08339816	0.003166207	0
852	760679129	0.00118786	-0.000707733	-0.715140264	-0.698979607	0.008323771	0.090724022	-0.017319966	0
853	760695796	0.001199886	-0.000700882	-0.715170932	-0.698948214	0.014884483	0.081162187	-0.00695056	0
854	760712463	0.001201011	-0.000697533	-0.715170432	-0.698948728	0.014054678	0.090879381	0.004277723	0
855	760729130	0.001201708	-0.000704152	-0.715202798	-0.698915602	0.004880019	0.083550544	0.00302583	0
856	760745797	0.001198786	-0.000710583	-0.715225279	-0.698892594	-0.031034715	0.100275775	-0.007549337	0
857	760762464	0.001213125	-0.000714189	-0.715232718	-0.698884953	-0.027846924	0.075627632	-0.020519099	0
858	760779131	0.001222525	-0.000705234	-0.71522482	-0.698893029	0.003379741	0.082409308	-0.006126386	0
859	760795798	0.0012233	-0.000702155	-0.715208284	-0.698909952	0.027483776	0.086096894	0.000661583	0
860	760812465	0.001225322	-0.000702159	-0.715208644	-0.69890958	0.022096937	0.086582668	0.008502829	0
861	760829132	0.001220304	-0.000711164	-0.715223518	-0.698894359	-0.00717375	0.097990608	0.000529914	0
862	760845799	0.001227962	-0.000700216	-0.715222183	-0.698895722	-0.019328505	0.086618318	-0.010020614	0
863	760862466	0.001226479	-0.00068823	-0.715215438	-0.698902639	-6.40E-05	0.088109994	-0.00514878	0
864	760879133	0.001231565	-0.000698841	-0.715199821	-0.698918601	0.018389793	0.069392355	0.022688326	0
865	760895800	0.001234434	-0.000698519	-0.715192744	-0.698925838	0.019452215	0.076890912	0.010841973	0
866	760912467	0.00122205	-0.00070514	-0.715192688	-0.698925911	-0.009391101	0.08572308	-0.002078791	0
867	760929134	0.001219947	-0.00069982	-0.715186318	-0.698932437	-0.019306254	0.091649117	-0.006673285	0
868	760945801	0.001221176	-0.000699365	-0.715211663	-0.698906501	-0.01616827	0.081487177	-0.015519431	0
869	760962468	0.001218144	-0.000702634	-0.715184731	-0.698934062	0.027145477	0.077250856	-0.0123117	0
870	760979135	0.001211396	-0.000696411	-0.715062602	-0.699059027	-0.00481006	0.085487925	0.00187246	0
871	760995802	0.001205602	-0.000712711	-0.715066623	-0.699054907	-0.001695466	0.091425783	0.010764934	0
872	761012469	0.001196619	-0.000708266	-0.715059569	-0.699062143	-0.002094093	0.093560941	0.020961343	0
873	761029136	0.001210266	-0.000715845	-0.715057951	-0.699063766	0.005179016	0.074312098	-0.018892204	0
874	761045803	0.0012137	-0.000702016	-0.715042652	-0.699079423	0.028339743	0.086435074	-0.011524724	0
875	761062470	0.001215335	-0.000705845	-0.715016211	-0.69910646	0.007756333	0.079969136	0.008747611	0
876	761079137	0.001202342	-0.000711854	-0.714995655	-0.6991275	0.013309447	0.089691724	0.013548642	0
877	761095804	0.001190583	-0.000712189	-0.715020424	-0.699102187	0.001528654	0.077982691	0.011816496	0
878	761112471	0.00119746	-0.000712687	-0.715008306	-0.699114569	-0.015531391	0.100217052	0.002176292	0
879	761129138	0.001189197	-0.000709809	-0.714999512	-0.69912358	0.002080303	0.088685103	-0.01524763	0
880	761145805	0.001191912	-0.000717018	-0.71500894	-0.699113925	-0.010054534	0.082047203	-0.016065041	0
881	761162472	0.00119276	-0.000724461	-0.715008356	-0.699114514	0.003748013	0.086427181	-0.002722876	0
882	761179139	0.001184805	-0.000734584	-0.715019574	-0.699103043	0.000621546	0.093467546	0.003963592	0
883	761195806	0.001189407	-0.000736908	-0.715014273	-0.699108455	0.004660784	0.086941539	-0.012658761	0
884	761212473	0.001199462	-0.000747599	-0.715012835	-0.699109897	0.005289196	0.090609012	-0.027664081	0
885	761229140	0.001195374	-0.00075695	-0.715019665	-0.699102908	0.019920443	0.083777732	-0.006887615	0
886	761245807	0.001192174	-0.000778384	-0.714983571	-0.699139804	0.003171424	0.084253685	0.006220972	0
887	761262474	0.001187354	-0.000772312	-0.714987076	-0.699136235	-0.017319436	0.106494664	0.020418366	0
888	761279141	0.001188054	-0.000769487	-0.715003207	-0.69911974	-0.023299367	0.102589544	-0.003694083	0
889	761295808	0.001189887	-0.000765208	-0.71500755	-0.6991153	0.007140446	0.085282569	-0.028096489	0
890	761312475	0.001182482	-0.000764627	-0.715001722	-0.699121273	0.001455006	0.089739267	-0.007570095	0
891	761329142	0.001185703	-0.000769129	-0.714998799	-0.699124252	0.00302249	0.080593063	-1.38E-05	0
892	761345809	0.001179044	-0.000769124	-0.715030333	-0.699092012	0.010750905	0.089320869	0.019000314	0
893	761362476	0.001181108	-0.000762202	-0.714924101	-0.699200653	-0.00360642	0.100076575	0.00944866	0
894	761379143	0.00118387	-0.000759578	-0.714982978	-0.699140445	0.002607984	0.08332198	-0.011333849	0
895	761395810	0.001185133	-0.000768574	-0.714988796	-0.699134484	0.010487829	0.0854732	-0.010175781	0
896	761412477	0.001176024	-0.000772366	-0.714988041	-0.699135267	0.029711585	0.106473739	-0.00544607	0
897	761429144	0.001167046	-0.000775851	-0.714990807	-0.69913245	0.002147726	0.099166466	0.005575093	0
898	761445811	0.001177396	-0.00077678	-0.714959591	-0.699164354	-0.001567056	0.096178368	0.01529139	0
899	761462478	0.00118437	-0.000775266	-0.714973453	-0.699150168	-0.006925287	0.094337285	0.003812733	0
900	761479145	0.001197353	-0.000777883	-0.714988728	-0.699134522	0.001451357	0.082564337	-0.009985619	0
901	761495812	0.00119282	-0.000782767	-0.714974066	-0.699149519	0.005820235	0.079908126	0.006691908	0
902	761512479	0.00118854	-0.000777822	-0.714959043	-0.699164894	0.014425919	0.102163564	0.008081588	0
903	761529146	0.00117806	-0.000791266	-0.714970804	-0.69915287	-0.010477212	0.085750101	0.027941099	0
904	761545813	0.001178983	-0.000795684	-0.714946644	-0.699177569	-0.02369498	0.080489173	0.006768481	0
905	761562480	0.001168107	-0.000789674	-0.714943799	-0.699180503	0.022747788	0.090872472	-0.020258245	0
906	761579147	0.001173017	-0.000799408	-0.714974415	-0.699149177	0.015545849	0.086617091	-0.0202547	0
907	761595814	0.00116512	-0.000804813	-0.714970434	-0.699153254	-0.011803818	0.091498077	-0.017167619	0
908	761612481	0.001156391	-0.000806257	-0.714981556	-0.699141894	-0.000184452	0.087859159	0.008131407	0
909	761629148	0.001165613	-0.000805247	-0.714967329	-0.699156428	0.004770293	0.091474883	0.017133294	0
910	761645815	0.001156852	-0.000800035	-0.714974821	-0.699148787	0.022971418	0.081723927	-0.023762834	0
911	761662482	0.00115849	-0.00079955	-0.714988359	-0.699134941	0.015696017	0.093595499	-0.033715389	0
912	761679149	0.001161347	-0.00080443	-0.714997353	-0.699125732	0.005964572	0.08964655	0.000432593	0
913	761695816	0.001153401	-0.000813895	-0.71500587	-0.699117024	0.007415665	0.106575518	0.016652685	0
914	761712483	0.001162817	-0.00081922	-0.715002523	-0.699120425	-0.007239141	0.089356489	0.027998433	0
915	761729150	0.001173932	-0.000807945	-0.715015404	-0.699107246	-0.005754527	0.086210324	-2.11E-05	0
916	761745817	0.001170274	-0.000807729	-0.71501215	-0.69911058	0.001966944	0.08398131	-0.020341352	0
917	761762484	0.001164058	-0.00081611	-0.715042903	-0.699079127	-0.008653695	0.075683306	-0.012960404	0
918	761779151	0.00116787	-0.000818453	-0.715056782	-0.699064921	0.000572371	0.078294213	-0.005182492	0
919	761795818	0.001168618	-0.000817001	-0.715082656	-0.699038455	0.007090973	0.092868964	0.022747287	0
920	761812485	0.001165331	-0.000817065	-0.715088072	-0.69903292	0.023030496	0.094617101	0.008064042	0
921	761829152	0.001163821	-0.000827507	-0.715127525	-0.698992549	0.0121625	0.08855355	0.006707165	0
922	761845819	0.001178795	-0.000824609	-0.715115266	-0.699005069	-0.001275031	0.090352214	-0.020082543	0
923	761862486	0.001182476	-0.000833787	-0.715125257	-0.698994831	-0.023228543	0.086124611	-0.014780099	0
924	761879153	0.001189565	-0.0008345	-0.715099517	-0.699021151	-0.00990333	0.084610075	0.025741791	0
925	761895820	0.001195495	-0.000836061	-0.715103085	-0.699017489	-0.001336813	0.085858655	0.033993187	0
926	761912487	0.001196408	-0.000834338	-0.715133708	-0.698986161	0.012350975	0.091577565	-0.002132974	0
927	761929154	0.001179898	-0.000843915	-0.715122477	-0.698997667	0.002812256	0.081658392	-0.028555363	0
928	761945821	0.001161977	-0.000848869	-0.715147803	-0.698971779	-0.01779695	0.080377423	0.002986876	0
929	761962488	0.001159197	-0.000852974	-0.715142309	-0.6989774	-0.009651374	0.081272806	-0.009297422	0
930	761979155	0.001166956	-0.000854641	-0.715150696	-0.698968805	-0.003819994	0.07773565	0.006680181	0
931	761995822	0.001174879	-0.000856277	-0.715160401	-0.69895886	0.008426076	0.097933827	0.021222245	0
932	762012489	0.001175486	-0.000856103	-0.715153959	-0.69896545	0.001036466	0.094017466	-0.006578723	0
933	762029156	0.001158746	-0.000862085	-0.715190842	-0.698927731	-0.012285143	0.076842073	-0.023170028	0
934	762045823	0.00115452	-0.000869873	-0.715183152	-0.698935598	-0.01413992	0.081219579	-0.016027628	0
935	762062490	0.001162681	-0.000877627	-0.715179866	-0.698938937	-0.01869808	0.096731791	0.018330348	0
936	762079157	0.001175184	-0.000870976	-0.715181776	-0.69893697	0.010898373	0.087159377	0.033163045	0
937	762095824	0.001178588	-0.000866457	-0.715173591	-0.698945345	0.008080512	0.103491945	0.006880294	0
938	762112491	0.001178054	-0.000879775	-0.715174437	-0.698944463	0.002111184	0.089387288	-0.017425162	0
939	762129158	0.001180522	-0.000877122	-0.715182033	-0.69893669	-0.012297165	0.080814686	-0.007392518	0
940	762145825	0.001179599	-0.000865955	-0.715226456	-0.698891247	-0.00066982	0.090053813	-0.00027256	0
941	762162492	0.001186427	-0.000868108	-0.715214923	-0.698903036	0.00616688	0.083490483	0.003087911	0
942	762179159	0.00118382	-0.00086819	-0.715208526	-0.698909586	0.031268288	0.091764597	0.013814148	0
943	762195826	0.001180365	-0.000878977	-0.715189572	-0.698928974	0.002892654	0.100378238	0.00812821	0
944	762212493	0.00118255	-0.000879577	-0.715200198	-0.698918096	-0.02405682	0.083459411	-0.001119171	0
945	762229160	0.001193226	-0.000878839	-0.715207649	-0.698910454	-0.010597732	0.102803245	-0.022938515	0
946	762245827	0.001216263	-0.000869477	-0.715207518	-0.69891056	0.014931505	0.079561772	0.013457142	0
947	762262494	0.001226018	-0.000856745	-0.715208056	-0.698910008	0.014506796	0.090059597	0.031356941	0
948	762279161	0.00122552	-0.000860707	-0.715208909	-0.698909131	0.002106139	0.091201154	0.025516774	0
949	762295828	0.001220644	-0.000865659	-0.715215062	-0.698902838	-0.022350518	0.090266321	-0.007794931	0
950	762312495	0.001232695	-0.000850994	-0.715219015	-0.698898789	-0.019808745	0.092311723	-0.002521538	0
951	762329162	0.001239256	-0.000845177	-0.715225495	-0.698892152	0.034259664	0.093876364	0.001609648	0
952	762345829	0.001227428	-0.000859749	-0.715234774	-0.69888266	0.014778672	0.081676521	0.027449322	0
953	762362496	0.001215113	-0.000883753	-0.715251614	-0.698865417	-0.003007604	0.083562847	0.027536374	0
954	762379163	0.001215378	-0.000885686	-0.715264785	-0.698851934	-0.030691554	0.090875212	0.006286779	0
955	762395830	0.001242637	-0.000868722	-0.71526928	-0.698847307	-0.020044562	0.082150718	-0.020292916	0
956	762412497	0.00124453	-0.000863209	-0.715299491	-0.698816388	0.014224705	0.084921295	-0.005619237	0
957	762429164	0.001253942	-0.000869032	-0.715311486	-0.698804086	0.006844599	0.093335931	0.019119522	0
958	762445831	0.001245502	-0.000882945	-0.715315647	-0.698799824	0.015510837	0.078664617	0.031826891	0
959	762462498	0.001199335	-0.000750848	-0.715339933	-0.698775198	-0.031872811	0.085946206	0.014276802	0
960	762479165	0.001197471	-0.00073726	-0.715345135	-0.69876989	0.000406024	0.083347169	-0.036883253	0
961	762495832	0.001198397	-0.00073862	-0.715344044	-0.698771005	0.005153905	0.090405401	-0.021275237	0
962	762512499	0.00120296	-0.000731147	-0.715351086	-0.698763795	0.00980721	0.08857534	-0.019629905	0
963	762529166	0.001190967	-0.000743258	-0.715354724	-0.698760079	0.015185973	0.088884359	0.042783952	0
964	762545833	0.001181878	-0.00074692	-0.715340199	-0.69877496	-0.022117064	0.080304281	0.025324554	0
965	762562500	0.001191875	-0.000743758	-0.715334545	-0.698780734	-0.001769669	0.098228355	-0.003671368	0
966	762579167	0.001196527	-0.000742551	-0.71533765	-0.698777549	0.00086317	0.090321785	-0.022901939	0
967	762595834	0.001206343	-0.000744925	-0.715357773	-0.698756929	0.016352223	0.090873916	0.004191897	0
968	762612501	0.001198309	-0.00074702	-0.715373486	-0.698740855	0.010540665	0.08056361	0.01160772	0
969	762629168	0.001197664	-0.00074861	-0.71537188	-0.698742498	-0.003426069	0.077768677	0.019880614	0
970	762645835	0.001202475	-0.000743075	-0.715368477	-0.69874598	-0.004863622	0.093322134	0.001613478	0
971	762662502	0.001203794	-0.000755415	-0.715368621	-0.698745816	-0.004619372	0.077930213	-0.009762208	0
972	762679169	0.001206136	-0.000758673	-0.715347778	-0.698767147	0.004826596	0.089737064	-0.027989619	0
973	762695836	0.001194633	-0.000748721	-0.715327047	-0.6987884	0.009475886	0.079922803	0.003817246	0
974	762712503	0.001197384	-0.000748401	-0.715316542	-0.698799149	0.00057703	0.096743695	0.030827925	0
975	762729170	0.001202282	-0.000746305	-0.715334279	-0.698780986	-0.005169475	0.098379891	0.014674393	0
976	762745837	0.001201033	-0.000745453	-0.715333557	-0.698781728	0.006517591	0.081188465	-0.015063401	0
977	762762504	0.001198835	-0.00074125	-0.715331956	-0.698783376	0.000196547	0.086323352	-0.024303773	0
978	762779171	0.001186475	-0.000753731	-0.715317669	-0.698798009	-0.007397681	0.098075963	-0.012410429	0
979	762795838	0.001183146	-0.000757713	-0.715350038	-0.698764874	0.023221129	0.093273619	0.019564571	0
980	762812505	0.001178486	-0.000750664	-0.715343966	-0.698771105	0.000601024	0.09570951	0.010161757	0
981	762829172	0.001186446	-0.000743777	-0.71534209	-0.69877302	-0.00663599	0.082388881	0.009274241	0
982	762845839	0.001198282	-0.000744229	-0.71536189	-0.698752729	0.023310199	0.079828116	-0.009450653	0
983	762862506	0.001202144	-0.000757205	-0.715383284	-0.698730806	-0.005196775	0.09184534	-0.006694608	0
984	762879173	0.001198964	-0.000758827	-0.715415194	-0.698698138	-0.009312323	0.079007354	0.016356906	0
985	762895840	0.001202268	-0.000754471	-0.715416786	-0.698696506	-0.008903827	0.092974842	0.031910701	0
986	762912507	0.001218293	-0.000747014	-0.715393985	-0.698719832	0.023821174	0.075283758	0.024159763	0
987	762929174	0.001212754	-0.000748177	-0.715410215	-0.698703223	0.000389659	0.097682326	-0.029086954	0
988	762945841	0.001201467	-0.000746574	-0.715413043	-0.698700348	-0.004539192	0.086662154	-0.035888008	0
989	762962508	0.001202703	-0.00075729	-0.715398309	-0.698715421	-0.00376572	0.097038006	-0.000848872	0
990	762979175	0.001203484	-0.000760066	-0.715382893	-0.6987312	-0.000609028	0.08886376	0.018265144	0
991	762995842	0.001204968	-0.000761041	-0.715389301	-0.698724636	0.006738041	0.079340173	0.021101709	0
992	763012509	0.001209341	-0.000755615	-0.715388167	-0.698725795	-0.007773715	0.101779406	0.000456877	0
993	763029176	0.001202139	-0.000758601	-0.715374154	-0.698740152	0.003474555	0.086207966	-0.024563322	0
994	763045843	0.001190573	-0.000771004	-0.715389309	-0.698724641	-0.03061325	0.083062693	-0.022119521	0
995	763062510	0.001181612	-0.000771242	-0.715379984	-0.698734204	0.005625639	0.081084904	0.001438319	0
996	763079177	0.001189581	-0.000769409	-0.715409049	-0.698704433	0.005819737	0.074975578	0.022036319	0
997	763095844	0.001195701	-0.000772284	-0.715437851	-0.698674928	0.024102672	0.075076364	0.012599977	0
998	763112511	0.00117902	-0.000775368	-0.715461897	-0.698650329	0.000537063	0.087638443	-0.016478217	0
999	763129178	0.001170877	-0.000771515	-0.715420018	-0.698693231	0.000532934	0.077438948	-0.017960198	0
1000	763145845	0.001164198	-0.000783845	-0.715413795	-0.698699601	-0.009491479	0.089891681	-0.015349704	0
1001	763162512	0.00116986	-0.000775698	-0.715412906	-0.698700511	0.028624612	0.076130515	0.002526759	0
1002	763179179	0.001168832	-0.000777337	-0.71540672	-0.698706844	0.014362645	0.083870381	0.015229027	0
1003	763195846	0.001166497	-0.000786853	-0.715434635	-0.698678254	0.018930573	0.079243512	0.001778817	0
1004	763212513	0.001158436	-0.000779348	-0.715417163	-0.698696167	-0.014840208	0.092856131	-0.014305478	0
1005	763229180	0.00114806	-0.000790401	-0.715462435	-0.698649813	-0.031688115	0.08883261	-0.025420439	0
1006	763245847	0.001153029	-0.000791561	-0.715496952	-0.698614454	0.000110214	0.100712931	0.012702734	0
1007	763262514	0.001149995	-0.000793421	-0.715485353	-0.698626336	0.012071236	0.090899853	-0.003700153	0
1008	763279181	0.001140533	-0.000795332	-0.715470414	-0.698641649	0.02881125	0.084304252	0.017538423	0
1009	763295848	0.001137704	-0.000799435	-0.715459446	-0.698652881	-0.003997019	0.097000071	-0.011984343	0
1010	763312515	0.001124923	-0.000807387	-0.715459121	-0.698653225	-0.025695735	0.085395654	-0.017917692	0
1011	763329182	0.001139461	-0.000800621	-0.715481903	-0.698629879	-0.007635873	0.113654192	-0.005190673	0
1012	763345849	0.001148656	-0.000797943	-0.715487359	-0.698624279	0.013493256	0.094039037	-0.008456926	0
