sep=									
DeviceTag:	Xsens_4								
FirmwareVersion:	2.2.1								
AppVersion:	2023.0.0								
SyncStatus:	Un-synced								
OutputRate:	60Hz								
FilterProfile:	General								
Measurement Mode:	Sensor fusion Mode - Extended (Quaternion)								
StartTime:	2023-07-13 15:18:37.504 +0200								
© Movella Technologies B. V. 2005-2023									
PacketCounter	SampleTimeFine	Quat_W	Quat_X	Quat_Y	Quat_Z	FreeAcc_X	FreeAcc_Y	FreeAcc_Z	Status
1	750100842	3.60E-18	-4.56E-17	-0.707106781	-0.707106781	0.041375376	0.17662716	-0.0262899	0
2	750117509	0.000591285	0.000203171	-0.707297528	-0.706915706	-0.021989084	0.177045451	-0.020366344	0
3	750134176	0.00081796	0.000138729	-0.707468806	-0.706744084	-0.026789118	0.172218351	-0.020646378	0
4	750150843	0.000897417	1.50E-05	-0.707567393	-0.706645299	-0.020436035	0.180149356	0.001358469	0
5	750167510	0.000913973	-1.38E-05	-0.707714325	-0.706498124	-0.024567814	0.161959347	0.011215134	0
6	750184177	0.000874402	1.96E-05	-0.707821099	-0.7063912	0.003862568	0.162688539	-0.00872951	0
7	750200844	0.000875111	6.43E-05	-0.707841709	-0.706370543	0.012869903	0.163501489	-0.011026507	0
8	750217511	0.000922254	0.000124781	-0.707921682	-0.706290327	-0.002107708	0.175631178	-0.043590815	0
9	750234178	0.001003064	0.000171594	-0.708052088	-0.706159476	-0.014548688	0.166468598	-0.015878402	0
10	750250845	0.001084392	0.000224567	-0.708170677	-0.706040413	-0.022379857	0.162392977	0.024183143	0
11	750267512	0.001114628	0.000310824	-0.708222035	-0.705988817	0.013623892	0.171368087	-0.00081955	0
12	750284179	0.001160882	0.000401775	-0.708359682	-0.705850588	0.004177926	0.167268447	-0.025943255	0
13	750300846	0.001198855	0.00048152	-0.708456575	-0.705753223	-0.028689445	0.168158376	-0.036756016	0
14	750317513	0.001246185	0.000563754	-0.708525656	-0.705683728	-0.016112496	0.172178365	-0.009937311	0
15	750334180	0.001306902	0.000649738	-0.708467027	-0.705742404	-0.02402673	0.164228316	0.007746729	0
16	750350847	0.001358933	0.000728816	-0.708773638	-0.7054343	-0.014197903	0.164494925	0.01035602	0
17	750367514	0.001401606	0.000812694	-0.708967035	-0.705239759	-0.015567167	0.163529077	0.002674284	0
18	750384181	0.001417341	0.000911614	-0.708853249	-0.705353976	-0.016501923	0.165989216	-0.028511394	0
19	750400848	0.001450528	0.000985946	-0.709030099	-0.705176036	-0.042662292	0.169161266	-0.032466618	0
20	750417515	0.001480425	0.001081108	-0.708984721	-0.705221458	-0.055981856	0.169430737	-0.020280531	0
21	750434182	0.001522852	0.001171295	-0.709114419	-0.70509081	-0.014734617	0.168643552	-0.003035503	0
22	750450849	0.001545366	0.001259278	-0.709109072	-0.705095986	-0.03738496	0.171010368	-0.003852248	0
23	750467516	0.001578785	0.00132711	-0.709395392	-0.704807722	-0.003714193	0.173905195	-0.036204274	0
24	750484183	0.001597456	0.001418302	-0.709251918	-0.70495188	-0.035001056	0.174600423	-0.034649545	0
25	750500850	0.001653076	0.001491264	-0.709454761	-0.704747462	-0.019517101	0.176396929	-0.027659412	0
26	750517517	0.001718881	0.001560554	-0.709881628	-0.704317176	-0.012870519	0.162621281	-0.01641477	0
27	750534184	0.001741354	0.001661252	-0.709691896	-0.70450807	-0.014737374	0.185794133	-0.009577296	0
28	750550851	0.001768718	0.001755511	-0.709614766	-0.704585463	-0.017502927	0.173670413	-0.014424647	0
29	750567518	0.001791128	0.001843828	-0.709550591	-0.704649808	-0.0415585	0.167587667	-0.057490011	0
30	750584185	0.001818994	0.001949979	-0.709268144	-0.704933747	-0.058346965	0.177392942	-0.044939231	0
31	750600852	0.001854611	0.002039676	-0.70924864	-0.704953024	-0.057813332	0.168078587	-0.032029604	0
32	750617519	0.001874123	0.002160507	-0.708837807	-0.705365708	-0.02505531	0.169270602	-0.012223671	0
33	750634186	0.001902576	0.002247317	-0.70874165	-0.705461979	-0.016044246	0.184830707	-0.015482356	0
34	750650853	0.001921476	0.002310262	-0.708744923	-0.705458435	-0.069688149	0.167681269	-0.049269518	0
35	750667520	0.001932017	0.00240512	-0.70861977	-0.705583804	-0.073652397	0.165774287	-0.052234066	0
36	750684187	0.002020224	0.002457929	-0.709271979	-0.704927753	-0.053479863	0.179281688	-0.046655567	0
37	750700854	0.002047429	0.002570789	-0.709065444	-0.705135019	-0.022380959	0.175189756	-0.017816123	0
38	750717521	0.0020858	0.002636838	-0.709211885	-0.704987375	-0.052678185	0.171815067	-0.016182227	0
39	750734188	0.002100456	0.002718735	-0.709092634	-0.705106966	-0.067323848	0.176610075	-0.049139746	0
40	750750855	0.002126384	0.002792778	-0.709111507	-0.705087618	-0.075388662	0.17126508	-0.065571488	0
41	750767522	0.002163409	0.002893742	-0.70910255	-0.705096106	-0.069225657	0.154268726	-0.081177535	0
42	750784189	0.002193822	0.002989413	-0.709032729	-0.705165824	-0.048638981	0.160209727	-0.03618311	0
43	750800856	0.002224782	0.003073424	-0.709026556	-0.705171573	-0.026779082	0.164968506	-0.005312627	0
44	750817523	0.00224583	0.003151816	-0.709055469	-0.705142088	-0.035636033	0.178288771	-0.041069781	0
45	750834190	0.002279812	0.003214139	-0.709257109	-0.70493888	-0.071613346	0.156359718	-0.072664442	0
46	750850857	0.002324966	0.003284536	-0.709376181	-0.704818587	-0.082034531	0.165059241	-0.079688966	0
47	750867524	0.002332875	0.003408782	-0.708961512	-0.705235076	-0.069086915	0.165246802	-0.05907131	0
48	750884191	0.00237697	0.003482788	-0.709128036	-0.705067124	-0.052387723	0.168396951	-0.038910936	0
49	750900858	0.002371515	0.00360532	-0.708464165	-0.705733594	-0.056764056	0.169359891	-0.027204399	0
50	750917525	0.002402154	0.003660513	-0.708709783	-0.705486551	-0.073817502	0.168548405	-0.045815065	0
51	750934192	0.002416252	0.003760345	-0.708434481	-0.70576243	-0.075885732	0.156237539	-0.078853244	0
52	750950859	0.002472048	0.003844915	-0.708652107	-0.705543264	-0.074785241	0.171283899	-0.070679675	0
53	750967526	0.002460208	0.003986282	-0.707857642	-0.706339589	-0.044218488	0.165606627	-0.035673978	0
54	750984193	0.002499121	0.004053568	-0.707989556	-0.706206847	-0.084430449	0.166680714	-0.021892808	0
55	751000860	0.002534092	0.00412446	-0.708219514	-0.705975699	-0.093684868	0.16664839	-0.039997783	0
56	751017527	0.00256271	0.004208579	-0.708215999	-0.705978625	-0.08643608	0.161399854	-0.070589277	0
57	751034194	0.002606775	0.004271774	-0.708474069	-0.705719102	-0.086717595	0.17057333	-0.066604565	0
58	751050861	0.002621486	0.004396956	-0.7081722	-0.706021196	-0.060716295	0.159608366	-0.045218954	0
59	751067528	0.00265966	0.004427325	-0.708636838	-0.705554503	-0.065813074	0.166726199	-0.052969323	0
60	751084195	0.002681411	0.004489845	-0.708577189	-0.70561393	-0.096266232	0.168870991	-0.062680348	0
61	751100862	0.002706347	0.004559175	-0.708697362	-0.705492692	-0.129545552	0.169430989	-0.05887099	0
62	751117529	0.002741894	0.004668095	-0.708456381	-0.705733836	-0.129198567	0.171694866	-0.048464673	0
63	751134196	0.002758541	0.004813329	-0.707911732	-0.706279124	-0.054221962	0.17504446	-0.087872911	0
64	751150863	0.002759316	0.004898229	-0.707720872	-0.706469787	-0.054582923	0.165563902	-0.086759065	0
65	751167530	0.002775287	0.004942192	-0.707937692	-0.706252148	-0.090021217	0.169878764	-0.063290085	0
66	751184197	0.00277623	0.005028975	-0.707692955	-0.706496768	-0.127482509	0.173001247	-0.033618632	0
67	751200864	0.002813046	0.005139381	-0.707460905	-0.706728195	-0.128538543	0.16315677	-0.053908578	0
68	751217531	0.002869863	0.005200949	-0.707839319	-0.706348506	-0.060683192	0.165980315	-0.101230417	0
69	751234198	0.002879792	0.005288915	-0.707617326	-0.706570204	-0.047605337	0.155689993	-0.115563333	0
70	751250865	0.002878576	0.005354482	-0.707632542	-0.706554477	-0.094016811	0.161724401	-0.080606524	0
71	751267532	0.002922488	0.00541472	-0.707920455	-0.706265367	-0.117987041	0.175621617	-0.047324468	0
72	751284199	0.002974124	0.005454831	-0.708345424	-0.705838622	-0.166461959	0.165210654	-0.046445815	0
73	751300866	0.003051912	0.005572885	-0.708505219	-0.705676968	-0.080527548	0.172060996	-0.060096033	0
74	751317533	0.003066806	0.005603778	-0.708818922	-0.705361559	-0.0240409	0.158117646	-0.087394905	0
75	751334200	0.003032042	0.005696832	-0.708215246	-0.70596708	-0.078721384	0.177448185	-0.096593346	0
76	751350867	0.003052707	0.005717703	-0.708490594	-0.705690489	-0.150657261	0.163448638	-0.057875545	0
77	751367534	0.003068358	0.00578124	-0.708533676	-0.705646649	-0.212777395	0.164419958	-0.082431169	0
78	751384201	0.003159171	0.005912289	-0.70856125	-0.705617474	-0.146991803	0.182652972	-0.112163856	0
79	751400868	0.003187946	0.005982944	-0.708684987	-0.705492474	-0.045424721	0.18121439	-0.111744714	0
80	751417535	0.003182562	0.006080174	-0.708312628	-0.705865514	-0.046093615	0.16589334	-0.05217537	0
81	751434202	0.00318042	0.006084915	-0.708637908	-0.705538925	-0.098098988	0.158738427	-0.029164255	0
82	751450869	0.003180253	0.006144687	-0.708519452	-0.705657364	-0.161718641	0.15902774	-0.073165405	0
83	751467536	0.00318614	0.006228825	-0.708280295	-0.705896645	-0.160727203	0.167378992	-0.118166503	0
84	751484203	0.003281083	0.006332324	-0.708570942	-0.705603541	-0.131511513	0.169196299	-0.119303562	0
85	751500870	0.003297273	0.006398406	-0.70839714	-0.705777359	-0.042413388	0.162163031	-0.079225225	0
86	751517537	0.003308454	0.006411692	-0.708681756	-0.705491398	-0.114419342	0.177477301	-0.070737737	0
87	751534204	0.003335024	0.006411905	-0.709240446	-0.704929609	-0.163004633	0.148255702	-0.074344174	0
88	751550871	0.003354086	0.006491625	-0.709015297	-0.705155244	-0.199824256	0.172629642	-0.094609658	0
89	751567538	0.003442525	0.006562869	-0.709382498	-0.704784754	-0.100132477	0.169496818	-0.127003423	0
90	751584205	0.003460399	0.006639885	-0.709232582	-0.704934807	-0.095136362	0.162043962	-0.111062026	0
91	751600872	0.00344361	0.006702664	-0.708929071	-0.705239526	-0.071448478	0.173830709	-0.079366344	0
92	751617539	0.003411398	0.006722929	-0.708829293	-0.705339775	-0.15279124	0.162583664	-0.074849795	0
93	751634206	0.003435455	0.006813769	-0.708623099	-0.70554594	-0.19626594	0.163107321	-0.081050994	0
94	751650873	0.003487982	0.006910745	-0.708555714	-0.705612411	-0.1081062	0.163827279	-0.103481096	0
95	751667540	0.003526017	0.007000553	-0.708520855	-0.70564634	-0.073158431	0.160830163	-0.106655878	0
96	751684207	0.003529743	0.007037103	-0.70856425	-0.705602384	-0.08987515	0.172842717	-0.094285458	0
97	751700874	0.003533923	0.007051839	-0.708752191	-0.705413435	-0.14584767	0.166872559	-0.07229252	0
98	751717541	0.003578159	0.007074414	-0.709207403	-0.704955324	-0.188810762	0.159714722	-0.084811086	0
99	751734208	0.003565249	0.007210293	-0.708407028	-0.705758304	-0.167300757	0.171914609	-0.091326344	0
100	751750875	0.003587555	0.007318869	-0.707989714	-0.706175706	-0.095335214	0.167768487	-0.105484131	0
101	751767542	0.003571116	0.007390749	-0.707685152	-0.706480255	-0.078826939	0.16607695	-0.120862775	0
102	751784209	0.003595175	0.007396373	-0.707939924	-0.706224775	-0.125549427	0.158333847	-0.090630913	0
103	751800876	0.00359944	0.007433709	-0.707932247	-0.706232056	-0.168287691	0.168705453	-0.069922963	0
104	751817543	0.003648694	0.007496157	-0.708083364	-0.70607963	-0.181890008	0.164576188	-0.076113773	0
105	751834210	0.003689715	0.007553307	-0.708133006	-0.706029022	-0.09960799	0.158625315	-0.104658804	0
106	751850877	0.003690884	0.007600737	-0.708072217	-0.706089471	-0.107171758	0.171742197	-0.11037564	0
107	751867544	0.00370522	0.007624233	-0.708189779	-0.705971231	-0.130261086	0.15537689	-0.105477935	0
108	751884211	0.003706744	0.007657734	-0.708201021	-0.705959584	-0.178032236	0.161926766	-0.085593216	0
109	751900878	0.003737599	0.007717422	-0.708182347	-0.705977503	-0.162185149	0.16228897	-0.08125229	0
110	751917545	0.003766806	0.007779239	-0.708180735	-0.705978287	-0.126884757	0.165755453	-0.089143763	0
111	751934212	0.003776241	0.007846037	-0.70802202	-0.706136671	-0.129037409	0.168150298	-0.124883961	0
112	751950879	0.003783327	0.007855249	-0.708239606	-0.705918297	-0.113396782	0.171558055	-0.122180496	0
113	751967546	0.003763242	0.007913206	-0.707807615	-0.706350904	-0.176548336	0.161115795	-0.103702035	0
114	751984213	0.003749861	0.007983589	-0.707471928	-0.706686402	-0.162710418	0.181490955	-0.07428046	0
115	752000880	0.003778245	0.008032341	-0.707493919	-0.706663683	-0.152764543	0.169024173	-0.080233666	0
116	752017547	0.003764126	0.008101094	-0.707113575	-0.70704356	-0.114538138	0.17184762	-0.118778915	0
117	752034214	0.003750081	0.008127835	-0.707076469	-0.707080436	-0.120379792	0.17688277	-0.113254722	0
118	752050881	0.003720196	0.0081984	-0.706580099	-0.707575798	-0.150356872	0.1684713	-0.121105267	0
119	752067548	0.000436189	-7.00E-05	-0.701740607	-0.712432401	-0.014777807	0.16524977	-0.003545423	0
120	752084215	0.000462893	-4.81E-05	-0.701697038	-0.712475298	-0.024340795	0.174205107	0.014720086	0
121	752100882	0.000467507	-4.48E-05	-0.701652284	-0.712519369	0.03382273	0.184442375	0.018772674	0
122	752117549	0.000452385	-3.45E-05	-0.701614076	-0.712557003	0.017589795	0.166761451	-0.014331925	0
123	752134216	0.000430918	-4.46E-05	-0.701567794	-0.712602584	0.000205688	0.157424848	-0.022992301	0
124	752150883	0.000427418	-4.52E-05	-0.701517341	-0.712652254	-0.040395764	0.174729995	-0.008317793	0
125	752167550	0.000442546	-2.61E-05	-0.701469319	-0.712699514	-0.0135998	0.176441257	0.015155808	0
126	752184217	0.000450673	-1.05E-05	-0.701423944	-0.712744167	0.012566856	0.181460113	0.001387894	0
127	752200884	0.000445366	-2.56E-06	-0.701375284	-0.712792054	0.017207526	0.173122774	-0.014622157	0
128	752217551	0.000426372	-1.98E-05	-0.701340408	-0.712826381	0.008678117	0.167611283	-0.02699902	0
129	752234218	0.000421114	-3.03E-05	-0.701294005	-0.712872037	-0.036705042	0.161850507	-0.025626128	0
130	752250885	0.000422711	-3.03E-05	-0.701248735	-0.712916567	-0.022005594	0.17485622	-0.002160746	0
131	752267552	0.000429774	-1.29E-05	-0.701204232	-0.712960336	0.000870768	0.174581193	0.01086971	0
132	752284219	0.000434619	-2.34E-05	-0.701158978	-0.713004838	0.013638498	0.174917614	0.002862163	0
133	752300886	0.000413546	-3.63E-05	-0.701125188	-0.713038076	0.027170628	0.179128009	-0.018525661	0
134	752317553	0.000411221	-4.41E-05	-0.701081848	-0.71308069	-0.021185019	0.17598779	-0.013414448	0
135	752334220	0.000413346	-2.91E-05	-0.701049484	-0.713112508	-0.034160448	0.165641832	0.000460448	0
136	752350887	0.000422635	-1.39E-05	-0.701012294	-0.713149062	-0.013913089	0.179059766	0.017090745	0
137	752367554	0.000432951	-1.01E-05	-0.700973199	-0.713187484	0.019321221	0.164049957	0.015171398	0
138	752384221	0.000428568	-9.49E-06	-0.70094182	-0.713218327	0.009404278	0.159678239	-0.001729741	0
139	752400888	0.000412366	-2.99E-05	-0.700899391	-0.713260032	-0.0281853	0.173525131	-0.028325349	0
140	752417555	0.000421072	-1.33E-05	-0.700869063	-0.713289828	0.000537652	0.162775765	-0.022552572	0
141	752434222	0.000426904	9.70E-07	-0.700836192	-0.713322122	0.012739974	0.171825972	0.000755829	0
142	752450889	0.000428524	1.69E-05	-0.700802801	-0.713354926	0.02259023	0.168981261	0.011893304	0
143	752467556	0.000419593	1.59E-05	-0.700771308	-0.713385868	-0.013544551	0.158284109	0.003260858	0
144	752484223	0.000420464	2.31E-05	-0.700734955	-0.713421576	0.009484322	0.176485528	-0.001154998	0
145	752500890	0.000410122	1.75E-05	-0.700706536	-0.713449495	-0.001241265	0.17503942	-0.025715624	0
146	752517557	0.000407924	2.82E-05	-0.700669754	-0.713485619	-0.016973719	0.163184799	0.007253713	0
147	752534224	0.000405227	3.43E-05	-0.700634802	-0.713519943	0.010978384	0.175325598	-0.000903316	0
148	752550891	0.000406819	5.41E-05	-0.700611757	-0.713542569	0.028293006	0.176920402	0.012788186	0
149	752567558	0.000397641	4.82E-05	-0.700587045	-0.713566837	-0.0031467	0.17430626	-0.004215801	0
150	752584225	0.000407693	5.62E-05	-0.700561141	-0.713592264	-0.003772602	0.160512425	-0.023596099	0
151	752600892	0.00041386	5.94E-05	-0.700528994	-0.713623819	-0.013427963	0.184342029	-0.016678082	0
152	752617559	0.000414407	6.80E-05	-0.700502458	-0.713649865	0.023118896	0.168497629	0.007872925	0
153	752634226	0.000411801	8.03E-05	-0.700473371	-0.713678416	0.023566329	0.165233733	0.005702043	0
154	752650893	0.000400644	7.24E-05	-0.700448315	-0.713703014	-0.010485294	0.157347433	-0.007431235	0
155	752667560	0.000399195	7.61E-05	-0.700421106	-0.713729717	-0.029554895	0.173254752	-0.02373962	0
156	752684227	0.000402025	7.86E-05	-0.700398933	-0.713751474	-0.003634564	0.17506537	-0.017694059	0
157	752700894	0.000405058	8.39E-05	-0.700372806	-0.713777109	0.017010865	0.175033109	-0.003368533	0
158	752717561	0.000422789	6.90E-05	-0.700583488	-0.713570314	0.023840562	0.177713021	0.017308131	0
159	752734228	0.000472727	1.06E-05	-0.70138148	-0.71278594	0.004182554	0.163423013	-0.004035546	0
160	752750895	0.000486482	-3.93E-06	-0.70151542	-0.712654109	0.002483661	0.168847408	-0.00418732	0
161	752767562	0.000495832	-1.72E-05	-0.70170656	-0.712465899	0.002465119	0.169635482	-0.007402922	0
162	752784229	0.000497756	-3.19E-05	-0.701889172	-0.712285997	-0.007441837	0.158633452	0.003093073	0
163	752800896	0.000507701	-4.23E-05	-0.701914351	-0.712261177	-0.016043385	0.170146447	0.009949446	0
164	752817563	0.000527377	-6.79E-05	-0.702258565	-0.711921783	0.005372657	0.169552425	0.008007898	0
165	752834230	0.000531266	-7.53E-05	-0.702335597	-0.711845785	0.002431916	0.158486558	0.001802253	0
166	752850897	0.000553375	-9.28E-05	-0.702584312	-0.711600288	-0.013044129	0.169011197	-0.00371192	0
167	752867564	0.000549972	-9.40E-05	-0.702604455	-0.711580402	0.008341709	0.181994374	-0.016467253	0
168	752884231	0.000552135	-0.000100901	-0.70264648	-0.711538902	0.015915742	0.167155246	-0.009890809	0
169	752900898	0.000552322	-0.00010244	-0.702723272	-0.711463061	-0.010232594	0.172033362	0.011262256	0
170	752917565	0.000546883	-0.000105817	-0.702753379	-0.711433326	-0.001576452	0.174503999	0.001473342	0
171	752934232	0.000555276	-8.56E-05	-0.702704162	-0.711481935	0.014116072	0.164365826	-0.012401275	0
172	752950899	0.000556154	-0.000108464	-0.702901572	-0.711286903	0.005640439	0.180825821	-0.012590195	0
173	752967566	0.000546978	-0.000113905	-0.702850431	-0.711337444	-0.011726895	0.163961292	-0.011361965	0
174	752984233	0.000551931	-0.000121846	-0.702991093	-0.711198428	0.004358781	0.166066889	0.00348378	0
175	753000900	0.000565815	-0.000114909	-0.703060757	-0.711129552	-0.012388728	0.184071639	-3.48E-05	0
176	753017567	0.000578562	-0.000125027	-0.703198606	-0.710993228	-0.000537618	0.175961446	0.009223543	0
177	753034234	0.000565411	-0.00013453	-0.70313256	-0.711058553	0.026831057	0.151892446	0.005435063	0
178	753050901	0.000571899	-0.000133376	-0.703216018	-0.710976011	0.004509367	0.164760773	-0.028376284	0
179	753067568	0.000565293	-0.000150803	-0.703320322	-0.710872831	4.52E-05	0.168294635	-0.009270349	0
180	753084235	0.0005726	-0.000147792	-0.703348461	-0.710844985	-0.001562569	0.170849968	0.006570093	0
181	753100902	0.000584415	-0.000164286	-0.703441719	-0.710752686	0.008691845	0.169343846	0.008436133	0
182	753117569	0.000598428	-0.000170774	-0.703553803	-0.710641723	-0.00977504	0.188238469	-0.002939603	0
183	753134236	0.000595674	-0.000173864	-0.703557549	-0.710638016	-0.017081856	0.180204356	-0.001537713	0
184	753150903	0.000590497	-0.000165109	-0.703511091	-0.710684014	0.005866608	0.17535051	-0.019005668	0
185	753167570	0.000581016	-0.000164151	-0.703503793	-0.710691247	0.012809998	0.172398433	0.006350514	0
186	753184237	0.000585078	-0.000169367	-0.703574775	-0.710620971	-0.005393829	0.163884778	0.005451962	0
187	753200904	0.000567946	-0.000141416	-0.703240995	-0.710951306	0.002870981	0.162750641	0.009391187	0
188	753217571	0.000568502	-0.000152344	-0.703297922	-0.71089499	0.012762995	0.166602391	-0.003970162	0
189	753234238	0.000568789	-0.000145318	-0.703271962	-0.710920672	0.006649902	0.158612475	-0.007682523	0
190	753250905	0.000574536	-0.000149187	-0.703234742	-0.710957485	0.00178289	0.175862209	-0.010737657	0
191	753267572	0.000584033	-0.000148058	-0.703283211	-0.710909532	-0.003305084	0.177007708	-0.012552195	0
192	753284239	0.000579399	-0.000158952	-0.703320886	-0.71087226	-0.019048591	0.16692617	0.007628897	0
193	753300906	0.000583446	-0.000152213	-0.703273604	-0.710919035	0.00118886	0.17789141	0.004058286	0
194	753317573	0.000595136	-0.000151406	-0.703358355	-0.710835175	-0.004837735	0.174268277	-0.00571019	0
195	753334240	0.0005847	-0.000154321	-0.703323833	-0.710869341	0.002302471	0.171153942	-0.01762508	0
196	753350907	0.000577616	-0.00015961	-0.703348789	-0.710844654	-0.000281639	0.152220692	-0.00019645	0
197	753367574	0.000583176	-0.000156656	-0.703243702	-0.710948613	-0.007683237	0.159737608	-0.001449758	0
198	753384241	0.000579474	-0.000158968	-0.703222619	-0.71096947	0.001371462	0.172933985	0.000594559	0
199	753400908	0.000592882	-0.00018504	-0.70341394	-0.710780165	0.000115053	0.165747164	-0.001703168	0
200	753417575	0.000605228	-0.000180466	-0.703492389	-0.710702512	0.003161868	0.180675592	-0.005685506	0
201	753434242	0.000584302	-0.000181976	-0.703421291	-0.710772898	0.009892949	0.185963344	-0.012294194	0
202	753450909	0.00059215	-0.000171145	-0.703457188	-0.710737367	0.000383726	0.158127209	-0.008169816	0
203	753467576	0.000608194	-0.000174689	-0.703537602	-0.710657753	-0.024424509	0.165059624	0.002786238	0
204	753484243	0.000611312	-0.000168672	-0.703485512	-0.710709316	0.001373357	0.166888398	0.009133924	0
205	753500910	0.000610876	-0.000180102	-0.703636263	-0.710560064	-0.005353014	0.161946874	-0.001131503	0
206	753517577	0.000616922	-0.000183675	-0.703667408	-0.710529215	0.001118165	0.166084566	-0.006677035	0
207	753534244	0.000622348	-0.000190202	-0.703841531	-0.710356724	-0.020300286	0.166940055	0.00108268	0
208	753550911	0.000625487	-0.000187953	-0.703827667	-0.710370459	-0.000159108	0.163736287	0.015638828	0
209	753567578	0.000634602	-0.000184369	-0.703882525	-0.710316094	-0.016435833	0.171315806	0.006037192	0
210	753584245	0.000633447	-0.000199472	-0.70400036	-0.710199305	-4.28E-05	0.174877776	0.008581675	0
211	753600912	0.000621333	-0.000197703	-0.70394447	-0.710254713	-0.01203839	0.166693964	-0.002778018	0
212	753617579	0.000619882	-0.000206956	-0.703992004	-0.710207597	-0.024274938	0.165024426	-0.025356089	0
213	753634246	0.000624754	-0.000192453	-0.703897339	-0.710301421	-0.00047107	0.167942259	0.000247029	0
214	753650913	0.000637132	-0.000198978	-0.703905822	-0.710293002	0.020040223	0.181639635	0.005750929	0
215	753667580	0.000644257	-0.000199569	-0.703977435	-0.710222019	0.009157935	0.186254644	-0.006451282	0
216	753684247	0.000631172	-0.000206848	-0.703924934	-0.710274064	0.024896584	0.161103788	0.005943204	0
217	753700914	0.000638859	-0.000220561	-0.703984056	-0.710215455	-0.029232753	0.175768497	-0.001936861	0
218	753717581	0.00064561	-0.000225506	-0.70404099	-0.710159008	-0.023184935	0.157272332	0.002077439	0
219	753734248	0.000667969	-0.000221594	-0.704218232	-0.70998323	0.002206597	0.173466867	-0.019709548	0
220	753750915	0.000678467	-0.000223449	-0.704250902	-0.709950813	9.62E-05	0.171404067	-0.00065012	0
221	753767582	0.000672065	-0.000236656	-0.704279372	-0.709922572	0.020892238	0.165482067	0.016109958	0
222	753784249	0.000657045	-0.000242426	-0.704272076	-0.709929823	-0.005343116	0.171528641	-0.000895141	0
223	753800916	0.000644785	-0.0002396	-0.70418747	-0.710013756	0.009469206	0.157645551	-0.002562108	0
224	753817583	0.000652775	-0.000222174	-0.70413541	-0.710065384	0.0025169	0.164094792	-0.00076808	0
225	753834250	0.000653211	-0.000226458	-0.704174323	-0.710026792	0.02365974	0.177172528	0.015292468	0
226	753850917	0.000652578	-0.000228604	-0.704166031	-0.710035015	0.019844012	0.166825233	-0.009635577	0
227	753867584	0.000652928	-0.00024236	-0.70423665	-0.709964968	0.020013733	0.166942398	-0.008444541	0
228	753884251	0.000650294	-0.000241323	-0.704216568	-0.70998489	-0.012659815	0.168622365	0.007527486	0
229	753900918	0.000653183	-0.000238131	-0.704196187	-0.710005103	-0.016129311	0.182560769	0.001532198	0
230	753917585	0.00065889	-0.000225775	-0.704135584	-0.710065204	0.003056577	0.163789546	0.001747633	0
231	753934252	0.00065751	-0.000218944	-0.704148976	-0.710051927	0.027217012	0.155787082	0.004814454	0
232	753950919	0.000648445	-0.000217877	-0.704184379	-0.710016826	-0.003177658	0.157988862	-0.003625629	0
233	753967586	0.000649738	-0.000216226	-0.704093834	-0.710106614	-0.012487747	0.168797479	-0.005882818	0
234	753984253	0.000664413	-0.000232132	-0.704250847	-0.709950878	-0.01566183	0.166689768	-0.004787457	0
235	754000920	0.000655563	-0.000239486	-0.704314778	-0.709887461	-0.027021174	0.169390047	-0.001942805	0
236	754017587	0.000671706	-0.000228672	-0.704325955	-0.709876359	-0.005476978	0.173409876	0.005580529	0
237	754034254	0.00066813	-0.000229331	-0.70435887	-0.709843703	0.00985987	0.174939943	0.004841542	0
238	754050921	0.000669166	-0.00023281	-0.704469999	-0.709733413	-0.014651935	0.175933116	-0.007959009	0
239	754067588	0.000567068	-0.000294437	-0.704464334	-0.709739102	0.00098054	0.168926442	-0.014088379	0
240	754084255	0.000576065	-0.000282165	-0.704497243	-0.709706435	-0.011014412	0.162100648	0.001745305	0
241	754100922	0.000584324	-0.000267742	-0.704502561	-0.709701154	-0.005113529	0.181713811	-0.008268108	0
242	754117589	0.00060673	-0.000287239	-0.70477631	-0.709429279	0.015860264	0.185403103	-0.001132423	0
243	754134256	0.000591192	-0.000277325	-0.704688343	-0.709516675	0.007884351	0.171196257	-0.002426425	0
244	754150923	0.000594183	-0.000281881	-0.704751177	-0.709454259	-0.014237134	0.173260913	7.49E-05	0
245	754167590	0.00059735	-0.000289838	-0.704818785	-0.709387087	-0.003439477	0.170050063	-0.007757551	0
246	754184257	0.000606256	-0.000286306	-0.704894051	-0.709312292	-0.023209278	0.162659757	-0.012324271	0
247	754200924	0.000610525	-0.000281029	-0.704942348	-0.709264291	-0.001378111	0.164673127	-0.013861034	0
248	754217591	0.000599306	-0.000279264	-0.704840674	-0.709365341	0.004957668	0.168501159	-0.005716199	0
249	754234258	0.000595266	-0.000280339	-0.704873429	-0.709332797	-0.002914941	0.185399889	-0.011734835	0
250	754250925	0.000592537	-0.000281862	-0.704924513	-0.709282032	-8.96E-05	0.160272289	0.006023238	0
251	754267592	0.000598304	-0.000288316	-0.704929423	-0.709277145	0.002664927	0.17033271	-0.008206315	0
252	754284259	0.000603111	-0.000287388	-0.704980965	-0.709225911	-0.013201133	0.162691921	0.0028447	0
253	754300926	0.000604988	-0.000283208	-0.704946968	-0.709259703	0.018092302	0.175159321	-0.006779332	0
254	754317593	0.000609376	-0.000286847	-0.704948767	-0.70925791	-0.01038473	0.166527786	0.005877743	0
255	754334260	0.000608115	-0.000302987	-0.705076716	-0.70913071	-0.001737364	0.174469411	0.002526208	0
256	754350927	0.000601644	-0.000310462	-0.705121795	-0.709085887	-0.005286802	0.165858537	-0.006659621	0
257	754367594	0.000604536	-0.000302923	-0.705131977	-0.709075763	-0.003615046	0.166151125	-0.014718866	0
258	754384261	0.000610433	-0.000303308	-0.705164843	-0.709043073	0.020464699	0.167540684	0.008967186	0
259	754400928	0.000626335	-0.00030235	-0.705137229	-0.709070522	0.012481385	0.164199773	0.003668374	0
260	754417595	0.000619022	-0.000303084	-0.705092571	-0.709114935	0.012099527	0.179756365	-0.003081516	0
261	754434262	0.000624767	-0.00030313	-0.705122613	-0.709085057	0.001623053	0.16765326	-0.005927064	0
262	754450929	0.000615403	-0.000287979	-0.705094725	-0.709112802	-0.009610611	0.163556339	-0.01441969	0
263	754467596	0.000618668	-0.000273095	-0.705041263	-0.709165961	0.010024801	0.167329738	-0.011725583	0
264	754484263	0.000614147	-0.000275774	-0.704935443	-0.709271152	0.012049972	0.160586009	0.003372532	0
265	754500930	0.000604576	-0.000283633	-0.70497797	-0.709228888	0.027316806	0.171614724	0.009229487	0
266	754517597	0.000608619	-0.000282987	-0.705101128	-0.709106444	0.014268564	0.165823376	0.002920317	0
267	754534264	0.000607793	-0.000294706	-0.705205796	-0.709002348	0.024933421	0.175657375	-0.001597513	0
268	754550931	0.000620312	-0.000287773	-0.70525749	-0.708950918	0.002599847	0.165452942	-0.006733547	0
269	754567598	0.000620131	-0.000283276	-0.705271066	-0.708937416	0.027558872	0.173724839	-0.004567701	0
270	754584265	0.000622098	-0.000298531	-0.705425563	-0.708783676	0.019717966	0.173061368	0.008572928	0
271	754600932	0.000626314	-0.000309136	-0.70544942	-0.708759923	0.014094613	0.177191353	-0.009217519	0
272	754617599	0.000633268	-0.000310726	-0.705460071	-0.708749314	-0.008953905	0.173401804	-0.007376436	0
273	754634266	0.000635403	-0.000297361	-0.705441688	-0.708767616	0.00018968	0.169906839	-0.000455672	0
274	754650933	0.000627379	-0.000288307	-0.7053293	-0.708879469	0.00782626	0.174689709	-0.00020949	0
275	754667600	0.000633928	-0.00028846	-0.705311019	-0.708897653	0.010269453	0.178454091	-0.000459454	0
276	754684267	0.000637602	-0.00030434	-0.705510422	-0.708699192	-0.011690832	0.166540296	0.00073559	0
277	754700934	0.000644965	-0.000307833	-0.705561499	-0.708648334	-0.021173526	0.167491057	-0.00771324	0
278	754717601	0.000641454	-0.000300066	-0.705528598	-0.708681096	-0.003840115	0.164913038	-0.011847585	0
279	754734268	0.000651685	-0.000300181	-0.705539584	-0.708670149	0.000477622	0.177515807	-0.009231996	0
280	754750935	0.000657849	-0.000304795	-0.70554325	-0.708666492	0.013139328	0.16710869	-0.007286964	0
281	754767602	0.000663429	-0.00030976	-0.705578147	-0.70863174	-0.024929101	0.158415078	-0.005205788	0
282	754784269	0.000658093	-0.000315803	-0.705582235	-0.708627672	0.002936192	0.165243774	0.005960033	0
283	754800936	0.000651471	-0.000318042	-0.705596238	-0.708613733	-0.009597621	0.163953873	0.004961058	0
284	754817603	0.000658696	-0.00031418	-0.705638726	-0.708571419	-0.001836909	0.17188601	-0.010521878	0
285	754834270	0.00066122	-0.000321315	-0.705666086	-0.708544165	0.034874361	0.174774104	-0.005429864	0
286	754850937	0.000656794	-0.00032205	-0.705687348	-0.708522993	0.008249333	0.172653301	0.004866389	0
287	754867604	0.000644465	-0.000326332	-0.705660399	-0.708549843	-0.00154414	0.167101509	0.003673094	0
288	754884271	0.000649805	-0.000332518	-0.705691398	-0.708518961	-0.002027356	0.161961908	0.008193975	0
289	754900938	0.000643665	-0.000328499	-0.705684128	-0.708526209	0.003689172	0.172872214	-0.012095053	0
290	754917605	0.000654225	-0.000324681	-0.705695666	-0.708514709	0.021556139	0.169651679	-0.010737865	0
291	754934272	0.00065989	-0.000330062	-0.705682606	-0.708527709	0.032164446	0.177228228	0.006345579	0
292	754950939	0.000660817	-0.000333502	-0.705709818	-0.708500604	-0.011286833	0.164983272	0.00097739	0
293	754967606	0.000651297	-0.000336144	-0.705702943	-0.708507459	-0.024470885	0.174400664	-0.001588663	0
294	754984273	0.000668858	-0.00032928	-0.705717383	-0.708493062	-0.011778176	0.164698079	-0.017018804	0
295	755000940	0.00067928	-0.00031957	-0.705745823	-0.708464727	0.005131222	0.150901237	-0.024095059	0
296	755017607	0.000675251	-0.000317259	-0.705754045	-0.708456542	0.005972065	0.164708019	-0.001206949	0
297	755034274	0.000675121	-0.000332526	-0.705825745	-0.708385101	0.002259744	0.171963214	-0.000593611	0
298	755050941	0.000675446	-0.000330615	-0.705776922	-0.708433745	-0.030986828	0.171289711	-0.0044513	0
299	755067608	0.000681143	-0.000324222	-0.705776721	-0.708433942	0.007232031	0.167345222	-0.010036657	0
300	755084275	0.000685099	-0.000312418	-0.705781513	-0.70842917	-0.003888827	0.168949026	-0.008347744	0
301	755100942	0.000678427	-0.000311675	-0.705757287	-0.708453311	0.007184286	0.179082145	0.004551682	0
302	755117609	0.000684587	-0.000326764	-0.705808308	-0.708402468	-0.001894414	0.168258604	-0.007141763	0
303	755134276	0.000690888	-0.0003401	-0.705945909	-0.708265332	-0.017570282	0.161729327	-0.006310335	0
304	755150943	0.000688798	-0.000349461	-0.705963558	-0.708247738	-0.033726204	0.170270579	-0.010692871	0
305	755167610	0.000707546	-0.000337704	-0.705971032	-0.708240275	0.008819956	0.185058584	-0.001315295	0
306	755184277	0.000702549	-0.000349602	-0.705948396	-0.708262837	0.026911642	0.167994102	-0.012598183	0
307	755200944	0.000694449	-0.000358883	-0.705960697	-0.70825058	0.002966601	0.169986034	-0.015893146	0
308	755217611	0.000689563	-0.000352998	-0.705919364	-0.708291784	-0.016084845	0.173912163	0.000892301	0
309	755234278	0.000696268	-0.000358244	-0.705990363	-0.708221006	-0.044481609	0.169577085	-0.006901935	0
310	755250945	0.000710729	-0.000342093	-0.706021778	-0.708189682	0.012891409	0.174998713	-0.005005214	0
311	755267612	0.000706542	-0.000353422	-0.706063878	-0.708147708	-0.015229899	0.187336269	-0.005349259	0
312	755284279	0.000705585	-0.000360968	-0.706066254	-0.708145336	0.000562078	0.172784126	-0.009539954	0
313	755300946	0.000698058	-0.000375728	-0.706096749	-0.708114928	-0.013089181	0.180882279	-0.012185383	0
314	755317613	0.000699752	-0.000365877	-0.70613367	-0.708078114	-0.002957742	0.161806618	0.006333931	0
315	755334280	0.000695837	-0.00037217	-0.706166059	-0.708045814	-0.002080813	0.175419195	0.0049603	0
316	755350947	0.000696306	-0.000362847	-0.706174451	-0.708037449	-0.017194955	0.163298732	-0.005231355	0
317	755367614	0.000680582	-0.000375774	-0.706160658	-0.708051214	-0.003330233	0.176805736	-0.007780055	0
318	755384281	0.000668629	-0.000395716	-0.706172214	-0.708039689	-0.005230284	0.175847059	-0.01331138	0
319	755400948	0.000677354	-0.000394503	-0.706181989	-0.708029932	0.009639732	0.167884012	-0.016986667	0
320	755417615	0.000680575	-0.000391843	-0.706202625	-0.708009347	0.006941571	0.178779272	0.007699398	0
321	755434282	0.000688173	-0.000376701	-0.706286893	-0.707925285	-0.00142155	0.176349988	-0.008909175	0
322	755450949	0.000682813	-0.000395183	-0.706304829	-0.707907385	0.023451902	0.171869583	-0.009165624	0
323	755467616	0.000678761	-0.00040155	-0.706372865	-0.707839497	0.009801182	0.180725233	0.006087984	0
324	755484283	0.000678897	-0.000409351	-0.70635594	-0.707856382	-0.003539367	0.171483542	-0.009709201	0
325	755500950	0.000679821	-0.000409989	-0.706362906	-0.707849429	-0.011341691	0.173866673	-0.005267448	0
326	755517617	0.000676603	-0.000415458	-0.706427628	-0.707784837	0.009724482	0.180233002	0.013228889	0
327	755534284	0.00067305	-0.000407943	-0.706408773	-0.707803663	0.028751685	0.177132681	0.011513489	0
328	755550951	0.000666633	-0.000408898	-0.70635307	-0.707859258	0.007537494	0.180443176	-0.000944914	0
329	755567618	0.00066877	-0.000424248	-0.706371053	-0.707841302	0.006725506	0.175350892	-0.010911556	0
330	755584285	0.000663425	-0.00042409	-0.706295068	-0.707917126	0.002265497	0.179993729	-0.005264312	0
331	755600952	0.000665166	-0.00042655	-0.706337993	-0.707874293	-0.022160784	0.185622781	0.003702347	0
332	755617619	0.000673928	-0.000420356	-0.706436464	-0.707776017	3.29E-05	0.186849223	0.00777893	0
333	755634286	0.000663005	-0.00041261	-0.706360875	-0.70785147	0.023642868	0.182187024	0.003817871	0
334	755650953	0.000659576	-0.000412281	-0.706355436	-0.707856902	-0.004841979	0.171861246	-0.009587956	0
335	755667620	0.000651768	-0.000418498	-0.706392958	-0.70781946	-0.009961579	0.174057318	-0.015708834	0
336	755684287	0.000656243	-0.000416533	-0.706458573	-0.707753969	-0.016189925	0.175054898	-0.011784179	0
337	755700954	0.000657099	-0.000419136	-0.706486852	-0.707725738	-0.021462078	0.172130883	-0.006062322	0
338	755717621	0.000666991	-0.000413552	-0.706536539	-0.707676128	0.007149941	0.189778155	0.006069749	0
339	755734288	0.000663476	-0.000421635	-0.706541199	-0.707671475	0.00580588	0.179040094	-0.007670257	0
340	755750955	0.000649968	-0.000437324	-0.706551227	-0.707661466	0.006976778	0.173191658	-0.011824743	0
341	755767622	0.000642158	-0.000444543	-0.706580172	-0.707632567	-0.035503117	0.185164948	0.001440667	0
342	755784289	0.000647596	-0.000441591	-0.706607525	-0.707605251	-0.002000336	0.167999204	-0.000863578	0
343	755800956	0.000663006	-0.000444581	-0.706721572	-0.70749133	0.019620166	0.178170579	0.003360943	0
344	755817623	0.000659223	-0.000436105	-0.706635392	-0.707577415	0.015225752	0.16848314	-0.012265925	0
345	755834290	0.000637439	-0.000443253	-0.706629926	-0.707582889	0.014447071	0.159072492	0.004058257	0
346	755850957	0.000649802	-0.000436501	-0.706638488	-0.707574331	-0.011631403	0.171382378	-0.013770095	0
347	755867624	0.000662779	-0.000429943	-0.706623678	-0.707589113	0.002284703	0.169450994	-0.020922655	0
348	755884291	0.000667773	-0.000414089	-0.706623052	-0.707589743	0.010839019	0.178117747	0.010684608	0
349	755900958	0.000667014	-0.000417701	-0.706624956	-0.70758784	-0.000362839	0.174680999	0.002092935	0
350	755917625	0.000660974	-0.000429759	-0.706646681	-0.707566143	0.006630704	0.171581036	-0.004397156	0
351	755934292	0.000651418	-0.000417879	-0.706669952	-0.707542917	-0.013904859	0.173084649	0.008328982	0
352	755950959	0.000649859	-0.000408834	-0.706667433	-0.70754544	-0.001921775	0.185829441	-0.00153842	0
353	755967626	0.00065417	-0.000390335	-0.70662115	-0.707591669	-0.003212662	0.1824538	0.004937799	0
354	755984293	0.000650849	-0.000404835	-0.706707987	-0.707504936	0.00860341	0.188413617	-0.003132461	0
355	756000960	0.000649569	-0.000408878	-0.70671616	-0.70749677	0.007416505	0.177359092	-0.007425764	0
356	756017627	0.000645227	-0.000414392	-0.706716904	-0.707496028	-0.016966582	0.164425249	-0.010126259	0
357	756034294	0.000653122	-0.000413433	-0.706683034	-0.707529852	0.003160869	0.159034032	0.000799459	0
358	756050961	0.000665235	-0.000405845	-0.706662757	-0.707550098	0.0083309	0.18214115	-0.006123445	0
359	756067628	0.000709538	-0.000447516	-0.706696862	-0.707515965	0.025784395	0.171466131	-0.002891503	0
360	756084295	0.000698441	-0.000433285	-0.706649208	-0.707563582	0.030361714	0.166138485	0.002343024	0
361	756100962	0.000698529	-0.000438889	-0.706650712	-0.707562076	-0.029644482	0.16730691	-0.010329036	0
362	756117629	0.000709068	-0.000439884	-0.706685573	-0.707527246	-0.008803209	0.178696355	-0.011420382	0
363	756134296	0.000713153	-0.000436816	-0.7066811	-0.707531712	0.019313052	0.16406527	-0.000354244	0
364	756150963	0.000720376	-0.00044008	-0.7067038	-0.707509029	0.019040522	0.162893788	0.000545101	0
365	756167630	0.000726573	-0.000447026	-0.706737803	-0.707475052	0.037026743	0.15940283	0.001679607	0
366	756184297	0.000721979	-0.000452964	-0.706729984	-0.707482864	-0.016744845	0.17491036	-0.008478651	0
367	756200964	0.000718267	-0.000445909	-0.706759489	-0.707453397	-0.013133593	0.172468428	-0.013188993	0
368	756217631	0.000719008	-0.000443897	-0.706764359	-0.707448533	0.007019105	0.178865939	-0.010766175	0
369	756234298	0.000715661	-0.000444396	-0.706759304	-0.707453586	0.00522905	0.161238999	-0.005938868	0
370	756250965	0.000702135	-0.00045385	-0.706739017	-0.70747386	0.000768848	0.172451409	0.005606822	0
371	756267632	0.000697998	-0.000446425	-0.706753685	-0.707459216	0.004364369	0.178165309	0.002333912	0
372	756284299	0.000695031	-0.00044909	-0.706796126	-0.707416816	0.017265997	0.18423736	0.000915919	0
373	756300966	0.000704714	-0.000442774	-0.706801477	-0.707411464	-0.00430952	0.184249139	-0.001236056	0
374	756317633	0.000700613	-0.000452688	-0.706798186	-0.70741475	0.008085686	0.169819058	-0.001081022	0
375	756334300	0.000708089	-0.000449433	-0.706798386	-0.707414545	-0.019349265	0.177047207	0.002749944	0
376	756350967	0.000710855	-0.00045389	-0.706810845	-0.70740209	-0.011471955	0.167027121	-0.025314255	0
377	756367634	0.00072188	-0.000459248	-0.706879152	-0.707333819	0.004922873	0.167284021	-0.003050781	0
378	756384301	0.000722911	-0.000466447	-0.706918055	-0.707294934	0.006393262	0.16929262	-0.003680221	0
379	756400968	0.000721142	-0.000478455	-0.706957892	-0.70725511	0.013641558	0.168174927	0.003811302	0
380	756417635	0.000712108	-0.000474185	-0.706894018	-0.707318963	-0.022179726	0.177525367	-0.007623124	0
381	756434302	0.000703612	-0.000473711	-0.706850052	-0.707362909	0.007365558	0.180446174	-0.002689521	0
382	756450969	0.000714667	-0.000478255	-0.706856794	-0.707356158	-0.001013186	0.155122038	-0.007286262	0
383	756467636	0.000715999	-0.000482216	-0.70686753	-0.707345424	0.04144172	0.172432092	-0.015150764	0
384	756484303	0.000713653	-0.000488569	-0.706870251	-0.707342704	0.018910607	0.16680851	0.002572404	0
385	756500970	0.000702024	-0.000500016	-0.706883338	-0.707329628	0.008725207	0.166299603	-0.005386909	0
386	756517637	0.000696707	-0.000498082	-0.706818411	-0.707394516	0.003214637	0.167529113	0.00163162	0
387	756534304	0.000703372	-0.000504613	-0.706860554	-0.707352393	0.012985879	0.165856959	-0.011831769	0
388	756550971	0.00070396	-0.000503553	-0.70687904	-0.707333919	0.007154635	0.169007817	-0.012921049	0
389	756567638	0.000705488	-0.000494813	-0.706909375	-0.707303607	-0.002390698	0.182564657	-0.005986211	0
390	756584305	0.00070947	-0.000492852	-0.706913835	-0.707299147	0.006671175	0.178508547	0.014251596	0
391	756600972	0.00070912	-0.00049708	-0.706940627	-0.707272366	-0.006180097	0.181226449	-0.01412317	0
392	756617639	0.000726612	-0.000502723	-0.707111009	-0.707102001	-0.020021377	0.163435005	-0.000290077	0
393	756634306	0.000734137	-0.000501028	-0.707115726	-0.707097278	0.002063952	0.170983056	0.005018171	0
394	756650973	0.000727229	-0.000499252	-0.707099384	-0.707113628	0.013932556	0.16993614	0.003336216	0
395	756667640	0.000715289	-0.000510644	-0.707109266	-0.70710375	0.006055053	0.161883378	0.001337433	0
396	756684307	0.000710466	-0.000524764	-0.707097829	-0.707115181	-0.004214528	0.168460004	-0.007404495	0
397	756700974	0.000711863	-0.000510539	-0.707080512	-0.707132507	0.003729931	0.172388013	0.003294953	0
398	756717641	0.000712501	-0.000504847	-0.707029	-0.707184015	0.000746034	0.173674068	-0.014340738	0
399	756734308	0.000720438	-0.000505633	-0.707085871	-0.707127143	-0.007820721	0.167982147	-0.007972325	0
400	756750975	0.000721057	-0.000514723	-0.707179718	-0.707033282	0.023846796	0.174341503	0.006616457	0
401	756767642	0.000722848	-0.000520956	-0.707146995	-0.707066004	0.00927241	0.166649578	0.008439253	0
402	756784309	0.000727503	-0.000510682	-0.707180129	-0.707032867	-0.013549965	0.159834433	0.015611449	0
403	756800976	0.000732989	-0.000509297	-0.70719457	-0.707018419	0.009755074	0.167748488	-0.01140424	0
404	756817643	0.000728494	-0.000505303	-0.707212356	-0.707000635	0.002867415	0.158702008	-0.001613959	0
405	756834310	0.000725372	-0.000498555	-0.707185857	-0.707027148	0.034676121	0.171393029	-0.003270736	0
406	756850977	0.000723685	-0.000510124	-0.707182521	-0.707030479	-0.001728979	0.175699	-0.004261654	0
407	756867644	0.000728006	-0.000510368	-0.707154433	-0.707058568	-0.020489056	0.188662851	-0.006620437	0
408	756884311	0.00072668	-0.000507718	-0.707162866	-0.707050136	-0.006281461	0.178593646	-0.003232879	0
409	756900978	0.000725825	-0.000496342	-0.707192386	-0.707020619	0.015615136	0.162461828	-0.00817888	0
410	756917645	0.000730122	-0.000495382	-0.707271326	-0.706941647	0.037256953	0.166544657	0.001790732	0
411	756934312	0.000722776	-0.000505593	-0.707286708	-0.706926258	-0.001508846	0.170683873	0.002629228	0
412	756950979	0.000735206	-0.000504604	-0.707309308	-0.706903634	0.016169554	0.176902376	0.008975538	0
413	756967646	0.000729705	-0.000508515	-0.707272293	-0.706940671	-0.011326561	0.188302481	-0.017010381	0
414	756984313	0.000737049	-0.000502533	-0.707245207	-0.706967765	-0.00886287	0.170078602	-0.024648856	0
415	757000980	0.000741854	-0.000504029	-0.707257869	-0.706955092	0.041792351	0.166592732	0.001913623	0
416	757017647	0.000738565	-0.000517639	-0.707298807	-0.706914128	0.016774399	0.171380676	0.00082517	0
417	757034314	0.000735202	-0.000520064	-0.707316468	-0.706896458	0.010826081	0.181752372	0.006274201	0
418	757050981	0.000745298	-0.000524988	-0.707339197	-0.706873701	-0.008538728	0.180190043	-0.005226231	0
419	757067648	0.000758249	-0.000518193	-0.707322473	-0.706890426	0.009275434	0.179446408	0.007517481	0
420	757084315	0.000767856	-0.000518453	-0.707349909	-0.706862962	-0.017313488	0.174636783	-0.014249708	0
421	757100982	0.000770514	-0.000517186	-0.707398647	-0.706814186	0.018548063	0.170915973	-0.006162677	0
422	757117649	0.000762798	-0.000528273	-0.707401887	-0.706810943	0.012100067	0.177432544	-0.001582616	0
423	757134316	0.000755206	-0.00052516	-0.707350544	-0.706862335	-0.018712034	0.158648468	0.009685798	0
424	757150983	0.000747795	-0.000523208	-0.707352455	-0.706860433	0.011507537	0.185638167	-0.003956514	0
425	757167650	0.000753739	-0.000520446	-0.707444792	-0.706768015	0.002776355	0.173756007	-0.007158971	0
426	757184317	0.000766427	-0.000518666	-0.707464943	-0.706747831	0.002318183	0.173787008	-0.002764934	0
427	757200984	0.000765428	-0.000534483	-0.707550287	-0.70666238	-0.002598841	0.175446232	-0.001690492	0
428	757217651	0.000772045	-0.000537463	-0.70763834	-0.706574196	-0.007720892	0.16849668	0.003532055	0
429	757234318	0.000768636	-0.000532919	-0.707620223	-0.706592348	-0.006279102	0.165694485	0.002750167	0
430	757250985	0.000778444	-0.000530411	-0.707666693	-0.706545798	0.002303364	0.172369813	-0.012427272	0
431	757267652	0.000789225	-0.000530362	-0.70766252	-0.706549966	0.014568121	0.175574322	-0.000838981	0
432	757284319	0.000787144	-0.00053265	-0.707600986	-0.706611592	0.007340488	0.172901335	-0.013931409	0
433	757300986	0.000775901	-0.000545461	-0.707621267	-0.706591284	0.027483809	0.172399789	0.005346358	0
434	757317653	0.000781683	-0.000547793	-0.707623538	-0.706589001	-0.006200278	0.17456008	0.002030303	0
435	757334320	0.000793306	-0.000550112	-0.707674064	-0.706538384	0.020881983	0.174507327	0.003847518	0
436	757350987	0.000795751	-0.000541888	-0.707636811	-0.706575698	0.001037983	0.17759541	-0.002214638	0
437	757367654	0.00079907	-0.000548634	-0.707672444	-0.70654	0.009143644	0.175917396	0.007966103	0
438	757384321	0.000793403	-0.000555484	-0.707716605	-0.706495768	-0.012585525	0.174088137	-0.005637732	0
439	757400988	0.000791956	-0.000549467	-0.707700077	-0.70651233	0.017954487	0.17099038	0.00113676	0
440	757417655	0.000808385	-0.00054556	-0.707763968	-0.70644831	0.018538765	0.173202485	0.001583774	0
441	757434322	0.000813674	-0.000529745	-0.707750365	-0.706461944	-0.015616701	0.168908961	-0.010648863	0
442	757450989	0.000818231	-0.000537737	-0.707770257	-0.706442003	0.01200005	0.177449753	0.003511023	0
443	757467656	0.00080645	-0.000537295	-0.707781493	-0.70643076	-0.006812978	0.17394318	-0.012207209	0
444	757484323	0.000803601	-0.000534812	-0.707775667	-0.706436602	-0.006950507	0.168807751	0.00848808	0
445	757500990	0.000812606	-0.000525102	-0.70779274	-0.706419494	-0.008677699	0.173206917	0.011766341	0
446	757517657	0.000815369	-0.000526505	-0.707770719	-0.706441553	0.003200779	0.173069093	-0.000353979	0
447	757534324	0.00081457	-0.000529946	-0.707805019	-0.706407185	-0.003549628	0.171191464	0.002822689	0
448	757550991	0.000804807	-0.000531992	-0.707763145	-0.706449149	0.018742721	0.165002989	-9.13E-05	0
449	757567658	0.000802355	-0.000539965	-0.707785178	-0.706427071	5.42E-05	0.162882177	-0.011728375	0
450	757584325	0.000803812	-0.000534859	-0.707819658	-0.706392525	-0.013321704	0.163507897	-0.010734393	0
451	757600992	0.000804136	-0.00053553	-0.707812661	-0.706399535	-0.01628152	0.177082974	-0.006737366	0
452	757617659	0.000806077	-0.000536572	-0.707857196	-0.706354905	0.001582195	0.173215975	-0.001261269	0
453	757634326	0.00080639	-0.00054597	-0.707844925	-0.706367195	-0.005309068	0.172303029	-0.010675406	0
454	757650993	0.000796326	-0.000549633	-0.70784876	-0.70636336	0.000506905	0.15672134	-0.009120926	0
455	757667660	0.000790145	-0.000547397	-0.707880032	-0.70633203	-0.000591935	0.17170129	-0.010519615	0
456	757684327	0.000795704	-0.000555298	-0.707874361	-0.7063377	-0.030674144	0.169513452	-0.006091945	0
457	757700994	0.000794876	-0.000562661	-0.707887507	-0.706324521	-0.013409799	0.16563405	-0.004691894	0
458	757717661	0.000787776	-0.000559416	-0.707870171	-0.706341905	0.016143771	0.166524746	-0.009257911	0
459	757734328	0.0007854	-0.000565113	-0.707894991	-0.706317029	-0.006080732	0.16164401	-0.00648868	0
460	757750995	0.000788037	-0.000570903	-0.707890906	-0.706321115	-0.013916406	0.168720291	-0.010473218	0
461	757767662	0.000797109	-0.000567169	-0.707896908	-0.706315093	0.012469119	0.181509526	-0.023821971	0
462	757784329	0.000802532	-0.000564469	-0.707911443	-0.706300521	-0.005149179	0.168711445	-0.006104458	0
463	757800996	0.000810527	-0.000557652	-0.707932983	-0.706278928	0.000947459	0.164289059	-0.007941846	0
464	757817663	0.00082266	-0.000556911	-0.708038032	-0.706173604	-0.01372898	0.162769768	-0.005101605	0
465	757834330	0.00081268	-0.00055548	-0.708004614	-0.70620712	-0.000684506	0.175019232	-0.009406439	0
466	757850997	0.000822828	-0.0005755	-0.708174893	-0.706036339	0.018079692	0.179602204	0.008291989	0
467	757867664	0.000826801	-0.000576851	-0.708239028	-0.705971999	-0.008332084	0.158393514	0.00268205	0
468	757884331	0.000816028	-0.000576467	-0.708194764	-0.706016415	-0.00385885	0.192924807	-0.003427729	0
469	757900998	0.000817748	-0.000563607	-0.708178849	-0.706032387	-0.011146797	0.166451979	-0.016321621	0
470	757917665	0.000815891	-0.000558802	-0.708162453	-0.706048838	0.025098233	0.175620715	0.00131318	0
471	757934332	0.000816873	-0.00056041	-0.708148218	-0.706063114	0.010747634	0.184757489	-9.12E-05	0
472	757950999	0.000828498	-0.000566981	-0.708203645	-0.706007499	-0.012488134	0.173063831	0.001718623	0
473	757967666	0.000822407	-0.000568675	-0.708171864	-0.706039384	-0.006456974	0.171372156	0.000193523	0
474	757984333	0.000814709	-0.000565728	-0.708135598	-0.706075768	-0.002022429	0.164625548	-0.007460636	0
475	758001000	0.000833093	-0.000571641	-0.70818758	-0.706023605	-0.000344878	0.171295034	-0.017153049	0
476	758017667	0.000833985	-0.000567136	-0.708171307	-0.70603993	0.000285122	0.17525208	-0.005775246	0
477	758034334	0.000833559	-0.000565734	-0.708178274	-0.706032943	0.000124519	0.165829705	-0.004612697	0
478	758051001	0.000835067	-0.000570699	-0.708214226	-0.705996875	0.007412421	0.174305498	-0.005271133	0
479	758067668	0.000807092	-0.00054302	-0.708249599	-0.705961443	0.004651753	0.168258314	-0.018769969	0
480	758084335	0.000801094	-0.000545337	-0.708272461	-0.705938511	0.009590935	0.166053901	-0.014764331	0
481	758101002	0.000794615	-0.000545425	-0.708275132	-0.705935839	-0.005722109	0.169280974	-0.011945957	0
482	758117669	0.000804709	-0.000547296	-0.708252473	-0.70595856	-0.020461157	0.162736733	-0.012115354	0
483	758134336	0.000806337	-0.000541641	-0.708240446	-0.705970628	0.000155844	0.174626799	0.002128103	0
484	758151003	0.00080647	-0.000542896	-0.708252126	-0.705958908	-0.000925658	0.18113132	-0.004552719	0
485	758167670	0.000809758	-0.00054969	-0.708273424	-0.705937532	-0.006510596	0.166713174	0.003848581	0
486	758184337	0.000804855	-0.00054149	-0.708181502	-0.706029758	-0.006241089	0.168973872	-0.011575337	0
487	758201004	0.000805995	-0.000544559	-0.708194578	-0.706016638	0.003327232	0.177589211	-0.009709201	0
488	758217671	0.000810433	-0.000532789	-0.708077202	-0.706134361	-0.013083803	0.187657413	-0.01125396	0
489	758234338	0.000797678	-0.000533946	-0.708060335	-0.706151287	0.00553619	0.171631989	0.006029921	0
490	758251005	0.000807266	-0.00054538	-0.708187525	-0.706023711	0.005533433	0.163279834	-0.002117173	0
491	758267672	0.000801418	-0.000538975	-0.708209195	-0.706001986	0.002132154	0.15967985	-0.010386693	0
492	758284339	0.000804643	-0.000544833	-0.708197416	-0.706013793	0.011273224	0.167937297	0.019611672	0
493	758301006	0.000804606	-0.000550153	-0.708209041	-0.706002128	-0.002103826	0.173310591	-0.005234879	0
494	758317673	0.000806439	-0.000539203	-0.708216822	-0.705994328	0.008037566	0.172958521	-0.005392795	0
495	758334340	0.000809018	-0.00053408	-0.708241176	-0.705969898	-0.025463463	0.172934763	-0.01060939	0
496	758351007	0.000811359	-0.000528795	-0.708227301	-0.705983819	-0.001334992	0.181577166	0.003144954	0
497	758367674	0.000813313	-0.000537052	-0.708208047	-0.706003125	-0.009578071	0.175095012	-0.014425966	0
498	758384341	0.000806666	-0.000530594	-0.708204779	-0.706006416	0.012797913	0.173563866	-0.001738407	0
499	758401008	0.000810167	-0.000531093	-0.708164083	-0.706047231	0.00715172	0.163102345	0.005753258	0
500	758417675	0.000819516	-0.000520938	-0.708144421	-0.706066948	0.01723244	0.167177842	-0.006757146	0
501	758434342	0.000821361	-0.000526329	-0.708137945	-0.706073437	-0.000803778	0.162970317	-0.010191908	0
502	758451009	0.000823642	-0.000521589	-0.708136427	-0.706074961	0.001963141	0.165088982	-0.012058964	0
503	758467676	0.000819388	-0.000524665	-0.708130396	-0.706081012	-0.011944388	0.178761321	-0.006969094	0
504	758484343	0.000816036	-0.000532809	-0.708116016	-0.706095431	-0.020087701	0.167726101	-0.00361882	0
505	758501010	0.000818174	-0.000535356	-0.708085248	-0.706126281	-0.009141497	0.168009547	0.007732061	0
506	758517677	0.000814436	-0.000537521	-0.708050898	-0.706160727	-0.019165585	0.157745121	0.000943861	0
507	758534344	0.000824591	-0.000531762	-0.708034613	-0.706177049	-0.015743046	0.170037278	-0.008789879	0
508	758551011	0.000830294	-0.000529702	-0.708044759	-0.706166871	0.006881935	0.169965733	-0.010798935	0
509	758567678	0.000835524	-0.000531813	-0.708084968	-0.706126545	-0.016338839	0.165660761	-0.000682428	0
510	758584345	0.00083609	-0.000533924	-0.708015158	-0.706196539	0.007004552	0.165615628	-0.000823843	0
511	758601012	0.000838677	-0.000532985	-0.708026389	-0.706185277	-0.018394074	0.168910061	0.000946773	0
512	758617679	0.000836271	-0.000533436	-0.708029874	-0.706181785	-0.002151418	0.170853339	0.010842159	0
513	758634346	0.000840333	-0.000522829	-0.708000027	-0.706211712	-0.008800477	0.178454638	-0.018941589	0
514	758651013	0.000848239	-0.000521367	-0.708009675	-0.706202032	-0.02923241	0.155582709	-0.010366066	0
515	758667680	0.00085026	-0.000524135	-0.708009896	-0.706201805	0.016910488	0.170953985	0.001323383	0
516	758684347	0.000861115	-0.000529174	-0.708032125	-0.706179501	0.016363324	0.172634209	0.02323915	0
517	758701014	0.000857455	-0.000537205	-0.708047806	-0.706163777	-0.00967926	0.17643391	-0.00344009	0
518	758717681	0.000864839	-0.000540978	-0.708067217	-0.706144302	0.003596207	0.166114733	-0.007822455	0
519	758734348	0.000873058	-0.000525814	-0.708096416	-0.706115024	-0.012053565	0.166472906	-0.012244263	0
520	758751015	0.000872941	-0.00052788	-0.708117826	-0.706093551	7.15E-05	0.151260629	0.014384698	0
521	758767682	0.000870405	-0.000524113	-0.708082403	-0.70612908	0.003370287	0.173318571	0.003536414	0
522	758784349	0.000860508	-0.000527296	-0.708073491	-0.706138027	-0.018472475	0.172132796	0.004810336	0
523	758801016	0.000857079	-0.000525509	-0.708099097	-0.706112355	-0.020662211	0.163534314	-0.01827638	0
524	758817683	0.000858703	-0.000531534	-0.708143642	-0.706067675	0.008577828	0.179577945	-0.004490156	0
525	758834350	0.000865088	-0.000531136	-0.708164276	-0.706046972	0.0145431	0.179596906	-0.021458347	0
526	758851017	0.000868145	-0.000529469	-0.708178955	-0.706032247	-0.005889371	0.173478407	0.003079988	0
527	758867684	0.000875264	-0.000527908	-0.708170259	-0.706040962	0.010818239	0.174356261	0.001472619	0
528	758884351	0.000871945	-0.000527346	-0.708175141	-0.706036069	0.013729639	0.181180774	0.003251695	0
529	758901018	0.000873419	-0.000531296	-0.708172805	-0.706038408	-0.010810388	0.160637927	-0.005585432	0
530	758917685	0.000875774	-0.000535141	-0.708178096	-0.706033094	-0.000542471	0.171477724	0.002102859	0
531	758934352	0.000868937	-0.000524384	-0.708159622	-0.706051641	0.004627233	0.168899194	0.001963464	0
532	758951019	0.000873191	-0.00052762	-0.708175564	-0.706035643	0.008259464	0.179147745	0.000383687	0
533	758967686	0.000861294	-0.000526578	-0.708149414	-0.706061887	-0.013271885	0.1644194	-0.006720659	0
534	758984353	0.000857169	-0.000523893	-0.708174453	-0.70603678	-0.010336862	0.16307542	-0.003403598	0
535	759001020	0.000865447	-0.000525755	-0.708198992	-0.706012154	0.019886772	0.15827603	0.002045931	0
536	759017687	0.000869559	-0.000534016	-0.708198089	-0.706013049	-0.000341005	0.176995672	-0.005465533	0
537	759034354	0.000875022	-0.000542078	-0.708186229	-0.706024933	0.003203812	0.163761513	-0.005119779	0
538	759051021	0.000871691	-0.000549743	-0.708192495	-0.706018646	-0.005327775	0.172527276	-0.000617782	0
539	759067688	0.000876641	-0.000542936	-0.708204926	-0.706006175	-0.006484749	0.179415735	-0.000690356	0
540	759084355	0.000886153	-0.000541182	-0.708223482	-0.70598755	-0.016036168	0.160776325	-0.006815357	0
541	759101022	0.000892908	-0.000538042	-0.708274068	-0.705936794	0.000477199	0.166568811	-0.006755201	0
542	759117689	0.000896407	-0.000544202	-0.708336434	-0.705874207	0.02956868	0.168533956	-0.011759724	0
543	759134356	0.000895711	-0.000542314	-0.708331571	-0.705879089	0.002606618	0.162187972	-0.001390031	0
544	759151023	0.000887152	-0.000547073	-0.708327578	-0.705883103	0.008201055	0.180966145	-0.01010613	0
545	759167690	0.000896066	-0.000545328	-0.708328944	-0.705881723	-0.005017088	0.162529861	0.006954356	0
546	759184357	0.000897179	-0.000542403	-0.708294086	-0.705916701	0.004516073	0.177708423	-0.01882657	0
547	759201024	0.000894229	-0.000537472	-0.708318483	-0.705892228	0.004537929	0.169535951	-0.006416736	0
548	759217691	0.000888254	-0.000550352	-0.708320805	-0.705889896	-0.004274848	0.183984029	-0.011888268	0
549	759234358	0.000890948	-0.00055058	-0.708319014	-0.705891689	-0.0177361	0.163742128	-0.010101628	0
550	759251025	0.000889196	-0.000547173	-0.708312649	-0.705898081	-0.026735466	0.165974522	0.004483002	0
551	759267692	0.00089209	-0.000550409	-0.708359553	-0.705851007	-0.013190184	0.169777192	-0.006084038	0
552	759284359	0.000878744	-0.000545105	-0.70837746	-0.705833057	-0.01426613	0.173187124	-0.006425186	0
553	759301026	0.000879147	-0.000556575	-0.708362712	-0.705847849	0.005094468	0.160908118	-0.001776771	0
554	759317693	0.000880834	-0.000559208	-0.708428084	-0.705782234	-0.020648186	0.161958883	-0.005391746	0
555	759334360	0.000876904	-0.000565864	-0.708410915	-0.705799466	0.015762238	0.168160704	0.006966419	0
556	759351027	0.000875991	-0.000568236	-0.708409214	-0.705801173	-0.022736177	0.165786077	-0.001047927	0
557	759367694	0.00087785	-0.000574875	-0.708454864	-0.705755343	-0.008217202	0.167380406	-0.015977645	0
558	759384361	0.000868438	-0.000584717	-0.708454655	-0.705755557	0.005984342	0.175233285	-0.008765008	0
559	759401028	0.000863957	-0.000573403	-0.708422118	-0.705788232	0.00382197	0.166794178	-0.01309721	0
560	759417695	0.000864036	-0.00058072	-0.708433923	-0.705776376	0.008328128	0.167594735	0.005400221	0
561	759434362	0.000872217	-0.000581968	-0.708417949	-0.705792399	0.008973118	0.178539704	-0.002600774	0
562	759451029	0.0008621	-0.000584854	-0.708459258	-0.705750944	0.003168487	0.163923272	-0.008368814	0
563	759467696	0.00086685	-0.000579584	-0.708483986	-0.705726118	-0.021330872	0.165141992	-0.014075753	0
564	759484363	0.000871624	-0.000574455	-0.708447612	-0.705762631	0.004025158	0.172477057	0.010847724	0
565	759501030	0.000876581	-0.000579907	-0.708447288	-0.705762945	-0.019972559	0.179088318	-0.007894198	0
566	759517697	0.00087121	-0.000582575	-0.708445777	-0.705764467	0.004047852	0.170504759	0.009823214	0
567	759534364	0.000865319	-0.000585768	-0.708443986	-0.70576627	-0.013098077	0.163872995	-0.012130663	0
568	759551031	0.000865715	-0.000585943	-0.708446181	-0.705764065	0.007693419	0.163135375	-0.010192112	0
569	759567698	0.000867991	-0.000594801	-0.70845514	-0.705755062	-0.004848091	0.173216719	-0.020431767	0
570	759584365	0.000866021	-0.000603379	-0.708474545	-0.705735577	0.004007036	0.184823457	-0.007559515	0
571	759601032	0.000866118	-0.000607606	-0.708448691	-0.705761527	0.003518065	0.155581142	-0.00044533	0
572	759617699	0.000871439	-0.000607303	-0.7084184	-0.705791926	0.001592272	0.180253908	-0.000799478	0
573	759634366	0.000873448	-0.000598204	-0.708432539	-0.705777739	0.004911693	0.16668324	-0.010024854	0
574	759651033	0.000878784	-0.000595455	-0.70844783	-0.705762386	-0.01246564	0.165322236	-0.006859485	0
575	759667700	0.000891342	-0.000596665	-0.708533099	-0.705676765	-0.012611979	0.160537734	-0.007046087	0
576	759684367	0.000891282	-0.000596724	-0.708545174	-0.705664642	0.001737616	0.165335587	-0.00631719	0
577	759701034	0.000882047	-0.000600751	-0.708553776	-0.705656012	-0.007915194	0.170411487	0.005343006	0
578	759717701	0.000884728	-0.000596009	-0.708552342	-0.705657453	0.014556279	0.173435883	-0.001558041	0
579	759734368	0.00089047	-0.000587457	-0.708541805	-0.705668033	-0.015622789	0.179154475	0.00537201	0
580	759751035	0.000887494	-0.00059174	-0.708540035	-0.70566981	-0.00261263	0.177738877	0.001043535	0
581	759767702	0.000891208	-0.000583769	-0.708552359	-0.705657438	0.008978392	0.161983081	-0.012999391	0
582	759784369	0.000896263	-0.000586402	-0.708598049	-0.705611549	-0.006306292	0.165765624	0.003934159	0
583	759801036	0.000895978	-0.000586342	-0.708601588	-0.705607995	-0.009569589	0.168702495	0.000285614	0
584	759817703	0.000898701	-0.000593929	-0.708597447	-0.705612144	0.002509754	0.174573796	0.000840336	0
585	759834370	0.000888224	-0.000590823	-0.708508275	-0.705701698	-0.013017078	0.172773622	0.0076918	0
586	759851037	0.00088319	-0.000592261	-0.708448153	-0.705762059	-0.002800486	0.173612099	-0.017723062	0
587	759867704	0.00088182	-0.000593655	-0.708437768	-0.705772483	0.004996067	0.152629147	-0.001426475	0
588	759884371	0.000885898	-0.000592301	-0.70848246	-0.705727617	-0.021879859	0.165176855	-0.005616419	0
589	759901038	0.000873043	-0.000593334	-0.708448474	-0.705761749	0.007374276	0.181429716	0.001516021	0
590	759917705	0.000876523	-0.000594313	-0.708515311	-0.705694645	0.014959769	0.160540053	-0.010401635	0
591	759934372	0.000878681	-0.000593453	-0.708549299	-0.705660518	-0.029934	0.164635968	-0.016592764	0
592	759951039	0.000880354	-0.000583646	-0.708560334	-0.705649444	-0.022415877	0.177792541	-0.004598071	0
593	759967706	0.000876155	-0.000588014	-0.708569175	-0.705640568	-0.014503202	0.172060044	-0.009116886	0
594	759984373	0.000876025	-0.000590949	-0.70863644	-0.705573015	0.000540341	0.161640554	-0.000483169	0
595	760001040	0.000887816	-0.000581211	-0.708665702	-0.705543618	0.013006819	0.178465639	-0.003421763	0
596	760017707	0.000882954	-0.000576817	-0.708619742	-0.705589788	0.00523361	0.18062148	-0.001928698	0
597	760034374	0.000890689	-0.000574267	-0.708642867	-0.705566555	-0.022254902	0.173833421	-0.002861709	0
598	760051041	0.000889029	-0.000576816	-0.708635562	-0.705573893	-0.019476751	0.170181389	-0.002205125	0
599	760067708	0.000844674	-0.00057284	-0.70859771	-0.705611964	0.000457351	0.165592605	0.000152498	0
600	760084375	0.000843951	-0.000575335	-0.708604371	-0.705605274	0.004947127	0.185724796	0.015536545	0
601	760101042	0.000845986	-0.000582121	-0.70864843	-0.705561017	-0.00608108	0.165724449	0.008382935	0
602	760117709	0.000839083	-0.000590549	-0.708663425	-0.705545957	-0.021881175	0.18098431	-0.027915737	0
603	760134376	0.000834179	-0.00058682	-0.708672302	-0.70553705	-0.01034363	0.181620927	-0.011219345	0
604	760151043	0.000840904	-0.000581256	-0.708671784	-0.705537567	0.012600377	0.173605134	-0.007817614	0
605	760167710	0.000840685	-0.000594388	-0.708647505	-0.705561941	0.001860471	0.173591652	0.012607428	0
606	760184377	0.000835278	-0.000598406	-0.708657858	-0.705551546	-0.012387741	0.15319336	-0.000509139	0
607	760201044	0.00083886	-0.000600096	-0.708643892	-0.705565568	0.000922652	0.167682455	-0.014784628	0
608	760217711	0.000847214	-0.000598046	-0.70863924	-0.705570232	-0.007938801	0.167754749	-0.017120962	0
609	760234378	0.000852091	-0.000593474	-0.708613717	-0.705595863	-4.17E-05	0.170842248	-0.013366773	0
610	760251045	0.000853692	-0.000592447	-0.708616256	-0.705593312	0.026897434	0.180948573	0.006011357	0
611	760267712	0.00085166	-0.000590251	-0.708640726	-0.70556874	0.005121513	0.171484982	0.008434875	0
612	760284379	0.000845848	-0.000589201	-0.708633518	-0.705575988	-0.005960697	0.168989909	-0.007468076	0
613	760301046	0.000840742	-0.000595927	-0.708636965	-0.705572527	0.003603625	0.177349811	-0.003284733	0
614	760317713	0.000851298	-0.000603013	-0.708651578	-0.705557831	-0.006456791	0.16589322	-0.021860621	0
615	760334380	0.000852276	-0.0006097	-0.708656827	-0.705552552	0.008841496	0.172212952	0.002708419	0
616	760351047	0.000848202	-0.000616885	-0.708722646	-0.705486436	0.003158076	0.169797005	-0.001392526	0
617	760367714	0.000840788	-0.000619715	-0.70871619	-0.705492928	0.00806651	0.170029031	-0.006899571	0
618	760384381	0.000848021	-0.000615581	-0.708715877	-0.705493237	-0.013915363	0.161304187	-0.006669185	0
619	760401048	0.000853867	-0.00061311	-0.708688447	-0.705520787	-0.002527178	0.173652084	-0.007606252	0
620	760417715	0.000847533	-0.000612558	-0.708655789	-0.705553597	0.001942542	0.161344508	-0.010347029	0
621	760434382	0.00084176	-0.000622476	-0.708672504	-0.705536807	0.01448789	0.161330098	-0.000348405	0
622	760451049	0.000840232	-0.000624603	-0.708678117	-0.705531169	-0.007473403	0.188845636	0.003476745	0
623	760467716	0.000843182	-0.000627212	-0.708650276	-0.705559127	0.007281374	0.175331576	0.00369784	0
624	760484383	0.000850996	-0.000616939	-0.708659565	-0.705549797	-0.001843783	0.178576623	-0.012132455	0
625	760501050	0.000855878	-0.00061923	-0.708666623	-0.7055427	0.009782335	0.175073138	0.001812167	0
626	760517717	0.000862906	-0.000631647	-0.70877105	-0.705437775	0.002232202	0.150124366	-0.003607098	0
627	760534384	0.000859297	-0.00063532	-0.708764848	-0.705444007	0.005524227	0.16800373	0.002311108	0
628	760551051	0.000856329	-0.000636375	-0.708766608	-0.705442242	-0.014310748	0.168044174	-0.006797163	0
629	760567718	0.000849352	-0.000633111	-0.708735448	-0.705473559	-0.009340551	0.164212014	-0.002037279	0
630	760584385	0.000858562	-0.000632361	-0.708750995	-0.705457929	0.005263746	0.159727597	3.71E-05	0
631	760601052	0.000860031	-0.000640054	-0.708751725	-0.705457187	-0.002334849	0.168806007	-0.005960636	0
632	760617719	0.000871007	-0.000638306	-0.708747677	-0.705461243	-0.031384053	0.175332429	0.00176715	0
633	760634386	0.000866402	-0.000632869	-0.708739228	-0.705469741	-0.018163338	0.162833488	-0.002171111	0
634	760651053	0.000874227	-0.000630802	-0.708729962	-0.705479042	-0.019351841	0.169143039	-0.001688596	0
635	760667720	0.000868769	-0.000624385	-0.708721112	-0.705487945	0.006428856	0.157009582	-0.009215893	0
636	760684387	0.00087354	-0.000634209	-0.708790243	-0.705418475	0.021426691	0.175651334	-0.017726152	0
637	760701054	0.000871363	-0.000626879	-0.708800183	-0.705408497	-0.020690381	0.164511447	-0.021688539	0
638	760717721	0.000878822	-0.000617009	-0.708813464	-0.705395152	-0.00471355	0.175951046	-0.002179454	0
639	760734388	0.00087546	-0.000623604	-0.70879959	-0.705409091	0.008775997	0.167471809	-0.002100781	0
640	760751055	0.000872854	-0.000632273	-0.708789531	-0.705419194	-0.008763002	0.179965021	-0.013682847	0
641	760767722	0.000872687	-0.000641827	-0.708847503	-0.705360932	-0.001002176	0.177473849	-0.006794129	0
642	760784389	0.000870941	-0.000635453	-0.708840843	-0.705367632	0.013575761	0.175682906	-0.007234642	0
643	760801056	0.000870288	-0.000640164	-0.708823875	-0.705384681	-0.015591748	0.155106576	-0.006558925	0
644	760817723	0.000857507	-0.00063826	-0.708810696	-0.705397941	0.006783599	0.173124935	0.000839324	0
645	760834390	0.000865736	-0.000646104	-0.708831487	-0.705377031	-0.006027503	0.168783171	-0.004452902	0
646	760851057	0.000866274	-0.000647476	-0.708844764	-0.705363687	0.014918418	0.175186665	-0.007624567	0
647	760867724	0.000884142	-0.000654751	-0.708900548	-0.705307594	0.004865543	0.160026773	-0.009970731	0
648	760884391	0.000874806	-0.000659858	-0.708909375	-0.705298729	0.019334008	0.172974654	0.01197931	0
649	760901058	0.000876313	-0.000669846	-0.708924717	-0.705283297	0.004022051	0.164103663	0.019763821	0
650	760917725	0.000869578	-0.000673453	-0.708932675	-0.705275302	0.006992929	0.182806991	-0.016185046	0
651	760934392	0.000874119	-0.000668423	-0.708916352	-0.705291709	-0.018613322	0.171399939	-0.012375254	0
652	760951059	0.000886295	-0.000660372	-0.708914605	-0.705293457	-0.035844844	0.183062373	-0.002873544	0
653	760967726	0.000898465	-0.000666542	-0.708948945	-0.705258918	0.037757559	0.171326121	-0.003610122	0
654	760984393	0.000902104	-0.000677221	-0.709004293	-0.705203261	-0.011456302	0.17339113	0.008022329	0
655	761001060	0.000898551	-0.000675276	-0.708989123	-0.705218519	-0.022721714	0.166693107	0.006013819	0
656	761017727	0.000894974	-0.000676223	-0.708987563	-0.705220091	-0.005457197	0.169929108	0.007746476	0
657	761034394	0.000895315	-0.000669767	-0.708968487	-0.705239275	-0.010957775	0.185570668	-0.021446462	0
658	761051061	0.000898744	-0.000658423	-0.708949011	-0.705258859	0.014881315	0.171326333	-0.0029196	0
659	761067728	0.000892406	-0.000657439	-0.708928803	-0.705279182	0.020064481	0.171464933	0.002450457	0
660	761084395	0.000881512	-0.000663844	-0.708941273	-0.705266654	-0.025631932	0.177910357	-0.005596298	0
661	761101062	0.000875433	-0.000655707	-0.708912612	-0.705295478	-0.017186727	0.165171658	-0.012252301	0
662	761117729	0.000884451	-0.000643535	-0.708896995	-0.705311175	-0.023134357	0.161538741	-0.008483712	0
663	761134396	0.000891861	-0.000642042	-0.70891489	-0.705293181	0.009007111	0.167242929	-0.017404309	0
664	761151063	0.000900211	-0.000640972	-0.708959366	-0.705248464	0.009784568	0.173466804	-0.00348726	0
665	761167730	0.00089249	-0.000643291	-0.70896207	-0.705245754	0.007789617	0.186747324	0.001042482	0
666	761184397	0.000890334	-0.000636798	-0.708957327	-0.70525053	-0.00401876	0.178738777	-0.006031666	0
667	761201064	0.000902365	-0.000636431	-0.708973759	-0.705233997	0.009486329	0.173506764	-0.000979339	0
668	761217731	0.000910187	-0.000641151	-0.708967791	-0.705239982	0.000306263	0.170763441	-0.024696174	0
669	761234398	0.000914823	-0.000643317	-0.708978839	-0.705228867	0.023688611	0.182552926	-0.001805541	0
670	761251065	0.000906703	-0.000657133	-0.708993371	-0.705214256	-0.004926019	0.168313091	-0.002774977	0
671	761267732	0.000898662	-0.00066026	-0.708999314	-0.705208287	0.002835583	0.160408833	0.001407689	0
672	761284399	0.000894334	-0.000648892	-0.708983173	-0.705224531	3.85E-05	0.169117244	-0.0009382	0
673	761301066	0.000909769	-0.000648491	-0.70901056	-0.705196978	0.01418694	0.156492295	-0.008482575	0
674	761317733	0.000913217	-0.000640173	-0.709017398	-0.705190106	-0.024121983	0.164795918	-0.016042036	0
675	761334400	0.000914218	-0.000646812	-0.709015505	-0.705192002	-0.00833255	0.171848626	0.001376195	0
676	761351067	0.000914842	-0.000657763	-0.70902645	-0.705180986	-0.00462383	0.165773223	0.005957395	0
677	761367734	0.000922411	-0.000658393	-0.709047907	-0.705159401	-0.018525909	0.170297603	-0.011625548	0
678	761384401	0.000936877	-0.000649869	-0.709048114	-0.705159182	-0.032385965	0.16783337	-0.017038231	0
679	761401068	0.0009454	-0.00066209	-0.709063305	-0.705143884	-0.020630201	0.182146786	-0.006459858	0
680	761417735	0.000943142	-0.000657311	-0.70904217	-0.705165143	0.008001451	0.171777442	-0.019799211	0
681	761434402	0.000945251	-0.000660828	-0.709049249	-0.70515802	-0.019492035	0.169450488	-0.005756535	0
682	761451069	0.000948435	-0.000668163	-0.709087872	-0.70511917	-0.03937394	0.157742887	0.005419279	0
683	761467736	0.000951418	-0.000662206	-0.70907238	-0.705134751	-0.010344865	0.181129813	-0.000697292	0
684	761484403	0.000949317	-0.000648098	-0.709012457	-0.705195019	0.00510335	0.168429496	-0.012952132	0
685	761501070	0.000947605	-0.000648607	-0.709009785	-0.705197707	0.004437898	0.17707792	-0.009958488	0
686	761517737	0.000950952	-0.000640458	-0.709043311	-0.705164001	0.0242897	0.16893814	0.006668383	0
687	761534404	0.000952682	-0.000648247	-0.709034752	-0.705172598	-0.019960511	0.171574152	0.003585861	0
688	761551071	0.000965871	-0.000645166	-0.709039975	-0.705167331	-0.019688042	0.166102731	-0.001711637	0
689	761567738	0.000967733	-0.000642268	-0.709073196	-0.705133926	-0.008881965	0.165116498	-0.00844681	0
690	761584405	0.00096381	-0.000634156	-0.708975006	-0.705232663	0.03008805	0.161906036	-0.004571125	0
691	761601072	0.000961928	-0.00063269	-0.708982374	-0.70522526	0.004007938	0.156492952	-9.43E-05	0
692	761617739	0.000962362	-0.000640317	-0.708993515	-0.705214052	0.000785882	0.172812138	-0.004122867	0
693	761634406	0.000954955	-0.000649469	-0.709006388	-0.705201112	-0.008110866	0.161405454	0.001744032	0
694	761651073	0.000963005	-0.000641918	-0.709036269	-0.705171065	0.000398341	0.168864668	-0.001454119	0
695	761667740	0.000961234	-0.000631927	-0.708996233	-0.705211329	-0.00300705	0.154360488	-0.00530197	0
696	761684407	0.0009575	-0.000635565	-0.709008402	-0.705199096	0.016824424	0.157690974	-0.003142166	0
697	761701074	0.000965388	-0.000641835	-0.709029975	-0.70517739	0.010956319	0.175626209	0.000825927	0
698	761717741	0.000963562	-0.000650758	-0.708988427	-0.705219157	-0.023357678	0.171666765	0.005613551	0
699	761734408	0.000964799	-0.000651453	-0.709015588	-0.705191847	-0.020627063	0.162657411	0.002736274	0
700	761751075	0.000961922	-0.000646343	-0.709013322	-0.705194134	0.002193017	0.172250533	-0.00535906	0
701	761767742	0.000968786	-0.000645236	-0.709017957	-0.705189465	0.018716906	0.165883215	0.008979385	0
702	761784409	0.000965767	-0.000654264	-0.708999413	-0.705208105	0.001439026	0.154405303	-0.020126689	0
703	761801076	0.000964233	-0.000658901	-0.709006367	-0.705201112	-0.016027921	0.168554729	0.002542187	0
704	761817743	0.000956506	-0.000663844	-0.709033889	-0.705173446	-0.032883602	0.170139656	0.006466615	0
705	761834410	0.000965424	-0.000661516	-0.70905894	-0.705148247	-0.01852561	0.161916497	-0.000265811	0
706	761851077	0.000967532	-0.000647941	-0.709064461	-0.705142705	0.011925319	0.17056906	-0.004193359	0
707	761867744	0.000981793	-0.000668895	-0.709157072	-0.705049528	0.00702428	0.161305758	-0.012526878	0
708	761884411	0.00098091	-0.00067809	-0.709157551	-0.705049038	-0.009743122	0.167937465	-0.007742902	0
709	761901078	0.000967629	-0.000677338	-0.709148058	-0.705058605	-0.0202369	0.17059069	0.006874389	0
710	761917745	0.000969832	-0.000680367	-0.709126956	-0.705079823	-0.040093312	0.151872052	-0.001094231	0
711	761934412	0.000989164	-0.000671088	-0.709133269	-0.705073456	-0.006088117	0.166557847	-0.005920374	0
712	761951079	0.000993206	-0.000675447	-0.709134903	-0.705071802	0.006544918	0.149397248	-0.002054019	0
713	761967746	0.00098824	-0.000692458	-0.709138066	-0.705068612	-0.014200788	0.165704703	-0.019683506	0
714	761984413	0.000980412	-0.000698297	-0.709111746	-0.705095087	-0.025147129	0.170435638	0.002432975	0
715	762001080	0.000992909	-0.000694623	-0.709136604	-0.705070073	-0.025979223	0.170265072	0.00284533	0
716	762017747	0.000998758	-0.00068475	-0.709086272	-0.705120694	0.002601802	0.165101392	0.008109841	0
717	762034414	0.001006598	-0.000680564	-0.709088906	-0.705118038	0.00140986	0.17532728	0.012859004	0
718	762051081	0.000999878	-0.000680373	-0.709061883	-0.705145221	-0.01403912	0.177600682	-0.008109481	0
719	762067748	0.000888503	-0.000639834	-0.709065845	-0.705141424	-0.01102336	0.166625483	0.000217039	0
720	762084415	0.000898807	-0.000643078	-0.709113848	-0.705093135	0.004279518	0.181857221	-0.002231608	0
721	762101082	0.000907382	-0.000632855	-0.709145567	-0.705061232	-0.005690355	0.161730297	0.016061603	0
722	762117749	0.000911258	-0.000626051	-0.709130564	-0.705076323	0.019299914	0.161520284	-0.006897237	0
723	762134416	0.000912968	-0.00062845	-0.709134568	-0.705072291	0.016935007	0.161188942	-0.024163607	0
724	762151083	0.000918776	-0.000624529	-0.709122669	-0.705084255	0.013244347	0.157389957	-0.003523261	0
725	762167750	0.000916317	-0.000626012	-0.709112256	-0.705094729	-0.003409797	0.171253442	0.010808084	0
726	762184417	0.000910346	-0.000628552	-0.709168173	-0.705038495	-0.002269215	0.181588773	-0.005234307	0
727	762201084	0.000912413	-0.000629378	-0.70916365	-0.705043041	0.012023916	0.157329414	0.000453319	0
728	762217751	0.000908918	-0.000631024	-0.709155032	-0.705051712	-0.013988692	0.162081646	0.000718325	0
729	762234418	0.000913249	-0.000637134	-0.709142486	-0.70506432	0.013049059	0.179371088	-0.008626562	0
730	762251085	0.000896707	-0.000647634	-0.70913064	-0.705076246	-0.007920226	0.171040808	-0.005574377	0
731	762267752	0.000899445	-0.000649662	-0.709136634	-0.705070211	-0.019045004	0.175963652	0.00841305	0
732	762284419	0.000903784	-0.000653247	-0.709165117	-0.705041554	-0.010150551	0.174602754	0.002778805	0
733	762301086	0.000900928	-0.000650563	-0.709167221	-0.705039445	-0.004228275	0.173206962	-0.002200107	0
734	762317753	0.00090086	-0.000655127	-0.709156983	-0.705049738	-0.007444696	0.173572577	-0.008919237	0
735	762334420	0.000892953	-0.000655063	-0.709167675	-0.705038993	-0.008230536	0.166187953	0.011911499	0
736	762351087	0.000889817	-0.000649863	-0.709149919	-0.705056861	-0.025795251	0.177559884	0.004752257	0
737	762367754	0.000890846	-0.000647885	-0.709127468	-0.705079443	-0.027684482	0.171722334	-0.004484992	0
738	762384421	0.000899507	-0.000643473	-0.709128535	-0.705078363	0.011906129	0.172687337	-0.010565859	0
739	762401088	0.00090457	-0.000645026	-0.709151063	-0.705055696	0.007971343	0.168051895	0.003524493	0
740	762417755	0.000899854	-0.000651363	-0.709139084	-0.705067745	0.000335098	0.177878133	-0.00213568	0
741	762434422	0.000895935	-0.00065818	-0.709158902	-0.705047811	0.015743001	0.162361327	-0.00079786	0
742	762451089	0.000890974	-0.00064721	-0.70912427	-0.70508266	-0.011846893	0.175907591	0.002555186	0
743	762467756	0.000894055	-0.000642611	-0.709113242	-0.705093751	-0.001534424	0.170698425	-0.00712991	0
744	762484423	0.000890997	-0.000643954	-0.709114494	-0.705092494	-0.007064166	0.165204279	-0.015403681	0
745	762501090	0.000885118	-0.000645953	-0.709123866	-0.705083074	-0.006745276	0.161410336	-0.003906427	0
746	762517757	0.000872774	-0.000654511	-0.709103501	-0.705103563	-0.015635359	0.168864735	-0.012255158	0
747	762534424	0.000877781	-0.000660354	-0.709149876	-0.70505691	-0.004035942	0.176485067	-0.010288046	0
748	762551091	0.000892254	-0.000658406	-0.709186419	-0.705020137	-0.016906881	0.170036196	0.008635069	0
749	762567758	0.000884769	-0.000654256	-0.709186899	-0.705019667	3.14E-05	0.170577842	0.004968799	0
750	762584425	0.00087848	-0.00066125	-0.709185514	-0.705021062	-0.002347663	0.177419074	-0.007980966	0
751	762601092	0.00086812	-0.000664722	-0.709165049	-0.705041657	0.001253282	0.163618143	-0.015155491	0
752	762617759	0.000878266	-0.000658244	-0.709158575	-0.705048162	-0.014715402	0.17310413	0.008856501	0
753	762634426	0.000889597	-0.000661985	-0.70917508	-0.705031543	-0.003185248	0.15854839	0.010085955	0
754	762651093	0.000896225	-0.000662343	-0.70919329	-0.705013216	-0.000427094	0.16619655	-0.00624884	0
755	762667760	0.000893184	-0.000672992	-0.70920505	-0.70500138	0.011405811	0.171396889	-0.00258981	0
756	762684427	0.000883637	-0.00067544	-0.709222907	-0.704983426	0.01969973	0.159026835	-0.011793195	0
757	762701094	0.000878824	-0.000675527	-0.709207958	-0.70499847	0.011892346	0.172426698	-0.013549993	0
758	762717761	0.000876831	-0.000682354	-0.7092013	-0.705005164	-0.01943739	0.168344477	0.000827251	0
759	762734428	0.000880547	-0.000683468	-0.709218662	-0.704987693	0.020263034	0.164361596	0.011823084	0
760	762751095	0.000884525	-0.000680227	-0.709219409	-0.704986939	0.022928883	0.167371884	-0.001913444	0
761	762767762	0.000887871	-0.000685197	-0.709214242	-0.704992128	0.010042767	0.177090358	-0.013414715	0
762	762784429	0.000892773	-0.000687921	-0.709220521	-0.704985802	0.003732672	0.167369148	0.000404117	0
763	762801096	0.000890404	-0.000695606	-0.709248409	-0.704957742	-0.014315372	0.167345044	-0.007315531	0
764	762817763	0.000895192	-0.00069143	-0.709280275	-0.704925678	-0.050195185	0.167845026	-0.007250733	0
765	762834430	0.000910355	-0.000680702	-0.709279905	-0.704926042	0.010274643	0.168172265	0.000419424	0
766	762851097	0.000886687	-0.000707389	-0.709333518	-0.704872097	0.015188273	0.163866058	0.001796689	0
767	762867764	0.000912035	-0.000677072	-0.709285882	-0.704920029	0.000461131	0.167128223	0.003844488	0
768	762884431	0.000864044	-0.000716917	-0.709286921	-0.704919005	0.007513204	0.18168247	-0.00125505	0
769	762901098	0.000891836	-0.000682958	-0.709318983	-0.704886741	-0.032585058	0.178807378	-0.00338569	0
770	762917765	0.000884084	-0.000675897	-0.709294993	-0.704910898	0.053162606	0.163572545	-0.00601347	0
771	762934432	0.000883311	-0.000691275	-0.709297193	-0.70490867	-0.021569271	0.173709118	-0.014563805	0
772	762951099	0.000892373	-0.000675201	-0.709304216	-0.704901608	0.037764081	0.165686337	0.013379825	0
773	762967766	0.000858227	-0.000710663	-0.709305159	-0.704900667	-0.038927948	0.16920843	-0.019968338	0
774	762984433	0.000893498	-0.000684511	-0.709301729	-0.7049041	-0.019063696	0.1740005	-0.011121792	0
775	763001100	0.000867165	-0.000705522	-0.70932073	-0.704884992	0.007834231	0.185557972	-0.029930546	0
776	763017767	0.000893484	-0.000690266	-0.709338383	-0.70486721	0.007577117	0.183311196	-8.39E-05	0
777	763034434	0.000864525	-0.000725459	-0.709333822	-0.7048718	0.018863027	0.167935075	0.006225885	0
778	763051101	0.000869288	-0.000717594	-0.709341524	-0.704864052	-0.025016047	0.167969645	0.010328677	0
779	763067768	0.000870056	-0.000729508	-0.709390037	-0.704815214	0.002506366	0.168503592	-0.013059506	0
780	763084435	0.000878141	-0.000705614	-0.709349606	-0.704855919	-0.015349353	0.163446419	-0.024675456	0
781	763101102	0.000880323	-0.000697735	-0.709346369	-0.704859183	0.025911828	0.177955097	-0.003438201	0
782	763117769	0.000872132	-0.000717151	-0.709373449	-0.70483192	-0.020870506	0.180374613	0.01338304	0
783	763134436	0.00086664	-0.000714862	-0.709365204	-0.704840227	-0.003962126	0.169492158	0.004639129	0
784	763151103	0.00084578	-0.000732113	-0.709343157	-0.704862422	-0.01048604	0.178865512	0.017509614	0
785	763167770	0.00086934	-0.000709399	-0.709321656	-0.704884054	-0.007568264	0.167907011	-0.00250828	0
786	763184437	0.000858902	-0.000719653	-0.7093207	-0.704885019	0.004437453	0.170016642	-0.027772454	0
787	763201104	0.000853027	-0.000724844	-0.709315831	-0.70488992	-0.001838793	0.187067527	-0.005502924	0
788	763217771	0.000833176	-0.000747842	-0.709322784	-0.704882923	-0.009097962	0.167101956	0.026401906	0
789	763234438	0.00084116	-0.000746074	-0.709337932	-0.704867672	-0.034985873	0.173080753	0.013264241	0
790	763251105	0.000850702	-0.000747971	-0.70935161	-0.704853892	0.003157574	0.168203449	-0.000409186	0
791	763267772	0.000847313	-0.000743192	-0.709330848	-0.704874796	0.019461628	0.170570221	-0.028773027	0
792	763284439	0.000846619	-0.00073351	-0.709363953	-0.704841491	0.019002274	0.1883171	-0.003618194	0
793	763301106	0.000829505	-0.000750274	-0.709370731	-0.704834672	-0.022526811	0.166686475	-0.000774177	0
794	763317773	0.000847603	-0.000748693	-0.709406639	-0.704798512	-0.027013175	0.177138793	0.003270658	0
795	763334440	0.000849411	-0.000751793	-0.70941398	-0.704791117	-0.027447505	0.17050631	0.009204838	0
796	763351107	0.000870098	-0.000741605	-0.709415138	-0.704789937	0.028747439	0.171915884	0.007594432	0
797	763367774	0.000857079	-0.000744573	-0.709404569	-0.704800588	0.012597637	0.173452002	-0.011761608	0
798	763384441	0.000848806	-0.00074879	-0.709391645	-0.704813601	0.008729573	0.173190356	0.002066503	0
799	763401108	0.000846866	-0.000756935	-0.709376427	-0.704828912	-0.002882367	0.190145957	0.012715914	0
800	763417775	0.000851816	-0.000754596	-0.709370729	-0.704834643	-0.013660126	0.177161442	0.018235073	0
801	763434442	0.000868553	-0.000738966	-0.709385	-0.704820275	0.026013276	0.160658238	-0.017133033	0
802	763451109	0.000860321	-0.000747564	-0.709382187	-0.704823108	0.032291926	0.170733075	-0.019275453	0
803	763467776	0.00085572	-0.000759162	-0.709395443	-0.704809759	-0.007516628	0.174385483	-0.008395335	0
804	763484443	0.000840978	-0.000765159	-0.709375602	-0.704829741	-0.030362696	0.165431954	-0.001752839	0
805	763501110	0.000849598	-0.000756538	-0.709350074	-0.704855431	-0.013474335	0.173123178	0.012775665	0
806	763517777	0.000848894	-0.000754744	-0.709364317	-0.704841099	0.009948192	0.159257837	0.007637283	0
807	763534444	0.000854188	-0.000744146	-0.709362329	-0.704843105	0.019442706	0.163251996	-0.01646605	0
808	763551111	0.000848604	-0.000756682	-0.709365365	-0.704840043	0.008507537	0.168453904	-0.015348581	0
809	763567778	0.000851409	-0.000757058	-0.709362455	-0.704842967	-0.015276237	0.177398309	0.003442472	0
810	763584445	0.000836533	-0.000763596	-0.709362315	-0.70484312	-0.014974979	0.169395044	0.012307558	0
811	763601112	0.000855028	-0.000757337	-0.709368732	-0.704836646	0.007816333	0.171397131	0.005286344	0
812	763617779	0.00085366	-0.000759061	-0.709373961	-0.704831383	0.025289096	0.174530433	-0.007150169	0
813	763634446	0.000839792	-0.000769474	-0.709389449	-0.7048158	0.011443325	0.179862965	-0.02784797	0
814	763651113	0.000836051	-0.000778049	-0.709421514	-0.704783521	-0.013799969	0.176236706	-0.004016074	0
815	763667780	0.000838976	-0.000780019	-0.709434182	-0.704770764	-0.029975585	0.170933384	0.009880708	0
816	763684447	0.000849627	-0.000772035	-0.709437765	-0.704767153	-0.006910747	0.170921847	0.007119923	0
817	763701114	0.000858941	-0.000769211	-0.709425068	-0.704779926	0.011024875	0.183911979	0.011242473	0
818	763717781	0.000847819	-0.000776735	-0.709416914	-0.704788138	0.018282535	0.18100809	-0.010981961	0
819	763734448	0.000826212	-0.000780188	-0.709428235	-0.704776765	0.009118855	0.17593742	-0.007316797	0
820	763751115	0.000818658	-0.000781244	-0.709418686	-0.704786384	-0.012245463	0.180803573	-0.009514829	0
821	763767782	0.00082729	-0.000773755	-0.709424931	-0.704780097	-0.011633911	0.166203295	0.013122075	0
822	763784449	0.000834852	-0.000771724	-0.709437302	-0.704767637	0.003440621	0.174516643	0.006657168	0
823	763801116	0.000825545	-0.000779585	-0.709417266	-0.704787807	0.010739554	0.182551552	-0.001387059	0
824	763817783	0.000815976	-0.000789549	-0.709422432	-0.704782607	0.006642401	0.170143321	-0.01500738	0
825	763834450	0.00081808	-0.000798971	-0.70940669	-0.704798439	-0.026092565	0.166956239	-0.018443291	0
826	763851117	0.000832852	-0.00079015	-0.709396728	-0.70480846	0.01233308	0.1762508	0.01282876	0
827	763867784	0.00084139	-0.000784705	-0.709400353	-0.704804807	0.009458127	0.169491003	0.016295177	0
828	763884451	0.00083746	-0.000790497	-0.709413469	-0.704791603	0.016710554	0.180024985	-0.009638182	0
829	763901118	0.000840024	-0.000804513	-0.709440482	-0.704764393	0.028816532	0.175037773	-0.019159463	0
830	763917785	0.000840186	-0.000808724	-0.70946576	-0.704738941	-0.009298577	0.17657735	-0.01589906	0
831	763934452	0.000843421	-0.000811932	-0.70945296	-0.704751819	-0.021758213	0.175169094	-0.001172205	0
832	763951119	0.000853199	-0.000794361	-0.709454136	-0.704750644	-0.018286173	0.163547042	0.01951556	0
833	763967786	0.000848127	-0.000788413	-0.709464476	-0.704740248	0.006018313	0.176349785	0.012035121	0
834	763984453	0.000841595	-0.000784406	-0.709465186	-0.704739545	-0.015981132	0.172917333	-0.015693438	0
835	764001120	0.00083479	-0.000797121	-0.709461069	-0.704743683	-0.017427615	0.175965387	-0.019644288	0
836	764017787	0.000841408	-0.000804406	-0.709503538	-0.704700912	-0.021949878	0.167318536	0.00373143	0
837	764034454	0.000855609	-0.000794996	-0.709529595	-0.704674669	0.000802598	0.182996214	0.008044392	0
838	764051121	0.000866524	-0.000789386	-0.709549988	-0.704654128	0.010660362	0.17675767	0.016470613	0
839	764067788	0.000880142	-0.000753261	-0.709573358	-0.704630618	-0.002811016	0.176462424	0.005525422	0
840	764084455	0.00087475	-0.000760104	-0.709593082	-0.704610754	-0.003604541	0.177322175	-0.018795566	0
841	764101122	0.000874261	-0.000766573	-0.709654618	-0.704548771	-0.020155744	0.170893085	-0.014062538	0
842	764117789	0.000885625	-0.000756982	-0.709658501	-0.704544856	0.002575432	0.176484806	-0.005197454	0
843	764134456	0.000885528	-0.000743322	-0.709697334	-0.704505754	0.025958479	0.182708517	0.021518142	0
844	764151123	0.000890301	-0.000743405	-0.709711037	-0.704491944	0.000238435	0.169901171	0.012807644	0
845	764167790	0.000880648	-0.000750649	-0.709712496	-0.704490478	-0.027008764	0.174863045	-0.007693906	0
846	764184457	0.000864295	-0.000758587	-0.70970588	-0.704497155	-0.006244609	0.156906271	-0.019617297	0
847	764201124	0.000874733	-0.000756345	-0.70971708	-0.704485861	0.014387856	0.175427001	0.00397839	0
848	764217791	0.000878824	-0.000754428	-0.709736933	-0.704465858	-0.009134405	0.195897676	0.018212399	0
849	764234458	0.000877666	-0.000765361	-0.709742687	-0.70446005	0.001923386	0.169109307	0.014558173	0
850	764251125	0.000875805	-0.000775746	-0.709764138	-0.704438428	-0.001644272	0.170704934	-0.005743521	0
851	764267792	0.000873147	-0.000789604	-0.709781162	-0.704421263	-0.009469879	0.170861879	-0.022589927	0
852	764284459	0.000880063	-0.00078312	-0.709775624	-0.704426842	-0.001829535	0.177255615	-0.012070657	0
853	764301126	0.000880423	-0.000769672	-0.70976578	-0.704436775	0.005579675	0.168866692	-0.000889333	0
854	764317793	0.000876506	-0.000770884	-0.70976769	-0.704434854	0.026702911	0.190797672	0.023921061	0
855	764334460	0.000866399	-0.000789413	-0.709779207	-0.704423242	0.008854728	0.175634546	0.014925333	0
856	764351127	0.0008664	-0.000793951	-0.709798106	-0.704404194	-0.032446104	0.170637572	-0.015887818	0
857	764367794	0.00086456	-0.000784727	-0.709785972	-0.704416433	0.005887244	0.174015712	-0.026141542	0
858	764384461	0.000864507	-0.000772786	-0.709796953	-0.704405381	0.017892618	0.173821299	-0.004259214	0
859	764401128	0.000865551	-0.000767275	-0.709826854	-0.704375255	0.031750736	0.180332171	0.024543326	0
860	764417795	0.000851597	-0.000775249	-0.709824911	-0.704377221	0.004888574	0.176888946	0.019953541	0
861	764434462	0.000842477	-0.000783793	-0.709814914	-0.704387297	-0.020976354	0.169894668	0.006296427	0
862	764451129	0.000834682	-0.000786623	-0.70979352	-0.704408862	-0.025634771	0.170869188	-0.012044552	0
863	764467796	0.000845469	-0.000772669	-0.70978722	-0.704415211	-9.43E-05	0.180438808	-0.015856116	0
864	764484463	0.000847479	-0.000777838	-0.709854823	-0.704347079	0.025476532	0.165607	-0.005323858	0
865	764501130	0.000838753	-0.000771198	-0.709851426	-0.70435052	0.006639559	0.171210284	0.011067567	0
866	764517797	0.000836639	-0.000791705	-0.709862345	-0.704339495	-0.009102577	0.168734166	-0.004311716	0
867	764534464	0.000834841	-0.000785366	-0.709866269	-0.704335549	-0.018663089	0.165586031	-0.012048458	0
868	764551131	0.000840152	-0.000781835	-0.709896146	-0.704305434	0.008995584	0.181294625	-0.018267914	0
869	764567798	0.000840998	-0.000780278	-0.709891278	-0.704310342	0.008612504	0.167101002	-0.013948091	0
870	764584465	0.000830414	-0.000783376	-0.709799749	-0.704402593	0.030285418	0.169391283	0.00459365	0
871	764601132	0.000829086	-0.000789542	-0.709768282	-0.704434295	-0.009823147	0.169395483	-0.004087544	0
872	764617799	0.000834657	-0.000797809	-0.709765546	-0.704437036	-0.010718072	0.174344859	-0.014371463	0
873	764634466	0.000825459	-0.000789517	-0.709771386	-0.704431171	-0.004704329	0.167704722	-0.01519166	0
874	764651133	0.000828926	-0.000783203	-0.709814503	-0.704387728	0.018786306	0.179205568	-0.004483795	0
875	764667800	0.000827923	-0.000783199	-0.709800237	-0.704402105	0.010608849	0.181101894	-0.00090595	0
876	764684467	0.000816945	-0.000788888	-0.709823811	-0.704378355	-0.024450862	0.177513791	0.00656026	0
877	764701134	0.000803885	-0.000782108	-0.709813924	-0.704388341	0.0041339	0.166870686	0.003438236	0
878	764717801	0.00081156	-0.00077376	-0.709825687	-0.704376488	-0.007944681	0.162571945	-0.016001646	0
879	764734468	0.000811058	-0.000766676	-0.709803802	-0.70439855	0.035545612	0.177052369	-0.017092755	0
880	764751135	0.000807231	-0.000766181	-0.709814507	-0.704387768	0.018652035	0.179825879	0.002065846	0
881	764767802	0.000802075	-0.000771188	-0.70981698	-0.704385276	-0.017417571	0.162669704	0.017400317	0
882	764784469	0.000791258	-0.000770065	-0.709845638	-0.704356409	-0.008985253	0.16757131	0.003812992	0
883	764801136	0.000797494	-0.000771562	-0.709842101	-0.704359965	-0.00460123	0.172455067	-0.006203723	0
884	764817803	0.00080389	-0.000760673	-0.709872896	-0.704328934	0.001556953	0.169956262	-0.031727742	0
885	764834470	0.000799807	-0.000760918	-0.709890979	-0.704310712	0.014509905	0.158784366	-0.006976279	0
886	764851137	0.000797192	-0.000763694	-0.709880166	-0.70432161	0.01190682	0.1807671	0.0042453	0
887	764867804	0.00080615	-0.000769583	-0.70988114	-0.704320612	-0.001878311	0.176236046	-0.002355344	0
888	764884471	0.00081765	-0.000766992	-0.709885646	-0.704316061	-0.018828264	0.169864928	0.005206226	0
889	764901138	0.000831199	-0.000766423	-0.709893217	-0.704308415	0.001396052	0.167357842	-0.019812341	0
890	764917805	0.000819351	-0.000760987	-0.709865408	-0.704336462	0.032484823	0.168722828	-0.015251138	0
891	764934472	0.000818231	-0.000759426	-0.709809271	-0.704393038	0.004413918	0.177157007	0.002755971	0
892	764951139	0.000809612	-0.00076822	-0.709817748	-0.704384496	0.022490676	0.162945144	0.017413678	0
893	764967806	0.000802761	-0.000771826	-0.709837971	-0.704364121	-0.011147402	0.176666484	-0.002544261	0
894	764984473	0.000813496	-0.000769051	-0.709931478	-0.704269866	0.013781809	0.174686059	-0.00968509	0
895	765001140	0.000831019	-0.00077027	-0.709948014	-0.704253174	0.007009156	0.16086085	-0.039822572	0
896	765017807	0.000833266	-0.000781856	-0.709945253	-0.704255942	0.016182936	0.177647866	-0.00262768	0
897	765034474	0.000821193	-0.000782595	-0.709921044	-0.704280359	-0.006717264	0.16767408	0.007862647	0
898	765051141	0.00081936	-0.000787944	-0.709996165	-0.704204625	-0.023093487	0.175126247	0.002382868	0
899	765067808	0.000825268	-0.00078392	-0.710015607	-0.70418502	-0.014679465	0.176813963	0.001227747	0
900	765084475	0.000826618	-0.000776022	-0.710007647	-0.704193053	-0.00433469	0.18159898	-0.027850999	0
901	765101142	0.00082484	-0.000774979	-0.710009714	-0.704190972	0.010968204	0.181297222	-0.018145	0
902	765117809	0.000813697	-0.000781348	-0.710021401	-0.704179194	0.008195637	0.171617825	0.002995436	0
903	765134476	0.000809762	-0.000788168	-0.710000875	-0.704199887	-0.014225119	0.1681769	0.014655446	0
904	765151143	0.000825961	-0.000799877	-0.709980612	-0.704220284	-0.00026675	0.174237163	0.00725395	0
905	765167810	0.000832353	-0.000793487	-0.709989918	-0.704210902	0.016596601	0.179044506	-0.002812996	0
906	765184477	0.000828542	-0.000796126	-0.709979895	-0.704221008	0.029399628	0.173534925	0.008297864	0
907	765201144	0.000818706	-0.000802657	-0.709971604	-0.704229371	0.014364276	0.163728665	0.002892013	0
908	765217811	0.000818257	-0.000805896	-0.709983861	-0.704217011	-0.014442789	0.158645738	0.013212678	0
909	765234478	0.000819927	-0.000805227	-0.709997309	-0.704203451	-0.005345442	0.164220944	0.017450243	0
910	765251145	0.000820676	-0.000796067	-0.709993182	-0.704207622	-0.002149305	0.168578847	-0.010540837	0
911	765267812	0.000813085	-0.000795156	-0.710002476	-0.704198261	0.025751457	0.175115428	-0.014076079	0
912	765284479	0.00079857	-0.000790541	-0.709995903	-0.70420491	0.001241894	0.176868927	-0.014529026	0
913	765301146	0.000792823	-0.000796202	-0.709996694	-0.704204113	0.00773873	0.167771466	-0.006258423	0
914	765317813	0.000792177	-0.000797684	-0.709989104	-0.704211764	-0.004775593	0.183377749	0.026649206	0
915	765334480	0.00080113	-0.000779764	-0.709996896	-0.704203918	0.004509114	0.175378497	0.015368717	0
916	765351147	0.000799709	-0.00078471	-0.710001991	-0.704198777	0.001743065	0.165808601	-0.01200501	0
917	765367814	0.000795495	-0.000796529	-0.710032961	-0.704167542	0.006092909	0.17120237	-0.007622051	0
918	765384481	0.000792014	-0.000801979	-0.710037846	-0.704162614	0.004977387	0.166321062	0.000544343	0
919	765401148	0.00079075	-0.000801683	-0.710068905	-0.704131296	-0.010001258	0.165173125	0.01019397	0
920	765417815	0.000804446	-0.00079221	-0.710077335	-0.70412279	0.012578563	0.181510274	0.017866148	0
921	765434482	0.000799159	-0.000797552	-0.71004125	-0.704159178	0.013950762	0.17166196	-0.011231202	0
922	765451149	0.000807119	-0.000790607	-0.71004334	-0.70415707	-0.003318859	0.169026855	-0.03088031	0
923	765467816	0.000808376	-0.000801113	-0.71004941	-0.704150936	0.003698508	0.174674679	-0.021199573	0
924	765484483	0.000813537	-0.000797204	-0.710087034	-0.704112992	0.003451663	0.174218348	0.007382235	0
925	765501150	0.000814945	-0.000797357	-0.710096426	-0.704103519	0.000106061	0.166115796	0.02049724	0
926	765517817	0.000832986	-0.0007891	-0.710076455	-0.704123648	0.019272485	0.170907509	-0.000511327	0
927	765534484	0.00081901	-0.000794384	-0.710096039	-0.704103908	0.028276001	0.18284395	-0.002599328	0
928	765551151	0.000807972	-0.000785349	-0.710091636	-0.704108371	-0.026347047	0.173790248	-0.017856414	0
929	765567818	0.000814416	-0.000792413	-0.710116997	-0.704082779	-0.022761843	0.163698732	-0.021410898	0
930	765584485	0.000818979	-0.000790982	-0.710118482	-0.704081278	0.012975565	0.178502746	0.009302835	0
931	765601152	0.000827332	-0.000786705	-0.710130623	-0.704069027	-0.005663676	0.159623576	0.004427643	0
932	765617819	0.000815712	-0.000791841	-0.710141062	-0.704058506	0.016681226	0.171117062	-0.006343852	0
933	765634486	0.000804263	-0.000804734	-0.710125254	-0.704074449	0.005379948	0.169345208	-0.019457915	0
934	765651153	0.000804012	-0.000817042	-0.710122037	-0.704077679	-0.002924675	0.170467948	-0.013335259	0
935	765667820	0.00080228	-0.000810503	-0.710109778	-0.704090053	0.010438112	0.179268952	0.006093726	0
936	765684487	0.000815199	-0.000807073	-0.710141784	-0.704057761	0.007892798	0.181797925	0.029549942	0
937	765701154	0.000819055	-0.000806136	-0.710141511	-0.704058033	0.002896029	0.1743783	0.011980753	0
938	765717821	0.000794604	-0.000809505	-0.710142699	-0.704056859	0.034648883	0.173012287	-0.023345215	0
939	765734488	0.000781967	-0.000816632	-0.710141776	-0.704057796	-0.010084039	0.174288117	-0.02603021	0
940	765751155	0.000788514	-0.000810777	-0.710171093	-0.704028223	-0.0187867	0.169911586	0.003098387	0
941	765767822	0.000790588	-0.000808087	-0.710140872	-0.704058707	0.013565551	0.162056735	0.014457814	0
942	765784489	0.000793142	-0.000810408	-0.710153219	-0.704046248	0.037823327	0.167848715	0.009489411	0
943	765801156	0.00078061	-0.000827289	-0.710166973	-0.704032369	6.54E-06	0.171007289	-0.011666869	0
944	765817823	0.000777728	-0.000839805	-0.710178046	-0.704021187	-0.008401977	0.16384493	-0.01767139	0
945	765834490	0.000783423	-0.000831638	-0.710191044	-0.70400808	-0.008314703	0.158810922	-0.030157542	0
946	765851157	0.000797473	-0.000825278	-0.710201584	-0.703997438	-0.003639103	0.165382882	-0.009955002	0
947	765867824	0.000805295	-0.00081946	-0.71020568	-0.703993304	0.033323853	0.176204505	0.016480676	0
948	765884491	0.000800828	-0.00082135	-0.710223342	-0.703975488	0.019158526	0.171341678	0.012742263	0
949	765901158	0.000782536	-0.000837118	-0.710216885	-0.703982005	0.01108166	0.168337716	-0.019982858	0
950	765917825	0.000788001	-0.000812714	-0.710220981	-0.703977895	-0.003119392	0.170914411	-0.035833687	0
951	765934492	0.000804141	-0.000792874	-0.710221963	-0.703976908	0.024924596	0.16507223	-0.011886734	0
952	765951159	0.000787173	-0.000808944	-0.710216921	-0.703981996	0.008647565	0.172526808	0.017241718	0
953	765967826	0.000781304	-0.000807339	-0.710171163	-0.704028165	0.00411191	0.182377179	0.02081718	0
954	765984493	0.000771147	-0.00080887	-0.710163769	-0.704035633	-0.022423461	0.161589972	-0.016992011	0
955	766001160	0.000781942	-0.000789835	-0.710171082	-0.704028266	-0.018175836	0.162708438	-0.03413272	0
956	766017827	0.00078214	-0.000789984	-0.710197011	-0.704002109	0.044686049	0.171288612	-0.016636151	0
957	766034494	0.000773055	-0.000784244	-0.710185072	-0.70401417	0.018637482	0.165576336	0.01257168	0
958	766051161	0.00076066	-0.00080398	-0.710186301	-0.704012921	-0.009641726	0.15669341	0.013175184	0
959	766067828	0.000876299	-0.000731115	-0.71014615	-0.704053367	-0.021641348	0.169544007	-0.002968556	0
960	766084495	0.00088805	-0.000732285	-0.710140942	-0.704058604	-0.003502996	0.168142404	-0.036085852	0
961	766101162	0.00089012	-0.000723504	-0.710121787	-0.70407793	-0.011173841	0.165018047	-0.04161369	0
962	766117829	0.000884557	-0.000719325	-0.710128635	-0.704071035	0.007795761	0.18054358	0.007433417	0
963	766134496	0.000874398	-0.000731542	-0.710120509	-0.704079231	0.005330214	0.179227407	0.022760689	0
964	766151163	0.000872791	-0.00073013	-0.710122059	-0.70407767	-0.023987521	0.159081031	0.012011396	0
965	766167830	0.000881957	-0.000727859	-0.710113238	-0.704086558	0.005368807	0.161124997	-0.018263437	0
966	766184497	0.000882628	-0.000733289	-0.71010838	-0.704091451	0.012194296	0.167761603	-0.039915323	0
967	766201164	0.000883033	-0.000743759	-0.710115242	-0.704084519	0.013498851	0.176090161	0.002612179	0
968	766217831	0.000878724	-0.000752774	-0.710124298	-0.704075382	-0.021567167	0.172091442	-0.005102561	0
969	766234498	0.000876842	-0.000752862	-0.710145697	-0.7040538	-0.023449881	0.180125643	0.011419339	0
970	766251165	0.000885767	-0.000741775	-0.710137578	-0.70406199	-0.014529923	0.167631824	-0.004524102	0
971	766267832	0.000895591	-0.00072902	-0.710129496	-0.704070143	0.000125217	0.167407284	-0.029389111	0
972	766284499	0.00088231	-0.000739402	-0.710125866	-0.704073809	0.012562657	0.16991444	-0.030204461	0
973	766301166	0.000871167	-0.000740779	-0.710087599	-0.704112416	-0.02233756	0.168192114	-0.008422373	0
974	766317833	0.000860733	-0.000750699	-0.710092859	-0.704107113	-0.032271499	0.170670967	0.011317803	0
975	766334500	0.000863898	-0.000732845	-0.710080031	-0.704120065	-0.010268967	0.17299321	0.008314685	0
976	766351167	0.000854956	-0.00073153	-0.710086304	-0.704113752	0.019478982	0.177174975	-0.029798699	0
977	766367834	0.000856553	-0.000734141	-0.71008831	-0.704111723	0.012149312	0.167043138	-0.033020134	0
978	766384501	0.000843684	-0.000738123	-0.710087453	-0.704112599	0.010917419	0.168195979	-0.01666764	0
979	766401168	0.000839002	-0.000741529	-0.710103626	-0.704096291	-0.005580249	0.171964211	0.018364568	0
980	766417835	0.000837375	-0.000740012	-0.710110558	-0.704089303	-0.010595368	0.166357502	0.019192106	0
981	766434502	0.000840767	-0.000751118	-0.710144306	-0.704055249	0.01966042	0.175738044	0.00177074	0
982	766451169	0.000837413	-0.000756626	-0.71014888	-0.704050634	0.033398122	0.173051453	-0.024083445	0
983	766467836	0.000834455	-0.000770713	-0.710181248	-0.704017972	0.011441857	0.178468157	-0.02533042	0
984	766484503	0.000829448	-0.000787115	-0.710206272	-0.703992716	0.011059939	0.175141957	-0.006427017	0
985	766501170	0.000829358	-0.000783226	-0.710207291	-0.703991692	-0.011965854	0.175475424	0.010333912	0
986	766517837	0.000841991	-0.000776147	-0.710268871	-0.703929556	-0.006136747	0.163888653	0.010815148	0
987	766534504	0.000852105	-0.000780739	-0.71031348	-0.703884525	0.029763374	0.157866194	-0.025393901	0
988	766551171	0.00084654	-0.0007893	-0.710301013	-0.703897103	0.021673802	0.177537162	-0.021556554	0
989	766567838	0.000850336	-0.000806649	-0.710296748	-0.703901382	-0.013285026	0.161739106	-0.006033716	0
990	766584505	0.000847521	-0.000803457	-0.71029957	-0.703898541	-0.020037432	0.162094291	0.010890495	0
991	766601172	0.000861636	-0.000799332	-0.710308433	-0.703889585	0.008713854	0.179567459	0.020346813	0
992	766617839	0.000864691	-0.000803186	-0.710316902	-0.703881031	0.007627689	0.189723353	0.006504073	0
993	766634506	0.000851638	-0.000813675	-0.710309513	-0.703888491	0.000205342	0.171633281	-0.02353367	0
994	766651173	0.000847385	-0.000817788	-0.710316097	-0.703881848	-0.00110393	0.17400449	-0.028816697	0
995	766667840	0.000847957	-0.000814937	-0.710326552	-0.7038713	0.021246836	0.175899577	0.0049544	0
996	766684507	0.000855927	-0.000800284	-0.710342631	-0.70385508	-0.00933528	0.178018779	0.013292363	0
997	766701174	0.000859271	-0.000794849	-0.710350005	-0.70384764	0.000884322	0.179293214	0.013321571	0
998	766717841	0.000858746	-0.000796613	-0.710342808	-0.703854902	0.003254058	0.161457686	-0.027491149	0
999	766734508	0.000849635	-0.000814178	-0.71041192	-0.703785137	-0.007838428	0.176606661	-0.032676391	0
1000	766751175	0.000838709	-0.000825442	-0.710415217	-0.703781809	-0.013096645	0.166712555	-0.01760237	0
1001	766767842	0.000840395	-0.000824805	-0.710412452	-0.703784599	-0.01698559	0.170837362	-0.00018533	0
1002	766784509	0.000844528	-0.00081973	-0.710421616	-0.703775349	0.012372023	0.187359281	0.007714182	0
1003	766801176	0.000838294	-0.00082712	-0.71042514	-0.703771791	0.01417659	0.153113889	0.003984088	0
1004	766817843	0.000827923	-0.000835691	-0.710462909	-0.703733664	-0.01292255	0.169003871	-0.024299754	0
1005	766834510	0.000819002	-0.000828849	-0.710475941	-0.703720527	0.005877921	0.161574553	-0.022304547	0
1006	766851177	0.000828064	-0.000830661	-0.7105211	-0.703674918	0.005581067	0.170040112	-0.016579843	0
1007	766867844	0.000824539	-0.000834063	-0.710533425	-0.703662474	0.015124129	0.161403455	0.024487883	0
1008	766884511	0.000829625	-0.000837419	-0.710503368	-0.703692812	0.013287702	0.182337051	0.022875931	0
1009	766901178	0.00081002	-0.00085115	-0.710530319	-0.703665606	0.012562332	0.165023833	-0.009855224	0
1010	766917845	0.000792716	-0.000865437	-0.710507803	-0.703688343	-0.019279137	0.169361976	-0.031443236	0
1011	766934512	0.000820535	-0.000846275	-0.710533998	-0.703661884	-0.021616116	0.180119123	-0.015986823	0
1012	766951179	0.000812889	-0.000844082	-0.710544951	-0.703650836	0.035606886	0.165088237	0.007222028	0
