"sep=,",,,,,,,,,
"DeviceTag:,Xsens_4,,,,,,,,,,,,,,,,,",,,,,,,,,
"FirmwareVersion:,2.2.1,,,,,,,,,,,,,,,,,",,,,,,,,,
"AppVersion:,2023.0.0,,,,,,,,,,,,,,,,,",,,,,,,,,
"SyncStatus:,Un-synced,,,,,,,,,,,,,,,,,",,,,,,,,,
"OutputRate:,60Hz,,,,,,,,,,,,,,,,,",,,,,,,,,
"FilterProfile:,General,,,,,,,,,,,,,,,,,",,,,,,,,,
"Measurement Mode:,Sensor fusion Mode - Extended (Quaternion),,,,,,,,,,,,,,,,,",,,,,,,,,
"StartTime:,2023-07-07 11:12:00.241 +0200,,,,,,,,,,,,,,,,,",,,,,,,,,
"© Movella Technologies B. V. 2005-2023,,,,,,,,,,,,,,,,,,,",,,,,,,,,
PacketCounter,SampleTimeFine,Quat_W,Quat_X,Quat_Y,Quat_Z,FreeAcc_X,FreeAcc_Y,FreeAcc_Z,Status
1,379189050,0,2.75258424007089e-18,0.707106781186548,0.707106781186548,0.00523702,0.17982769,-0.00784776399999998,0
2,379205717,1.65569462100949e-05,6.11125465271409e-05,-0.706814147366156,-0.70739929111795,0.00836564921209263,0.17046509252999,0.00379781237529054,0
3,379222384,0.000109216412249709,8.06196601552285e-05,-0.706943453174591,-0.707270058454217,-0.00377067245852144,0.190612876949838,0.0169982770804027,0
4,379239051,0.000257440579319216,0.00019412189131736,-0.707100010333833,-0.707113478465043,-0.00774736590181665,0.179653003886963,0.0102908926417505,0
5,379255718,0.000398179576621612,0.000322749401233331,-0.707403594530181,-0.706809657355945,0.0231255700337894,0.177864738782044,-0.0106122165763106,0
6,379272385,0.00045347891514931,0.000379695949657898,-0.707118696606556,-0.707094618207001,0.00502291131514764,0.183470521936167,0.00715203726896686,0
7,379289052,0.000527846729500612,0.000472791349452734,-0.706957301917522,-0.707255873861552,0.0134909609197439,0.167006825438278,0.0145164689920121,0
8,379305719,0.00062161060688638,0.00053375438961595,-0.706989093118663,-0.707223975072788,0.00516526344089343,0.197836064839689,0.00663380906095695,0
9,379322386,0.000701969756758199,0.000605223670657596,-0.707038003218103,-0.707174945079452,0.0121779874865659,0.186385372920487,-0.0156130839582166,0
10,379339053,0.000768660654041826,0.000690196173740232,-0.70699756696075,-0.707215224031285,0.00888835829598629,0.179734753851723,-0.0032969988681106,0
11,379355720,0.000841383743262001,0.000752192983364058,-0.707249842054891,-0.706962790528925,-0.00116965263315439,0.17608021078962,-0.011630078970198,0
12,379372387,0.000914149107672565,0.000821888873249685,-0.707478698167599,-0.706733599363415,0.0235408915396298,0.183542941257193,-0.0227530166413418,0
13,379389054,0.00095973001690017,0.000882912481994438,-0.707595463553848,-0.706616557506162,0.0122197984061296,0.193534677366136,-0.0250519972372839,0
14,379405721,0.00100266267806751,0.000950390306725199,-0.707689661865393,-0.706522068950903,0.0190946613711896,0.179344371161787,-0.0302557486455166,0
15,379422388,0.0010302628863712,0.0010154567871294,-0.707601349541964,-0.706610385949916,0.0178628001774765,0.182436999426367,0.0125629957745937,0
16,379439055,0.00106100485717528,0.00107123230753132,-0.707503410262576,-0.706708321160054,0.0169964360593775,0.186296774073203,-0.00624148584258507,0
17,379455722,0.00110613024172198,0.00115014877022856,-0.707467607884723,-0.706743968794614,0.0243980684065703,0.174101833919121,-0.0199305446782206,0
18,379472389,0.00115668381223045,0.00120108007737974,-0.707702564913343,-0.706508527269333,0.0324050526473834,0.187875188791779,-0.022094034447135,0
19,379489056,0.00120824691282705,0.00126466814827652,-0.707795116280076,-0.706415610051156,0.0103980639366946,0.189845205270911,0.00153040059760183,0
20,379505723,0.00126418609312773,0.00134703483705447,-0.707823199786426,-0.706387220421473,0.033576020647726,0.185101452046895,-0.0202202343409438,0
21,379522390,0.00131175683383488,0.00139432506107703,-0.707920799160563,-0.706289230604222,0.0275885046478779,0.170487604697856,-0.0205160833077083,0
22,379539057,0.00134825385503769,0.00146458200153812,-0.707811385464973,-0.706398669178572,0.0303979823532526,0.171050187735744,-0.0183870775354596,0
23,379555724,0.00142067056430908,0.00152266461228557,-0.708031326194758,-0.706177955132074,0.0248278109283787,0.18933562853032,-0.032617094302961,0
24,379572391,0.00145425668776871,0.00157552160177484,-0.70802783505949,-0.706181271098391,0.0400611116528785,0.168425992178468,-0.0443817846867573,0
25,379589058,0.00151701219356708,0.00164262705073555,-0.708107788435141,-0.706100814620597,0.0197433426095109,0.16664732168387,-0.0109338298542533,0
26,379605725,0.00153008448554237,0.00172171859951992,-0.707950712257851,-0.706258085645845,0.0241364266603485,0.176347740199492,-0.0261219010419244,0
27,379622392,0.00156441828567911,0.00179057350903718,-0.707904757776997,-0.706303900851911,0.0285062525141042,0.178570895372784,-0.0343368253796574,0
28,379639059,0.00161455681957544,0.00186969813713057,-0.707883325101442,-0.706325063606325,0.0256939294530393,0.186715373114771,-0.0114518227467748,0
29,379655726,0.00163737121554994,0.00191992210442088,-0.707877523226173,-0.706330690983901,0.0356947858181442,0.179404161658936,-0.0251688437367099,0
30,379672393,0.00167032209035708,0.00199490022913872,-0.707806153376916,-0.706401924996644,0.0340105581572976,0.18498263599925,-0.0628026401921137,0
31,379689060,0.00174478698309509,0.00205796741880682,-0.708052334221784,-0.706154807738056,0.0254304714915047,0.173412891740189,-0.034905374603345,0
32,379705727,0.00178343393539737,0.00212277076404403,-0.708103645510448,-0.706103066430458,0.0184049578813293,0.17034478301915,-0.0129846820951408,0
33,379722394,0.00182514605150946,0.00219767477661776,-0.708121857168787,-0.706084466949455,0.0333432998766827,0.177935561521051,-0.0409681755645294,0
34,379739061,0.00186628812473009,0.00226880456305083,-0.708122915033047,-0.706083073511602,0.0407675595977801,0.176654424176965,-0.0269934708684016,0
35,379755728,0.00190116085406282,0.00234137766328519,-0.708077168224359,-0.706128619571121,0.0431315875062409,0.166209682145128,-0.0314389563024508,0
36,379772395,0.00195661620452756,0.00239246708191464,-0.708351111745784,-0.705853490635842,0.0310042057357897,0.164223223523301,-0.0387270063249164,0
37,379789062,0.00198456819214007,0.00245206932858831,-0.708356221663138,-0.705848080025881,0.052193377462225,0.189086365828756,-0.0385190922513373,0
38,379805729,0.0020292254845478,0.00251753557056943,-0.70843576427392,-0.705767888300544,0.032748429762633,0.187566574270343,-0.0661254211993612,0
39,379822396,0.0020761667410662,0.00257856990685685,-0.708497834345402,-0.70570522120555,0.0311784298707866,0.176473796263653,-0.0217881553808511,0
40,379839063,0.00212388479752259,0.00264161340344583,-0.708582249104175,-0.705620087048592,0.0450812108099557,0.178624372624409,-0.0520380052144096,0
41,379855730,0.00217245987168896,0.0027205269689417,-0.708649936727423,-0.705551660991126,0.0575605312855,0.188327721986587,-0.0591181716695184,0
42,379872397,0.00219454378625932,0.0027832779652741,-0.708682791270623,-0.7055183475277,0.0338736368506051,0.177116107692401,-0.0250636995237689,0
43,379889064,0.00222820562831528,0.00285125979936039,-0.708706572842367,-0.705494081496976,0.0564496110626024,0.175160472010888,-0.0636406115488598,0
44,379905731,0.00227187307660108,0.00292831247613918,-0.708653456394575,-0.705546980943713,0.0375893458791698,0.181543365992647,-0.0506134653750467,0
45,379922398,0.00230831808481719,0.00297500108244176,-0.70884872277835,-0.70535048681608,0.035123091474937,0.193432720582137,-0.0327690266085674,0
46,379939065,0.00235039835211816,0.00305198137991617,-0.708862897994554,-0.705335773149219,0.0595661942197247,0.184352509831266,-0.0695240009704308,0
47,379955732,0.00239887027250937,0.00311828890197497,-0.708946506656438,-0.705251283157551,0.0378472992237161,0.179251590387649,-0.0459676909287433,0
48,379972399,0.00242637512909295,0.00317582901336303,-0.708969315480419,-0.705228003216716,0.0538148945552059,0.188175496780079,-0.0567495712893261,0
49,379989066,0.00246746530810903,0.00325945493364007,-0.708941938300285,-0.705255000469704,0.0643548039956196,0.17341462101713,-0.0525933333267371,0
50,380005733,0.00249209671857652,0.00330831990985889,-0.708969649121757,-0.705226829536066,0.0494159732384475,0.16935163470511,-0.0413756479475043,0
51,380022400,0.00251330905805604,0.00337703294102673,-0.708914923355759,-0.705281440539585,0.0389180076038867,0.181935765423191,-0.0657943482232762,0
52,380039067,0.00255397769119987,0.00344971330483031,-0.708871348628321,-0.705324739230046,0.0406473585488455,0.17885228415616,-0.0531177628594803,0
53,380055734,0.00257151202173786,0.0035064015184809,-0.708863893177772,-0.70533188884607,0.0711346465436172,0.192860117515998,-0.0467422710453737,0
54,380072401,0.00262860582646832,0.00356339126481191,-0.708987756545913,-0.705206887191338,0.0653556309416217,0.175702667698577,-0.039364878503844,0
55,380089068,0.00267160879210055,0.00363466081493084,-0.709097860087825,-0.705095650650385,0.0762178187225828,0.169266269069257,-0.0593114436570338,0
56,380105735,0.00270248573165961,0.00369262486476915,-0.709046083412578,-0.705147298576518,0.0474260521806125,0.191808804837748,-0.073353604357984,0
57,380122402,0.00273715834515745,0.00376245746589962,-0.709051588499652,-0.705141260120361,0.0620431104778745,0.169215511039088,-0.0541417046425394,0
58,380139069,0.002775885350176,0.00382402643039356,-0.70911728832675,-0.705074707161233,0.0496202042927479,0.159918570182904,-0.0574771961064248,0
59,380155736,0.00281783281660303,0.00389603848172586,-0.709180967913892,-0.705010095992308,0.0581820297141379,0.194721593749574,-0.0567802663247146,0
60,380172403,0.00286506607233326,0.00396601600595579,-0.709242745481305,-0.704947366897404,0.0493113605521038,0.189845479551628,-0.0666908630573337,0
61,380189070,0.00291366325106956,0.00400731696716543,-0.709438357790691,-0.704750075184409,0.0653090518523231,0.184903327006751,-0.0772831592866128,0
62,380205737,0.00296454739320917,0.004075278215499,-0.709506446426565,-0.70468092499043,0.0510716530107067,0.180458630186925,-0.0565529734896867,0
63,380222404,0.00300424977235852,0.0041388643438744,-0.709563403496292,-0.704623034468791,0.0584425116112835,0.17513820422224,-0.0748761437678285,0
64,380239071,0.00304016918285925,0.00419407510565412,-0.709580120225159,-0.704605719595432,0.0711508908255363,0.181456017634772,-0.0747074396706896,0
65,380255738,0.00308228344617899,0.00425238152775434,-0.70964818023729,-0.704536639974106,0.0594092971081302,0.171341332309971,-0.0859940649092902,0
66,380272405,0.00311175437063861,0.00430543101693856,-0.709682186428787,-0.70450193364827,0.0588808193574499,0.186847949655326,-0.0675766605850142,0
67,380289072,0.00314156169521444,0.00437387171932592,-0.709678897158509,-0.704504693216575,0.0790894263737423,0.174867806062514,-0.0727126426737267,0
68,380305739,0.00318856959930373,0.00443313863644525,-0.709745874163711,-0.704436636194718,0.0789056702165871,0.18119479343038,-0.0795028873758578,0
69,380322406,0.00321183880001504,0.00448878858870128,-0.70976539011437,-0.704416514474444,0.0710462263969851,0.165829846227251,-0.0879680082990706,0
70,380339073,0.00325444590696136,0.00455222506570141,-0.709870139841037,-0.704310350904242,0.0756376812816702,0.185733102968907,-0.0719829587524621,0
71,380355740,0.00327354162722793,0.00462101142367424,-0.70980581355638,-0.704374642658438,0.059906600783374,0.178793264788968,-0.0669672986192777,0
72,380372407,0.0033140755842581,0.00469220946565766,-0.709788159937886,-0.704391771733133,0.0837115865918847,0.179040880822722,-0.085561300557237,0
73,380389074,0.00334574198616542,0.00475611633784375,-0.709797584500292,-0.704381696529299,0.0574352706483332,0.161940103258359,-0.078463165689938,0
74,380405741,0.00337763720048053,0.0048087344020922,-0.70989998682444,-0.70427798229609,0.0608241421198263,0.173509845994986,-0.0802089757506059,0
75,380422408,0.00341512487758779,0.00487130910317934,-0.70989135478888,-0.704286072321255,0.0770036602077099,0.18315083387971,-0.0915038048184781,0
76,380439075,0.00345833172548175,0.00494247493777449,-0.709903662203905,-0.704272960060693,0.0802833143033806,0.173403745819887,-0.0786853413237064,0
77,380455742,0.00348411473565322,0.0049944991763437,-0.709988117666063,-0.704187325003431,0.0736514544093565,0.18761440025525,-0.0674682097630672,0
78,380472409,0.00349860101506871,0.00503948623971194,-0.710014444870227,-0.704160387585811,0.0772377906407843,0.181715367600878,-0.0526698114757837,0
79,380489076,0.00353889737826347,0.00512242415709267,-0.70990811023759,-0.704266790353624,0.0802202746741675,0.175125551260391,-0.0940235448504195,0
80,380505743,0.00357875024772601,0.00518934423677988,-0.709937332094875,-0.704236641869101,0.0909509855691825,0.181976973662109,-0.0954469148143982,0
81,380522410,0.00360003755544772,0.00525627049572803,-0.709798481272653,-0.704375984352895,0.065115995599641,0.172820128113061,-0.0833492030163959,0
82,380539077,0.00364344885591055,0.00531556535981804,-0.709878597458551,-0.704294573964347,0.0777752010178257,0.175579768613263,-0.0871461239624009,0
83,380555744,0.00367252142008435,0.00535978683252865,-0.709952988810666,-0.704219098683309,0.0885949487054435,0.190515138742939,-0.0855932547445018,0
84,380572411,0.00371262812338845,0.00542494272847621,-0.709913806296902,-0.704257888857381,0.0749368724045212,0.192449830878261,-0.0621098798453417,0
85,380589078,0.00372488596068553,0.00550073203044776,-0.709707488260198,-0.704465150507184,0.0789011762264918,0.173422963309572,-0.0744652858479748,0
86,380605745,0.00374359064713304,0.00553534255883924,-0.709761300156867,-0.704410563742096,0.092745395654007,0.179086438501592,-0.0738533821650805,0
87,380622412,0.00379132668976988,0.00558135441206806,-0.709886292702399,-0.704283980904083,0.0721372842581696,0.187221921839388,-0.0997861234782877,0
88,380639079,0.00382961447414805,0.00563000202502034,-0.709923972755204,-0.704245404697571,0.0705093445078952,0.179068289575737,-0.0769004922248653,0
89,380655746,0.003867138146952,0.00569385491056398,-0.709937912093881,-0.704230634260248,0.102367036569095,0.168162748813632,-0.101232713569272,0
90,380672413,0.00389728702372582,0.00575090230952432,-0.709999044689968,-0.70416837107031,0.0927403806507785,0.171689024508607,-0.0783621232909224,0
91,380689080,0.00391241004500263,0.00579389293392014,-0.709980177349861,-0.704186957861739,0.089317594450615,0.187141334788442,-0.07912115867242,0
92,380705747,0.00393655275082168,0.00586372297703146,-0.70991675428086,-0.704250184449118,0.098383457420383,0.183207320277742,-0.0898446218011597,0
93,380722414,0.00396811079417559,0.00591609508554861,-0.710009212622603,-0.704156354730038,0.0795319422381384,0.183444079570795,-0.0950156587921237,0
94,380739081,0.00399301367470946,0.0059586302467471,-0.710047914605736,-0.70411682946186,0.0905660584388915,0.179194060099612,-0.106067669414165,0
95,380755748,0.0040250647913397,0.00601726977757375,-0.710079470225811,-0.704084325405474,0.107856405315885,0.191736938325932,-0.0995399169840682,0
96,380772415,0.00404637689048838,0.00606132721347665,-0.710059024944088,-0.704104444128797,0.0948223836801078,0.176222595176883,-0.103635926973438,0
97,380789082,0.00407831760401656,0.00612272468214295,-0.710037813290324,-0.70412511904198,0.122623341151064,0.183362919544018,-0.0966853090287506,0
98,380805749,0.00411562445402291,0.00617259472378585,-0.710182982932559,-0.703978047571615,0.0952550409970337,0.165847303647717,-0.0804963760507754,0
99,380822416,0.00414712941589875,0.00622461986282717,-0.710215582725445,-0.703944515909548,0.0982378224283589,0.18230383843795,-0.108650926106227,0
100,380839083,0.00417051612395596,0.00627528624872569,-0.710209309726781,-0.703950256733504,0.0978038889122725,0.187207907987744,-0.0792738598960259,0
101,380855750,0.00418291142256244,0.00631849835911835,-0.710097868586987,-0.704062210929357,0.0880739833032959,0.185412949100909,-0.0767346476751416,0
102,380872417,0.00422580085693042,0.00636434056547574,-0.710180098246019,-0.703978597566402,0.108503277144196,0.18651828406217,-0.11234141844681,0
103,380889084,0.00425412914956942,0.00641446757822699,-0.71017679803244,-0.70398130126251,0.0942170983394479,0.18124887064736,-0.0786717215658177,0
104,380905751,0.00425506551103585,0.00645483197060194,-0.710088891179556,-0.704069596123222,0.105332864215905,0.185038920143795,-0.0910422601929238,0
105,380922418,0.00428892574229953,0.00650541510997106,-0.710082405861918,-0.704075465824207,0.10626144913074,0.185416761927735,-0.11227622519711,0
106,380939085,0.00432602114981805,0.00654168930125582,-0.710146872129662,-0.704009880503502,0.107076807077921,0.173405070410971,-0.120460892300091,0
107,380955752,0.00434266782931102,0.00658790777872468,-0.710088774736119,-0.704067946082607,0.105697445032729,0.159894979420395,-0.0936912495807473,0
108,380972419,0.00436109630878653,0.00663438389237681,-0.710100835576765,-0.704055231571028,0.1004344774301,0.164508925243017,-0.113115925808399,0
109,380989086,0.00438211134797836,0.00668537917892654,-0.710060144164956,-0.704095657189994,0.117823445126739,0.173285330776264,-0.142121853888335,0
110,381005753,0.00439384208484405,0.00673811060561213,-0.709921929796086,-0.704234439382086,0.106097125083035,0.173683118336012,-0.13540852992753,0
111,381022420,0.00441633391681713,0.00677275385278772,-0.709966605028883,-0.704188927450401,0.0987726358154057,0.178866639576405,-0.103736458343783,0
112,381039087,0.00445053394838054,0.00678812605487373,-0.710157695346783,-0.703995853561642,0.0875280472253293,0.174888656594048,-0.103721805636688,0
113,381055754,0.0044724770183179,0.00681748003381436,-0.710187022890884,-0.703965845359484,0.108760546511394,0.169572137977719,-0.105153815424106,0
114,381072421,0.00449710902857958,0.00685121842143801,-0.71025951942026,-0.703892216102315,0.0917214720160934,0.170985786573589,-0.118292587404391,0
115,381089088,0.00450586926220764,0.00687952990536342,-0.710253715108535,-0.703897740715934,0.110984318142105,0.188110350625338,-0.102393458157014,0
116,381105755,0.00453073081587928,0.00691487723967115,-0.710252943705505,-0.703898013144446,0.110761630541546,0.192007549843339,-0.121442335544762,0
117,381122422,0.00455509793373839,0.00693894328582072,-0.710264139386871,-0.703886322107425,0.110053444900943,0.18331169576851,-0.12486117082013,0
118,381139089,0.00458403094473634,0.00698835108386771,-0.710234124334806,-0.703915931230284,0.114205323048582,0.168517342972054,-0.107750042547469,0
119,381155756,0.000633815261504522,-7.0042427177879e-05,-0.70699514970613,-0.707218107562497,-0.0104118070359632,0.183243435620869,0.011806734296198,0
120,381172423,0.000622175007543644,-7.8084245309992e-05,-0.706995085157118,-0.70721818158528,-0.00228153109066279,0.166803840777977,-0.00355244441857607,0
121,381189090,0.000632736946383872,-7.02116425785415e-05,-0.70698361311412,-0.707229641278126,-0.0011888094500339,0.181203817881238,0.00989661678398329,0
122,381205757,0.000641570517926113,-5.71766390894417e-05,-0.706873419550697,-0.70733977256394,0.00320727646181535,0.176319199866812,0.00236656078549934,0
123,381222424,0.000640450521658868,-5.39202853445796e-05,-0.706831300049347,-0.707381863060033,0.00390438396620762,0.17877743864151,0.000914053848128759,0
124,381239091,0.000643388372700766,-6.81728766921906e-05,-0.706851559437677,-0.707361614963934,0.00731001120811316,0.169643999758528,-0.0066667694058267,0
125,381255758,0.000641388453080181,-6.06522940110866e-05,-0.706805592179809,-0.707407548592394,-0.0121554679237374,0.171803356785151,0.00352885288728633,0
126,381272425,0.000630057351371107,-6.42102491999585e-05,-0.706775376271399,-0.707437747368064,-0.0209173011509937,0.19923995267785,0.04659582387066,0
127,381289092,0.000630844475078397,-6.40665081028433e-05,-0.706769542850372,-0.707443574590799,-0.0115734340614895,0.198150347965392,0.00659834325124828,0
128,381305759,0.000623084994478627,-5.83431837947934e-05,-0.706764536488424,-0.707448583519302,0.00433096871670198,0.174325563647595,0.00588799926381878,0
129,381322426,0.000632810605215091,-5.71523005755171e-05,-0.706757795126324,-0.707455309763472,-0.0098335152071125,0.186388674055586,0.0134737794483532,0
130,381339093,0.000625984334110501,-6.25004605662951e-05,-0.706761016815437,-0.707452096856964,-0.00346785258296403,0.195811196839664,0.00931334748402428,0
131,381355760,0.000626286778663419,-6.5805994163526e-05,-0.706760105680634,-0.707453006533113,-0.0195274403563197,0.174868156419837,0.00272468399727822,0
132,381372427,0.00062240893772574,-6.76617737484325e-05,-0.706761785577462,-0.707451331524902,0.00237933339650404,0.169810391073084,-0.0082599071009886,0
133,381389094,0.000622378241546739,-6.95458417234327e-05,-0.706757937736325,-0.70745517543898,-0.0040756855065825,0.179355694554836,0.0118687088155129,0
134,381405761,0.000619423527121289,-7.39527174075799e-05,-0.706750453181514,-0.707462654684482,0.00636495479982843,0.180746547310372,0.00287768696087868,0
135,381422428,0.000619242962661848,-7.44700277247987e-05,-0.706752793070527,-0.707460317247107,0.00380301650028688,0.190319927957626,0.0102159599177677,0
136,381439095,0.000626903396549923,-6.57597487643637e-05,-0.706752542273314,-0.707460561909987,-0.00549529649802527,0.169987337759862,0.0213205317721044,0
137,381455762,0.000623866840676234,-7.49285022488647e-05,-0.706755900711493,-0.707457208589587,-0.0145422142077174,0.195382646604114,-0.00951866561939449,0
138,381472429,0.000613750771865285,-7.26376818161984e-05,-0.706715460808652,-0.707497615181686,-0.00962687735227547,0.194671048722264,-0.00101261085845908,0
139,381489096,0.00060926316302403,-7.4255470507468e-05,-0.706661309698305,-0.707551705997519,0.00144178243191393,0.176905701833528,0.000343120560073524,0
140,381505763,0.000611951510467803,-6.04035458651646e-05,-0.706655438380738,-0.707557568875981,-0.000923719507143768,0.181102757755903,0.0112340974947795,0
141,381522430,0.000630003138014244,-6.18871929963633e-05,-0.706656839904309,-0.707556153165583,-0.00389763796993785,0.180728736256715,-0.00243045503884069,0
142,381539097,0.000636957565450836,-5.26595173632363e-05,-0.706656428777276,-0.707556558290419,0.00578957639643933,0.170902599037413,-0.00759823569308885,0
143,381555764,0.000640041943524473,-5.63259241390229e-05,-0.706650123152645,-0.707562852771435,-0.00126500856979793,0.188449501880203,-0.00516572904723552,0
144,381572431,0.00064751980026029,-6.40428078630892e-05,-0.706650448184465,-0.707562520698575,-0.00385004819418387,0.174317699721133,-0.00861431621464082,0
145,381589098,0.000660021572098622,-5.73724066786347e-05,-0.706673411083338,-0.707539575675998,-0.00527064624258565,0.181207835044757,-0.00190307792747115,0
146,381605765,0.000660071978113047,-3.93438279501993e-05,-0.706667053577848,-0.707545926526787,-0.013755399281193,0.179982900431329,0.00922139544030503,0
147,381622432,0.000665442797216302,-5.62773177723823e-05,-0.706681542257122,-0.707531449372989,0.00501817438682528,0.188813364567891,0.0122546604629274,0
148,381639099,0.000669250491734248,-4.23417347526828e-05,-0.70664220476629,-0.707570734806064,-7.2645376615522e-05,0.185225464781957,0.0252596535793531,0
149,381655766,0.000661515801440008,-5.47186263547842e-05,-0.706634746668393,-0.707578189462912,0.0124739073280603,0.194546285689913,0.0132543475230333,0
150,381672433,0.000667314674892094,-4.4045214237596e-05,-0.706646699958004,-0.707566247209126,-0.00486363267621234,0.180791931536127,-0.00208349593148542,0
151,381689100,0.000661986695811732,-4.88573936237314e-05,-0.706618566216229,-0.707594347960108,-0.00370979208737186,0.173039509810368,-0.00959402235911721,0
152,381705767,0.000660906540975248,-4.04399326008115e-05,-0.70658356761388,-0.707629298111093,0.00851748375264654,0.178989281621912,-0.0177246209417687,0
153,381722434,0.00069025300838492,-1.90191404529144e-05,-0.706623229182799,-0.707589665815104,-0.00622256205270717,0.197926193497835,-0.000280829648430894,0
154,381739101,0.00068919059738365,-1.54844797796097e-05,-0.706544370777752,-0.707668408860266,-0.00923958011162594,0.187171187381701,-0.00449956982958517,0
155,381755768,0.000729264499971428,6.71496253228029e-06,-0.706544653777611,-0.707668086285141,0.00570126439053315,0.190378944222371,-0.00316420602705056,0
156,381772435,0.000756353400816082,2.15729257011436e-05,-0.706540052904876,-0.707672651093228,-0.00198512674196352,0.242572519196658,-0.00120854558850011,0
157,381789102,0.000786324587701226,4.57435943929776e-05,-0.706539517419707,-0.707673151903825,0.0171173244912813,0.188399992489051,-0.0263670591498165,0
158,381805769,0.000858097098861043,0.00010819902112691,-0.706537101656156,-0.707675473607542,-0.00394642903700166,0.148624070436904,-0.00655620089453376,0
159,381822436,0.000900175353792899,0.000137725085612443,-0.706521849207789,-0.707690643790167,-0.00917494104606076,0.140392364506754,0.0602404534080893,0
160,381839103,0.000883007481413502,0.000106903520783556,-0.706499285163445,-0.707713196805717,-0.0140909664304699,0.13563610992814,0.0350070350856057,0
161,381855770,0.000874992639753074,9.69807144871683e-05,-0.706469836414347,-0.707742605202842,-0.00287492234451402,0.185777310094804,-0.0174930017506204,0
162,381872437,0.000860279588735059,8.08908857941951e-05,-0.706457850906725,-0.707754589012283,-0.012785199277901,0.203205061279014,-0.0138966579837575,0
163,381889104,0.000889192181702812,8.78715294680144e-05,-0.706542427727291,-0.707670120491945,0.00863949076516556,0.156732003218158,-0.0160006400980583,0
164,381905771,0.000923986535491672,0.00012527248863895,-0.706534165690429,-0.707678319060161,-0.0179808108168618,0.181535347953681,0.0436755910310421,0
165,381922438,0.000874581197270868,6.80582701413994e-05,-0.706543628086351,-0.70766894243451,0.00195750795118492,0.215768302659156,0.0145728609446902,0
166,381939105,0.000900933453458858,7.95488642574347e-05,-0.706547182644489,-0.707665359253953,0.015298788522776,0.158777388659162,-0.0374995720834704,0
167,381955772,0.000944964210029881,0.000121607827675406,-0.706566713770213,-0.707645795045897,-0.0147223938430009,0.173424445253535,0.0449742628150676,0
168,381972439,0.000902559088737552,7.09382432710791e-05,-0.706590100775316,-0.707622505182802,-0.0064666611094832,0.194882575962235,0.0345454115343214,0
169,381989106,0.000928433887069698,9.76449144170831e-05,-0.706570712202171,-0.707641828281868,0.00510454962216525,0.164053637485481,-0.0163637526858722,0
170,382005773,0.000941276804189813,0.000117115355988702,-0.706552480768882,-0.707660011729721,-0.0359028247931872,0.179711075081534,0.0339455137962488,0
171,382022440,0.000896130660778379,7.33561621176151e-05,-0.706479860932045,-0.707732574964689,-0.000911384986400326,0.190957062921606,0.0135118226891712,0
172,382039107,0.000924764304397144,0.000101076639660117,-0.706472637861602,-0.707739744925608,0.0156322160249392,0.168853622790949,-0.0101376735309704,0
173,382055774,0.000933523754636605,0.000116514958606662,-0.70648475158114,-0.70772763881383,-0.0186508438762602,0.185533850463454,0.0343650633992864,0
174,382072441,0.000913603236314459,8.42492915844892e-05,-0.706508700947323,-0.707703761270851,0.00989900157764267,0.173361581142322,-0.00432435166144512,0
175,382089108,0.000923017087766388,0.000108513883642109,-0.706529260048933,-0.707683220769646,0.00477229562588133,0.173727221848737,-0.0124277526046716,0
176,382105775,0.000913652128407926,0.000112353085220316,-0.706525236599914,-0.707687249188515,0.003215905395366,0.185943094509617,0.0108695797514952,0
177,382122442,0.000921947552844043,9.92007946261772e-05,-0.706515164007447,-0.707697296306437,-0.00642261455943836,0.177928095678821,0.00163033865975113,0
178,382139109,0.000931139047875311,0.000107624454474078,-0.706510184075045,-0.707702254620752,-0.0126162942723815,0.186737250306622,0.0168643333556034,0
179,382155776,0.000922214409856179,9.47755710170979e-05,-0.70650523279518,-0.707707211049316,-0.00142082631380629,0.191302220373292,0.0122070778132144,0
180,382172443,0.000927339690323255,9.58742777740416e-05,-0.706500385993524,-0.707712042740707,-0.000346861711624145,0.186599318923691,-0.00933813845034406,0
181,382189110,0.000917617519001106,9.88096694907459e-05,-0.706476819286528,-0.707735580584676,-0.00253865592129556,0.166462608043022,-0.00174833977209684,0
182,382205777,0.000910639959765089,8.93946517449143e-05,-0.706416173965114,-0.707796123120175,-0.0129846381374028,0.174691074216524,0.00843305733008956,0
183,382222444,0.000921023783812774,8.8818657754713e-05,-0.706374960304872,-0.707837240670993,-0.00579421249573412,0.179470336511604,0.0066955043273249,0
184,382239111,0.000908041181567744,7.80083697535278e-05,-0.706344851726683,-0.70786730381839,-0.00371440962105321,0.182693329585794,0.0118242202356907,0
185,382255778,0.000912777039148067,7.5412144333884e-05,-0.706338728640618,-0.707873407872793,-0.0032429751435525,0.203009237856575,-0.00153816667740315,0
186,382272445,0.000923677825115593,8.06424404059418e-05,-0.70634075104704,-0.707871375128544,-0.0132200890184919,0.171468885494866,0.00944768562490509,0
187,382289112,0.000924312750222169,8.1464948679762e-05,-0.70633363366827,-0.707878476123113,0.000356593254929482,0.180795941309044,-0.00250005630028555,0
188,382305779,0.000919239383428866,8.01667130299812e-05,-0.706331894471123,-0.707880218275019,0.00392412180138751,0.191261817397293,0.000622586147449398,0
189,382322446,0.000929319005219762,8.07464874124354e-05,-0.706327399116042,-0.707884690542294,0.00573109790732804,0.172247698230706,0.0105402248444126,0
190,382339113,0.000934648937413076,9.43945854917128e-05,-0.706331004384639,-0.707881084481012,-0.000733501815376092,0.175078554279005,0.0094270542157092,0
191,382355780,0.000922012544212432,7.76918848605011e-05,-0.706360190052517,-0.707851980124243,-0.0126446930510968,0.176668509209967,0.0153738721383932,0
192,382372447,0.00091390253390257,8.26334666806794e-05,-0.7063626523679,-0.70784953294726,0.00274284615414909,0.176990903344302,-0.014277943680773,0
193,382389114,0.000923104618830478,8.75346738554344e-05,-0.706365120240853,-0.707847057719864,0.00619402533811421,0.178317375275753,0.00733264104039034,0
194,382405781,0.000917038991977727,8.25380163517966e-05,-0.706336370218482,-0.707875754870544,0.0032323548739686,0.180014114299156,0.00263756729617618,0
195,382422448,0.000902637078260073,7.9919735853936e-05,-0.706332959594398,-0.707879176872551,0.012324788829256,0.186372364456921,0.000491352387010646,0
196,382439115,0.000907025460013096,7.91386004081044e-05,-0.706316769671945,-0.707895325540496,-0.0130693675263593,0.186280994688565,0.0153115613758966,0
197,382455782,0.000911779445563456,9.04750892038186e-05,-0.706320008479014,-0.707892086475549,-0.00779775689468512,0.185926295537533,0.0208890261301557,0
198,382472449,0.000900155458286414,8.42781923781466e-05,-0.706308019936409,-0.707904063832696,-0.0315844992472259,0.188347210917703,0.02061468816224,0
199,382489116,0.000885626234038481,6.77983939481042e-05,-0.706328284125848,-0.707883864848879,0.000106237212507242,0.185605473000617,-0.0149256543421745,0
200,382505783,0.000897329157347358,7.97113029423771e-05,-0.706333519690482,-0.707878624771328,-0.00691377895169411,0.168443067936934,0.0199674428242724,0
201,382522450,0.000895984989076334,7.15519822631947e-05,-0.706327547454839,-0.707884586495316,-0.00876057244518496,0.18397631582657,0.0229953600374675,0
202,382539117,0.000905859084954376,9.27968545624683e-05,-0.706300826569593,-0.707911232567453,-0.0207137006787016,0.171030287360135,0.0202300818555483,0
203,382555784,0.000877133127187429,6.80427212005957e-05,-0.706305479848177,-0.707906628831869,0.0330055488674733,0.183995899309111,0.00574379674480935,0
204,382572451,0.000860064446854433,5.237286673493e-05,-0.706249048471409,-0.707962950357899,-0.000520296900133425,0.22039355348354,-0.0376986942055378,0
205,382589118,0.000896893856159944,7.50618837512359e-05,-0.706262336643063,-0.707949646363782,-0.0461890506111855,0.186173271893992,-0.0190808389520728,0
206,382605785,0.000919533644332899,0.000109015596914031,-0.706250986466261,-0.707960935849507,-0.0171665144601798,0.145638231216453,-0.00359918578222987,0
207,382622452,0.000893156840124236,8.02815137132293e-05,-0.706273637723035,-0.707938376190476,0.0447524306107479,0.17734763429787,0.0440763743356301,0
208,382639119,0.000837685962040956,1.37971827836848e-05,-0.706291917932807,-0.707920210726225,0.049369043145341,0.221184868616417,-0.0338178731366281,0
209,382655786,0.000919631007000238,9.6734961074586e-05,-0.70627122909157,-0.707940743197227,-0.020595481182167,0.163578804729719,-0.0388098279122317,0
210,382672453,0.000933536801805181,0.000117278435963024,-0.70626222802241,-0.707949701619847,-0.0777055769710418,0.176001014048936,0.0639542546462502,0
211,382689120,0.000878411767242993,5.26993485040228e-05,-0.706274155120558,-0.707937881049098,0.020468750987285,0.187587093414433,0.0152896035780539,0
212,382705787,0.000883349245371794,4.25136203591577e-05,-0.70627212522776,-0.70793990070695,0.0225086017171662,0.205014045913953,-0.0273371865000875,0
213,382722454,0.000923433853060629,8.14851403635654e-05,-0.706265936583745,-0.70794602015378,-0.0287572574256532,0.171618936418042,0.00596525937254453,0
214,382739121,0.000927981489161592,8.50111891316635e-05,-0.706262584184774,-0.707949358219992,-0.0316645441761531,0.168490426768108,0.0563611298934231,0
215,382755788,0.000894021790322839,6.11990475863979e-05,-0.706249409195764,-0.70796254773141,-0.00406000409404932,0.181632985422125,0.0249051693445337,0
216,382772455,0.000878344472352639,4.83078468247156e-05,-0.706212575694479,-0.707999310810618,0.0147351933948195,0.184716507575962,-0.0230504144642368,0
217,382789122,0.000904985853926147,9.13329536499269e-05,-0.70618998905576,-0.708021801935732,0.00368187564759505,0.196475518829557,-0.0408366503493356,0
218,382805789,0.000950274489301566,0.000137493743794096,-0.70616141792348,-0.708050231205502,-0.0198118266550112,0.158558755195055,0.0434599895013824,0
219,382822456,0.000908449630000605,0.000100125594265601,-0.706184205492044,-0.708027564864325,-0.0201889960149525,0.150645918781817,0.0616162205053414,0
220,382839123,0.000838611696561852,3.07050055615637e-05,-0.70618589997428,-0.708025967366411,0.00427198492444104,0.203069971741905,-0.0513975060557247,0
221,382855790,0.000910390251696068,9.54045774565525e-05,-0.706162019730749,-0.708049690330661,-0.00450843966657136,0.202017700560051,-0.0547310637475856,0
222,382872457,0.000968672029226743,0.000164779647413846,-0.706141811805025,-0.708069753726908,-0.023890529046924,0.135279803415642,0.0452316992627726,0
223,382889124,0.00091503679589189,0.000108815676785494,-0.706139152605468,-0.708072487831891,-0.011158903299584,0.174068809208332,0.0728568690287947,0
224,382905791,0.000835445101363907,2.82788176382359e-05,-0.706139156794738,-0.708072589833138,0.0406374377111586,0.207244077485238,-0.0822034794821798,0
225,382922458,0.000914514749976475,0.000106290962814971,-0.706137137871016,-0.708074498117488,0.0166370881937817,0.176767899425664,-0.075944323324619,0
226,382939125,0.00097255408688903,0.000166929972722968,-0.706117214917919,-0.708094276964229,-0.03682274242455,0.173769722886783,0.0910068286342528,0
227,382955792,0.000899313408035698,9.10726054836847e-05,-0.70610867349219,-0.70810290506414,-0.0331012086908162,0.167113309887106,0.0406253960264962,0
228,382972459,0.000845691161406201,4.34604465643838e-05,-0.706118640810109,-0.708093036272871,0.0228933511560321,0.184462140104597,-0.0619336631874078,0
229,382989126,0.000929463040325676,0.000138187447270402,-0.706090126768285,-0.708121352511724,0.00654695219309609,0.198567822095314,-0.031058450128168,0
230,383005793,0.000922458079486825,0.000133173622614756,-0.70610594742219,-0.708105587007255,-0.00323799560343053,0.150448599563561,0.0710445775917441,0
231,383022460,0.000862484671490627,6.37320416103416e-05,-0.706106948165776,-0.708104674331721,0.0144925291216854,0.163539906038057,-0.0292034466209415,0
232,383039127,0.000906138338179645,9.65216697320945e-05,-0.706100836900325,-0.70811071007685,-0.0166023318604814,0.215231731851493,-0.015297078841185,0
233,383055794,0.000900956193844847,8.44572580375869e-05,-0.706050314207647,-0.708161093927216,-0.017651748715953,0.162437531281013,0.0162831162525491,0
234,383072461,0.000925041152970797,0.00012374471854919,-0.706056532170716,-0.708154857616025,0.0016239554565444,0.156975733317003,0.0278289027449494,0
235,383089128,0.000908505996507087,0.000114666099279956,-0.706058707635397,-0.708152711525397,-0.0274710612948123,0.204125953187044,0.0627069133636542,0
236,383105795,0.000847294558282945,4.40123056764678e-05,-0.706048073105734,-0.708163398248263,0.0156668552267994,0.176225789472559,-0.0514567920424251,0
237,383122462,0.000903577425014064,0.000110813164646424,-0.706051674803686,-0.708159730410583,-0.000284147138625677,0.167206580200372,-0.0310020235016568,0
238,383139129,0.000924900569659549,0.00013450811593929,-0.706059931480792,-0.708151466583134,-0.0283936526056873,0.194968142923897,0.07323330851526,0
239,383155796,0.000878014417172242,9.3112462108233e-05,-0.706038210438019,-0.708173189143893,0.00174123635851078,0.165171856259206,0.00709553603168285,0
240,383172463,0.000884329578800965,0.000113947052398158,-0.706031712466714,-0.70817965656222,0.0289935246382104,0.179736163676729,-0.0186211792382508,0
241,383189130,0.000879981444111429,0.000110414276631121,-0.706010321301576,-0.708200988178491,-0.00835510257098943,0.20032493856031,-0.00419159927455114,0
242,383205797,0.000883764438620585,0.000107006832901443,-0.7060124590189,-0.708198852879642,-0.0101837858789972,0.166328560602938,-0.0195348390190423,0
243,383222464,0.000892370030927426,0.00011572376856614,-0.705998906376267,-0.708212351261436,-0.0122126346819756,0.169815083569122,0.0198211829716142,0
244,383239131,0.000857173631352341,7.43023576562746e-05,-0.706007026377911,-0.708204305576819,-0.00345694496665593,0.200267157765803,-0.00494968401354703,0
245,383255798,0.000886460555769514,0.00011095114872193,-0.705998165152396,-0.708213098353155,0.00431087288357341,0.183947885784993,-0.00786523902383819,0
246,383272465,0.000899349883758736,0.000115130987932083,-0.70601561369611,-0.708195687032862,-0.0218298155466185,0.161554863332514,0.0467385369853769,0
247,383289132,0.000845988392751703,5.68762653422262e-05,-0.706031907792966,-0.708179515551639,-0.00285941882995223,0.190324995100828,-0.036443412810274,0
248,383305799,0.000863601579921611,7.15375159418031e-05,-0.706035459837716,-0.708175951671927,0.00335910169790106,0.174836944538265,-0.0295329074659085,0
249,383322466,0.000903224575330621,0.000109308967295433,-0.706023072963479,-0.708188246640766,-0.0160050681560492,0.169514074815683,0.0323168523373639,0
250,383339133,0.000867885975911318,7.86973526323065e-05,-0.706026561231433,-0.708184817273271,-0.00312522808296554,0.191540649976537,0.0449976635185132,0
251,383355800,0.000873639828740109,8.27959328353647e-05,-0.706017784707944,-0.708193559399103,0.032385366034818,0.142996992764892,0.0289015181588582,0
252,383372467,0.000835145596475793,5.83325330885848e-05,-0.706014986591124,-0.708196397786577,-0.026462727353631,0.197468414312306,0.00638633482500965,0
253,383389134,0.00077676318856577,-4.88551982930829e-06,-0.706008162360055,-0.708203269758096,-0.0506532343061602,0.249035421316742,-0.155596564864915,0
254,383405801,0.00091624614203756,0.000140533128113315,-0.705978377038031,-0.708232780869535,-0.0400220550427902,0.157395562019439,-0.0438344146874612,0
255,383422468,0.000976913520641177,0.000214613133072787,-0.705971957431607,-0.708239080326242,0.0271263932309804,0.0968031230852695,0.148553221159456,0
256,383439135,0.000820486920796,6.27442903652414e-05,-0.705980521221341,-0.70823077207956,0.0377437167211617,0.217000888649824,0.140784792967327,0
257,383455802,0.000635909380763206,-0.000129176881400412,-0.705992354776023,-0.708219156709559,0.0848415021896675,0.241141435555138,-0.273023465068701,0
258,383472469,0.000981221000839946,0.000232910646504952,-0.705997430659246,-0.708213675990884,-0.0594655797393864,0.138854642162536,-0.0908891073338549,0
259,383489136,0.00108548210899747,0.000354326291676051,-0.705952394499955,-0.708258365909821,-0.0980410187836005,0.139468301525799,0.274925391722769,0
260,383505803,0.000687745362940725,-5.54074111107334e-05,-0.705976441711106,-0.708234980557484,-0.00472756235027381,0.218907957968972,0.100828066236964,0
261,383522470,0.000690481474141499,-6.11155355187931e-05,-0.705960512173108,-0.70825085580782,0.154367120701829,0.193597188805367,-0.327076651820183,0
262,383539137,0.00107619523487453,0.000348294985625751,-0.70595082249655,-0.708259949955428,-0.0565107320519904,0.171543232294876,0.0915329284319802,0
263,383555804,0.000935136082652381,0.000219104283597697,-0.705980549901544,-0.708230570276752,-0.11125660505339,0.164285201665698,0.258803453716776,0
264,383572471,0.000638297058580358,-8.7604522818584e-05,-0.705995299472836,-0.708216225473954,0.0552957568341589,0.169556337098126,-0.130383674117545,0
265,383589138,0.000842234679668481,0.000125856097420297,-0.705955116346828,-0.708256061396388,0.0426188695861101,0.229923816631741,-0.149573649500871,0
266,383605805,0.000871244701115839,0.000145394825367991,-0.705972827615968,-0.708238368390848,-0.0575044400827582,0.19385869866218,0.114427809236688,0
267,383622472,0.000860372765550094,0.000134990497696719,-0.705961165963112,-0.708250007898533,0.0356440000939424,0.115516677588342,0.0287215659523067,0
268,383639139,0.000867189628613153,0.00014616878826699,-0.705966490071134,-0.708244690423781,-0.0216626235576915,0.186684565885667,0.101665736110987,0
269,383655806,0.000676960138258477,-6.77923289148652e-05,-0.705986983033328,-0.708224482008826,0.0200884649891361,0.24375550801519,-0.123306186037734,0
270,383672473,0.000844710900324137,0.000115017711442771,-0.705960136332472,-0.708251056578003,0.051617862719769,0.190535923330309,-0.204179436108917,0
271,383689140,0.00106141310104071,0.000329310195407201,-0.705943608125416,-0.708267172120729,-0.0757140409926208,0.14216006845843,0.205041603312714,0
272,383705807,0.000808297123500411,6.91353630986646e-05,-0.705957716747063,-0.708253516787128,-0.0414240518274787,0.165502040438197,0.169817080935646,0
273,383722474,0.000617146648420886,-0.000132316687326525,-0.705990287212908,-0.708221233784574,0.127520296836493,0.237328244993964,-0.256982531536331,0
274,383739141,0.000972448658134997,0.000228640046629286,-0.705968584494291,-0.708242444205699,0.0158988250768711,0.205536097386576,-0.048105674527311,0
275,383755808,0.000965773030688589,0.000225166371189374,-0.705958774599167,-0.708252232717272,-0.0944639975713952,0.130811997422203,0.231532973027761,0
276,383772475,0.000686637646366772,-6.91391251709923e-05,-0.705988065018171,-0.70822339399403,0.0226812487711346,0.17711029901008,-0.0143616761077071,0
277,383789142,0.000800660161131176,5.0269649465066e-05,-0.705967257294552,-0.708244017302141,0.0723932957376269,0.242211613778497,-0.158416922084628,0
278,383805809,0.000905324077814408,0.000160817785235295,-0.705967386057785,-0.708243746423992,-0.0728539162427808,0.172602969498046,0.093863369253187,0
279,383822476,0.000802220754952679,6.51255798697901e-05,-0.705978806884544,-0.708232501676105,0.0105925423499004,0.161126912657412,0.0271251582494332,0
280,383839143,0.000860126014449612,0.000115745128634525,-0.705979254927097,-0.708231980638325,-0.003015597534273,0.185853172013782,-0.00158507455413693,0
281,383855810,0.000773670431567671,2.25015045442443e-05,-0.705980673587183,-0.708230675309347,-0.0153120340309931,0.190065434004309,-0.0178318444060781,0
282,383872477,0.000795859498521087,3.41062955913315e-05,-0.705972371165253,-0.708238926207626,0.0520782646273036,0.191218352413492,-0.132601278201423,0
283,383889144,0.00091927980397058,0.000167182898574914,-0.705951624929834,-0.708259437094521,-0.0263788174339545,0.187727601770032,0.0785620573148138,0
284,383905811,0.000802034715516975,4.73515239572604e-05,-0.705952675916175,-0.708258550153079,-0.018016747446612,0.155565386738678,0.0733870947029385,0
285,383922478,0.000773277436424673,3.02993631114205e-05,-0.705931506320346,-0.708279683111299,0.03244636260474,0.175565737858593,-0.0839613412995763,0
286,383939145,0.000839004029703405,8.25159348773321e-05,-0.70593967849594,-0.708271458967822,-0.0489101181190659,0.197843880542699,0.0242561624549943,0
287,383955812,0.000794129438493586,2.87587478404727e-05,-0.705940153003144,-0.708271041981293,-0.00333418685174881,0.174417356107213,-0.0265263056030966,0
288,383972479,0.000872835675782047,9.87413278030975e-05,-0.705930160926946,-0.7082809021156,0.00574133281467889,0.16490667660231,0.0370027726068448,0
289,383989146,0.000827412495398608,5.73474224921123e-05,-0.705920792181311,-0.708290298723585,-0.0161273246215882,0.167705033672506,0.0804846956990447,0
290,384005813,0.00077906808821151,7.58131820216306e-06,-0.705920232325202,-0.708290913812517,0.0217651492517428,0.192955930229605,-0.0759396008141813,0
291,384022480,0.000862500481350003,9.37377683243601e-05,-0.705918156850222,-0.708292879489364,-0.0126105597556632,0.172057991412135,-0.0110018898345784,0
292,384039147,0.000815551733325055,5.04259291458758e-05,-0.705903734339581,-0.708307313373249,-0.033597550705219,0.19351091877383,0.0330788339761148,0
293,384055814,0.000804989472988281,3.45603898170344e-05,-0.70590122342462,-0.708309828793271,0.0238011902912382,0.186628449252265,-0.047362946903637,0
294,384072481,0.000863232175737145,8.90264149983562e-05,-0.705894439188939,-0.708316516556434,-0.0137209962849657,0.18521240448047,0.0201419352169263,0
295,384089148,0.000810709457165867,3.5446848969382e-05,-0.705915223074833,-0.7082958699053,-0.0166840823790344,0.177071057849207,0.0191259494785784,0
296,384105815,0.000824823224861875,5.97754521400031e-05,-0.705912718778281,-0.708298347845454,0.0117939057687967,0.180661180247649,-0.016155102525326,0
297,384122482,0.00083207819374985,8.16087905662452e-05,-0.705908343270725,-0.708302697924175,-0.00925323878394558,0.178038357006904,0.0225167988534848,0
298,384139149,0.000789526895256385,4.0309476278076e-05,-0.705911740490221,-0.708299364436037,-0.0051336982385342,0.181909618752727,-0.0325007646992974,0
299,384155816,0.00081197204207721,6.35605057932556e-05,-0.7059066610244,-0.708304399663625,-0.00485968915157327,0.17639791701531,-0.0289769180778615,0
300,384172483,0.000813536314294665,5.53787510102321e-05,-0.705907593012587,-0.708303469721161,-0.0214267018854248,0.182647299389349,0.00195597105392478,0
301,384189150,0.000829567860536834,7.28626807318889e-05,-0.70593383034911,-0.708277299986967,-0.00588251159413418,0.17565608871808,0.022888291263475,0
302,384205817,0.000811261428023319,5.24511926625363e-05,-0.705937088372557,-0.708274075738936,0.0241749906240017,0.195636730752679,0.0164471384582821,0
303,384222484,0.000796881682661719,3.11837893485316e-05,-0.705921783973556,-0.708289346890624,0.0219451321171391,0.198540959658114,-0.0342841083235105,0
304,384239151,0.000845079764975088,8.15275487125668e-05,-0.705912487390103,-0.708298552405811,-0.0129190173476002,0.190838495195158,0.00448914276950328,0
305,384255818,0.000826210498232149,6.92169517119946e-05,-0.705899988919021,-0.708311032124556,-0.00881567309974606,0.158970914173602,0.0283032526030077,0
306,384272485,0.000816139283010566,6.0102421896205e-05,-0.705905399609291,-0.70830565231884,0.0128195089581834,0.180685561241848,-0.010379889741726,0
307,384289152,0.00083009414429186,7.23285838920997e-05,-0.705905856647364,-0.708305179469442,-0.00852489803933702,0.19891332232811,0.00570316998843873,0
308,384305819,0.000803767492464682,2.86567846592007e-05,-0.705921125638429,-0.70828999535076,-0.00520761648852919,0.183893162924562,-0.0201979890422887,0
309,384322486,0.000858129596586655,7.98707406177932e-05,-0.705926161679274,-0.708284908416823,-0.00372142091933803,0.179169044869771,-0.0326207123652927,0
310,384339153,0.000854395458331074,7.51461032226528e-05,-0.70593451736432,-0.708276585491196,-0.0223088040699314,0.171459598375047,0.0442894000394018,0
311,384355820,0.000814829276594787,3.65931809232147e-05,-0.705930431657939,-0.708280707328264,0.031197675920767,0.179534425350299,-0.0130035815077234,0
312,384372487,0.00087453231886023,9.14505902652268e-05,-0.705923721043003,-0.708287319453633,0.00467895289614782,0.188610403424211,-0.0222340886855846,0
313,384389154,0.000846698301407246,6.52690838907806e-05,-0.705919810600679,-0.708291253541532,-0.0211092206661187,0.172333722652106,0.020149578512925,0
314,384405821,0.000847258979441835,6.06111521638072e-05,-0.705928029260238,-0.708283062047418,0.00296339174451291,0.195961491998394,-0.048283766491903,0
315,384422488,0.000868334671942113,7.52855585913026e-05,-0.705920429692451,-0.708290609333349,-0.0132446085249356,0.183777313634181,0.00916169053203678,0
316,384439155,0.000832022412628325,3.03599803960884e-05,-0.70592806034245,-0.708283051073596,0.0157322244747192,0.185176600942612,0.00155271527078335,0
317,384455822,0.000883320507803419,7.59672768692099e-05,-0.705899151299618,-0.708311797281629,0.00825855071850067,0.170614587325489,0.002100976767053,0
318,384472489,0.000862003223906208,5.74960454914098e-05,-0.705902449924598,-0.708308537880983,-0.0152156198677714,0.176719285299724,0.0504895306180751,0
319,384489156,0.000827538835805191,1.54649696234784e-05,-0.70589803926293,-0.708312976801259,0.0143686856095032,0.178048627824198,-0.0600635282848599,0
320,384505823,0.000868004135719514,6.28813512436142e-05,-0.705880400484418,-0.708330503950461,-0.0108508755016341,0.186125524183533,-0.0148832578652918,0
321,384522490,0.000853022507345165,4.19798423771096e-05,-0.705876436482277,-0.708334473966485,-0.0341410991489106,0.191183785521738,0.0394159057033343,0
322,384539157,0.000861690062873371,5.71120608209831e-05,-0.705880197895223,-0.708330714036776,-0.0120245425942965,0.18188057906063,-0.00290762758820365,0
323,384555824,0.000870305027511884,6.62900170795448e-05,-0.705894808123647,-0.7083161427208,-0.0292922718103143,0.17884341164536,0.0331998630670377,0
324,384572491,0.000830601672021445,3.24788447492255e-05,-0.705895182336013,-0.708315819815422,0.0120890946227345,0.186597338107595,-0.0109625278106303,0
325,384589158,0.000869988581552486,7.38391373805792e-05,-0.705889615842106,-0.708321316856928,0.00300965875264661,0.180220623838527,0.00257245565202789,0
326,384605825,0.000854579732961401,6.11455289973492e-05,-0.705893520300173,-0.708317445749385,-0.025399452385728,0.172930522022017,0.0381319627296242,0
327,384622492,0.000845151315028544,4.63644649865836e-05,-0.705893473749404,-0.708317504575167,-0.00831907034138157,0.170734547662049,-0.0148629403821543,0
328,384639159,0.000868382108557725,7.50492735634348e-05,-0.705898252033146,-0.70831271205356,-0.00762934219649753,0.176122518179556,0.0123462568429553,0
329,384655826,0.000837481997459199,6.99567689276704e-05,-0.705894841629075,-0.708316148546267,0.00247870415408109,0.183799973192034,0.00792886938666946,0
330,384672493,0.000848081484952379,9.23525647589195e-05,-0.705889958321225,-0.708320999949923,0.00598335157792772,0.195015688792305,-0.0464979607730163,0
331,384689160,0.000869411611539164,0.000122911058390927,-0.705883088435516,-0.708327815687807,-0.0144090356574776,0.174160554618581,0.0338696606189514,0
332,384705827,0.000854101503860448,0.000110206175765253,-0.705869840492915,-0.708341038376096,-0.00269901155769196,0.178076411967308,0.00148702084442024,0
333,384722494,0.000858012863453895,0.000109132642249764,-0.705857011717392,-0.708353817603453,0.00581590995611991,0.182921668580645,-0.0089815295253316,0
334,384739161,0.000848011345097061,0.000104757956368753,-0.705860986001682,-0.708349870010055,0.00641598135626358,0.183104847918676,0.000818377306387983,0
335,384755828,0.000848354868178841,0.000121297480794245,-0.705858453327797,-0.708352390725569,-0.0110608876583335,0.185973493956182,0.000968440227979268,0
336,384772495,0.00083749648945246,0.000118451054046464,-0.705866183050118,-0.708344701536784,-0.0248689822139452,0.172540149826696,0.0276742011183197,0
337,384789162,0.000803570786501244,9.44488894059163e-05,-0.7058713151493,-0.708339630264181,-0.00076631691557209,0.184012682597862,-0.00256405924925225,0
338,384805829,0.00083775422361582,0.000119945596407507,-0.705869756658048,-0.708341139858771,0.00493163761831899,0.18066746202238,-0.0160650590454577,0
339,384822496,0.000845396952136859,0.000125124749191269,-0.705877403875212,-0.708333509263949,-0.00523606367685055,0.164302827169108,0.0514754004306268,0
340,384839163,0.0008147639691421,0.0001039031636882,-0.705872675359077,-0.708338260681453,0.001088678943534,0.17736272702054,-0.00334153154652126,0
341,384855830,0.000827107882358745,0.000110245533070922,-0.705872235019246,-0.708338684223449,-0.00265031246893162,0.18679518580953,-0.0214415860610468,0
342,384872497,0.00083366396164149,0.000119819292650823,-0.705850851945688,-0.708359982957312,-0.0143973693362366,0.174419954785642,-0.00250378848336847,0
343,384889164,0.000849137405440541,0.000126941576937414,-0.705848240220758,-0.708362565801413,-0.00511391727590148,0.180590386453193,-0.00257713417014735,0
344,384905831,0.000848102141992992,0.000119280806756607,-0.705843148770096,-0.708367641715206,-0.0271276369742362,0.180966566976186,0.00546755194611298,0
345,384922498,0.000823193704144973,8.4577413699281e-05,-0.70585127265777,-0.708359581064725,0.00521826318590191,0.183551418093489,-0.0114662261463468,0
346,384939165,0.000855030187817617,0.000123062178136661,-0.70584548753976,-0.708365302297364,0.00287514469175311,0.184261023457775,-0.00821369695222911,0
347,384955832,0.000848290100432864,0.000120125817275825,-0.705843827775277,-0.708366964761372,-0.00153688115230802,0.187030029416361,0.0307579881767157,0
348,384972499,0.000824232550257447,0.000104053186687243,-0.705843148336253,-0.708367672723991,0.0111286469660821,0.172278103983185,-0.0328442501776644,0
349,384989166,0.000853090002155508,0.000131844325080895,-0.705844147329338,-0.708366638496931,-0.0116399394413033,0.168930156973958,-0.0105024519142208,0
350,385005833,0.000841175802021798,0.000122970888716914,-0.705839547497183,-0.708371237763366,-0.00338606597322562,0.171693466915819,0.020818128489378,0
351,385022500,0.000847617575389874,0.000119661154271835,-0.705845902964399,-0.70836489784152,0.0202130152577489,0.178787415072778,-0.00536750674852523,0
352,385039167,0.000851688095186509,0.00012920317362742,-0.705847819620827,-0.708362981437098,-0.0115404249327446,0.184863169693853,0.00925846255189352,0
353,385055834,0.000846468980291815,0.00012871138817808,-0.705851894328215,-0.708358927519739,-0.0160623938736522,0.176816366103919,0.00828603797912497,0
354,385072501,0.000838280224057809,0.000128336649289843,-0.705845077880885,-0.708365729582747,-0.00721800084470018,0.184896611411361,-0.00732041947157877,0
355,385089168,0.000859307077745037,0.000146803776013036,-0.705839511046966,-0.708371247782529,-0.00271147266296478,0.192789772985322,0.0313773099789246,0
356,385105835,0.000841449678849501,0.000113792098240351,-0.705837487674526,-0.708373291426992,0.00773997685517076,0.173029346696475,0.00301051972133153,0
357,385122502,0.000861977460396977,0.000133608034376054,-0.705829331119442,-0.708381390548363,-0.0187090691956265,0.181462383786751,0.000284002436454492,0
358,385139169,0.000849045751198591,0.000127432411904523,-0.705834559083078,-0.708376198136477,0.00125711399728918,0.170702532851136,0.0162780879897287,0
359,385155836,0.000832702731120462,0.000115084654838092,-0.705841391627667,-0.708369411555018,0.0301660140957348,0.191089995721126,-0.0366931353399157,0
360,385172503,0.000866648591318881,0.000165646370735784,-0.705834865572926,-0.708375863523841,-0.0262946974822973,0.181041529094997,0.0491748724927711,0
361,385189170,0.000811490919989184,0.000110953738578434,-0.705833755425768,-0.708377045699048,-0.00881189407216361,0.181659099216,0.0245725371152119,0
362,385205837,0.000843122115648968,0.000151333926921786,-0.705814719322672,-0.708395968530735,0.0184275124701125,0.199674939571218,-0.0421918938791063,0
363,385222504,0.000867461513927298,0.000174021628327993,-0.70582605298364,-0.708384641389501,-0.0337254967359107,0.169052540118244,0.0470608976445155,0
364,385239171,0.000805774109756826,0.000109958966626116,-0.705817894434627,-0.708392856071389,-0.0101192859889268,0.169299567648188,-0.00950168629823472,0
365,385255838,0.000876465928492192,0.000175897612959662,-0.705812224401203,-0.708398408209203,0.0205196931063858,0.197951685489755,-0.0180345357993436,0
366,385272505,0.000861068943680687,0.000153277278617031,-0.705802165743381,-0.708408454140902,-0.0417974348725727,0.183463126847351,0.0568822986765512,0
367,385289172,0.000844223021588722,0.000140964653574178,-0.70581497960447,-0.708395710025405,0.00798150218045844,0.146728576687234,-0.0247860311026624,0
368,385305839,0.000884615396827826,0.000190112621848374,-0.705826208698353,-0.7083844608878,-0.00804381125879355,0.183539752638562,0.0357181848254864,0
369,385322506,0.000828507133117723,0.000137149445866273,-0.705827937232799,-0.708382818670563,-0.00952812817865117,0.189088125262135,0.0294978565157268,0
370,385339173,0.00085315105519754,0.000162732372575048,-0.705821643942322,-0.708389054541366,0.0168377558867131,0.177571359735788,-0.0414931962998804,0
371,385355840,0.000884574469326679,0.000182161192403578,-0.705816791481706,-0.70839384611089,-0.019047384472957,0.188817910079776,0.0279630437831534,0
372,385372507,0.00083898069383627,0.000139688560244523,-0.70579463245685,-0.708415988945479,0.00809890826150658,0.19520120305827,0.0065081787776657,0
373,385389174,0.000883486552694957,0.000182696305116312,-0.7057929056604,-0.708417645455716,-0.00522413175416197,0.173306197774837,0.0254560987340366,0
374,385405841,0.000841418164632902,0.000159065343131609,-0.705786863644306,-0.708423721949528,-0.00320389738343101,0.182460734915851,0.0135336306770353,0
375,385422508,0.000840746930069049,0.000141285452655761,-0.705783801774247,-0.708426776975652,0.00511641708234696,0.20336569345869,-0.0388354532761751,0
376,385439175,0.000889554597401958,0.000202592336236998,-0.70578991023151,-0.708420616769699,-0.025214461136103,0.163064216473527,0.0399862318474295,0
377,385455842,0.000833235606341627,0.000141867219416441,-0.705769537686904,-0.70844099631891,-0.0111106501239842,0.18094083352246,0.0360691378769486,0
378,385472509,0.000833234432985928,0.000137742903264377,-0.705768762731464,-0.708441769166508,0.0237339522063224,0.189149171384288,-0.0420404950262313,0
379,385489176,0.000864178453976608,0.000170602986924974,-0.705776454875839,-0.708434061739774,-0.0196860997635684,0.175988372683053,0.0143957320712935,0
380,385505843,0.000844573074136462,0.00015544164921484,-0.705784951936907,-0.708425623586297,-0.0124852084840384,0.189558953405912,0.00543972757951266,0
381,385522510,0.000848610591850823,0.000158291995417349,-0.70578145284971,-0.708429104157261,-0.0087446841869677,0.186160988519211,0.0115028748155484,0
382,385539177,0.000838629564208086,0.00013253132621608,-0.705775148652432,-0.708435401910816,-0.00934346146291591,0.177862970818102,-0.00583094815395746,0
383,385555844,0.000866997849293757,0.000149338319632494,-0.705789657914671,-0.708420909342382,0.00333544572737821,0.180510365814047,-0.0115831218164997,0
384,385572511,0.000884284142086484,0.000166895700591232,-0.705796490124029,-0.708414077158255,-0.00661487291832369,0.179422244410298,0.0438473432301326,0
385,385589178,0.000845899566945771,0.000131130462904648,-0.705794646241184,-0.708415968620136,0.000964588543321344,0.180795464520219,0.0269001232456224,0
386,385605845,0.000849557193101522,0.000142352654112799,-0.705799178306754,-0.708411446752386,-0.00187332327274971,0.193236553654804,-0.0267583520490075,0
387,385622512,0.000863301455070301,0.000145215972574335,-0.705788736976115,-0.708421832230331,-0.00914683128498033,0.184958293733717,-0.0170827929281092,0
388,385639179,0.000844485680991864,0.000135366817266526,-0.705781891199372,-0.708428677126214,-0.0035515798691568,0.163796589236022,-0.0206969937312323,0
389,385655846,0.000859753902539701,0.000142759701812637,-0.705790410848598,-0.708420169388945,-0.00928949432681951,0.18472950284578,-0.00177890677946625,0
390,385672513,0.00085860785144331,0.000141311780845438,-0.705794512847908,-0.708416084273445,0.00428278209566566,0.187827213341407,0.00465114262746071,0
391,385689180,0.000859000201422391,0.000146404655625919,-0.705793563320649,-0.708417028775757,0.00778171579196022,0.175005381445965,-0.0145342101430756,0
392,385705847,0.000874720027921427,0.000157775045263451,-0.70579027801105,-0.708420280227064,-0.000843904432622064,0.173567566387582,0.0181918095731847,0
393,385722514,0.000856214255887479,0.000140517420460571,-0.705796539888017,-0.708414067783881,-0.0102508364564488,0.182242892581312,0.0251181993310296,0
394,385739181,0.000867258711910747,0.000150494176073403,-0.705792127178816,-0.708418448677215,-0.000206264779810174,0.181814590471978,-0.00465960761331555,0
395,385755848,0.000852106643588195,0.000134772426598901,-0.705793262019902,-0.708417339594371,-0.0142251807358443,0.174335271410913,-0.0161964800845274,0
396,385772515,0.00084975060788216,0.000128188489433371,-0.705797866426566,-0.708412756265247,-0.00104928995082496,0.181531276994342,-0.00539735235027667,0
397,385789182,0.000856093760345589,0.000128416023047039,-0.705792789916078,-0.708417806322849,0.0130841288772529,0.176953073449582,-0.00137264846734134,0
398,385805849,0.00084217705898776,0.000123788510677799,-0.70580126745813,-0.708409377597941,-0.00689980028323802,0.182898465881033,0.00405308607920175,0
399,385822516,0.000855880979610376,0.000136500972327096,-0.705801739837757,-0.708408888197508,0.00661199381693356,0.174259439959879,-0.00862944281110445,0
400,385839183,0.000861680355863187,0.000131722027319951,-0.705802181879518,-0.708408441656636,-0.00602194455777995,0.192808767888135,0.0143503921781275,0
401,385855850,0.000852361717495788,0.000122562176806302,-0.705810861150085,-0.708399807129131,-0.00418208681410032,0.179276230109018,-0.00856938924201334,0
402,385872517,0.000865754576702689,0.00013947857660034,-0.705805184784282,-0.708405443334793,-0.0089440652227026,0.174260738647065,0.0180876256410213,0
403,385889184,0.000852326505449803,0.000125542358798539,-0.70579451711755,-0.708416090574917,-0.00270481084920795,0.19263821606973,0.0130900852185786,0
404,385905851,0.000851079184376995,0.000120418731694659,-0.705786842779433,-0.708423738819494,0.0258528746147904,0.169852260749014,-0.0230679239644288,0
405,385922518,0.000858013342409298,0.000118327674806888,-0.705799859618607,-0.708410762181109,-0.0134637301212455,0.168029936459119,-0.014520661885028,0
406,385939185,0.000841144659560135,0.000102731281556117,-0.705801982074997,-0.70840867020453,0.000192260672477098,0.182472760438014,0.00619065357654432,0
407,385955852,0.000862623714912548,0.000121156389782559,-0.705806886849541,-0.708403754702934,-0.0201874539164161,0.190707867165652,0.00926467589235692,0
408,385972519,0.000856255081574398,0.000114052456658877,-0.705806428748081,-0.708404220030593,-0.015025048033277,0.174707941449,0.0148586059971413,0
409,385989186,0.000857697770490096,0.000108909073096582,-0.705802294482479,-0.70840833817553,-0.0050225920423898,0.177732992303559,-0.0061769376829139,0
410,386005853,0.00086178265441656,0.0001255940054035,-0.705808999677014,-0.708401649865198,0.00400524483537404,0.1728072755391,0.00946408859765118,0
411,386022520,0.000853825782685564,0.000118129113531061,-0.705809026634601,-0.70840163392539,-0.00875681407932022,0.17587574866575,-0.00725996463431322,0
412,386039187,0.000855498921166142,0.000124939690508711,-0.705814188367367,-0.708396487859013,-0.0020995367776181,0.177613581955855,-0.00851575586204252,0
413,386055854,0.000863138630541253,0.000132886456570721,-0.705828807928975,-0.708381910575401,-0.00208531668936166,0.17516628384388,0.00294238688148479,0
414,386072521,0.000858620119223031,0.000136038834768227,-0.705829622706272,-0.708381103626606,-0.00906790661483991,0.184545907614806,-0.00854621306431226,0
415,386089188,0.000860564557759679,0.00013311700421459,-0.705830013044114,-0.708380712890075,-0.019826885672088,0.170499944178205,-0.00475530463867023,0
416,386105855,0.000861522369602301,0.000127102734346273,-0.705826310812329,-0.708384401712206,-0.000580125060391142,0.187047904701174,-0.00775577379984813,0
417,386122522,0.000870039393594544,0.00014415031234854,-0.705819862590366,-0.708390812916894,-0.000399854476738212,0.172686823807271,2.1074830921399e-05,0
418,386139189,0.000859376501682,0.000139992274942967,-0.705820892010377,-0.708389801081203,-0.0135290336406019,0.166851135460065,0.0105865374103732,0
419,386155856,0.00086182877367967,0.000127392440162747,-0.705822495456246,-0.708388202845198,0.00641525577673849,0.191004858305012,-0.0282066075153228,0
420,386172523,0.000885233221651463,0.000148875409903302,-0.705840220235118,-0.708370508771149,-0.00652679026971977,0.154792828110513,-0.00171809579132703,0
421,386189190,0.000879891339483124,0.000154097262128821,-0.705838176709463,-0.708372550530246,-0.00689512575360714,0.181907978560471,0.0130246075525754,0
422,386205857,0.00086799675703282,0.000138415985115098,-0.705845616019771,-0.708365155670657,0.000678425115024226,0.192617435139743,-0.00907677646341977,0
423,386222524,0.000868094663119531,0.000137820572486477,-0.70584924100176,-0.708361543559773,0.00895108548220692,0.172357152486329,-0.0201993169817061,0
424,386239191,0.000865458773682652,0.00014862275984441,-0.705865791131679,-0.708345052783201,0.00710474399673802,0.190078583967944,-0.0200828155917166,0
425,386255858,0.000866217709390253,0.000151571888334116,-0.705863744723431,-0.708347090470383,0.000563128463807949,0.185787842196677,-0.00572791311237238,0
426,386272525,0.000870927888457415,0.000155645488920555,-0.705886346196273,-0.708324560856653,-0.0078971261649971,0.169157565694807,-0.0116288386888702,0
427,386289192,0.00086507473236559,0.000153554688901231,-0.70589374573719,-0.708317194338655,-0.00672622958553997,0.170020086795582,0.0338692688922125,0
428,386305859,0.000849876951977379,0.000153929141518352,-0.705899611488337,-0.70831136692531,-0.00138794820697469,0.185260082867397,0.00266455902393052,0
429,386322526,0.000857738559678574,0.000164840093501505,-0.70589233721397,-0.70831860442523,-0.00663531066310451,0.171138606024948,-0.00864049471152468,0
430,386339193,0.000861243725193009,0.000176928774694605,-0.705889989105102,-0.708320937313485,-0.0142476828016341,0.173771502045474,0.0274325622738726,0
431,386355860,0.000845919641997178,0.000158626802525467,-0.705894405812808,-0.708316558538398,0.000458256700064889,0.187578722106664,0.00397673014090317,0
432,386372527,0.000842709358280317,0.000150824214065121,-0.705897582400594,-0.708313398330139,-0.0026763962411095,0.183051535943199,0.00305127830442602,0
433,386389194,0.000853906397262258,0.000169091416277951,-0.705896248066897,-0.708314710575063,-0.00498538183475563,0.185082971666577,0.00578417818790037,0
434,386405861,0.000837172749271928,0.000150812335086942,-0.705891795574998,-0.708319171939694,-0.000374616280253594,0.185944542924602,0.0109432194643567,0
435,386422528,0.000843012181349394,0.00016316131208027,-0.705901378465337,-0.708309612097411,0.0124980410834642,0.181267694933717,-0.027776598440391,0
436,386439195,0.000860524955513074,0.000180040962924538,-0.705893572976943,-0.70831736581274,-0.00754002842451341,0.171861454609316,-0.0148117307064193,0
437,386455862,0.000854448061586958,0.000179913374084208,-0.705905858457954,-0.708305129548295,-0.016591921721967,0.180291957432214,0.00696802496364568,0
438,386472529,0.000869138147941204,0.000177068261581768,-0.705911700849695,-0.708299289742127,-0.00954822372290156,0.165470760343857,0.000835583393184165,0
439,386489196,0.000873470496212298,0.000174802759944315,-0.705912247677006,-0.708298739991033,-0.016613756044179,0.184014575888158,0.00833172314571495,0
440,386505863,0.000859219615268782,0.000157747500542281,-0.705923665699797,-0.708287381690751,-0.00813902049427454,0.185379504225712,-0.0077363930640597,0
441,386522530,0.000867136204087684,0.000171693971654165,-0.705926735559649,-0.708284309171169,-0.00412247262026704,0.176656093401421,-0.00215682377857775,0
442,386539197,0.000870383313836452,0.000168324029635824,-0.705930946585949,-0.708280108962672,-0.00577884539099281,0.179745712359589,0.0134384679144159,0
443,386555864,0.000860325859618556,0.000156690288821788,-0.705927772537752,-0.708283287426335,-0.0229368202766985,0.168540342510055,0.0156013333456603,0
444,386572531,0.000869269979505685,0.00016980216426065,-0.705928599852102,-0.708282448919764,-0.00400020592299304,0.175902394650678,-0.00225430729869648,0
445,386589198,0.000863261491249787,0.000158982987730094,-0.705929222727356,-0.70828183797381,-0.00585846283774092,0.180957405222154,0.00776729971351372,0
446,386605865,0.000861230770826209,0.000164929492464041,-0.705926127358517,-0.708284924160066,-0.0159956602683715,0.196291810722353,0.00695845263020226,0
447,386622532,0.000867945613253033,0.000163261002435597,-0.705936582622349,-0.708274495751285,-0.00825684427078507,0.196403892475807,0.00503973121461563,0
448,386639199,0.00087299555707599,0.000165539997105424,-0.705939135815941,-0.708271944240847,-0.0123275656461012,0.174039595002269,0.0206328938945702,0
449,386655866,0.000873786833826754,0.000167985828873753,-0.705933360321822,-0.708277699113893,-0.00752896833613102,0.173443902818012,0.00940288457256736,0
450,386672533,0.000870106027338561,0.000155985304372386,-0.705939321753565,-0.708271764639959,-0.00731201880601457,0.169641404981496,-0.00534240378612681,0
451,386689200,0.000863655503709356,0.000156825571034373,-0.705941885489752,-0.708269217046799,0.00137912619003445,0.187512727982623,-0.00375505849515009,0
452,386705867,0.000867414374043978,0.000166376441926059,-0.705946879739199,-0.708264232400361,-0.0103204171650188,0.189803018747411,0.0011140923652012,0
453,386722534,0.000872355363493214,0.000162141887144625,-0.705945895146817,-0.708265208683504,0.00408459744114864,0.178416007456546,-0.00338528898470452,0
454,386739201,0.000868058212780264,0.000155254275148593,-0.705939685447122,-0.708271404817297,-0.00704345948266637,0.150294368179546,0.012035396855704,0
455,386755868,0.000869448490808553,0.000157264383430264,-0.705938433816164,-0.708272650176764,-0.0119961136228793,0.181070222665277,0.0110688297389774,0
456,386772535,0.00086433668071895,0.000165589884007928,-0.70593426444594,-0.708276810140825,0.00190956957618685,0.187278921506058,-0.0115869617256627,0
457,386789202,0.00087486954043209,0.000169728824631857,-0.705942872010997,-0.70826821702818,0.00957140023307545,0.171775528665822,-0.0032657152126365,0
458,386805869,0.000875832341959136,0.000181035016014408,-0.705940475816445,-0.708270601358042,-0.00283978636162268,0.172550123162555,0.0132934293852548,0
459,386822536,0.000875853230059824,0.000175018983004777,-0.705930553731306,-0.708280492148475,-0.0142041688563258,0.184008810601776,-0.00248845031815283,0
460,386839203,0.000877414225364892,0.000174723690970546,-0.705942825164098,-0.708268259358868,-0.00732601217721518,0.186790584841637,-0.0191373373823914,0
461,386855870,0.00090239233698626,0.000186326570545278,-0.705948986536175,-0.708262083821397,-0.00756666697095034,0.184128185037158,0.0131516707709087,0
462,386872537,0.000891065309765435,0.000172201739508671,-0.705948497921118,-0.708262588756523,0.0158017728197409,0.171547361457366,0.0131533928032236,0
463,386889204,0.00087769179946392,0.000156665603218643,-0.705945587553974,-0.708265509908585,0.0266634028778118,0.176108896334171,-0.00118309223809355,0
464,386905871,0.000898077119841992,0.000173669669811044,-0.70594830286678,-0.708262773958822,0.00836645022845164,0.195665747822742,0.0074377440521314,0
465,386922538,0.000914479412770163,0.000175010071027128,-0.705945261990451,-0.708265783567237,-0.00143525216878074,0.176548414447353,0.0265711999003286,0
466,386939205,0.000917999591839859,0.000174995877113049,-0.705918758030398,-0.708292195152547,-0.0219139712147733,0.162252774235541,0.0128530879711539,0
467,386955872,0.00089099100835635,0.000148981957433961,-0.705929721195171,-0.708281308995731,-0.0223421327134302,0.194193949044071,-0.00410616634889274,0
468,386972539,0.000908733930957274,0.00016349501317925,-0.705931489452069,-0.708279520861649,-0.00487968927831091,0.184308506597853,-0.0260899683134215,0
469,386989206,0.000936928287327924,0.00017522145149126,-0.705942784223514,-0.708268223814665,-0.0115946221934055,0.162956012891754,0.013257222936626,0
470,387005873,0.000904840925720876,0.000148452166272631,-0.70594979621333,-0.708261282614836,0.0155518073905627,0.184149587004172,-0.00141665704207989,0
471,387022540,0.000921233484028097,0.000167378226774141,-0.705965731938925,-0.708245373187383,-0.00558596777342123,0.187016682490594,-0.0233133593401023,0
472,387039207,0.00091927954523851,0.000164153126015317,-0.705968231175981,-0.708242885279567,-0.0160636789339521,0.183530094745335,0.0232347508651288,0
473,387055874,0.000910315237699467,0.000162128531289883,-0.705970472943665,-0.70824066274975,0.0050222359549456,0.185038814757856,-0.0145071483530191,0
474,387072541,0.000917830763479484,0.000164140638984152,-0.705971842280134,-0.708239287636696,-0.000986165017114431,0.187399746957966,0.00774946497907752,0
475,387089208,0.000899014823093341,0.0001505888296452,-0.705979568913076,-0.70823161280238,0.00265794113566568,0.176375275113936,-0.0255707711229554,0
476,387105875,0.000913392929798099,0.000178257524224432,-0.705987727287581,-0.708223455455217,0.00427291765821241,0.173014405826199,0.00838908941051015,0
477,387122542,0.000903130494586821,0.000161537235817059,-0.705979511793679,-0.70823166209129,-0.0124750227898309,0.187054851894677,0.0408424118285656,0
478,387139209,0.000885819389120822,0.000154572297721531,-0.705982363161672,-0.70822884319694,0.00653078578887407,0.177725453820496,-0.00842586961876567,0
479,387155876,0.000905189987499832,0.000173940431247,-0.705970606068803,-0.708240533817898,-0.00316625210224247,0.186368842326488,0.0135904921870459,0
480,387172543,0.000897455044120522,0.000162515175150319,-0.705974850183109,-0.708236315838293,-0.0183134377824741,0.189187298484521,0.0222095216349339,0
481,387189210,0.00089336641840882,0.000178092986709989,-0.705973465849573,-0.708237697172124,-0.0110510007710912,0.179651305891472,-0.0050559538400284,0
482,387205877,0.000894588448976876,0.000196854484040061,-0.705959334677919,-0.708251776376826,0.0055278118727357,0.181342478536613,0.00510945420880901,0
483,387222544,0.000881092988275932,0.000190067669730512,-0.705951825462779,-0.708259279978171,0.00474003860565237,0.183981352113826,-0.0129478597642027,0
484,387239211,0.000889539200044527,0.000199712321598716,-0.705942870331216,-0.708268192610345,-0.0134776584010801,0.180838870275308,-0.0172053437537498,0
485,387255878,0.000895237947577412,0.000197766229739466,-0.705950616997552,-0.708260464658525,0.00594148657216101,0.190266589214764,0.0080595429133761,0
486,387272545,0.000879716120943245,0.000185195857713856,-0.705954842699225,-0.708256275561011,0.0123419057982643,0.187929486771776,-0.00268528617566535,0
487,387289212,0.000907122524174287,0.000215601976484484,-0.70596307211545,-0.708248029615212,0.0184432207895352,0.161030363346145,-0.0109855177418278,0
488,387305879,0.000900167352217959,0.000220092352046286,-0.70596269518893,-0.708248412818325,-0.0223904480779567,0.204484525049436,0.035536925796205,0
489,387322546,0.000868710057096344,0.000183255990992104,-0.70595991101048,-0.708251237772412,0.000316298493805872,0.178722683729584,-0.0110477621686099,0
490,387339213,0.000906167226770417,0.000222817501435271,-0.705956124813183,-0.708254953425722,-0.00540898750792698,0.166840215132528,-0.010608894080448,0
491,387355880,0.000890112685226347,0.000207551682037966,-0.705973527799082,-0.708237631497103,-0.0215387947571626,0.20037001014953,0.0257613974945162,0
492,387372547,0.000869785350020582,0.000183204826078566,-0.705970505434001,-0.708240676159382,0.0284363707011457,0.176845864345056,-0.0231090071840306,0
493,387389214,0.000911773326117246,0.000228970033764463,-0.7059719540885,-0.708239166018507,0.00493792366967595,0.173564303795704,0.0147782402132045,0
494,387405881,0.000881808909074085,0.000205146608737154,-0.7059827812787,-0.708228418566996,-0.000122625179533054,0.187502278238987,0.0339421947710562,0
495,387422548,0.000880152883258532,0.000197190384757032,-0.705991327981405,-0.708219903181142,0.0201878399854499,0.185139350373901,-0.0359337897389989,0
496,387439215,0.000901951519184167,0.00021308853725391,-0.70599098737958,-0.70822021067994,-0.0302105999735574,0.196009755756927,0.0308154463583456,0
497,387455882,0.000883736059223164,0.000185385128742791,-0.705993950412562,-0.708217287718816,-0.00327635985626585,0.188051016337224,-0.0138205207140047,0
498,387472549,0.000909680187944483,0.000198636834206535,-0.705994873653784,-0.708216330932817,0.00717481348984987,0.168886938724223,-0.0168243567396431,0
499,387489216,0.000907019944469144,0.000194389916313616,-0.705993136529356,-0.708218067194577,-0.000167453221988183,0.175650654532291,0.00806113235078381,0
500,387505883,0.000899273425319265,0.000187415696707617,-0.705993594402694,-0.708217622517985,0.0258940260669953,0.191655300043747,-0.0103730565804248,0
501,387522550,0.00091586861027155,0.000203634617219879,-0.706001190256586,-0.708210024691768,-0.00528514187851311,0.169863932120795,0.0285799904887412,0
502,387539217,0.000909409649738874,0.000177645050726627,-0.705991558933285,-0.708219641164571,0.0110212845306275,0.167821475966656,0.00674062923019047,0
503,387555884,0.00091783217972086,0.000186199433090513,-0.705998844601711,-0.708212365279589,0.00213770063238366,0.180140233535433,0.000373228469463589,0
504,387572551,0.000925881080205458,0.000189097611700655,-0.705996583285094,-0.708214608276398,0.00648755054157032,0.184944654840404,0.0182806814214461,0
505,387589218,0.000906028686877246,0.000173842147335382,-0.705996778324937,-0.708214443432028,-0.000688072616151204,0.185191214354129,0.00731230610027889,0
506,387605885,0.000923669216092385,0.000205710902026176,-0.705987690035393,-0.708223471819943,0.00503200310750899,0.171892294951262,-0.00506887992521819,0
507,387622552,0.000904097382709897,0.00017338389613912,-0.705998683038794,-0.708212547257838,0.01085987124011,0.177344291854072,-0.00887844120367672,0
508,387639219,0.000911239759385257,0.000187248994331249,-0.705983997042702,-0.708227174358288,0.0256891405510888,0.181011463252951,-0.0237321252521696,0
509,387655886,0.000928779799066213,0.000210725561858513,-0.70596676001042,-0.708244326996843,0.0104791528997788,0.173729630609955,0.005616089411662,0
510,387672553,0.000900930346253034,0.000172184004695213,-0.705976289509957,-0.708234874407447,0.0176788096025308,0.191285864571733,-0.0263820115488647,0
511,387689220,0.000940985517256,0.000193942487705778,-0.705961113370139,-0.70824994411702,0.00196907784288324,0.187142004152607,-0.011590111735259,0
512,387705887,0.000937508592348799,0.000189334606822258,-0.705962780139848,-0.708248288587598,-0.00906498482664683,0.169221271403809,-0.00352501619018693,0
513,387722554,0.000933306196310894,0.000175891402675971,-0.705953276377361,-0.708257770570735,-0.0105390184798929,0.173794335578902,-0.00603342219198907,0
514,387739221,0.000940247513406425,0.000184263961528617,-0.705946133798471,-0.708264878528081,0.00211650491677493,0.18847152740006,-0.00514913291882609,0
515,387755888,0.000924942375576699,0.00017312280731754,-0.705937852273672,-0.70827315580737,0.011437330079391,0.164322762536943,-0.0065518868709201,0
516,387772555,0.0009504921366629,0.00019285655449321,-0.705938429406753,-0.708272541651711,0.0015387746173286,0.174854622550854,0.0190404721318502,0
517,387789222,0.000935368045464795,0.000181818083454354,-0.705931451889627,-0.708279519160202,-0.00517868661990845,0.175204271987659,0.0175636681100807,0
518,387805889,0.000932066240840303,0.000186686625059735,-0.705938207389136,-0.70827278907836,0.0143396272784487,0.183695585097278,-0.0237789277005547,0
519,387822556,0.00095051835685161,0.000207499363469759,-0.705932017884074,-0.708278927813745,0.00114121346865932,0.178137442745657,-0.00938962441035167,0
520,387839223,0.000937061768479531,0.000190714392209417,-0.705930122900059,-0.70828083916309,0.0039978294016999,0.1713144699514,-0.00802083805604813,0
521,387855890,0.000950442936782615,0.00020300600009837,-0.7059168655222,-0.708294031047912,-0.00377149456175108,0.171667100303918,-0.00452116250671833,0
522,387872557,0.000945646204887965,0.000197590141085034,-0.705927438461425,-0.708283501388168,-0.00392664967687226,0.180271731156644,-0.00897793226368642,0
523,387889224,0.000936688634993742,0.000190015656325742,-0.705932737836102,-0.70827823357751,0.0149274868605604,0.202400116024813,-0.0107019849037136,0
524,387905891,0.000963198181677268,0.00020643861508901,-0.705930442678589,-0.708280480976267,-0.00228258876117758,0.172223916648476,0.00314773125553579,0
525,387922558,0.000943500581288608,0.000197269563770725,-0.705938934091205,-0.708272046762785,-0.0108146257257409,0.182674034094977,0.00854505112166391,0
526,387939225,0.000932688413198344,0.000194817323559492,-0.705939723072866,-0.708271275378537,0.0118078513719997,0.166413438117416,-0.00880757996489257,0
527,387955892,0.000942853052634846,0.000200595140570451,-0.705940293572088,-0.708270691685788,-0.0172478791732024,0.180693115043417,0.0173239053025899,0
528,387972559,0.000922502899236983,0.000175678235661903,-0.705942439572837,-0.708268586156064,-0.00150032507166299,0.192314691014431,-0.0106590941552048,0
529,387989226,0.000929445366646173,0.000190894986473539,-0.705939785250653,-0.708271218736634,-0.00305441405209958,0.187116228972518,0.0223678345654683,0
530,388005893,0.000921327211163889,0.000178033200153487,-0.705936428872631,-0.708274578006938,-0.0146609902524893,0.174739908960001,0.00848187099323903,0
531,388022560,0.000909267548470963,0.000169936938288965,-0.705943898207892,-0.708267150824466,0.0131820495112107,0.186857346853744,-0.0227755387208208,0
532,388039227,0.00093057589278298,0.000193271662733154,-0.705943840182499,-0.708267175000337,0.0135934254440738,0.183308281327655,0.00116715895398724,0
533,388055894,0.000922912721850293,0.00017671780824835,-0.705950887102468,-0.708260165477463,-0.00647826011907418,0.175635342258242,0.00571362371309405,0
534,388072561,0.000919776085464884,0.0001811250933318,-0.705958683344106,-0.70825239753686,0.00450232023903739,0.194327558808869,-0.0157167925768336,0
535,388089228,0.00092643621003813,0.000177536503775964,-0.705963296436915,-0.708247791581917,-0.00111412498972113,0.193349051428018,0.0203588806702301,0
536,388105895,0.000923766406894702,0.000173264145804606,-0.705965733888222,-0.708245366529726,0.00940266165619224,0.176320128961297,-0.0267299349195283,0
537,388122562,0.000939189870714782,0.000187570742838731,-0.705965771744089,-0.708245304866454,-0.010161715803869,0.16837392464434,-0.00296929082720672,0
538,388139229,0.000927425492731108,0.000180638564757842,-0.705961840766881,-0.708249240474496,-0.000179682078631649,0.1723812936336,-0.00136965247286283,0
539,388155896,0.000915108396697272,0.000185714927296207,-0.705955914142009,-0.708255162617617,-0.00781338587909432,0.184965461645725,-0.013377989838275,0
540,388172563,0.000925405030569935,0.000198615352176656,-0.705949081780251,-0.708261955854677,-0.00371444446595787,0.19114923191876,-0.00371645152409462,0
541,388189230,0.000919378482520599,0.000192115492748889,-0.705943140525323,-0.708267887299775,-0.00100618238409268,0.181084793219584,-0.00660399596502263,0
542,388205897,0.000923069626161985,0.000196099012609666,-0.705933999920247,-0.708276991892469,-0.0172748084756838,0.170088857153827,-0.00166259063888203,0
543,388222564,0.000923100788729683,0.000195191351720824,-0.70593695434737,-0.708274047436463,-0.0149589231805081,0.175270756440029,0.0116608823060912,0
544,388239231,0.000906570961532789,0.000181090468061253,-0.705940243067594,-0.708270794649194,0.00879609419157961,0.170120562773908,-0.0023890113121427,0
545,388255898,0.000925009370238675,0.00019965484974733,-0.705934059448921,-0.708276929036639,0.00544675579458635,0.189460241975396,-0.00815806476863947,0
546,388272565,0.000919843958286388,0.00019111285748681,-0.705931373182349,-0.708279615490839,0.0103454043324185,0.182113952775769,-0.00124390995542386,0
547,388289232,0.000907960865037474,0.000176207916620297,-0.705925754168131,-0.708285235028935,0.00371760977501287,0.169974984061001,-0.0121251141260306,0
548,388305899,0.000920093066299917,0.000199612499855496,-0.705923234816215,-0.708287724113732,0.000730926217983335,0.184689591685842,-0.00692555602777114,0
549,388322566,0.000905646061905852,0.000184194722286721,-0.705921340536617,-0.708289634861686,-0.0124046986898336,0.181400652384,-0.00913517054760915,0
550,388339233,0.000917065978112817,0.00019457524588434,-0.705927150458928,-0.708283826848675,0.0023604807957577,0.1762926747477,-0.00374145978080662,0
551,388355900,0.000928225583520054,0.000206731072141192,-0.705918981283256,-0.708291950768565,-0.0111599083811501,0.175607860505693,0.0280712027048178,0
552,388372567,0.000925392180263535,0.000176271562028102,-0.705924161228481,-0.708286800082788,-0.0123391185846954,0.175356869169856,-0.00362557368294574,0
553,388389234,0.000934846089839908,0.000188898574776129,-0.705921687798244,-0.708289249583951,-0.00181053861032049,0.180892461599104,0.000375022535455252,0
554,388405901,0.000935583731148454,0.000192075103845521,-0.705916574538364,-0.708294343886959,-0.0128293371468327,0.180159060967335,0.0359760594178183,0
555,388422568,0.000925151680530333,0.000199050570530211,-0.705914673450194,-0.708296250364876,-0.00138203040574138,0.171433980626137,-0.00120134770330501,0
556,388439235,0.000933241803854245,0.000206252129419285,-0.705920762119044,-0.708290169442626,-0.0126762398565093,0.182737278923317,0.018322637200509,0
557,388455902,0.000924838782489675,0.000193719482012792,-0.705929453723346,-0.708281521368338,0.00423698763208723,0.171494296689772,-0.0143488888943423,0
558,388472569,0.000941582566981854,0.00021030631158225,-0.705922210894482,-0.708288713279671,0.00335211300749199,0.17969421482262,-0.0143304533082622,0
559,388489236,0.000945328610682671,0.000214990007158039,-0.705924784944243,-0.708286141424875,-0.00524165103755864,0.176940910064179,0.00610150040275455,0
560,388505903,0.000928584201646812,0.000201625929186738,-0.705924937151755,-0.708286015805519,0.00888578302993227,0.173046943237613,-0.00631624835510816,0
561,388522570,0.000931837514878885,0.000211287276144493,-0.705927281087606,-0.708283672586622,-0.00504380632378264,0.184970703120469,-0.00685369750326985,0
562,388539237,0.000925582383496873,0.000214437606075015,-0.705918029217355,-0.708292900811274,-0.0271615727629063,0.17984959968273,0.0117242684994974,0
563,388555904,0.000918350473288731,0.000223550490459701,-0.7059081791427,-0.708302724318511,-0.00991845910489076,0.176835777334185,0.016827894723374,0
564,388572571,0.000925352672613388,0.000226232757279422,-0.705890832140528,-0.708320002287895,0.00663820653334954,0.180160528856898,0.00495670877550737,0
565,388589238,0.000910053747538862,0.000216813553295978,-0.705883793529154,-0.708327039457728,0.00629826574358369,0.169989954582192,-0.0200799740903107,0
566,388605905,0.000913985988836234,0.000235032938360338,-0.70588584972203,-0.708324979477174,0.0093472769008142,0.166788777327468,-0.0234881478228638,0
567,388622572,0.000917153717791139,0.000228461912592096,-0.705890350251235,-0.708320492472441,-0.0041625743820986,0.186392296156298,0.0112708053175992,0
568,388639239,0.000905341220168849,0.000206072153302976,-0.705886361581693,-0.708324489499341,-0.0066896250332282,0.167456249868826,-0.0173114863511099,0
569,388655906,0.000937125956835973,0.000248350249501935,-0.705878616944549,-0.708332152494538,0.00790204725277111,0.17803090094067,-0.00931353387392644,0
570,388672573,0.00091560523834127,0.000228157139155611,-0.705879290034456,-0.70833151667268,-0.0123087750526877,0.18245027996801,0.0290567758682789,0
571,388689240,0.000902872485204607,0.000221815784171694,-0.705886039365489,-0.708324809002153,0.00309010985120834,0.161186595317068,-0.00938175279536522,0
572,388705907,0.000930377178567572,0.000246717343397437,-0.70588877666088,-0.708322037291699,-0.0179442097681759,0.179827355541166,0.0179960854269233,0
573,388722574,0.000909565412202257,0.000220882862854172,-0.705899149604352,-0.708311735388716,-0.00911734090659596,0.176569671707376,0.0152817029308279,0
574,388739241,0.000906016923441997,0.000229515135948792,-0.705894528066831,-0.708316342958033,0.0174652975387452,0.175040239212741,-0.01959521771893,0
575,388755908,0.000910467008557826,0.000244245288059873,-0.705888635468351,-0.708322204727972,0.0163332034570146,0.181291605218718,-0.0146531204087969,0
576,388772575,0.00090161460410594,0.000236909293533614,-0.705883276633039,-0.708327558926586,-0.0073162557802883,0.180013215768537,-0.0125200265056679,0
577,388789242,0.000922326479589408,0.000249473629885597,-0.705886957009177,-0.708323860251155,0.00110621374861537,0.172750451952935,0.0140478406244784,0
578,388805909,0.000909715354795285,0.000241676332825679,-0.70588601585236,-0.708324817181076,-0.0111968176685946,0.180101832451168,0.0195758996187749,0
579,388822576,0.000907447911178254,0.000228902569288699,-0.705884759246632,-0.708326076609655,-0.00370037834068311,0.197270562434116,-0.0129440973847406,0
580,388839243,0.000922271424364409,0.000248256287847664,-0.70588482139263,-0.708325989013343,-0.00904503270730813,0.182006112652115,-0.00262794940816919,0
581,388855910,0.000909682913155971,0.00024006648981899,-0.705880203498881,-0.708330610063871,-0.0115570963385365,0.193677740355709,0.014870234234507,0
582,388872577,0.000925562443412034,0.000245729288723387,-0.705876433770826,-0.708334344217659,0.0101555690557744,0.183323564999787,-0.0229697741690708,0
583,388889244,0.000927096695819342,0.000241632920467296,-0.705886668919979,-0.708324143839743,-0.000781425017370617,0.173621392826671,0.00478112839452048,0
584,388905911,0.000927138559974543,0.000225223365031534,-0.705879387383111,-0.708331405597811,-0.00239744341302791,0.178693239551092,0.0182264464648769,0
585,388922578,0.000938934212879659,0.00022833224182271,-0.705884328909921,-0.708326464609591,-0.0114027846224562,0.188209418878129,0.00477637806309003,0
586,388939245,0.000924432338257848,0.000219623604583336,-0.705885572731532,-0.708325246902721,-0.0110880875441023,0.173630842652664,0.0183969210022474,0
587,388955912,0.000930661726112954,0.000210959762287861,-0.705882074722965,-0.708328727321949,0.0182527910742005,0.181566241866163,-0.0318031190042899,0
588,388972579,0.000944818202153006,0.000223816057382886,-0.705886917776111,-0.708323878277077,-0.0136400456918944,0.171245366928465,0.000175964783397768,0
589,388989246,0.0009330904321896,0.000198929774257456,-0.70588501323634,-0.70832579923191,-0.00992043898211834,0.185728960777672,0.0010087698546258,0
590,389005913,0.00093533661172415,0.000200854954706844,-0.705877187530296,-0.708333594379815,0.000650885685481447,0.18623623086901,-0.00851938158981469,0
591,389022580,0.000931739383589219,0.000197812759879521,-0.705875130646111,-0.708335649722057,-0.00284144139375772,0.182590908115602,0.0242432033632224,0
592,389039247,0.000950987077327801,0.000201698243561351,-0.705877072269204,-0.708333688162616,0.00601027757857017,0.175836494249134,-0.00150960305130675,0
593,389055914,0.000968439441601733,0.000211639456170085,-0.705866901381145,-0.708343797084699,0.0122439435856794,0.172405158375528,-0.00538768238744393,0
594,389072581,0.000970643991223869,0.00020200974430343,-0.705865853937911,-0.708344840658001,-0.0143842899501522,0.164978763846946,-0.00961939657370531,0
595,389089248,0.000972819402855711,0.000211143275794971,-0.705861487657077,-0.708349185983484,-0.00736750801206776,0.183110554462841,-0.0322696164549413,0
596,389105915,0.000963704229662795,0.00021348182506331,-0.705848335573879,-0.708362303392306,0.00521281991501105,0.171513093242672,-0.00801452416099167,0
597,389122582,0.000966659087891663,0.000214391105295307,-0.705843054440789,-0.708367561442758,-0.0111531998154205,0.188695074774981,0.00751189912314549,0
598,389139249,0.000963181529284119,0.000220794427969442,-0.705839912320412,-0.708370695121329,-0.00457472547453827,0.177851272674233,0.0195119242364065,0
599,389155916,0.000811310752241711,0.000128098965037738,-0.705887428307905,-0.708323558779723,-0.00510266190753086,0.183440763019805,-0.00104493123666141,0
600,389172583,0.000822754550711064,0.000132572348742763,-0.705875805825755,-0.70833512707571,-0.00148046030304101,0.186152594720977,0.00100764247573176,0
601,389189250,0.000819030668918472,0.00012695985415635,-0.705879314288361,-0.708331636120929,-0.0078940734462164,0.182107957476197,-4.06145596418556e-05,0
602,389205917,0.000816223438112928,0.000122047370326425,-0.705877085741015,-0.708333861049654,0.0134463675579463,0.184664776089152,-0.00898163306887723,0
603,389222584,0.00083032747584572,0.000126712594794467,-0.70586353699091,-0.708347345337642,0.0118260479738658,0.188701482185786,0.00313378218528744,0
604,389239251,0.000821259643517524,0.000125845261898423,-0.70586575525688,-0.708345145569025,-0.013265896785917,0.175440384054789,-9.42947582058945e-06,0
605,389255918,0.000832885463374834,0.000139407140158009,-0.705862757535383,-0.708348116671456,-0.00334496975172264,0.167801738737305,-0.00989827417712665,0
606,389272585,0.000838456171182515,0.000135827280217777,-0.705864097439197,-0.708346775589856,-0.00151170860611269,0.185149040203676,0.0211748306594609,0
607,389289252,0.000836744030712561,0.000133518822786357,-0.705869822833291,-0.708341072679998,0.00256761703403988,0.197888965070907,0.00786600284392762,0
608,389305919,0.000841525647470713,0.000142397581207309,-0.705870698237035,-0.708340192935482,0.00391775434909607,0.180832394071083,-0.0112602576436803,0
609,389322586,0.000842605260888996,0.000144076532649893,-0.705878800452011,-0.708332117252039,-0.000980693784766575,0.173289710415484,0.00589740497093369,0
610,389339253,0.000842044985476715,0.000144064741553017,-0.705860989484134,-0.708349866753762,0.00570032445629265,0.186103351190607,-0.0194712087067352,0
611,389355920,0.000844172168436358,0.0001465281508265,-0.705856206840255,-0.708354629523898,-0.000624032356407482,0.174020602208074,0.00804055474895043,0
612,389372587,0.000840774303873879,0.000161519821982315,-0.705848901127596,-0.708361910175076,-0.000848975338868713,0.177929201760698,0.00832167413392309,0
613,389389254,0.000843489303174661,0.00015863069513673,-0.705852632518859,-0.708358189426998,-0.000265244960968469,0.172395486407811,0.0143658118150793,0
614,389405921,0.000837506675819004,0.000158923183532604,-0.705859962244051,-0.7083508925856,-0.00213882619068832,0.161323645460738,-0.0207969282550902,0
615,389422588,0.000845301068556928,0.000161202371224051,-0.705858959728909,-0.708351881800508,-0.00634343364722606,0.165956362766496,-0.000415488446675552,0
616,389439255,0.000844074312752828,0.000160224975701469,-0.705861291027628,-0.708349560383376,0.00885306031203938,0.182357165145129,-0.00532851541664561,0
617,389455922,0.000836376689599413,0.000162696168234218,-0.705858698870629,-0.708352151992674,-0.00311037651233175,0.188001956334068,0.00289039145260884,0
618,389472589,0.000836764940996163,0.000152363479341549,-0.705863795856717,-0.708347074751178,-0.00673809931966781,0.186939945569051,-0.00433204770545132,0
619,389489256,0.00084072370622797,0.000150726908201757,-0.70585080237982,-0.708360018101539,-0.00676862269661031,0.183048889977486,0.0047013367864852,0
620,389505923,0.000842651755677524,0.000154293838094504,-0.705852990170561,-0.708357834994933,-0.00318381906417098,0.181899877310077,0.00368633917029959,0
621,389522590,0.000848368656216123,0.000157297069121937,-0.705855570520081,-0.708355256276133,0.00773364728196439,0.173135463481486,-0.00688335404637747,0
622,389539257,0.000847326722508816,0.000145453991749729,-0.705854839736088,-0.708355988258519,0.00378854149122386,0.190912589828448,0.0087957625275018,0
623,389555924,0.000837794023302181,0.000136341453874872,-0.705844040100581,-0.708366762748417,-0.00154944318769791,0.179417663522882,0.00273533046908438,0
624,389572591,0.000855500868445941,0.000136118517559492,-0.705846015841505,-0.70836477291766,0.00291440656119519,0.188553503318391,-0.00323372210852403,0
625,389589258,0.000860319420623543,0.000135959949164278,-0.705836604411434,-0.708374144953304,-0.0121883973147945,0.172530967482458,0.0104356239398397,0
626,389605925,0.000847731064263626,0.000135052246755949,-0.705842511843454,-0.708368273984272,-0.00774355172042804,0.180157383337668,0.0124096691147565,0
627,389622592,0.000849490609253936,0.000136627446454341,-0.705837921292448,-0.708372845727589,-0.00907419281789766,0.183826593558818,-0.00881548878668699,0
628,389639259,0.000848511932451226,0.000139919887948543,-0.705837790410138,-0.708372976671795,0.001691129241526,0.195324788448057,-0.00362916569518627,0
629,389655926,0.000851784496495912,0.000141255463620453,-0.705834753571751,-0.708375998436121,-0.014456133557886,0.187463880711724,0.0170486901206175,0
630,389672593,0.000849727200895373,0.000142046162239855,-0.705832996551161,-0.708377751461875,-0.0104942204672124,0.191257085726876,0.0144336234776413,0
631,389689260,0.000848697848114316,0.000138111085680551,-0.705825255460547,-0.708385466671462,0.00578017647146423,0.192098690541275,-0.00098020361777762,0
632,389705927,0.000858559828625408,0.000146288998166763,-0.705826481297367,-0.708384231737218,0.000890699316270209,0.18298737064753,0.00545596906703239,0
633,389722594,0.000865738505559956,0.000152101909001014,-0.705817500353566,-0.708393170179169,-0.0128013429983118,0.185976743838947,0.0142146090723922,0
634,389739261,0.000848577647711429,0.000136743782369066,-0.705808815901032,-0.708401846845063,-0.00912624968558899,0.198888959492445,0.0211594131033078,0
635,389755928,0.000863704018488575,0.000133710001982634,-0.705814993317639,-0.708395674284524,0.00116146908454919,0.190784774093171,-0.011288659255899,0
636,389772595,0.000865703396593507,0.000133944594594874,-0.705820343426257,-0.708390341141178,-0.0123479666178249,0.188683925612241,0.00591547008972211,0
637,389789262,0.000871297793737366,0.000136563789125847,-0.705830741045121,-0.708379973733152,-0.0184021911285551,0.170898006752216,0.00770142907499946,0
638,389805929,0.000874701180712869,0.000141632121782577,-0.705838819183609,-0.708371919383931,-0.0122145972664945,0.172180681926645,0.0122616889638302,0
639,389822596,0.000872479517838166,0.000133217662429801,-0.705837189545192,-0.708373547563354,-0.0126248993258088,0.17682211340029,-0.00225525507972434,0
640,389839263,0.000883242457442891,0.00013272272351289,-0.705827924299641,-0.708382766268562,0.00923144955205941,0.188628393604573,-0.0073211218093978,0
641,389855930,0.000882528983843932,0.000131770425552281,-0.705819191174836,-0.708391468856344,0.00977646842868927,0.181768373333756,-0.0234678889354624,0
642,389872597,0.000884191813879209,0.00012734316114303,-0.705826555048247,-0.708384130382154,-0.0237859099026245,0.173941729903295,-0.00185566879121692,0
643,389889264,0.000885840570483109,0.000128586255103956,-0.705825494355114,-0.70838518495972,-0.0110179122300834,0.182001115068488,0.012373015349844,0
644,389905931,0.000890153796274893,0.000132319591504299,-0.705833753581973,-0.708376949386502,-0.00191944229098426,0.199562152614222,-0.00403497358047983,0
645,389922598,0.000900213743571173,0.000138964567205615,-0.705846219128601,-0.708364514389254,-0.0151195495645271,0.176621251003468,0.00417024265721606,0
646,389939265,0.000913123535440896,0.000149339868452236,-0.705835597579699,-0.708375079384024,0.00870790565252097,0.185507279358031,0.0143757020430565,0
647,389955932,0.000899635953494147,0.000134786108890052,-0.705839049290056,-0.708371660207525,-0.00220507833628451,0.171308849458081,-0.00504633793755973,0
648,389972599,0.000895866558638621,0.000124982958341358,-0.705832390901511,-0.708378301302789,0.00444369383019486,0.184904864604084,-0.0108544794486296,0
649,389989266,0.000903288252802177,0.000138270328823462,-0.705832617094816,-0.708378064028476,-0.00491056937824771,0.181408186135679,-0.0272295406027207,0
650,390005933,0.00090519597493932,0.000145287856923761,-0.705830532665045,-0.708380137122339,-0.000100607490989505,0.170348452981205,-0.0127828247063012,0
651,390022600,0.000901576776633611,0.000143465268412774,-0.705827712173434,-0.708382952438192,0.00324680019614542,0.180099320555518,-0.00512655633066041,0
652,390039267,0.000908209138201354,0.000132338695930041,-0.705824367522784,-0.7083862787023,0.0039171130720227,0.178284424946221,-0.0179743271059944,0
653,390055934,0.000901075970121589,0.000136988130282126,-0.705812437993569,-0.708398173113061,0.00241584469267763,0.163909100856774,-0.0175406391292745,0
654,390072601,0.000901947740035226,0.000154324408347082,-0.705813626395635,-0.708396984372811,-0.0079330823028824,0.184941685290977,0.0128395229632704,0
655,390089268,0.000890507391391064,0.000147084190640991,-0.705807344746281,-0.708403259072847,0.012261867329218,0.179017878920587,0.0123001878396314,0
656,390105935,0.000895554622764934,0.000142665477458027,-0.705788463141663,-0.708422065526342,0.0115202713053586,0.185108373752902,-0.0252840696048796,0
657,390122602,0.000905373413254586,0.000145382768850711,-0.705785820372518,-0.708424685428116,-0.0115243972453627,0.187844399653439,-0.0151778443789589,0
658,390139269,0.000911765206703012,0.000137377878093029,-0.705776953970437,-0.708433512092516,0.013605013000497,0.169205354760743,-0.0166422711984495,0
659,390155936,0.00092746547775469,0.000146114096162808,-0.705786437373022,-0.708424041996568,-0.00957155876796921,0.167650446723025,0.00813440756915523,0
660,390172603,0.000928100897976516,0.000147811253876068,-0.705785446787347,-0.708425027708466,-0.00229787314302479,0.187967136682564,0.0126572607767806,0
661,390189270,0.000907487352607451,0.000125117519092956,-0.705782749283863,-0.708427746227958,0.0118699271003776,0.183566408035095,-0.00692198013306576,0
662,390205937,0.000916899581927486,0.000130427260009582,-0.705783923726957,-0.708426563090676,-0.00762845143793992,0.176320234400852,-0.0219199697866751,0
663,390222604,0.000911527571071079,0.000123706966876936,-0.705782729831509,-0.708427760668409,-0.00112927552831675,0.185835546205191,-0.00848034576440618,0
664,390239271,0.000919665385536509,0.00011708815191915,-0.705794260542855,-0.708416263429001,0.0010554462643921,0.177518350378823,-0.0181059400416547,0
665,390255938,0.000925867891565794,0.000120621229819664,-0.705799761260119,-0.708410774356464,0.00241464958260483,0.16927878826021,-0.00600387895925856,0
666,390272605,0.000927921594611757,0.000112528641560436,-0.705807458096556,-0.708403104449789,0.0148292429815972,0.178271825840466,-0.00804733477384633,0
667,390289272,0.000933673475065101,0.000120791387061862,-0.705801945580196,-0.708408587806848,0.0262074897312275,0.183485725724664,-0.0108459867512418,0
668,390305939,0.000937309146433133,0.000122672690685126,-0.705797935135352,-0.70841257834799,0.00679727569368901,0.18783998462342,0.000629282858787349,0
669,390322606,0.000936702496691985,0.000120978707044527,-0.70580249134937,-0.708408040014798,-0.0112543745794544,0.164872514852484,-0.0140662378421838,0
670,390339273,0.000945127480171965,0.000129500321121153,-0.705805716710086,-0.708404813805691,-0.0116960748341972,0.181268289532316,0.00178698554745435,0
671,390355940,0.000940462939281396,0.000118883209320967,-0.705802379079141,-0.708408147244557,-0.00719441075062323,0.193549672670223,0.00531773626777563,0
672,390372607,0.000944113793980657,0.000115017509402593,-0.70580055194059,-0.708409963439586,0.0145700297819807,0.180160127111667,-0.0171287491075539,0
673,390389274,0.000946605171642094,0.000124047445204743,-0.705797487061897,-0.708413012167331,-0.0157283938671127,0.184349719280814,0.00938131111257951,0
674,390405941,0.000930190654235645,0.000116088773091281,-0.705792226656732,-0.708418276203878,0.00242175966605401,0.168173564495417,-0.00202070214869984,0
675,390422608,0.000929354700875847,0.000114258949524435,-0.70578858599989,-0.7084219047411,-0.000910983290376382,0.181465073811191,-0.0147414153600623,0
676,390439275,0.000937825002216658,0.000114377101954502,-0.705788544841533,-0.708421934564857,-0.00348512200488002,0.171893088661808,-0.00615339688975178,0
677,390455942,0.000941118962909566,0.000116369109095636,-0.705784781731744,-0.708425678973598,0.00311608122957089,0.172474263569037,-0.0251995312503979,0
678,390472609,0.000951859405903143,0.000121730553217593,-0.705785974724116,-0.708424475175775,-0.0276829750821578,0.163951055051936,0.00215763210296262,0
679,390489276,0.000945754448038566,0.000111738526650411,-0.705784022306382,-0.708426430139397,0.00425659887517667,0.181957691135926,-0.005558974201158,0
680,390505943,0.000953520069638738,0.000118255548416131,-0.705773812571086,-0.708436590178666,0.00398122582623877,0.188534988985029,-0.020393465038349,0
681,390522610,0.000956157150228553,0.000130633693059631,-0.705774221141251,-0.7084361774153,-0.0113255498806567,0.19005788290978,0.0285894099324486,0
682,390539277,0.000937251390661985,0.000129167999438861,-0.705778301452475,-0.708432137945701,-0.00869169694584141,0.18728678319397,0.00957901772671151,0
683,390555944,0.000942316997329788,0.000130732624224313,-0.705770153610795,-0.708440248164835,-0.00615047295980298,0.192338673778897,-0.00378057897263664,0
684,390572611,0.000932040153046413,0.000126538745507112,-0.705768018330629,-0.708442389747222,-0.0135160053419818,0.18104827830197,0.0111634568608892,0
685,390589278,0.000943336911547968,0.000127829963024929,-0.705769183943076,-0.708441213348925,0.0102030071798371,0.169624351416729,-0.0102612998432186,0
686,390605945,0.000949676699251047,0.000142859977839372,-0.705768843407695,-0.708441541258104,-0.0030896179852215,0.183437206581294,0.0151505333098588,0
687,390622612,0.000935816802241999,0.000119033093493222,-0.705768287339034,-0.70844211807639,0.00337842624288246,0.191819604313014,-0.0157690415599336,0
688,390639279,0.00093683825794146,0.000124969340571339,-0.705763444771838,-0.708446939961301,0.0128072567284178,0.184265933995656,-0.00654636652467663,0
689,390655946,0.000935432936267211,0.000130823101501326,-0.705765142351356,-0.708445249608117,-0.0130399700019616,0.161564933295606,0.021151108688594,0
690,390672613,0.000940204326965648,0.000130949460015645,-0.705764812940644,-0.708445571432922,0.0064751772286773,0.179272761126221,-0.00431605222202735,0
691,390689280,0.000950187228188686,0.000137417419215956,-0.705773065520175,-0.708437335441138,-0.0060429870955931,0.165621594030374,-0.0115478806660099,0
692,390705947,0.000958818069261678,0.000129717287065832,-0.705770912729083,-0.708439469952721,-0.00383920897362237,0.183370962856107,0.0126155632555525,0
693,390722614,0.000967589439954382,0.000138450475703309,-0.705777872335513,-0.70843252291499,0.00125342129783118,0.181403276760454,-0.00200601501271209,0
694,390739281,0.000975323427241462,0.000145527170081296,-0.705776463413177,-0.708433914531231,0.00320166378498846,0.172776466762514,0.0165069434543828,0
695,390755948,0.000956735292312613,0.000142044762221465,-0.705769307579204,-0.708441069504046,0.00458978970676088,0.183677362159131,-0.0121677634687576,0
696,390772615,0.000967919693294613,0.000144769034200802,-0.705764819622794,-0.708445524762631,0.00247291825662545,0.186166378236365,-0.0200814242615971,0
697,390789282,0.000976303621884335,0.000144041859114413,-0.70576244512189,-0.70844787891471,-0.00809340083035296,0.173395645030933,0.00586966382592995,0
698,390805949,0.000972941722092777,0.000151041815028715,-0.705768581199537,-0.708441769210686,-0.0211239925077645,0.173904903033472,0.00882376010224399,0
699,390822616,0.000979937594168861,0.000153659494860031,-0.705764105760083,-0.708446217529419,0.00324616614506312,0.178667979336967,-0.0211848832961364,0
700,390839283,0.000969054780209515,0.000149519836908642,-0.705756070294338,-0.70845423833819,-0.00929844924694645,0.180635007766404,0.00917161345622337,0
701,390855950,0.000958882120889973,0.000143908949601616,-0.705748244668687,-0.708462049076985,-0.000472232828408553,0.189729187578837,-0.00221477794148596,0
702,390872617,0.000963998214908658,0.000152880023495713,-0.705755355274936,-0.708454956815103,-0.000877582261984895,0.192995571421481,-0.00520575203000281,0
703,390889284,0.000969713697506239,0.000153589391563085,-0.705755607688935,-0.708454697409274,-0.0181679778707453,0.16917512922926,0.0110419552013518,0
704,390905951,0.000957775078208317,0.000153818997600547,-0.705754374239936,-0.708455942347731,0.00466272763773906,0.18708348436461,-0.00721833075504976,0
705,390922618,0.00096674919518907,0.000159717771633169,-0.705756064143669,-0.708454245389682,0.0066428649174149,0.179645015873212,-0.00205476001679961,0
706,390939285,0.000956493039535663,0.000145495344343726,-0.705752110864938,-0.70845820057492,-0.00523714395985906,0.182777720845526,0.00929157289449871,0
707,390955952,0.000953546763157922,0.000146209368381209,-0.705771834939646,-0.708438555117744,0.00556977828982149,0.184647171584841,-0.0100350767139033,0
708,390972619,0.000954282930570044,0.000159652721756174,-0.705778661743015,-0.708431750053126,-0.00170441993265371,0.199502722402088,-0.00763031917385134,0
709,390989286,0.000951824882398958,0.00015914943793307,-0.705788539735932,-0.708421912336336,-0.00682936548274068,0.173904207784776,0.0298109488571341,0
710,391005953,0.00096350038627733,0.000168098614261164,-0.705783011601759,-0.70842740202805,0.00432936960016744,0.186060897691596,-0.00395816532282398,0
711,391022620,0.000961407756143292,0.000158924179983497,-0.705786146397726,-0.708424283880274,0.00103425373855307,0.173900610488071,0.0127005879862706,0
712,391039287,0.000951753091136113,0.000142791177650669,-0.705787175212797,-0.708423275367116,-0.0105682673542682,0.183867487420629,-0.0157769809478099,0
713,391055954,0.000965995641064137,0.000149326634777284,-0.70578603484217,-0.708424390867328,-0.0128358643073473,0.183431946960921,0.0147550244575711,0
714,391072621,0.000957609843707415,0.000136470839500106,-0.705783786422819,-0.708426644884117,-0.0160663732301351,0.191287701930343,0.0205247799595088,0
715,391089288,0.000973618776764269,0.000149180433766018,-0.705755765593389,-0.708454535692563,-0.0059935876144626,0.175252310809552,-0.00229838116197188,0
716,391105955,0.000977367490628264,0.00015105355761623,-0.70575072586763,-0.70845955062581,0.00891173654984868,0.179980882694035,-0.00473995302345032,0
717,391122622,0.000969632004754195,0.000137104018577452,-0.705749481430567,-0.708460803768811,-0.00537331129009326,0.18519550087621,-0.0210142352309214,0
718,391139289,0.000989293730420325,0.000157846911256738,-0.705744215024707,-0.708466018480369,-0.00567182346759841,0.18389853991506,0.00723535664906731,0
719,391155956,0.000690841330473594,0.000220156648864518,-0.705754976709984,-0.708455635250645,-0.0154166872515192,0.18487866547604,0.015478977706993,0
720,391172623,0.000691287623223319,0.000211805154147437,-0.705758438840888,-0.708452188411378,0.00726784802739334,0.190251527770629,-0.00422327354434775,0
721,391189290,0.000697339166989055,0.000228210647452703,-0.705756900713705,-0.708453709661381,0.00245203498043672,0.177520635666252,0.0161888863611814,0
722,391205957,0.000686514761697319,0.000214823587916998,-0.705758083361721,-0.708452546271025,-0.00697282344217563,0.175230214281272,0.0040181238764326,0
723,391222624,0.000683632308600004,0.000214803400954808,-0.705760694273522,-0.708449948073201,0.00445524184820796,0.209230421848494,-0.0214512066141171,0
724,391239291,0.000683560163851023,0.000206034272343425,-0.705759488576917,-0.70845115186513,0.0183785426370405,0.18635121230354,-0.00578880657886979,0
725,391255958,0.000691682794058542,0.000219899271334711,-0.705754959393334,-0.708455651760176,0.00972898619151847,0.183132724912868,0.0130757281100012,0
726,391272625,0.000688098648549676,0.000234280941508638,-0.705759182744052,-0.708451443364425,-0.00571333979719679,0.176605277780544,0.0132503512802932,0
727,391289292,0.000676164722431293,0.000223972055136872,-0.705757288889829,-0.708453344841186,0.000193116020417526,0.176375265888314,0.0339713224037581,0
728,391305959,0.000680208645679664,0.000226668785986334,-0.705766376675501,-0.708444286794519,-0.00267085801529286,0.179494910436839,0.0089259985128952,0
729,391322626,0.000679942792652066,0.000214579640217894,-0.705767336487386,-0.708443334629438,0.00262251099650427,0.185144300113037,-0.00588819866521577,0
730,391339293,0.000700204016069821,0.000216180724076945,-0.705777893664706,-0.708432796950028,0.00327836297377715,0.189281296572952,-0.00709097225917138,0
731,391355960,0.000718227101836228,0.00022587639065473,-0.70578388648203,-0.708426805472526,-0.000603746642620125,0.158775364483809,0.0150142249594446,0
732,391372627,0.000698873159301368,0.000210256146614922,-0.705790481111336,-0.708420259550282,-0.00913821548259895,0.173817049005769,0.0272263682584451,0
733,391389294,0.000694083120801491,0.000204378918678359,-0.70579202080669,-0.708418731996471,0.0135217848107556,0.177874741288131,-0.0156132287663317,0
734,391405961,0.000705915773700359,0.000220303511103507,-0.705789100816096,-0.708421624682992,-0.00170560960146647,0.179540910953659,0.000473868078177865,0
735,391422628,0.000706423831737075,0.00021132378110212,-0.705786957382517,-0.708423762374159,-0.0169182702771026,0.183620181558598,0.0180929927915121,0
736,391439295,0.000701676437263056,0.000210336144528758,-0.705785048673974,-0.708425668985222,-0.00220472924389572,0.165099440872263,-0.0172753415517372,0
737,391455962,0.000691945460449776,0.000212239583068464,-0.70578204839615,-0.708428667070703,-0.00593389337991571,0.187681175137877,0.00608958139800756,0
738,391472629,0.00069137865601319,0.000212682425434306,-0.705778694326111,-0.708432009015028,0.0168487215374536,0.207008062534142,-0.0216969655219716,0
739,391489296,0.000698280960871986,0.00021794402486004,-0.705776988635445,-0.70843369994431,0.00214071809393072,0.181542120653976,-0.00929429340131215,0
740,391505963,0.000694113192401938,0.000209512441134285,-0.705779499850861,-0.708431204776922,-0.0021953617267224,0.180267457177716,0.0138905581145978,0
741,391522630,0.00068287588485126,0.000197827274706895,-0.70578494651657,-0.708425792737318,-0.000286946209428806,0.174060401748784,0.00221717858980632,0
742,391539297,0.000687238923931079,0.000201937965078021,-0.705781478790758,-0.70842924214042,-0.0156723918237205,0.176633052707364,0.000858309972576411,0
743,391555964,0.000694931373247528,0.000192268898758862,-0.705778489052456,-0.708432215878054,-0.00210656648839885,0.176955451527399,0.0184605161739918,0
744,391572631,0.000697159806986864,0.000195973614458977,-0.705787821101042,-0.708422915459395,-0.00335944398642916,0.165582604958136,0.0181147608448905,0
745,391589298,0.000690217246622014,0.000185695896681289,-0.705785807266697,-0.708424931363997,-0.0166333634493346,0.189951351249692,-0.00146714172162169,0
746,391605965,0.000692882705031946,0.000189659545448083,-0.7057837484877,-0.708426978815365,0.00108455176420312,0.188739224380254,-0.0166946528452017,0
747,391622632,0.000695902954834374,0.000197281196436962,-0.705793276966342,-0.708417480719046,-0.0128305713849864,0.181726929790207,0.0126112167934633,0
748,391639299,0.000688543314833873,0.000184632503857038,-0.705798293179437,-0.708412493653193,-0.00909040493858924,0.185959634475823,0.0267117350337144,0
749,391655966,0.000690293811061814,0.000178846307223621,-0.705789268506667,-0.708421484689219,0.00255993889104406,0.171414129932108,0.00938652762551387,0
750,391672633,0.000687383088337262,0.000187914030619103,-0.70578338087787,-0.708427350876158,-0.0176320348747163,0.186968659253543,0.0360006958143272,0
751,391689300,0.000677850326679238,0.00017524780918701,-0.705775868747742,-0.708434847322257,-0.00373685071888645,0.190629711714257,-0.0142338529567207,0
752,391705967,0.000691400438538733,0.000195359007884181,-0.705772602627611,-0.708438082813551,0.0130692073914045,0.167632763969315,-0.0152950074486585,0
753,391722634,0.00069404541988163,0.000196721272140872,-0.705778668509108,-0.708432036739733,-0.00759559326166448,0.190438372865335,0.0395979574387712,0
754,391739301,0.000679754354118111,0.000183805885927826,-0.705779444531365,-0.708431280948557,0.00700481220540649,0.189235940067203,-0.0106618033347499,0
755,391755968,0.000693246100284891,0.000210792818854191,-0.705773673601159,-0.708437009640065,-0.00569568249622654,0.175790142496656,0.00640311266126987,0
756,391772635,0.000685435878792489,0.000198753954153676,-0.705773861806301,-0.708436833221948,-0.00334337780452907,0.171994327311301,0.00918842151523346,0
757,391789302,0.000677260179205469,0.0001931778246962,-0.705770699913785,-0.708439992620534,0.0149318953987688,0.183468522461315,-0.0137128712079366,0
758,391805969,0.000693342588453312,0.000198119908905038,-0.705761666852864,-0.708448974609762,-0.00881854136113375,0.179170688874528,0.0223969863159846,0
759,391822636,0.000692787282132224,0.000194174781536255,-0.705765737815751,-0.708444920701197,0.0113922965942886,0.18458424263598,-0.00567039119465331,0
760,391839303,0.000698815713724985,0.00019280796408147,-0.705770122825578,-0.708440546699901,0.000748183401992134,0.175590602730395,-0.00231912506240101,0
761,391855970,0.000702262400026363,0.000190247690399509,-0.705773202211762,-0.70843747619186,0.00299961052820771,0.196631907928244,-0.0192125859311284,0
762,391872637,0.000709148062096314,0.000187809676548782,-0.705773241616691,-0.708437430726539,0.0047294522771668,0.181430268769688,-0.0039465245381375,0
763,391889304,0.000719711134573338,0.000197629674043531,-0.70578301482577,-0.708427680812828,0.0217746625479472,0.183877748430991,0.00854471129018711,0
764,391905971,0.000716493936133325,0.000201216674381011,-0.705782714109747,-0.708427982657495,-0.00197410311440017,0.175633295601444,0.0152268060693597,0
765,391922638,0.000722538886217849,0.000194604015897453,-0.705797128010768,-0.708413617993462,0.00114819650349449,0.177569335164869,0.0115415620147229,0
766,391939305,0.000723509036830211,0.00018579534309452,-0.705789026022454,-0.708421691340009,-0.00491212749682421,0.182086732040398,0.00221284722556832,0
767,391955972,0.000726436948687976,0.000183402725886327,-0.705783888106794,-0.708426807751977,0.0112059992644703,0.170397885211792,-0.00343873949779945,0
768,391972639,0.000737654532096006,0.000197966885835933,-0.705773677575972,-0.708436964532337,-0.00862100793227324,0.177233568904035,0.00677218454464197,0
769,391989306,0.000730939643648678,0.000192505337129513,-0.705776695708693,-0.708433966198298,-0.00936830321163399,0.172044241128898,0.00375900882589236,0
770,392005973,0.000718016366866003,0.000177611800012126,-0.705773375080691,-0.708437291461818,-0.00493513209323333,0.179169310948035,-0.00239879533847243,0
771,392022640,0.000715895488074641,0.000182635139565029,-0.70578123638044,-0.708429460504963,0.00413748905482027,0.185646370300757,-0.0110953492466362,0
772,392039307,0.000713569500598007,0.000180638851584853,-0.705773948296338,-0.708436724128818,0.0106802472717773,0.186837507848393,-0.0122400236461554,0
773,392055974,0.000727109635610482,0.000191283092025037,-0.705772589739971,-0.708438061014575,0.00564978957984303,0.168938310492041,0.0177607295000959,0
774,392072641,0.000716911115124666,0.000186818886068501,-0.705778623126718,-0.70843206186233,0.00940158755624534,0.185484846564346,0.00673078582715299,0
775,392089308,0.000712341057145133,0.000175400617389036,-0.705795951156494,-0.708414805841846,0.00915982870664779,0.183062666534252,-0.0273986468078901,0
776,392105975,0.00072704846592766,0.000191035732306943,-0.705796489391876,-0.708414250610461,0.0116928910726359,0.177294303656678,-0.0102920723002547,0
777,392122642,0.000720678050041397,0.000184966026637777,-0.705799699438098,-0.708411060531813,0.0170913713516081,0.179755170917584,-0.00115219887417143,0
778,392139309,0.000698713841185042,0.000174160966696799,-0.705800552770628,-0.708410235086706,-0.00385447532307109,0.167085697115677,0.000415057299878687,0
779,392155976,0.000714186657379413,0.000185852938704045,-0.705804576581072,-0.708406207675594,-0.00830262861603641,0.167072836807579,0.00852773789848639,0
780,392172643,0.000711810359110872,0.000196031516627877,-0.705797259171192,-0.708413497785079,0.00275165112457978,0.189080346973785,0.0131311675992936,0
781,392189310,0.000708703981615877,0.00019871352127434,-0.705785527760258,-0.708425188044423,0.00661555307560669,0.156011358987538,-0.00703260747336102,0
