sep=,
DeviceTag:,Xsens_1,,,,,,,,,,,,,,,,,
FirmwareVersion:,2.2.1,,,,,,,,,,,,,,,,,
AppVersion:,2023.0.0,,,,,,,,,,,,,,,,,
SyncStatus:,Un-synced,,,,,,,,,,,,,,,,,
OutputRate:,60Hz,,,,,,,,,,,,,,,,,
FilterProfile:,General,,,,,,,,,,,,,,,,,
Measurement Mode:,Sensor fusion Mode - Extended (Quaternion),,,,,,,,,,,,,,,,,
StartTime:,2023-07-07 11:12:00.241 +0200,,,,,,,,,,,,,,,,,
© Movella Technologies B. V. 2005-2023,,,,,,,,,,,,,,,,,,,

PacketCounter,SampleTimeFine,Quat_W,Quat_X,Quat_Y,Quat_Z,FreeAcc_X,FreeAcc_Y,FreeAcc_Z,Status
1, 382790620, 0.43608007, 0.54170686, -0.44313186, 0.5657048, -0.007791885, 0.022647226, 0.062366486, 0
2, 382807287, 0.43583798, 0.54185057, -0.4431541, 0.5657366, -0.0054264474, -0.023404041, 0.06704903, 0
3, 382823954, 0.4357973, 0.54184127, -0.44305766, 0.5658523, -0.011670059, -0.013709167, 0.069952965, 0
4, 382840621, 0.43592098, 0.54172057, -0.44305217, 0.56587684, -7.317814E-4, 0.011519187, 0.04634285, 0
5, 382857288, 0.4358986, 0.5416695, -0.44303787, 0.5659541, -0.01084239, -0.0024543959, 0.05109501, 0
6, 382873955, 0.4358086, 0.5416856, -0.44298074, 0.56605285, 0.0041108504, 0.017903164, 0.048588753, 0
7, 382890622, 0.43570867, 0.54167557, -0.44295678, 0.56615806, -0.0064894753, -0.00929121, 0.055811882, 0
8, 382907289, 0.43565318, 0.54163235, -0.44296494, 0.56623584, -0.012162457, 0.0023260994, 0.0476532, 0
9, 382923956, 0.43566206, 0.5415597, -0.44300574, 0.56626636, -0.014053154, -0.0016463965, 0.05621624, 0
10, 382940623, 0.43559244, 0.5415499, -0.44295803, 0.56636673, -0.009952362, 0.0041906442, 0.05251503, 0
11, 382957290, 0.43546677, 0.5415709, -0.44289955, 0.56648886, -0.012981856, -0.005891578, 0.056106567, 0
12, 382973957, 0.43537223, 0.541572, -0.44283718, 0.5666093, -0.020272179, 0.028966386, 0.0698843, 0
13, 382990624, 0.43528488, 0.5415724, -0.44280696, 0.5666998, -0.014728386, 0.0015563207, 0.050718307, 0
14, 383007291, 0.4352247, 0.5415441, -0.4427948, 0.5667825, -0.023783566, -5.587824E-6, 0.06389904, 0
15, 383023958, 0.43512055, 0.54156095, -0.4427391, 0.5668897, -0.020463282, -0.00721701, 0.050024033, 0
16, 383040625, 0.43489966, 0.541666, -0.44256875, 0.5670919, -0.024622187, 0.036553085, 0.060726166, 0
17, 383057292, 0.43484142, 0.5416384, -0.44256246, 0.5671679, -0.023983164, 0.01715976, 0.06295109, 0
18, 383073959, 0.43471798, 0.54167247, -0.4424878, 0.5672881, -0.019815095, 0.00150156, 0.05057335, 0
19, 383090626, 0.43451434, 0.5417564, -0.44234163, 0.567478, -0.032434635, 0.016081981, 0.06501961, 0
20, 383107293, 0.43455848, 0.54166013, -0.4424254, 0.56747067, -0.022126665, 0.016027443, 0.06409645, 0
21, 383123960, 0.4343258, 0.5417757, -0.442265, 0.56766355, -0.008698007, 0.0076816934, 0.044704437, 0
22, 383140627, 0.4342301, 0.5417768, -0.44222823, 0.5677645, -0.03812684, 0.004616213, 0.056900024, 0
23, 383157294, 0.43425813, 0.5416868, -0.44231388, 0.5677621, -0.026532106, 9.374133E-4, 0.056362152, 0
24, 383173961, 0.43416288, 0.5416919, -0.44226947, 0.5678647, -0.027434204, -0.0049327076, 0.04467392, 0
25, 383190628, 0.43419605, 0.5415896, -0.44233948, 0.5678825, -0.024672255, 0.002284973, 0.056648254, 0
26, 383207295, 0.4345307, 0.541258, -0.44272012, 0.56764585, -0.040490936, 0.0018321357, 0.059370995, 0
27, 383223962, 0.4344866, 0.5412136, -0.44272947, 0.56771475, -0.04729266, 0.041660134, 0.0644598, 0
28, 383240629, 0.43454176, 0.5410954, -0.44282103, 0.56771386, -0.04776427, 0.01043269, 0.05400276, 0
29, 383257296, 0.43437752, 0.54116625, -0.44272766, 0.56784475, -0.041195896, 0.009783832, 0.03391838, 0
30, 383273963, 0.4345941, 0.5409269, -0.4429695, 0.5677185, -0.029670004, 0.015398478, 0.067705154, 0
31, 383290630, 0.43461546, 0.5408423, -0.44303602, 0.5677307, -0.047267403, 0.021967748, 0.042780876, 0
32, 383307297, 0.4344959, 0.5408675, -0.44297716, 0.56784403, -0.052238554, 0.011033046, 0.0658617, 0
33, 383323964, 0.43434533, 0.54091483, -0.44287598, 0.56799316, -0.052383613, 0.00801428, 0.05742359, 0
34, 383340631, 0.43405998, 0.5410677, -0.44264567, 0.56824505, -0.05298531, 0.03540445, 0.06716442, 0
35, 383357298, 0.43404317, 0.54101175, -0.44266915, 0.5682929, -0.03400079, 0.02087745, 0.052758217, 0
36, 383373965, 0.4342419, 0.5407875, -0.44291258, 0.56816494, -0.050065786, 0.013648371, 0.05199051, 0
37, 383390632, 0.4340465, 0.5408724, -0.44278157, 0.56833565, -0.053112265, 0.012165363, 0.060128212, 0
38, 383407299, 0.4337292, 0.5410413, -0.4425221, 0.568619, -0.06755478, 0.010678778, 0.049481392, 0
39, 383423966, 0.43322423, 0.5413591, -0.4421219, 0.5690127, -0.05866813, 0.016310858, 0.053458214, 0
40, 383440633, 0.433387, 0.54116595, -0.44234106, 0.5689022, -0.06342381, 0.04556021, 0.06967163, 0
41, 383457300, 0.43331283, 0.5411477, -0.44230834, 0.5690014, -0.05616389, 5.223498E-4, 0.06107521, 0
42, 383473967, 0.4332999, 0.5410964, -0.44235724, 0.5690221, -0.06422824, 0.013208498, 0.059361458, 0
43, 383490634, 0.43320623, 0.5410969, -0.4423184, 0.56912297, -0.050821483, 0.005944327, 0.054917336, 0
44, 383507301, 0.43331158, 0.54094267, -0.44244847, 0.56908834, -0.04991335, 0.0034564044, 0.06799984, 0
45, 383523968, 0.43321264, 0.5409563, -0.44241, 0.5691807, -0.07597652, 0.02981618, 0.050354958, 0
46, 383540635, 0.4332043, 0.54088974, -0.4424274, 0.56923676, -0.08367655, 0.028924588, 0.05425644, 0
47, 383557302, 0.43298906, 0.5409915, -0.4422527, 0.5694394, -0.058612697, -0.0040189866, 0.056902885, 0
48, 383573969, 0.43287632, 0.54100907, -0.44219923, 0.56955004, -0.08231803, 0.02898583, 0.056687355, 0
49, 383590636, 0.4328887, 0.54092914, -0.4422421, 0.5695832, -0.06466118, -0.0030116136, 0.050290108, 0
50, 383607303, 0.43269247, 0.54101616, -0.44212574, 0.5697398, -0.06942581, -0.002328558, 0.06596565, 0
51, 383623970, 0.43282983, 0.54084694, -0.44228855, 0.56966996, -0.088078186, 0.028624857, 0.0538311, 0
52, 383640637, 0.4325036, 0.54103255, -0.44201255, 0.5699557, -0.07547183, 0.025985168, 0.057383537, 0
53, 383657304, 0.43284404, 0.5407051, -0.44239226, 0.5697134, -0.08011397, 0.02950818, 0.06770229, 0
54, 383673971, 0.43230394, 0.5410607, -0.4419001, 0.5701676, -0.05945601, 0.01697201, 0.05103302, 0
55, 383690638, 0.43222883, 0.5410537, -0.44188112, 0.5702458, -0.09170848, 0.016755424, 0.06414604, 0
56, 383707305, 0.43264532, 0.54067737, -0.4423089, 0.5699553, -0.07933279, 0.018395787, 0.06818771, 0
57, 383723972, 0.4325215, 0.5406948, -0.4422402, 0.570086, -0.091664, 0.020237533, 0.047148705, 0
58, 383740639, 0.43235302, 0.54075754, -0.44211936, 0.5702479, -0.08898878, 0.017651489, 0.044589043, 0
59, 383757306, 0.4321917, 0.540819, -0.44201544, 0.57039243, -0.08807059, 0.023128226, 0.06781101, 0
60, 383773973, 0.43208387, 0.54083455, -0.4419771, 0.57048917, -0.084162235, 0.006420857, 0.055815697, 0
61, 383790640, 0.4319715, 0.5408683, -0.44190317, 0.57059944, -0.10131597, 0.05362836, 0.058481216, 0
62, 383807307, 0.43196204, 0.5408096, -0.44192383, 0.5706462, -0.078214556, 0.019947637, 0.057707787, 0
63, 383823974, 0.43187538, 0.5408072, -0.44190425, 0.5707294, -0.0824622, -0.0042869784, 0.06657791, 0
64, 383840641, 0.43171054, 0.540873, -0.44178295, 0.57088554, -0.092771284, 0.024762554, 0.051068306, 0
65, 383857308, 0.43194628, 0.5406243, -0.4420505, 0.57073575, -0.090975136, 0.019390196, 0.048727036, 0
66, 383873975, 0.43200812, 0.5405124, -0.4421522, 0.5707162, -0.09654821, 0.027428392, 0.06109619, 0
67, 383890642, 0.43192893, 0.5405091, -0.4421175, 0.570806, -0.08937613, 0.012016056, 0.053168297, 0
68, 383907309, 0.43157405, 0.54071844, -0.4418295, 0.5710993, -0.1030692, 0.016637858, 0.046331406, 0
69, 383923976, 0.43150744, 0.5407021, -0.44182953, 0.57116485, -0.10078892, 0.021601409, 0.04381275, 0
70, 383940643, 0.43138903, 0.5407299, -0.44175833, 0.57128304, -0.09812062, 0.021749375, 0.053009987, 0
71, 383957310, 0.43138164, 0.54068315, -0.44179076, 0.5713077, -0.09583721, 0.0076883985, 0.053993225, 0
72, 383973977, 0.43114698, 0.5407991, -0.44159353, 0.57152754, -0.09208465, 0.021540614, 0.045923233, 0
73, 383990644, 0.43125445, 0.5406601, -0.44173962, 0.5714651, -0.090368524, -0.001162938, 0.04627037, 0
74, 384007311, 0.4311954, 0.540647, -0.44173867, 0.571523, -0.09380057, 0.023821117, 0.06584072, 0
75, 384023978, 0.43128952, 0.54050964, -0.44186032, 0.5714876, -0.12044733, 0.026881233, 0.05640602, 0
76, 384040645, 0.43126845, 0.5404658, -0.4418629, 0.57154304, -0.10632265, 0.0015451451, 0.05916691, 0
77, 384057312, 0.43121436, 0.5404523, -0.4418651, 0.57159495, -0.11965587, 0.017207816, 0.06257725, 0
78, 384073979, 0.43117172, 0.5404274, -0.44187596, 0.5716423, -0.108049065, 0.056707025, 0.06833172, 0
79, 384090646, 0.43122593, 0.5403266, -0.4419508, 0.5716388, -0.11353408, 0.03001466, 0.059765816, 0
80, 384107313, 0.43108782, 0.54037505, -0.44185618, 0.5717705, -0.10920217, 0.009634973, 0.036803246, 0
81, 384123980, 0.43096626, 0.5404165, -0.44179332, 0.57187146, -0.11309085, 0.009760364, 0.05566597, 0
82, 384140647, 0.43088645, 0.54042685, -0.44174773, 0.571957, -0.12497749, 0.045840494, 0.061697006, 0
83, 384157314, 0.430832, 0.5404194, -0.44173777, 0.57201254, -0.12043928, 0.03685952, 0.05301571, 0
84, 384173981, 0.43082407, 0.5403604, -0.4417596, 0.5720575, -0.11221155, 0.021193499, 0.051537514, 0
85, 384190648, 0.43089077, 0.5402524, -0.4418627, 0.57202965, -0.100743994, 0.0026805908, 0.050376892, 0
86, 384207315, 0.43101472, 0.54010093, -0.4420301, 0.57195, -0.1067822, 0.021622643, 0.060646057, 0
87, 384223982, 0.43122503, 0.5398758, -0.44227436, 0.571815, -0.12817909, 0.018402716, 0.052970886, 0
88, 384240649, 0.4310512, 0.53995645, -0.4421433, 0.5719715, -0.12593502, 0.036267214, 0.04923725, 0
89, 384257316, 0.43082663, 0.5400778, -0.44197178, 0.5721587, -0.117376484, 0.031074783, 0.058190346, 0
90, 384273983, 0.4307852, 0.54006356, -0.44196725, 0.5722067, -0.12062078, 0.022465734, 0.057398796, 0
91, 384290650, 0.43077722, 0.5400143, -0.44201565, 0.5722217, -0.13626713, 0.048424304, 0.054401398, 0
92, 384307317, 0.4307218, 0.5400118, -0.44197473, 0.57229745, -0.13175641, 0.020339008, 0.04741192, 0
93, 384323984, 0.4302953, 0.540289, -0.44161692, 0.5726328, -0.12937668, 0.009905424, 0.054362297, 0
94, 384340651, 0.4300661, 0.5404159, -0.44143638, 0.57282436, -0.14082947, 0.02993822, 0.06131363, 0
95, 384357318, 0.4300591, 0.5403745, -0.4414444, 0.57286245, -0.12816478, 0.033913173, 0.06174755, 0
96, 384373985, 0.4298069, 0.54052067, -0.44124505, 0.57306737, -0.11437829, 0.02497489, 0.06614876, 0
97, 384390652, 0.42955923, 0.5406663, -0.44103453, 0.5732778, -0.13088584, 0.03874798, 0.06768513, 0
98, 384407319, 0.42947483, 0.54067546, -0.44097036, 0.5733818, -0.13053782, 0.039089065, 0.061115265, 0
99, 384423986, 0.42945737, 0.54064167, -0.44097033, 0.5734268, -0.13930824, 0.036427695, 0.057855606, 0
100, 384440653, 0.42925805, 0.5407431, -0.44082612, 0.5735912, -0.13490191, 0.03672899, 0.06324196, 0
101, 384457320, 0.42960623, 0.54043704, -0.4411858, 0.5733424, -0.15261354, 0.019471554, 0.07250118, 0
102, 384473987, 0.42932895, 0.5406002, -0.44095317, 0.57357526, -0.1308722, 0.031742193, 0.04176998, 0
103, 384490654, 0.42917386, 0.54067963, -0.44084212, 0.5737017, -0.12101573, -0.005725508, 0.037210464, 0
104, 384507321, 0.42899588, 0.54078084, -0.4407073, 0.5738429, -0.13854629, 0.033568963, 0.065701485, 0
105, 384523988, 0.42875698, 0.54091805, -0.44048646, 0.5740617, -0.12914489, 0.036327783, 0.06087494, 0
106, 384540655, 0.42845744, 0.5411042, -0.4402304, 0.5743064, -0.14394435, 0.023889065, 0.063305855, 0
107, 384557322, 0.42839673, 0.54111147, -0.44020256, 0.5743661, -0.1372137, 0.02174714, 0.051553726, 0
108, 384573989, 0.4283036, 0.5411393, -0.44013438, 0.57446164, -0.13155682, 0.047241475, 0.06313515, 0
109, 384590656, 0.42824593, 0.54113424, -0.44012085, 0.57451963, -0.1421348, 0.037423443, 0.06156254, 0
110, 384607323, 0.42821795, 0.54111916, -0.4401161, 0.5745584, -0.15969017, 0.041808546, 0.053539276, 0
111, 384623990, 0.4282011, 0.5410935, -0.44013122, 0.5745834, -0.15173937, 0.015799014, 0.05471134, 0
112, 384640657, 0.42831066, 0.54097456, -0.4402676, 0.57450926, -0.14565557, 0.021728588, 0.05700493, 0
113, 384657324, 0.42810592, 0.5410861, -0.44009656, 0.5746881, -0.14699799, 0.03332511, 0.05924797, 0
114, 384673991, 0.427825, 0.54126793, -0.43984163, 0.574921, -0.14797474, 0.027498575, 0.059926987, 0
115, 384690658, 0.42771515, 0.5413193, -0.4397565, 0.57501954, -0.1489944, 0.032936644, 0.06047058, 0
116, 384707325, 0.42761564, 0.5413656, -0.43969646, 0.5750957, -0.14094883, 0.04838251, 0.05460739, 0
117, 384723992, 0.42749846, 0.541416, -0.4395982, 0.57521063, -0.1546142, 0.026391516, 0.057473183, 0
118, 384740659, 0.42740718, 0.54145485, -0.4395115, 0.5753082, -0.15054737, 0.017196193, 0.05953884, 0
119, 384757326, 0.42660955, 0.54913986, -0.43419948, 0.5726435, 0.0052951337, -0.021142537, 0.057929993, 0
120, 384773993, 0.4265527, 0.54918647, -0.43414846, 0.57267994, -0.0027960353, -0.018262573, 0.064183235, 0
121, 384790660, 0.42651173, 0.5492133, -0.43410107, 0.57272065, -0.0073021683, -0.017428646, 0.05474949, 0
122, 384807327, 0.42647102, 0.54925084, -0.43404606, 0.57275665, 0.01064134, -0.022931088, 0.06048107, 0
123, 384823994, 0.42642426, 0.5492932, -0.43400806, 0.5727794, 0.015653953, -0.0067384685, 0.056275368, 0
124, 384840661, 0.42637202, 0.54933035, -0.43397135, 0.5728107, -0.0011793661, -0.0012360266, 0.04275894, 0
125, 384857328, 0.4263315, 0.5493623, -0.4339213, 0.5728479, -0.0022535694, -0.006770878, 0.056863785, 0
126, 384873995, 0.42627695, 0.54940236, -0.43388432, 0.5728783, 0.0060455785, -0.015088466, 0.066428185, 0
127, 384890662, 0.42622423, 0.5494316, -0.4338606, 0.57290745, 0.0062175714, -0.01355025, 0.05202675, 0
128, 384907329, 0.42638856, 0.5493059, -0.43401435, 0.5727893, -0.0053715752, -0.006123584, 0.04545784, 0
129, 384923996, 0.42636752, 0.5493134, -0.43398315, 0.5728214, 0.013710061, -0.02264745, 0.05307293, 0
130, 384940663, 0.4267303, 0.5490348, -0.43432978, 0.5725555, -0.0059866826, -0.006143701, 0.051926613, 0
131, 384957330, 0.4269063, 0.54889405, -0.43450803, 0.5724239, -0.010214095, -0.0112469485, 0.058862686, 0
132, 384973997, 0.4270462, 0.54878825, -0.43463847, 0.572322, -0.0038696798, -0.0015797896, 0.06205082, 0
133, 384990664, 0.42718947, 0.5486778, -0.43476504, 0.5722249, 7.1133E-4, -0.00861553, 0.06675625, 0
134, 385007331, 0.42731446, 0.5485805, -0.43488887, 0.57213074, -0.014487327, 0.001266648, 0.060778618, 0
135, 385023998, 0.42739096, 0.5485195, -0.4349722, 0.5720686, 0.012762701, -0.014138089, 0.051641464, 0
136, 385040665, 0.4274066, 0.5485095, -0.43498582, 0.5720563, 0.011822048, -0.018414563, 0.06384468, 0
137, 385057332, 0.427423, 0.5484984, -0.43501806, 0.5720302, 0.0022637392, -0.007856034, 0.06219101, 0
138, 385073999, 0.42752013, 0.54842967, -0.43510666, 0.5719559, -0.005050834, -0.008430908, 0.069005966, 0
139, 385090666, 0.42752367, 0.5484192, -0.4351221, 0.5719515, -0.0073540234, -0.009700686, 0.065730095, 0
140, 385107333, 0.42751008, 0.5484258, -0.4351075, 0.5719667, 0.015745705, -0.020531006, 0.051761627, 0
141, 385124000, 0.42753315, 0.5484077, -0.4351214, 0.5719562, 0.011231861, -0.002321629, 0.056798935, 0
142, 385140667, 0.42752737, 0.5484051, -0.43513307, 0.57195413, 0.0047523323, -0.022292735, 0.06591225, 0
143, 385157334, 0.42751953, 0.54841137, -0.4351349, 0.5719525, -0.005836147, 0.0010442525, 0.06076336, 0
144, 385174001, 0.4276575, 0.54830396, -0.43526042, 0.5718569, -0.015101429, -0.007850893, 0.077319145, 0
145, 385190668, 0.4276783, 0.54828334, -0.43528074, 0.57184565, 0.0034463461, -0.0026866258, 0.06526947, 0
146, 385207335, 0.42771393, 0.5482503, -0.43531656, 0.5718233, -0.004327434, -0.02736961, 0.050209045, 0
147, 385224002, 0.4276661, 0.5482884, -0.4352739, 0.57185495, -0.0017659758, -0.006008475, 0.06554985, 0
148, 385240669, 0.4277255, 0.5482399, -0.43533203, 0.5718129, 0.0053767157, -0.004274909, 0.066615105, 0
149, 385257336, 0.4277414, 0.54822135, -0.4353567, 0.5718, 0.0055677076, -0.0058316765, 0.056440353, 0
150, 385274003, 0.4277709, 0.5481858, -0.43536845, 0.5718031, 0.010938389, -0.0127708595, 0.07817936, 0
151, 385290670, 0.42783594, 0.5481348, -0.43543437, 0.57175314, 0.0071812477, -0.035464577, 0.05488777, 0
152, 385307337, 0.4278788, 0.5481056, -0.43545303, 0.5717348, -0.009335242, 0.033638924, 0.061340332, 0
153, 385324004, 0.42789638, 0.5480798, -0.43544632, 0.5717514, 0.005534516, 0.0031904238, 0.059487343, 0
154, 385340671, 0.42799398, 0.54799724, -0.43555242, 0.57167673, -0.0072516543, 0.0032391497, 0.06644058, 0
155, 385357338, 0.42806417, 0.54792506, -0.4355786, 0.57167345, 0.005365652, -0.0071452623, 0.079606056, 0
156, 385374005, 0.42810813, 0.5478746, -0.4356085, 0.5716661, 0.005263283, -0.004228418, 0.10652256, 0
157, 385390672, 0.42815527, 0.5478195, -0.43561462, 0.5716789, 0.015022641, 0.020558275, 0.062363625, 0
158, 385407339, 0.4282455, 0.5477216, -0.43562248, 0.57169914, -0.0022343472, -0.016881486, 0.013401985, 0
159, 385424006, 0.4282804, 0.54767644, -0.4356346, 0.571707, 0.0058319, -0.055232286, -9.460449E-4, 0
160, 385440673, 0.42826948, 0.5476933, -0.4356502, 0.57168716, 0.01594899, -0.025267469, 0.0053892136, 0
161, 385457340, 0.42829597, 0.54768336, -0.43567854, 0.5716553, -0.0075219935, -0.008900956, 0.063186646, 0
162, 385474007, 0.42828432, 0.5476957, -0.4356897, 0.57164377, -0.034096118, 0.0026935546, 0.07706165, 0
163, 385490674, 0.42831832, 0.54765993, -0.43568522, 0.571656, -0.012743033, 0.044669066, 0.031562805, 0
164, 385507341, 0.42832643, 0.5476405, -0.43567812, 0.57167405, 0.01863394, -0.053247046, 0.05158615, 0
165, 385524008, 0.42840108, 0.5476015, -0.4358236, 0.57154435, -0.0017816217, -0.0023182763, 0.07196331, 0
166, 385540675, 0.4284384, 0.5475606, -0.4358252, 0.57155436, -0.011506111, 0.046878044, 0.044353485, 0
167, 385557342, 0.4285083, 0.54750264, -0.43586743, 0.5715253, 0.015275435, -0.05942986, 0.048155785, 0
168, 385574009, 0.42835253, 0.5476402, -0.4357962, 0.5715646, -0.0099904705, 0.0050943075, 0.058886528, 0
169, 385590676, 0.4284033, 0.5475922, -0.43581134, 0.57156104, -0.008482205, 0.0031508622, 0.05500698, 0
170, 385607343, 0.4284467, 0.5475566, -0.43583292, 0.5715462, 0.009931463, -0.059440587, 0.048568726, 0
171, 385624010, 0.4284488, 0.5475624, -0.4358725, 0.5715089, -0.0018570574, 0.013474702, 0.07130051, 0
172, 385640677, 0.42853743, 0.54748565, -0.43592155, 0.57147837, 0.010184592, 0.004936954, 0.05070114, 0
173, 385657344, 0.42865503, 0.54739285, -0.4360243, 0.57140064, 0.015533145, -0.037131537, 0.062173843, 0
174, 385674011, 0.42862424, 0.54742074, -0.43601605, 0.5714034, -0.017665906, 0.001881979, 0.067284584, 0
175, 385690678, 0.42858136, 0.54745036, -0.43595347, 0.571455, -0.0015670493, -0.031821314, 0.071027756, 0
176, 385707345, 0.42859775, 0.5474354, -0.43597135, 0.5714433, 0.004013734, -0.021462832, 0.064089775, 0
177, 385724012, 0.42863277, 0.5474167, -0.43599403, 0.5714176, -0.0042012613, 0.01976011, 0.047524452, 0
178, 385740679, 0.42870224, 0.5473608, -0.4360522, 0.5713747, 0.0125599755, -0.015429546, 0.047150612, 0
179, 385757346, 0.42874005, 0.54733497, -0.43610328, 0.57133204, -4.0556426E-4, 0.0029172911, 0.055768967, 0
180, 385774013, 0.42881998, 0.5472702, -0.43616584, 0.57128656, -6.580221E-4, -7.653084E-4, 0.05446148, 0
181, 385790680, 0.42879865, 0.54727936, -0.4361405, 0.5713132, -0.0068082046, -0.002302854, 0.051527977, 0
182, 385807347, 0.42886147, 0.5472247, -0.43620533, 0.5712688, -0.0029400894, -0.023457015, 0.048936844, 0
183, 385824014, 0.42887598, 0.54720867, -0.43621638, 0.5712648, 4.3998525E-4, -0.02340583, 0.05039406, 0
184, 385840681, 0.42895395, 0.5471586, -0.43629158, 0.5711968, -0.003933381, -0.006494616, 0.055898666, 0
185, 385857348, 0.4289734, 0.5471408, -0.43628877, 0.5712014, -0.0086144125, 0.026661072, 0.05225563, 0
186, 385874015, 0.4290127, 0.5471059, -0.43631873, 0.57118237, 0.0066692913, -0.021651477, 0.042286873, 0
187, 385890682, 0.42906, 0.5470695, -0.4363701, 0.57114244, 0.0038000555, -0.0032257389, 0.046574593, 0
188, 385907349, 0.4290703, 0.5470651, -0.43637723, 0.57113343, 7.5614435E-4, -7.4765086E-4, 0.060917854, 0
189, 385924016, 0.42911774, 0.54702914, -0.43640965, 0.57110757, 0.008360391, 0.0030842554, 0.05826187, 0
190, 385940683, 0.42909548, 0.54704154, -0.4363816, 0.5711338, 5.3754866E-5, -0.009093625, 0.05862522, 0
191, 385957350, 0.42904937, 0.547085, -0.4363486, 0.57115215, -0.010474152, -0.011210069, 0.06668568, 0
192, 385974017, 0.4290551, 0.54707676, -0.43634453, 0.5711586, -0.012503874, -0.009096083, 0.05706024, 0
193, 385990684, 0.42908508, 0.5470515, -0.43635026, 0.57115597, 0.0057242787, -0.014719222, 0.056152344, 0
194, 386007351, 0.42897102, 0.5471413, -0.43623978, 0.57124007, 0.01899346, -0.014894904, 0.06041622, 0
195, 386024018, 0.42896977, 0.5471443, -0.43624058, 0.5712376, 0.0047156764, 0.0054783025, 0.05208206, 0
196, 386040685, 0.42898318, 0.5471285, -0.43626645, 0.5712228, -0.007243049, 0.007336142, 0.060708046, 0
197, 386057352, 0.4289696, 0.5471344, -0.43624744, 0.5712418, -0.0034968602, 0.0010496168, 0.053811073, 0
198, 386074019, 0.42898807, 0.5471187, -0.43628368, 0.5712152, -0.015825722, -0.004360067, 0.07448387, 0
199, 386090686, 0.42905387, 0.54706705, -0.43635947, 0.5711575, -0.015123893, 0.007754782, 0.055753708, 0
200, 386107353, 0.4291096, 0.5470231, -0.43638903, 0.57113504, 0.0012050701, 0.0035893945, 0.0562582, 0
201, 386124020, 0.42917424, 0.54697365, -0.43647036, 0.57107174, 2.0149694E-4, -0.021566989, 0.041902542, 0
202, 386140687, 0.42927158, 0.54688597, -0.43653524, 0.57103294, 0.002532737, -0.013361381, 0.04210949, 0
203, 386157354, 0.4292485, 0.5469114, -0.43655497, 0.571011, 0.027359663, -0.012410557, 0.07156086, 0
204, 386174021, 0.42927387, 0.5468953, -0.43657303, 0.5709934, -0.050598416, 0.044660572, 0.0813427, 0
205, 386190688, 0.42929074, 0.5468643, -0.43655246, 0.57102627, -0.06828824, -0.01596419, 0.043684006, 0
206, 386207355, 0.4293138, 0.5468417, -0.43655255, 0.57103044, -0.0025150795, -0.042054858, 0.027346611, 0
207, 386224022, 0.4294014, 0.5467912, -0.43668804, 0.57090926, 0.07499329, -0.040156115, 0.06189823, 0
208, 386240689, 0.4293871, 0.54681, -0.4367465, 0.5708572, -0.01969652, 0.08858959, 0.09039211, 0
209, 386257356, 0.429469, 0.5467132, -0.4366994, 0.5709245, -0.047742143, -0.009029029, 0.051862717, 0
210, 386274023, 0.42945376, 0.5467361, -0.43669757, 0.5709154, -0.016517049, -0.08833187, 0.035233498, 0
211, 386290690, 0.42942858, 0.5467754, -0.43676272, 0.57084686, 0.020842807, 0.015912557, 0.05667591, 0
212, 386307357, 0.4294689, 0.5467421, -0.43677655, 0.5708378, -0.01330215, 0.046031598, 0.06513882, 0
213, 386324024, 0.4295459, 0.5466677, -0.4367993, 0.57083374, -0.029544836, -0.008071053, 0.03456211, 0
214, 386340691, 0.42958727, 0.54663277, -0.43684384, 0.570802, 0.027658053, -0.040957186, 0.048736572, 0
215, 386357358, 0.42957866, 0.5466543, -0.43689463, 0.5707489, 0.01030987, -0.0025596705, 0.05405426, 0
216, 386374025, 0.42958435, 0.54665214, -0.4369038, 0.57073975, -0.030121164, 0.066397205, 0.07715511, 0
217, 386390692, 0.4297129, 0.5465404, -0.436983, 0.5706894, -0.007941639, 0.011226385, 0.07767296, 0
218, 386407359, 0.42975765, 0.54648274, -0.43697277, 0.5707186, 0.022669913, -0.052525993, 0.027791977, 0
219, 386424026, 0.42968583, 0.5465552, -0.43698406, 0.5706947, 0.023452768, -0.050591487, 0.038799286, 0
220, 386440693, 0.42966476, 0.5465882, -0.43703428, 0.5706405, -0.036694456, 0.078535974, 0.10449028, 0
221, 386457360, 0.42972872, 0.5465113, -0.43698755, 0.57070184, -0.032669324, 0.035703737, 0.07232475, 0
222, 386474027, 0.4297829, 0.5464507, -0.43696585, 0.5707357, 0.032746885, -0.09667494, 0.018917084, 0
223, 386490694, 0.42971563, 0.5465229, -0.43699896, 0.5706919, 0.024498696, -0.08027624, 0.052819252, 0
224, 386507361, 0.42966378, 0.5465822, -0.43703237, 0.5706485, -0.02230961, 0.086990125, 0.09701443, 0
225, 386524028, 0.42969242, 0.54653287, -0.43693656, 0.5707476, -0.020901479, 0.04802623, 0.05492401, 0
226, 386540695, 0.4297674, 0.5464492, -0.43696007, 0.57075346, 0.0061434773, -0.08745302, 0.032224655, 0
227, 386557362, 0.4297254, 0.54650915, -0.43702742, 0.57067597, 0.009190406, -0.048651617, 0.032250404, 0
228, 386574029, 0.42970395, 0.54652977, -0.43704036, 0.57066256, -0.039444674, 0.09259583, 0.076714516, 0
229, 386590696, 0.4297764, 0.54642874, -0.436997, 0.5707378, -0.004420639, -0.00916202, 0.06810665, 0
230, 386607363, 0.42972127, 0.5464791, -0.43697464, 0.57074815, 0.041844644, -0.07189786, 0.02377224, 0
231, 386624030, 0.42970538, 0.5465093, -0.43702993, 0.5706889, -0.005461204, 0.023661528, 0.067790985, 0
232, 386640697, 0.42974475, 0.54645836, -0.43704003, 0.5707002, -0.027270257, 0.029219178, 0.08088112, 0
233, 386657364, 0.42972878, 0.54647344, -0.43703592, 0.5707009, -0.019275421, 0.0030757617, 0.032536507, 0
234, 386674031, 0.42968693, 0.5464974, -0.43694127, 0.5707819, 0.012231411, -0.0053842035, 0.037121773, 0
235, 386690698, 0.42967308, 0.54651904, -0.43697178, 0.5707484, 0.02330726, -0.051820584, 0.056118965, 0
236, 386707365, 0.42966527, 0.5465417, -0.43702486, 0.5706919, -0.027132573, 0.082562335, 0.06366539, 0
237, 386724032, 0.42972293, 0.5464715, -0.43699092, 0.57074183, -0.004626495, 0.022933323, 0.049425125, 0
238, 386740699, 0.4297246, 0.5464678, -0.43699655, 0.57073975, 0.032193463, -0.06458116, 0.067414284, 0
239, 386757366, 0.42969444, 0.54650396, -0.43702728, 0.5707042, 0.006157782, 0.013735319, 0.045815468, 0
240, 386774033, 0.42975345, 0.5464463, -0.43705153, 0.5706964, -0.0090927305, 0.02831775, 0.0813303, 0
241, 386790700, 0.42977157, 0.54642385, -0.43707797, 0.5706841, -0.0066155363, -0.020103874, 0.07269955, 0
242, 386807367, 0.42974573, 0.5464427, -0.43703997, 0.5707145, -0.01850352, 0.014826285, 0.029226303, 0
243, 386824034, 0.42978764, 0.5464171, -0.43707976, 0.57067686, 0.0017588234, -0.046037856, 0.042243004, 0
244, 386840701, 0.429743, 0.54644847, -0.43708786, 0.5706743, -0.015322372, 0.027163977, 0.08313465, 0
245, 386857368, 0.42977417, 0.5464024, -0.437066, 0.5707119, 0.009883296, -6.0527306E-4, 0.039952278, 0
246, 386874035, 0.42979282, 0.5463926, -0.43710026, 0.57068074, 0.0060779876, -0.04779534, 0.027269363, 0
247, 386890702, 0.42976987, 0.546418, -0.437138, 0.5706449, -0.01401348, 0.029989181, 0.062148094, 0
248, 386907369, 0.42978424, 0.5463958, -0.4371265, 0.5706642, -0.013397255, 0.047002763, 0.05410576, 0
249, 386924036, 0.42980975, 0.5463511, -0.43710977, 0.57070065, 0.016328068, -0.048598424, 0.04896736, 0
250, 386940703, 0.42979243, 0.5463685, -0.43716043, 0.57065815, 0.0092753405, -0.022567656, 0.07390785, 0
251, 386957370, 0.4298251, 0.54633486, -0.4371617, 0.5706649, 0.0500184, -0.0078649735, 0.004702568, 0
252, 386974037, 0.4297931, 0.5463883, -0.43720457, 0.5706049, -0.024460029, -0.003345542, 0.084736824, 0
253, 386990704, 0.42975926, 0.54641974, -0.4372242, 0.5705853, -0.16203281, 0.10827683, 0.11021614, 0
254, 387007371, 0.42984176, 0.5463006, -0.43710658, 0.5707273, -0.008251316, -0.015626686, 0.022829056, 0
255, 387024038, 0.42993492, 0.5462222, -0.43712366, 0.570719, 0.12914355, -0.16280438, -0.017504692, 0
256, 387040705, 0.4298099, 0.54638577, -0.43727255, 0.5705426, 0.08288933, -0.07135316, 0.09220791, 0
257, 387057372, 0.42972443, 0.5464776, -0.43733883, 0.57046825, -0.13091008, 0.28949243, 0.11841583, 0
258, 387074039, 0.43002325, 0.54611874, -0.43712714, 0.5707488, -0.06477215, -0.019763239, -0.0024404526, 0
259, 387090706, 0.43004867, 0.546103, -0.4371255, 0.5707461, 0.08156144, -0.26779357, 0.005030632, 0
260, 387107373, 0.42970994, 0.5465033, -0.43735328, 0.5704433, 0.03308819, 0.010153523, 0.097335815, 0
261, 387124040, 0.42980424, 0.5463866, -0.43727547, 0.570544, -0.099503495, 0.35264018, 0.09074879, 0
262, 387140707, 0.430072, 0.54607046, -0.43708268, 0.57079244, 0.021550002, -0.19492364, 0.045258522, 0
263, 387157374, 0.42996705, 0.54622674, -0.43725318, 0.5705913, 0.080948345, -0.24842079, 0.02059555, 0
264, 387174041, 0.4297577, 0.5464671, -0.43735233, 0.5704428, -0.056823473, 0.18803497, 0.07080841, 0
265, 387190708, 0.42987502, 0.54629785, -0.43716392, 0.5706609, -0.051708605, 0.07996087, 0.109155655, 0
266, 387207375, 0.4298281, 0.54634184, -0.43715316, 0.5706624, 0.016420603, -0.11641136, 0.031455994, 0
267, 387224042, 0.42981663, 0.5463402, -0.43710548, 0.57070917, 0.05766936, -0.020271955, -0.0044870377, 0
268, 387240709, 0.42980975, 0.54635835, -0.43714195, 0.57066905, 0.042083353, -0.09848562, 0.059607506, 0
269, 387257376, 0.42967424, 0.5465275, -0.43725118, 0.5705255, -0.07932642, 0.14279304, 0.11142731, 0
270, 387274043, 0.42988926, 0.54626924, -0.43714812, 0.57068974, -0.05839779, 0.12153472, 0.06515503, 0
271, 387290710, 0.4299744, 0.54614675, -0.4370357, 0.57082903, 0.06476176, -0.23769218, 0.0023107529, 0
272, 387307377, 0.4297844, 0.5464087, -0.4372647, 0.57054585, 0.059292622, -0.1381766, 0.041768074, 0
273, 387324044, 0.4297148, 0.54648626, -0.43729734, 0.57049894, -0.09022704, 0.33055153, 0.110323906, 0
274, 387340711, 0.42995852, 0.5461768, -0.43707138, 0.5707848, -0.005656219, -0.046250865, 0.063694, 0
275, 387357378, 0.42985433, 0.5462817, -0.43706897, 0.5707647, 0.053080305, -0.22187282, -0.01307106, 0
276, 387374045, 0.4296712, 0.5465138, -0.4372364, 0.5705521, -0.019791625, 0.08397315, 0.06981659, 0
277, 387390712, 0.4297542, 0.5463963, -0.43710414, 0.57070357, -0.04093003, 0.13219652, 0.10133743, 0
278, 387407379, 0.42981496, 0.54632276, -0.4371059, 0.57072675, 0.014092492, -0.14942624, 0.039064407, 0
279, 387424046, 0.4297789, 0.5463814, -0.4371562, 0.5706592, 0.008470247, 0.013754987, 0.026875496, 0
280, 387440713, 0.42982912, 0.54632396, -0.43713254, 0.57069457, 0.0020062523, -0.02115863, 0.061362267, 0
281, 387457380, 0.4297508, 0.5464198, -0.43719348, 0.5706151, -0.024220422, 0.017649254, 0.06979561, 0
282, 387474047, 0.42972994, 0.5464118, -0.43709546, 0.57071364, -0.034344107, 0.10777526, 0.07867241, 0
283, 387490714, 0.42981023, 0.5463136, -0.43704543, 0.5707854, 0.045706276, -0.106933735, 0.04104519, 0
284, 387507381, 0.4297181, 0.54642797, -0.43715757, 0.5706595, 0.020563975, -0.020999936, 0.025803566, 0
285, 387524048, 0.42974952, 0.5463992, -0.43715522, 0.5706653, -0.044991147, 0.0919168, 0.07364845, 0
286, 387540715, 0.4298389, 0.5463079, -0.4372106, 0.5706428, -0.022463722, -0.021979593, 0.07520485, 0
287, 387557382, 0.4298734, 0.54629195, -0.43728992, 0.5705713, -0.012703806, 0.033438433, 0.039097786, 0
288, 387574049, 0.42992866, 0.5462076, -0.43725997, 0.57063335, 0.032169215, -0.015748275, 0.042601585, 0
289, 387590716, 0.42986485, 0.5462814, -0.4372858, 0.570591, 0.036788557, -0.07012987, 0.062773705, 0
290, 387607383, 0.42984882, 0.5463053, -0.43731058, 0.57056123, -0.045879945, 0.07958805, 0.069758415, 0
291, 387624050, 0.42988613, 0.5462494, -0.4372414, 0.5706396, -0.012909549, -0.03618004, 0.052117348, 0
292, 387640717, 0.429813, 0.54632866, -0.43725213, 0.5706106, -9.143915E-4, -0.036184736, 0.05982685, 0
293, 387657384, 0.42984945, 0.54630077, -0.437271, 0.5705954, -4.331681E-4, 0.047331996, 0.05588913, 0
294, 387674051, 0.42987934, 0.5462658, -0.4372428, 0.57062805, 0.020699311, -0.060905047, 0.055739403, 0
295, 387690718, 0.4298567, 0.54630214, -0.43729532, 0.57057, -0.0051397923, -0.004899404, 0.057005882, 0
296, 387707385, 0.42987508, 0.54627645, -0.43726423, 0.57060456, -0.012690954, 0.025778867, 0.06084633, 0
297, 387724052, 0.42989805, 0.5462567, -0.4372998, 0.5705788, 0.010313223, -0.039628625, 0.055274963, 0
298, 387740719, 0.429884, 0.54628426, -0.43731576, 0.57055086, -0.01952464, 0.02008778, 0.057866096, 0
299, 387757386, 0.42990762, 0.5462619, -0.43731514, 0.5705548, -0.012349985, -0.008630953, 0.054724693, 0
300, 387774053, 0.4298769, 0.5462881, -0.43730336, 0.57056195, -0.01217028, -0.019461496, 0.039610863, 0
301, 387790720, 0.4298834, 0.5462665, -0.43730542, 0.57057637, 0.021411983, -0.014130489, 0.06639576, 0
302, 387807387, 0.4298548, 0.5462973, -0.43732128, 0.5705562, 0.004071959, -0.016484303, 0.060461044, 0
303, 387824054, 0.4299085, 0.5462591, -0.43738243, 0.5705053, -0.0334096, 0.039771672, 0.061919212, 0
304, 387840721, 0.42992437, 0.54622394, -0.43733215, 0.5705655, -0.02602272, -0.042151637, 0.043743134, 0
305, 387857388, 0.42990768, 0.5462511, -0.43734777, 0.5705402, 0.007496513, -0.024738414, 0.03147888, 0
306, 387874055, 0.42991388, 0.5462399, -0.437341, 0.5705514, 0.0025308372, 0.017883047, 0.05458355, 0
307, 387890722, 0.42988515, 0.5462562, -0.4373261, 0.57056886, -0.0024514901, -0.03205377, 0.053952217, 0
308, 387907389, 0.42986387, 0.54627115, -0.43736112, 0.57054377, -0.02700953, 0.018792076, 0.07124233, 0
309, 387924056, 0.4299198, 0.54621273, -0.43734732, 0.57056814, -0.021701543, -0.014866964, 0.056423187, 0
310, 387940723, 0.4299108, 0.54623115, -0.43736777, 0.5705416, 0.014230846, -0.04600813, 0.058029175, 0
311, 387957390, 0.42984688, 0.54628754, -0.43733525, 0.57056075, 0.0035545265, 0.037079457, 0.06825256, 0
312, 387974057, 0.42986932, 0.5462501, -0.43730012, 0.5706065, 0.0071115117, -8.2029255E-5, 0.06223774, 0
313, 387990724, 0.42985657, 0.54627407, -0.43732685, 0.5705727, -0.029162293, -0.025153253, 0.054369926, 0
314, 388007391, 0.42988396, 0.54624856, -0.43731564, 0.5705851, -0.0287593, 0.013266165, 0.057766914, 0
315, 388024058, 0.429922, 0.54621685, -0.437351, 0.5705598, -0.0030126194, -0.050191175, 0.062057495, 0
316, 388040725, 0.42989188, 0.546247, -0.43737438, 0.5705357, -0.0114226295, 0.028914753, 0.04289627, 0
317, 388057392, 0.4299622, 0.54617745, -0.43738392, 0.57054186, 0.014818015, -0.0021575706, 0.04823208, 0
318, 388074059, 0.42993727, 0.5462104, -0.4374118, 0.57050765, 0.0026945604, -0.046000082, 0.052567482, 0
319, 388090726, 0.42992184, 0.54622483, -0.4374328, 0.5704895, -0.0146636795, 0.03414518, 0.081297874, 0
320, 388107393, 0.4299812, 0.54617393, -0.43743393, 0.5704926, 0.008069935, -0.03129874, 0.058924675, 0
321, 388124060, 0.42995158, 0.5462043, -0.43744448, 0.5704778, -0.015758222, -0.008373243, 0.055163383, 0
322, 388140727, 0.4299693, 0.54618424, -0.43743458, 0.5704912, -0.0108854165, 0.004370349, 0.0501585, 0
323, 388157394, 0.42996123, 0.5462058, -0.43744397, 0.5704695, 0.0015243584, -0.03391496, 0.060518265, 0
324, 388174061, 0.42997065, 0.5462004, -0.43749213, 0.57043064, -0.00857418, 0.03554281, 0.06848812, 0
325, 388190728, 0.4299701, 0.54618907, -0.4374203, 0.570497, -0.00478016, 1.7501065E-4, 0.049687386, 0
326, 388207395, 0.42997178, 0.5461886, -0.43745616, 0.57046866, 0.010475493, -0.0346834, 0.06958485, 0
327, 388224062, 0.42997113, 0.5461876, -0.43745983, 0.5704674, -0.006653869, 0.028960127, 0.0584383, 0
328, 388240729, 0.43001327, 0.5461442, -0.4374726, 0.5704673, -0.004747303, -0.015342153, 0.03992653, 0
329, 388257396, 0.4299658, 0.54618627, -0.43746576, 0.570468, -0.0068451962, -0.0057174615, 0.05685997, 0
330, 388274063, 0.4299909, 0.5461658, -0.43746468, 0.57046956, -0.020972108, 2.0585544E-4, 0.059598923, 0
331, 388290730, 0.43000823, 0.5461523, -0.43746492, 0.57046926, -8.294566E-4, -0.018309958, 0.041856766, 0
332, 388307397, 0.43001518, 0.54615176, -0.4374877, 0.5704471, 0.0017427305, 0.0030703975, 0.04684353, 0
333, 388324064, 0.43003637, 0.54613334, -0.4374917, 0.5704456, -0.005184942, -0.005062792, 0.06631565, 0
334, 388340731, 0.43003064, 0.54613477, -0.43750617, 0.57043743, -0.0027216056, -0.019711385, 0.0554657, 0
335, 388357398, 0.4300578, 0.5461058, -0.43750268, 0.57044727, -0.010496615, -0.0037963674, 0.046720505, 0
336, 388374065, 0.430054, 0.5461134, -0.43750647, 0.57043993, -0.012848643, -0.043075193, 0.050164223, 0
337, 388390732, 0.43004152, 0.54612446, -0.43753183, 0.57041943, -0.011403631, 0.013736883, 0.045391083, 0
338, 388407399, 0.43006727, 0.54609364, -0.43751532, 0.5704422, -0.015947426, 0.0071106176, 0.048179626, 0
339, 388424066, 0.4301089, 0.5460601, -0.43756226, 0.5704069, 0.00696444, -0.050312318, 0.047211647, 0
340, 388440733, 0.4300968, 0.54608256, -0.4375931, 0.5703708, 0.008368214, 0.016361373, 0.05692005, 0
341, 388457400, 0.43010566, 0.546071, -0.4375712, 0.5703919, -0.01065084, 0.0044709295, 0.065701485, 0
342, 388474067, 0.4301115, 0.5460658, -0.43758208, 0.5703843, 5.471597E-4, -0.017400261, 0.04402542, 0
343, 388490734, 0.43014026, 0.54603285, -0.43759614, 0.5703834, -0.004660804, 0.0010766619, 0.03610897, 0
344, 388507401, 0.43013492, 0.54604, -0.4376027, 0.5703754, 0.002635553, -0.016900038, 0.041321754, 0
345, 388524068, 0.43013582, 0.54604053, -0.4376502, 0.5703378, -0.00804736, 0.029962359, 0.063970566, 0
346, 388540735, 0.4301723, 0.5459982, -0.43762317, 0.5703715, -0.0053383834, -0.008353573, 0.0533638, 0
347, 388557402, 0.430182, 0.5459952, -0.43766597, 0.57033414, 0.0014252304, -0.040600456, 0.043935776, 0
348, 388574069, 0.43020162, 0.5459842, -0.4377051, 0.5703001, -0.022886163, 0.033734363, 0.054149628, 0
349, 388590736, 0.43020973, 0.54596597, -0.4376706, 0.57033795, -0.015375679, -0.012878817, 0.044815063, 0
350, 388607403, 0.43019682, 0.5459825, -0.43769243, 0.57031494, 0.0012866523, -0.021804806, 0.05242443, 0
351, 388624070, 0.4302052, 0.5459689, -0.43768865, 0.5703246, -0.009051381, 0.012719451, 0.07432747, 0
352, 388640737, 0.43021727, 0.5459557, -0.43768954, 0.5703274, -0.019053586, -0.015491683, 0.05324173, 0
353, 388657404, 0.43019164, 0.54597574, -0.43767172, 0.5703412, -0.025690692, -3.1962354E-5, 0.053649902, 0
354, 388674071, 0.43019295, 0.54596543, -0.437675, 0.5703476, 0.006380177, -0.004454166, 0.048394203, 0
355, 388690738, 0.4302389, 0.5459328, -0.43770078, 0.57032436, 0.011994376, -0.021358674, 0.046419144, 0
356, 388707405, 0.4302266, 0.54595107, -0.4377027, 0.57031476, -0.0076620243, 0.029977335, 0.042858124, 0
357, 388724072, 0.4302183, 0.54594785, -0.43765777, 0.57035863, -0.014537506, -0.013140326, 0.05205536, 0
358, 388740739, 0.43018624, 0.5459801, -0.43766886, 0.57034343, 0.004593303, -0.0059785247, 0.046860695, 0
359, 388757406, 0.43017167, 0.5459826, -0.43765777, 0.5703605, -0.017823258, 0.036205523, 0.066122055, 0
360, 388774073, 0.4301924, 0.5459556, -0.43762618, 0.57039505, 0.012213865, -0.041260045, 0.058983803, 0
361, 388790740, 0.43014836, 0.54601765, -0.437658, 0.57034445, 0.011637091, 0.0055232286, 0.052746773, 0
362, 388807407, 0.4302145, 0.5459462, -0.43764225, 0.5703749, -0.02532033, 0.0379677, 0.057971954, 0
363, 388824074, 0.4302455, 0.54590976, -0.4376888, 0.57035065, -0.0072231563, -0.06781785, 0.037168503, 0
364, 388840741, 0.4302215, 0.5459503, -0.43775105, 0.5702823, -0.034823764, 0.0526297, 0.060731888, 0
365, 388857408, 0.43027267, 0.54589295, -0.43771166, 0.57032883, -0.011704703, -0.015835892, 0.06596756, 0
366, 388874075, 0.4302652, 0.5459094, -0.43775705, 0.57028395, 0.0021330959, -0.051230956, 0.046331406, 0
367, 388890742, 0.43023655, 0.545928, -0.43773627, 0.5703035, -4.1014628E-4, 0.021330735, 0.04116726, 0
368, 388907409, 0.4302671, 0.5458942, -0.43772313, 0.5703228, 0.014476264, -0.041352578, 0.06274223, 0
369, 388924076, 0.43023303, 0.54594624, -0.4377552, 0.5702741, -0.0019086889, 0.0024226569, 0.064414024, 0
370, 388940743, 0.43026742, 0.5459104, -0.43772727, 0.5703041, -0.016420044, 0.04152021, 0.040554047, 0
371, 388957410, 0.43024066, 0.54592234, -0.43769667, 0.5703363, 0.00362538, -0.04349875, 0.048496246, 0
372, 388974077, 0.43021795, 0.54594177, -0.43771914, 0.5703176, -0.019030564, 0.025158618, 0.06497669, 0
373, 388990744, 0.43024808, 0.5459046, -0.43768373, 0.5703576, -0.0017421717, -0.024634928, 0.052336693, 0
374, 389007411, 0.43024385, 0.5459193, -0.43774998, 0.5702959, -0.011062103, -0.011440734, 0.06847477, 0
375, 389024078, 0.43022892, 0.54591644, -0.437726, 0.5703283, -0.010090046, 0.031826902, 0.06467438, 0
376, 389040745, 0.43023604, 0.54589534, -0.43766126, 0.57039285, -0.0015434687, -0.04089058, 0.026766777, 0
377, 389057412, 0.4301617, 0.5459652, -0.4376754, 0.5703712, 0.0049891444, -0.023197962, 0.06978798, 0
378, 389074079, 0.43015918, 0.5459594, -0.43765783, 0.570392, -0.0073571526, 0.03623391, 0.0636034, 0
379, 389090746, 0.4301413, 0.5459693, -0.4376065, 0.57043546, -0.001636003, -0.03811209, 0.041701317, 0
380, 389107413, 0.4301556, 0.54596454, -0.43763798, 0.5704051, -0.0077334363, -0.008324293, 0.04851818, 0
381, 389124080, 0.43016252, 0.5459682, -0.43763834, 0.5703962, -0.01268179, 0.0036421437, 0.050248146, 0
382, 389140747, 0.43014228, 0.54599714, -0.43763986, 0.57038236, -0.026812503, 0.01874782, 0.0647831, 0
383, 389157414, 0.43017063, 0.54597694, -0.43763557, 0.5703836, 0.0056898575, -0.009164255, 0.054891586, 0
384, 389174081, 0.4301614, 0.54598194, -0.43762025, 0.5703976, 0.011291763, -0.030859316, 0.036175728, 0
385, 389190748, 0.43013072, 0.5460163, -0.437637, 0.570375, -6.582456E-5, -0.002632759, 0.052366257, 0
386, 389207415, 0.43011096, 0.54602146, -0.43759316, 0.57041854, -0.021523515, 0.029850379, 0.06264782, 0
387, 389224082, 0.43010336, 0.54602206, -0.4375962, 0.57042134, -0.0046478403, -0.010093398, 0.053613663, 0
388, 389240749, 0.43011153, 0.54601085, -0.4376194, 0.57040834, -0.008845413, 0.00922058, 0.05713272, 0
389, 389257416, 0.43013623, 0.54598093, -0.43762934, 0.5704107, 0.004944777, -0.015727935, 0.06382465, 0
390, 389274083, 0.43010938, 0.546005, -0.43763578, 0.570403, -0.00369981, -0.010410563, 0.062067986, 0
391, 389290750, 0.4301344, 0.5459746, -0.4376499, 0.5704022, 0.0065503824, 0.004140801, 0.02999115, 0
392, 389307417, 0.4301011, 0.54599595, -0.43761566, 0.57043326, -0.0037901092, -0.028621728, 0.0588789, 0
393, 389324084, 0.43009746, 0.54599804, -0.43764815, 0.5704092, -0.0042250655, 0.0153589165, 0.06467533, 0
394, 389340751, 0.43009153, 0.54599553, -0.43762442, 0.5704341, -0.016750619, -0.0010511815, 0.064435005, 0
395, 389357418, 0.43010086, 0.5459852, -0.4376457, 0.57042056, -0.00859642, -0.015696645, 0.041093826, 0
396, 389374085, 0.43011102, 0.54597783, -0.4376504, 0.5704164, -0.02079598, -2.465348E-4, 0.05891323, 0
397, 389390752, 0.43010482, 0.54597706, -0.4376533, 0.57041955, -0.004766861, 0.007604805, 0.0583601, 0
398, 389407419, 0.43013996, 0.5459599, -0.43769273, 0.57037926, 0.003079338, -0.012263932, 0.047418594, 0
399, 389424086, 0.43012822, 0.5459633, -0.4376807, 0.5703942, -0.010055289, 0.017146796, 0.062355995, 0
400, 389440753, 0.43012068, 0.54596716, -0.43769878, 0.57038236, -0.010662238, 5.160914E-4, 0.052080154, 0
401, 389457420, 0.4300946, 0.54598993, -0.4376893, 0.5703874, -0.025112463, 0.020193279, 0.047045708, 0
402, 389474087, 0.4301028, 0.5459827, -0.43768314, 0.57039297, -0.011069815, -0.029391283, 0.06162834, 0
403, 389490754, 0.4301037, 0.54598105, -0.43770197, 0.57037926, -0.009783832, -0.016390651, 0.054273605, 0
404, 389507421, 0.43012357, 0.54597163, -0.4377009, 0.5703741, -0.002443667, 0.012686148, 0.05671978, 0
405, 389524088, 0.43014246, 0.54595345, -0.43771434, 0.5703671, -0.017195746, -0.010742033, 0.06552887, 0
406, 389540755, 0.43014553, 0.54594874, -0.43772802, 0.5703586, -0.008896709, -0.01066425, 0.066952705, 0
407, 389557422, 0.43014157, 0.5459477, -0.43771288, 0.5703744, -0.02903288, -0.018443841, 0.06006241, 0
408, 389574089, 0.43012413, 0.5459659, -0.43769917, 0.5703804, -0.008851783, -0.026789816, 0.05932522, 0
409, 389590756, 0.43012628, 0.5459663, -0.43770123, 0.5703769, -0.011332554, -0.002355156, 0.07128143, 0
410, 389607423, 0.43014055, 0.54594946, -0.43771768, 0.5703697, 5.3643107E-6, -0.012818691, 0.047070503, 0
411, 389624090, 0.43016815, 0.5459319, -0.43774748, 0.5703429, -0.009750194, -0.0016410322, 0.06414795, 0
412, 389640757, 0.43017742, 0.54591435, -0.43774602, 0.57035375, -0.0052297562, -0.0066901897, 0.04959011, 0
413, 389657424, 0.4301236, 0.5459535, -0.4376899, 0.57039994, 0.0030597807, 0.006546918, 0.05671501, 0
414, 389674091, 0.43012974, 0.5459436, -0.43768704, 0.570407, -0.018041296, -0.0040290444, 0.052467346, 0
415, 389690758, 0.4301413, 0.5459342, -0.43770888, 0.5703905, -0.005804296, -0.019047104, 0.057469368, 0
416, 389707425, 0.43014577, 0.54592985, -0.4377066, 0.570393, -0.013345847, -0.01629253, 0.05385971, 0
417, 389724092, 0.43018594, 0.54589665, -0.4377251, 0.5703804, -0.009526458, -0.023565194, 0.047094345, 0
418, 389740759, 0.43018767, 0.545899, -0.43774733, 0.57035977, -0.012180786, -0.013346629, 0.07077122, 0
419, 389757426, 0.43019164, 0.54589236, -0.43776327, 0.5703508, -0.026352067, 0.004369455, 0.07031155, 0
420, 389774093, 0.43022645, 0.5458567, -0.4377825, 0.57034385, -0.0053767157, -0.003812237, 0.040600777, 0
421, 389790760, 0.43020883, 0.5458761, -0.43777934, 0.57034117, -0.0055737426, -0.01899413, 0.0528574, 0
422, 389807427, 0.43017986, 0.5458963, -0.43778548, 0.5703391, 0.0065947496, -0.010036626, 0.062369347, 0
423, 389824094, 0.43020582, 0.5458762, -0.43780038, 0.5703271, -0.013742694, -0.0028927047, 0.058932304, 0
424, 389840761, 0.4302274, 0.54586023, -0.43781036, 0.57031846, -0.018468428, 0.008527019, 0.07716656, 0
425, 389857428, 0.43025437, 0.5458349, -0.4378451, 0.57029563, -0.008764725, 5.330784E-4, 0.054917336, 0
426, 389874095, 0.43024147, 0.54583776, -0.43783095, 0.5703137, 0.0040841405, -0.0054438817, 0.05228424, 0
427, 389890762, 0.43026942, 0.5458169, -0.43786535, 0.570286, -0.01574984, -0.016327845, 0.053985596, 0
428, 389907429, 0.43029186, 0.5458034, -0.437889, 0.5702638, -0.027518021, 0.010236447, 0.0660162, 0
429, 389924096, 0.4303044, 0.54578924, -0.43788517, 0.57027084, -0.016759, 0.01845457, 0.047574997, 0
430, 389940763, 0.4303123, 0.54577947, -0.4378929, 0.5702683, -3.0330708E-4, -0.03189038, 0.060922623, 0
431, 389957430, 0.43032143, 0.54577357, -0.43791807, 0.57024765, 0.005303851, -0.02084549, 0.060153008, 0
432, 389974097, 0.43034384, 0.54575694, -0.43793213, 0.570236, -0.020872422, 0.017947868, 0.051595688, 0
433, 389990764, 0.43035936, 0.5457334, -0.43792653, 0.57025117, -0.008059206, -0.011470461, 0.065431595, 0
434, 390007431, 0.43034947, 0.5457556, -0.43793178, 0.57023335, -0.017447421, -0.014260797, 0.0560894, 0
435, 390024098, 0.43034908, 0.54575306, -0.43792233, 0.57024324, -0.011794667, 0.010605243, 0.05433178, 0
436, 390040765, 0.43035024, 0.54574794, -0.43790543, 0.5702602, 0.011117311, -0.019841244, 0.05055237, 0
437, 390057432, 0.4303469, 0.5457607, -0.43791586, 0.5702426, -0.013340371, 0.013386638, 0.06780243, 0
438, 390074099, 0.43038025, 0.545728, -0.43794608, 0.5702253, -0.02239801, 0.017546885, 0.05235195, 0
439, 390090766, 0.43038622, 0.54572904, -0.43795246, 0.570215, -0.009900618, -0.015735311, 0.046500206, 0
440, 390107433, 0.43037903, 0.5457397, -0.43795818, 0.57020587, -0.016814992, -0.0028569426, 0.0658865, 0
441, 390124100, 0.4304, 0.54572195, -0.4379623, 0.5702039, -0.021498818, 0.006607043, 0.06276703, 0
442, 390140767, 0.43039954, 0.545725, -0.4379773, 0.5701899, -0.008041885, -0.008815574, 0.04739189, 0
443, 390157434, 0.43038866, 0.54573905, -0.4379793, 0.5701832, -0.01587512, 0.01261306, 0.052586555, 0
444, 390174101, 0.4303981, 0.5457324, -0.4379841, 0.5701786, -0.011726049, -0.0040125046, 0.049803734, 0
445, 390190768, 0.43039763, 0.5457351, -0.43798417, 0.57017624, -0.017228378, -0.010196214, 0.07017231, 0
446, 390207435, 0.43038234, 0.5457437, -0.43797272, 0.5701883, -0.0207686, 0.0054805377, 0.056679726, 0
447, 390224102, 0.4303887, 0.54573894, -0.43796676, 0.57019275, -0.01899413, 0.0026148781, 0.048657417, 0
448, 390240769, 0.43044502, 0.54569465, -0.43802685, 0.5701465, -0.006458407, 0.007981648, 0.05471611, 0
449, 390257436, 0.43045962, 0.54568464, -0.4380438, 0.570132, -0.0018284477, -0.012633176, 0.055211067, 0
450, 390274103, 0.43046612, 0.54567957, -0.43805358, 0.57012445, -0.01910801, -0.015979612, 0.059218407, 0
451, 390290770, 0.43046838, 0.545677, -0.43803716, 0.5701378, -0.010810986, -0.009065239, 0.06882858, 0
452, 390307437, 0.43045643, 0.5456901, -0.4380036, 0.5701601, -0.0060364143, 0.013831206, 0.058779716, 0
453, 390324104, 0.43047082, 0.54567903, -0.43801743, 0.5701492, -0.014207824, -0.014984085, 0.057774544, 0
454, 390340771, 0.4304785, 0.5456756, -0.4380118, 0.570151, -0.004418069, -0.004810446, 0.052812576, 0
455, 390357438, 0.43044716, 0.54570645, -0.43798313, 0.57016706, -0.0050088135, -0.028833171, 0.06331825, 0
456, 390374105, 0.4304616, 0.54569554, -0.43800536, 0.57014954, -0.008510256, 0.0020028995, 0.06209755, 0
457, 390390772, 0.4304209, 0.5457286, -0.43794614, 0.5701942, -1.6729944E-4, 0.011328307, 0.057793617, 0
458, 390407439, 0.43042284, 0.5457331, -0.43794742, 0.57018745, -0.0030928606, -0.02449322, 0.043320656, 0
459, 390424106, 0.4304067, 0.5457465, -0.4379367, 0.57019496, -0.029484041, -0.0016457259, 0.059537888, 0
460, 390440773, 0.43040508, 0.54573864, -0.43794584, 0.5701967, -0.041540664, 0.0147865, 0.05562401, 0
461, 390457440, 0.43040594, 0.5457353, -0.43792722, 0.57021356, -0.007310103, -0.02789844, 0.055164337, 0
462, 390474107, 0.43040395, 0.5457417, -0.43793863, 0.57020015, 0.023154378, -0.01364189, 0.04876709, 0
463, 390490774, 0.43039218, 0.54574966, -0.4379472, 0.5701949, -0.022107443, 0.014172509, 0.065960884, 0
464, 390507441, 0.43035847, 0.5457678, -0.43789938, 0.5702398, -0.015671723, 0.0086839255, 0.066783905, 0
465, 390524108, 0.43036872, 0.54576427, -0.4378975, 0.5702368, -0.02683016, -0.003417513, 0.049713135, 0
466, 390540775, 0.43032855, 0.5458036, -0.43786207, 0.5702567, -0.016231958, -3.9405335E-4, 0.044402122, 0
467, 390557442, 0.43031192, 0.5458256, -0.4378628, 0.57024765, -0.010745274, 0.008953705, 0.06741047, 0
468, 390574109, 0.43036056, 0.5457811, -0.43787408, 0.57024497, -0.0019628908, 0.004447684, 0.065891266, 0
469, 390590776, 0.43036348, 0.54577774, -0.43786618, 0.5702519, 0.0018435349, -0.03247934, 0.043061256, 0
470, 390607443, 0.4303324, 0.5457951, -0.43788522, 0.57024413, -0.008250981, -0.0033723635, 0.05902958, 0
471, 390624110, 0.43034077, 0.5457808, -0.4378648, 0.57026726, -0.0055824597, 0.008807304, 0.04835224, 0
472, 390640777, 0.43035802, 0.54577726, -0.43789533, 0.570234, 0.0033263199, -0.01233501, 0.046569824, 0
473, 390657444, 0.43037647, 0.54576045, -0.4379153, 0.57022095, -0.028818196, 0.010364072, 0.07030201, 0
474, 390674111, 0.43037722, 0.54575264, -0.43791777, 0.57022595, -0.009019083, -7.6888455E-4, 0.05786228, 0
475, 390690778, 0.43039194, 0.5457453, -0.43795085, 0.57019645, -0.016528225, 0.0055321692, 0.05541897, 0
476, 390707445, 0.43040502, 0.5457275, -0.43791956, 0.5702276, 0.011638879, -0.0205471, 0.048178673, 0
477, 390724112, 0.43041277, 0.5457349, -0.4379446, 0.57019544, -0.0038344765, -0.009989912, 0.047816277, 0
478, 390740779, 0.43043, 0.5457356, -0.43795234, 0.5701759, -0.0029840097, 0.014321593, 0.06721592, 0
479, 390757446, 0.43044543, 0.54571867, -0.43794468, 0.57018626, -0.006625818, -0.0039961883, 0.06337452, 0
480, 390774113, 0.43044186, 0.5457268, -0.4379657, 0.57016504, -0.011041316, -0.015357352, 0.051488876, 0
481, 390790780, 0.43044892, 0.5457156, -0.43796074, 0.5701742, -0.0124589475, 0.003288546, 0.057559013, 0
482, 390807447, 0.43042466, 0.5457338, -0.43793714, 0.5701932, 0.001470827, -0.015125122, 0.060632706, 0
483, 390824114, 0.4304196, 0.5457349, -0.43794414, 0.5701906, -0.007321502, -0.0027536796, 0.055068016, 0
484, 390840781, 0.4304265, 0.545723, -0.43793505, 0.5702036, -0.009364746, 0.006542001, 0.056602478, 0
485, 390857448, 0.43044186, 0.54570913, -0.43796042, 0.5701859, -0.013683687, -0.018587785, 0.06993866, 0
486, 390874115, 0.43042728, 0.54572487, -0.437958, 0.5701838, -0.0038105606, 0.0023663316, 0.049549103, 0
487, 390890782, 0.43046245, 0.5456953, -0.43793893, 0.57020026, -0.0050383173, -0.010874799, 0.045451164, 0
488, 390907449, 0.43047637, 0.5456886, -0.43797958, 0.57016486, -0.010586803, -0.03376588, 0.05857849, 0
489, 390924116, 0.4304879, 0.54568803, -0.438037, 0.57011265, -0.02044473, 0.032818407, 0.065065384, 0
490, 390940783, 0.43056396, 0.5456073, -0.43805483, 0.5701187, -0.016668031, -0.005643702, 0.050308228, 0
491, 390957450, 0.43053672, 0.54564136, -0.4380533, 0.57010794, -0.01726347, -0.027585074, 0.066020966, 0
492, 390974117, 0.43052003, 0.5456503, -0.43806538, 0.5701026, -0.003289999, 0.04973655, 0.045271873, 0
493, 390990784, 0.43058044, 0.5455994, -0.43805766, 0.5701119, 0.014069358, -0.013022088, 0.055817604, 0
494, 391007451, 0.43056643, 0.5456302, -0.43808398, 0.5700725, -3.656672E-4, -0.017607903, 0.071923256, 0
495, 391024118, 0.4305663, 0.5456258, -0.4380631, 0.5700929, -0.004508927, 0.01994339, 0.04151535, 0
496, 391040785, 0.4305971, 0.5456109, -0.43806866, 0.5700796, -0.012984091, -0.029025616, 0.060204506, 0
497, 391057452, 0.4305937, 0.5456239, -0.43809256, 0.5700514, -0.020495467, 0.0064463373, 0.051753998, 0
498, 391074119, 0.43061134, 0.54560876, -0.43808538, 0.570058, -0.03153723, -0.00657821, 0.057992935, 0
499, 391090786, 0.43060794, 0.5456223, -0.43809715, 0.5700387, -0.0128246145, -0.028127095, 0.052723885, 0
500, 391107453, 0.43058345, 0.54564464, -0.4380775, 0.57005095, -0.0019548442, 0.02900684, 0.058650017, 0
501, 391124120, 0.43061402, 0.5456173, -0.43809012, 0.57004434, -0.0028692358, -0.014971345, 0.037864685, 0
502, 391140787, 0.4306356, 0.545609, -0.4381395, 0.56999797, -0.017945744, -0.0028506843, 0.052944183, 0
503, 391157454, 0.43067375, 0.5455805, -0.43814072, 0.5699955, -0.018316329, 0.0083567025, 0.061024666, 0
504, 391174121, 0.43068215, 0.54558104, -0.43815225, 0.5699798, -0.013174189, -0.03628487, 0.04656124, 0
505, 391190788, 0.43066227, 0.54560035, -0.4381401, 0.56998557, -0.017720107, 0.04173076, 0.049199104, 0
506, 391207455, 0.4306744, 0.545587, -0.43812865, 0.56999797, -0.002102363, -0.037630863, 0.049132347, 0
507, 391224122, 0.43065757, 0.545608, -0.43815893, 0.5699674, 0.0028961692, 0.003024801, 0.048511505, 0
508, 391240789, 0.43066782, 0.5455924, -0.43814307, 0.56998676, -0.0055288165, 0.030409608, 0.05172062, 0
509, 391257456, 0.43066815, 0.5455926, -0.43813708, 0.56999093, 0.018375559, -0.03661813, 0.062318802, 0
510, 391274123, 0.43070886, 0.5455739, -0.43819994, 0.5699298, 0.010080323, 0.010245163, 0.05945301, 0
511, 391290790, 0.43071362, 0.54555976, -0.4381681, 0.5699642, -0.015852544, 0.002829674, 0.06263065, 0
512, 391307457, 0.43070182, 0.54557115, -0.43818936, 0.5699458, -0.0041093975, -0.02499009, 0.055915833, 0
513, 391324124, 0.43069735, 0.5455747, -0.43818113, 0.56995213, -0.015197316, -0.014733527, 0.06462288, 0
514, 391340791, 0.43068454, 0.5455847, -0.43817845, 0.5699544, -0.009608151, 0.005780939, 0.05151844, 0
515, 391357458, 0.43069613, 0.5455849, -0.43819302, 0.5699342, -0.00940196, 0.017116176, 0.055768967, 0
516, 391374125, 0.43070626, 0.5455769, -0.43817568, 0.56994736, 0.00232487, -0.008747403, 0.04941559, 0
517, 391390792, 0.43068263, 0.5456069, -0.43819058, 0.5699252, 0.0013843275, -0.0051235873, 0.056117058, 0
518, 391407459, 0.43070543, 0.5455967, -0.43819746, 0.56991243, -0.009670624, 0.029231695, 0.06307411, 0
519, 391424126, 0.4307138, 0.5455867, -0.4382013, 0.5699126, -0.023356993, -0.013986547, 0.059179306, 0
520, 391440793, 0.43069902, 0.5456066, -0.43820086, 0.5699051, 0.0010162017, -0.02835016, 0.059176445, 0
521, 391457460, 0.43071193, 0.545593, -0.43819964, 0.5699094, 0.003636444, 0.0046300706, 0.041273117, 0
522, 391474127, 0.43071035, 0.54559565, -0.43823412, 0.56988144, 0.0031817069, -8.898051E-4, 0.051475525, 0
523, 391490794, 0.43072, 0.5455873, -0.43823263, 0.56988335, -0.021388402, -7.2708767E-4, 0.061888695, 0
524, 391507461, 0.43073758, 0.5455614, -0.43822137, 0.56990355, -0.0027422805, -0.024438012, 0.06400871, 0
525, 391524128, 0.43073112, 0.54556465, -0.4382427, 0.5698889, 0.017342258, -0.011121111, 0.06409168, 0
526, 391540795, 0.4307285, 0.5455668, -0.4382354, 0.5698944, -0.005740707, -0.010632064, 0.051184654, 0
527, 391557462, 0.43073857, 0.54555315, -0.43824047, 0.5698959, 0.0011484096, -0.009927551, 0.051376343, 0
528, 391574129, 0.43072662, 0.545572, -0.43823516, 0.56989104, -0.018419033, 0.008241146, 0.05079651, 0
529, 391590796, 0.43074918, 0.5455477, -0.4382198, 0.56990904, -0.0050371997, 0.0020663773, 0.050349236, 0
530, 391607463, 0.4307399, 0.54556143, -0.43823063, 0.5698945, -0.014632387, 0.008812892, 0.057088852, 0
531, 391624130, 0.43074697, 0.5455498, -0.4382367, 0.5698956, -0.003910359, 0.014831649, 0.065714836, 0
532, 391640797, 0.43076864, 0.545531, -0.4382342, 0.5698992, -0.0064806463, -0.017583542, 0.054825783, 0
533, 391657464, 0.4307736, 0.54553133, -0.43826178, 0.569874, 0.0012610601, -0.0067375745, 0.043964386, 0
534, 391674131, 0.43079078, 0.54551536, -0.43826365, 0.5698748, -0.007028812, 0.037946243, 0.04460621, 0
535, 391690798, 0.430783, 0.54552054, -0.43826544, 0.56987435, 0.0143040465, 0.00954512, 0.060173035, 0
536, 391707465, 0.43078193, 0.54551977, -0.4382718, 0.56987107, -0.018315658, 0.0062914426, 0.06380272, 0
537, 391724132, 0.43079013, 0.54549634, -0.4382775, 0.56988287, 3.5505032E-4, -0.03026142, 0.048194885, 0
538, 391740799, 0.43076986, 0.54550993, -0.43829337, 0.569873, 0.0036423672, -0.022581961, 0.04734516, 0
539, 391757466, 0.43077484, 0.5455063, -0.4382934, 0.56987274, -0.03160272, 0.017579071, 0.06661606, 0
540, 391774133, 0.43079886, 0.5454898, -0.4383136, 0.5698549, -0.007466227, -0.03316284, 0.071928024, 0
541, 391790800, 0.43080458, 0.5454849, -0.43834105, 0.569834, 8.091169E-5, -0.003758594, 0.053173065, 0
542, 391807467, 0.43081516, 0.5454657, -0.43833837, 0.5698464, -0.0120367315, -8.3415036E-4, 0.049682617, 0
543, 391824134, 0.43081328, 0.54545677, -0.438362, 0.5698382, -0.005127052, -0.019988764, 0.058060646, 0
544, 391840801, 0.43080106, 0.545474, -0.4383545, 0.5698367, -0.013367639, -4.2378056E-4, 0.058504105, 0
545, 391857468, 0.43083158, 0.54544556, -0.4383616, 0.5698355, 0.002058331, -0.02263918, 0.058693886, 0
546, 391874135, 0.43082312, 0.54545647, -0.43837723, 0.5698194, 0.020915225, -0.016288059, 0.054997444, 0
547, 391890802, 0.43083423, 0.54544544, -0.43839344, 0.5698091, -0.0112937745, 0.02761592, 0.04739952, 0
548, 391907469, 0.43083945, 0.54543847, -0.43838108, 0.5698214, -0.01328561, -0.025920127, 0.04684925, 0
549, 391924136, 0.4308091, 0.5454698, -0.43836537, 0.5698264, -0.01708019, -0.015836563, 0.060710907, 0
550, 391940803, 0.43082726, 0.54545677, -0.43836272, 0.56982714, -0.015671164, 0.004780495, 0.050718307, 0
551, 391957470, 0.43080953, 0.545465, -0.43833828, 0.5698514, -0.0015349753, -0.023623085, 0.032159805, 0
552, 391974137, 0.4307923, 0.5454776, -0.4383574, 0.5698376, -0.010937942, -0.0013493478, 0.059664726, 0
553, 391990804, 0.4308086, 0.5454498, -0.43835244, 0.5698558, -0.0031941119, 0.00802188, 0.054678917, 0
554, 392007471, 0.4307887, 0.54546475, -0.4383426, 0.56986415, -0.0065994435, -0.02498763, 0.055645943, 0
555, 392024138, 0.43080732, 0.5454515, -0.43836457, 0.56984586, -0.015098188, 0.0054655625, 0.06688118, 0
556, 392040805, 0.43081832, 0.5454468, -0.4383689, 0.56983876, 0.003070621, -0.013284492, 0.0313282, 0
557, 392057472, 0.43082267, 0.5454429, -0.43838072, 0.5698299, -0.014087016, -0.005682593, 0.05130291, 0
558, 392074139, 0.43082535, 0.5454409, -0.43835673, 0.5698484, -0.0027913416, 0.013199781, 0.06632519, 0
559, 392090806, 0.4308271, 0.54543704, -0.4383698, 0.5698408, -0.009764164, -0.02314119, 0.048919678, 0
560, 392107473, 0.43081525, 0.5454503, -0.43835938, 0.56984496, -0.006004005, 0.009780927, 0.057463646, 0
561, 392124140, 0.43081006, 0.5454509, -0.43835777, 0.56984943, -0.012911337, 0.0119838705, 0.061427116, 0
562, 392140807, 0.43080062, 0.5454665, -0.43834737, 0.5698497, -0.001185401, -0.004784742, 0.054997444, 0
563, 392157474, 0.4307976, 0.54546994, -0.43834385, 0.56985146, -0.010346973, -0.005417954, 0.03334999, 0
564, 392174141, 0.4308192, 0.54544234, -0.43836275, 0.569847, -0.0072401436, -0.0055053476, 0.064484596, 0
565, 392190808, 0.43081394, 0.5454387, -0.43838042, 0.5698408, -0.015574271, -0.0034284652, 0.05488968, 0
566, 392207475, 0.43083087, 0.5454246, -0.43835217, 0.5698632, -0.0013084449, -0.0076162037, 0.061532974, 0
567, 392224142, 0.43081787, 0.5454334, -0.4383462, 0.56986934, 0.0046996954, -0.019537715, 0.06438446, 0
568, 392240809, 0.43080452, 0.54544437, -0.4383653, 0.5698543, -0.018327728, 0.033033427, 0.05045128, 0
569, 392257476, 0.43080357, 0.5454401, -0.43833062, 0.5698856, -0.008361285, 0.0039628847, 0.06657028, 0
570, 392274143, 0.43082365, 0.5454352, -0.43838954, 0.56983, -0.009642796, -0.0043593966, 0.058066368, 0
571, 392290810, 0.43081933, 0.5454296, -0.43838108, 0.56984514, -0.019430876, 0.01897871, 0.055268288, 0
572, 392307477, 0.4308412, 0.5454044, -0.43838957, 0.569846, -0.008881511, -0.041037872, 0.056482315, 0
573, 392324144, 0.43083262, 0.5454201, -0.4384183, 0.5698154, 5.518535E-4, -0.025684545, 0.057940483, 0
574, 392340811, 0.43086123, 0.54539424, -0.43843767, 0.5698036, -0.005121799, 0.003112865, 0.048214912, 0
575, 392357478, 0.4308435, 0.5454085, -0.43841252, 0.5698227, -0.01943937, -0.02633698, 0.06278896, 0
576, 392374145, 0.4308367, 0.54541665, -0.43841568, 0.5698176, -0.013492919, -0.0013399601, 0.048620224, 0
577, 392390812, 0.43085885, 0.54539794, -0.43839648, 0.56983346, 0.006046249, -0.027495222, 0.05783558, 0
578, 392407479, 0.4308467, 0.54540783, -0.43840793, 0.5698246, -0.0013751634, -0.017397802, 0.058581352, 0
579, 392424146, 0.4308564, 0.5454036, -0.43841144, 0.5698186, -0.02223764, 0.023137838, 0.05836296, 0
580, 392440813, 0.43087134, 0.54538345, -0.43840465, 0.56983185, -0.0110448925, -0.010167157, 0.05082512, 0
581, 392457480, 0.43085948, 0.5453964, -0.4384107, 0.5698238, -0.010040314, 0.01039894, 0.059020042, 0
582, 392474147, 0.43087864, 0.5453823, -0.4384025, 0.5698289, 0.001259272, 0.010720575, 0.053775787, 0
583, 392490814, 0.43088582, 0.54537433, -0.4383918, 0.5698393, 0.0017380367, 0.01721519, 0.042157173, 0
584, 392507481, 0.43086588, 0.54538983, -0.4383778, 0.56985056, 0.007940186, -0.0011926651, 0.06387997, 0
585, 392524148, 0.43088716, 0.54536283, -0.43838385, 0.5698556, -0.011046234, -0.02027352, 0.052775383, 0
586, 392540815, 0.43088827, 0.5453721, -0.43839166, 0.56983966, -0.011924751, -0.030955426, 0.055472374, 0
587, 392557482, 0.4308691, 0.5453752, -0.4383814, 0.5698591, -0.012835232, 0.019100523, 0.064785, 0
588, 392574149, 0.43088478, 0.54536235, -0.43839955, 0.5698456, -0.013733083, -0.01311574, 0.05469513, 0
589, 392590816, 0.4308863, 0.54537344, -0.43841138, 0.5698248, 0.002854931, 0.004573522, 0.048441887, 0
590, 392607483, 0.430891, 0.5453633, -0.43841454, 0.56982857, 0.014086233, 0.010608149, 0.059002876, 0
591, 392624150, 0.43091002, 0.54534847, -0.43843716, 0.569811, -0.008295795, -0.0045681577, 0.046925545, 0
592, 392640817, 0.4309142, 0.5453417, -0.4384353, 0.5698158, -0.012848643, 0.020637846, 0.055296898, 0
593, 392657484, 0.43093172, 0.5453224, -0.4384608, 0.5698014, 0.011872115, -0.018152827, 0.04594803, 0
594, 392674151, 0.43093693, 0.54532695, -0.43847886, 0.5697792, -0.0075529497, -0.013603445, 0.07304096, 0
595, 392690818, 0.4309487, 0.5453022, -0.43848887, 0.56978625, -0.012897816, -0.018554704, 0.048202515, 0
596, 392707485, 0.4309697, 0.5452823, -0.43851286, 0.56977093, -0.001113318, 0.012860265, 0.04227829, 0
597, 392724152, 0.43096825, 0.5452756, -0.43851334, 0.56977797, 0.0019094712, -0.0095019825, 0.044006348, 0
598, 392740819, 0.4309605, 0.54526913, -0.4385233, 0.5697823, -0.012133289, -0.0047854125, 0.04605198, 0
599, 392757486, 0.43092933, 0.5453819, -0.43837824, 0.56980973, 0.0016376794, -0.0010084904, 0.051265717, 0
600, 392774153, 0.4309267, 0.54537654, -0.43836695, 0.56982553, -0.013785608, 0.0062863017, 0.036670685, 0
601, 392790820, 0.43092746, 0.5453781, -0.43837026, 0.5698209, -0.008570157, -0.0053888974, 0.04458809, 0
602, 392807487, 0.43094993, 0.5453593, -0.43838507, 0.5698105, -0.014753755, -0.008866759, 0.057824135, 0
603, 392824154, 0.43096727, 0.5453445, -0.43839222, 0.56980604, 0.002669527, -0.02369595, 0.054968834, 0
604, 392840821, 0.43096867, 0.5453472, -0.43840757, 0.5697906, -0.013529798, -0.0015187706, 0.045394897, 0
605, 392857488, 0.43098545, 0.54533345, -0.43840557, 0.5697926, 0.0020483844, -0.01047404, 0.05359173, 0
606, 392874155, 0.43097192, 0.54534036, -0.43839422, 0.5698049, -0.010921067, -0.025505288, 0.06490898, 0
607, 392890822, 0.4309721, 0.5453462, -0.43839794, 0.5697963, 4.4233215E-4, -8.663362E-4, 0.051430702, 0
608, 392907489, 0.430999, 0.54532224, -0.4384152, 0.5697856, -0.016880592, 0.0028339208, 0.05524063, 0
609, 392924156, 0.43100837, 0.54532003, -0.4384252, 0.5697729, 0.0053456477, 0.014374565, 0.05761528, 0
610, 392940823, 0.4310035, 0.5453185, -0.43844005, 0.56976664, -0.005212099, 0.004548265, 0.054183006, 0
611, 392957490, 0.43098685, 0.5453292, -0.43841916, 0.569785, -0.014434244, -0.009309314, 0.04368019, 0
612, 392974157, 0.4310037, 0.54531425, -0.43842736, 0.56978047, -0.019515587, -0.008152188, 0.05653572, 0
613, 392990824, 0.43100595, 0.5453178, -0.43843347, 0.5697705, -0.0042979307, -8.6991244E-4, 0.056357384, 0
614, 393007491, 0.43100807, 0.54531366, -0.43843466, 0.569772, -0.0154159125, -0.004521667, 0.0582819, 0
615, 393024158, 0.43101352, 0.54530734, -0.43843156, 0.56977636, -1.717697E-4, -0.017802583, 0.040032387, 0
616, 393040825, 0.43102637, 0.54530036, -0.43842572, 0.5697779, 0.0076793465, -0.009025677, 0.06616306, 0
617, 393057492, 0.43102658, 0.545298, -0.43842518, 0.56978023, 6.876376E-4, -0.0032226099, 0.05424118, 0
618, 393074159, 0.43098998, 0.5453149, -0.43840736, 0.56980544, -0.01778783, 0.021395778, 0.058444977, 0
619, 393090826, 0.4309971, 0.5453092, -0.43840915, 0.5698042, -0.02169819, -0.005980313, 0.056298256, 0
620, 393107493, 0.43100196, 0.5452982, -0.438404, 0.569815, -0.022072239, -0.013119093, 0.060289383, 0
621, 393124160, 0.43101516, 0.5452833, -0.4384168, 0.56980944, -0.016581643, 0.004290778, 0.060694695, 0
622, 393140827, 0.43102163, 0.5452793, -0.4384211, 0.5698051, -0.0015720783, -0.0015042422, 0.062072754, 0
623, 393157494, 0.43104777, 0.54526526, -0.4384531, 0.5697742, -0.019493906, 0.0045715105, 0.06851196, 0
624, 393174161, 0.43105942, 0.5452589, -0.43844783, 0.5697755, -0.012036061, 0.009837029, 0.043600082, 0
625, 393190828, 0.43105462, 0.54525054, -0.4384598, 0.5697779, -0.008788083, -0.017214296, 0.047689438, 0
626, 393207495, 0.43105438, 0.54524904, -0.43847036, 0.5697714, -0.004701595, -0.02469371, 0.05600643, 0
627, 393224162, 0.4310515, 0.54524326, -0.43847075, 0.5697788, -0.0075003123, -1.9847951E-4, 0.04781723, 0
628, 393240829, 0.43106392, 0.54523504, -0.43846598, 0.56978095, -0.015176195, -0.00866895, 0.07036686, 0
629, 393257496, 0.43106115, 0.54523486, -0.43846202, 0.56978637, -0.0036743295, -0.012927542, 0.05654335, 0
630, 393274163, 0.43105677, 0.54523104, -0.43846527, 0.5697908, -0.004762726, -0.017094271, 0.050824165, 0
631, 393290830, 0.43104404, 0.54523623, -0.4384708, 0.56979114, -0.0268258, 0.016170045, 0.06508732, 0
632, 393307497, 0.43105885, 0.5452221, -0.4384813, 0.5697854, -0.016861035, -0.008946776, 0.04024887, 0
633, 393324164, 0.43106464, 0.5452061, -0.43848878, 0.56979054, -0.002606608, -0.0025677169, 0.060011864, 0
634, 393340831, 0.43107247, 0.5451982, -0.43850803, 0.5697773, -0.01280014, -0.0067346687, 0.054364204, 0
635, 393357498, 0.43109888, 0.54518217, -0.43852535, 0.5697593, -0.010693307, 0.01812936, 0.06174755, 0
636, 393374165, 0.43110305, 0.5451813, -0.43852276, 0.56975895, -0.00914548, -0.019156402, 0.05124569, 0
637, 393390832, 0.43111345, 0.54517305, -0.4385283, 0.56975466, -0.017835999, -0.023748474, 0.045438766, 0
638, 393407499, 0.43110663, 0.5451748, -0.43852562, 0.56976044, -0.002020222, -0.018257208, 0.045920372, 0
639, 393424166, 0.4310994, 0.54519165, -0.43853098, 0.5697456, -0.021671034, 0.0068386025, 0.061157227, 0
640, 393440833, 0.43111464, 0.5451824, -0.4385277, 0.56974536, -0.010052719, 0.013027229, 0.06592941, 0
641, 393457500, 0.43112522, 0.5451728, -0.43852803, 0.5697464, 7.15465E-4, 6.274009E-4, 0.05245495, 0
642, 393474167, 0.43112546, 0.54517406, -0.43852815, 0.5697449, -0.0042259595, 0.010707388, 0.044633865, 0
643, 393490834, 0.43110722, 0.5451844, -0.4385276, 0.5697492, -0.019422494, 0.007628497, 0.053315163, 0
644, 393507501, 0.43110317, 0.5451887, -0.4385282, 0.5697476, -0.009402296, -0.003460204, 0.053842545, 0
645, 393524168, 0.43113136, 0.5451727, -0.438553, 0.56972265, -0.0042722267, -9.3271956E-4, 0.041949272, 0
646, 393540835, 0.43113285, 0.5451803, -0.43854666, 0.56971896, -0.008069488, -0.008685937, 0.045119286, 0
647, 393557502, 0.43113968, 0.5451761, -0.43855605, 0.5697106, 0.002659469, 3.9718254E-4, 0.043245316, 0
648, 393574169, 0.43112367, 0.54518974, -0.4385348, 0.569726, -0.0015731959, 0.007907217, 0.056393623, 0
649, 393590836, 0.43113723, 0.5451752, -0.43852293, 0.56973875, 0.0017401602, 0.012746497, 0.055833817, 0
650, 393607503, 0.43113968, 0.5451658, -0.43851313, 0.5697536, -0.0029738399, -0.005568825, 0.04931259, 0
651, 393624170, 0.43116638, 0.5451465, -0.4385511, 0.56972253, -0.014770295, 0.0029269021, 0.035307884, 0
652, 393640837, 0.43116298, 0.5451461, -0.43855944, 0.5697191, -0.014037508, -0.010161569, 0.05835724, 0
653, 393657504, 0.43114674, 0.5451524, -0.43855795, 0.5697264, -0.013170278, -0.003882867, 0.049211502, 0
654, 393674171, 0.43115276, 0.54514843, -0.4385604, 0.56972384, -0.006140907, 0.008403417, 0.04019642, 0
655, 393690838, 0.43118522, 0.54512113, -0.4386017, 0.56969345, -0.01616781, 0.013404966, 0.061632156, 0
656, 393707505, 0.43119258, 0.545115, -0.43861428, 0.5696843, -0.018029785, 0.013824947, 0.065485954, 0
657, 393724172, 0.43119204, 0.54511213, -0.43860537, 0.56969434, -0.0038837611, -0.011492366, 0.049603462, 0
658, 393740839, 0.4312002, 0.5451073, -0.43861297, 0.5696869, 0.0052736765, -0.0038783967, 0.047142982, 0
659, 393757506, 0.43122455, 0.5450787, -0.43863168, 0.56968135, -0.009250978, -0.0078006024, 0.056833267, 0
660, 393774173, 0.43119395, 0.5450974, -0.43860963, 0.56970364, -0.02768085, -0.01047404, 0.050605774, 0
661, 393790840, 0.4311996, 0.54509526, -0.4386322, 0.569684, -0.008500086, -0.020113707, 0.06322098, 0
662, 393807507, 0.4312131, 0.5450744, -0.43863457, 0.56969196, -0.0104910275, -0.004916838, 0.056847572, 0
663, 393824174, 0.43122607, 0.54507047, -0.4386637, 0.5696635, -1.2371442E-4, -0.0062364587, 0.04908371, 0
664, 393840841, 0.43119717, 0.5450909, -0.43863422, 0.56968844, 0.0048211743, 0.008481199, 0.059550285, 0
665, 393857508, 0.43119895, 0.5450801, -0.43863386, 0.5696977, 0.0019044421, -0.013847298, 0.040887833, 0
666, 393874175, 0.43121523, 0.54507196, -0.43865538, 0.56967664, -0.0022033907, -0.0022103195, 0.06561756, 0
667, 393890842, 0.43120977, 0.54507774, -0.43863568, 0.56969035, -0.0022361353, -0.004062795, 0.054031372, 0
668, 393907509, 0.43123963, 0.54505414, -0.4386786, 0.56965727, -0.0049405303, -0.016567003, 0.058790207, 0
669, 393924176, 0.4312483, 0.54504734, -0.4386793, 0.56965667, -0.018100303, -0.007046693, 0.03203869, 0
670, 393940843, 0.4312674, 0.545032, -0.43869397, 0.5696456, -0.016388193, -0.019284027, 0.053596497, 0
671, 393957510, 0.43125913, 0.5450442, -0.4387079, 0.5696296, -0.003779604, 0.0012758119, 0.05284977, 0
672, 393974177, 0.43125856, 0.5450396, -0.43869627, 0.5696433, 0.0013091154, 0.0024805467, 0.0702343, 0
673, 393990844, 0.43124673, 0.5450469, -0.43867618, 0.5696607, -0.010558305, -0.0037154558, 0.054727554, 0
674, 394007511, 0.43125594, 0.5450463, -0.43869174, 0.56964236, -0.012649828, 0.011981188, 0.05432892, 0
675, 394024178, 0.43127084, 0.5450305, -0.43869606, 0.56964284, -0.009427106, 0.014460394, 0.056105614, 0
676, 394040845, 0.43126473, 0.545041, -0.4386942, 0.5696389, -0.015824046, -0.0059664547, 0.05472374, 0
677, 394057512, 0.431266, 0.54504097, -0.43868783, 0.5696429, -0.028684312, 0.00302793, 0.05966854, 0
678, 394074179, 0.4312723, 0.5450341, -0.43869382, 0.5696401, -0.008146823, -0.0073750336, 0.04836464, 0
679, 394090846, 0.43127984, 0.5450253, -0.43873405, 0.5696118, -0.011991582, 0.005015407, 0.07187748, 0
680, 394107513, 0.4312874, 0.5450107, -0.43873638, 0.56961817, 0.0067981468, 0.0016189043, 0.065363884, 0
681, 394124180, 0.43126953, 0.5450293, -0.4387185, 0.5696278, -6.5880443E-4, -0.0026211364, 0.03878212, 0
682, 394140847, 0.43125647, 0.5450433, -0.4387176, 0.56962496, -0.01100019, -0.0013931562, 0.0437603, 0
683, 394157514, 0.4312623, 0.54503816, -0.4387117, 0.56962997, -0.017030457, -0.0038685622, 0.06282425, 0
684, 394174181, 0.4312576, 0.5450364, -0.4387269, 0.5696236, -0.020566545, -0.011104571, 0.047275543, 0
685, 394190848, 0.4312586, 0.5450279, -0.4387253, 0.56963223, 0.0064205215, 0.004343751, 0.04064274, 0
686, 394207515, 0.43125686, 0.54502624, -0.43870956, 0.56964725, 9.1662665E-4, -0.03359109, 0.05648136, 0
687, 394224182, 0.43127018, 0.5450235, -0.4387355, 0.5696197, 0.0014346179, 0.0013086684, 0.047153473, 0
688, 394240849, 0.4312779, 0.5450162, -0.4387267, 0.5696275, -0.0013986323, 0.01990964, 0.052998543, 0
689, 394257516, 0.43128067, 0.5450126, -0.43873945, 0.56961906, 0.003192659, -0.011331213, 0.060548782, 0
690, 394274183, 0.4312755, 0.5450225, -0.43874404, 0.5696101, 1.21367535E-4, 0.0079284515, 0.043123245, 0
691, 394290850, 0.43128827, 0.54501337, -0.43874878, 0.5696055, -0.0066537573, -0.0031256052, 0.06648445, 0
692, 394307517, 0.4312702, 0.5450305, -0.43872884, 0.5696181, -0.0051321927, 0.0054246592, 0.054146767, 0
693, 394324184, 0.4312668, 0.54503316, -0.43873468, 0.56961364, -0.00382643, 0.014809969, 0.06724167, 0
694, 394340851, 0.4312641, 0.54502714, -0.43873593, 0.5696205, -0.016055271, -0.0041781277, 0.038742065, 0
695, 394357518, 0.43126926, 0.54502076, -0.43874714, 0.56961405, 0.002484123, 9.82563E-4, 0.04707527, 0
696, 394374185, 0.43128452, 0.54500633, -0.43876413, 0.5696031, 3.0487168E-4, 0.01864165, 0.04921055, 0
697, 394390852, 0.43128833, 0.5450053, -0.43876737, 0.5695988, -0.010201019, -0.016787387, 0.061820984, 0
698, 394407519, 0.4312907, 0.54501045, -0.43877876, 0.56958336, 4.8133516E-4, 0.005565249, 0.04479885, 0
699, 394424186, 0.4312814, 0.54501534, -0.43877646, 0.56958747, -0.021016365, 0.014065446, 0.06612301, 0
700, 394440853, 0.43128672, 0.54501224, -0.43878314, 0.5695813, -0.01918814, 0.009603905, 0.057135582, 0
701, 394457520, 0.4312796, 0.5450198, -0.4387802, 0.56958175, -0.0049807625, 0.0068681063, 0.061849594, 0
702, 394474187, 0.43130064, 0.5449966, -0.43879575, 0.5695761, -4.385324E-4, -0.020923495, 0.06574535, 0
703, 394490854, 0.43128964, 0.5450025, -0.4387923, 0.56958145, -0.018656291, 0.008413028, 0.04757595, 0
704, 394507521, 0.43130195, 0.5449872, -0.4387984, 0.56958205, 0.0016815998, 0.002553412, 0.066244125, 0
705, 394524188, 0.4312904, 0.5449943, -0.43878436, 0.56959486, -8.32921E-4, -5.431365E-4, 0.046269417, 0
706, 394540855, 0.43127948, 0.54501015, -0.43880618, 0.569571, -0.014460506, -0.006084693, 0.04983139, 0
707, 394557522, 0.4312882, 0.5450022, -0.4388065, 0.5695717, 0.0049988674, -0.008219913, 0.058698654, 0
708, 394574189, 0.43130717, 0.5449858, -0.438827, 0.5695574, -0.02461034, -0.015482072, 0.059879303, 0
709, 394590856, 0.4313114, 0.5449849, -0.4388394, 0.56954557, -0.0015013366, -0.014496603, 0.05296898, 0
710, 394607523, 0.4312965, 0.54499745, -0.43882012, 0.56955963, 6.6550984E-4, -0.011839258, 0.05171585, 0
711, 394624190, 0.4312779, 0.5450224, -0.43881294, 0.56955516, -6.735563E-4, -0.010305065, 0.05467987, 0
712, 394640857, 0.43127674, 0.54502827, -0.4388066, 0.56955534, -0.02767772, 0.024637833, 0.059874535, 0
713, 394657524, 0.43126237, 0.5450354, -0.438785, 0.5695761, -0.01147862, -0.009803278, 0.07104206, 0
714, 394674191, 0.43127105, 0.5450403, -0.4387936, 0.5695582, -0.010653969, -0.0036819289, 0.052705765, 0
715, 394690858, 0.43128318, 0.5450282, -0.43878233, 0.5695693, -0.0024195279, 0.0019280227, 0.051398277, 0
716, 394707525, 0.43128654, 0.54501987, -0.43878812, 0.5695703, -0.006325305, -0.010961075, 0.05051899, 0
717, 394724192, 0.4312904, 0.5450117, -0.43880934, 0.56955886, -0.0145367235, 0.013261247, 0.050644875, 0
718, 394740859, 0.4313076, 0.5449904, -0.43879816, 0.5695748, -0.012373789, 0.011255442, 0.06540012, 0
719, 394757526, 0.43136963, 0.5451392, -0.43871284, 0.56945115, 0.008124137, -0.008489246, 0.04788685, 0
720, 394774193, 0.4313736, 0.5451244, -0.4387227, 0.5694547, 4.380854E-5, 0.024293177, 0.07068825, 0
721, 394790860, 0.43138668, 0.5451115, -0.43872574, 0.5694549, 0.0053079855, -0.0018193955, 0.049016, 0
722, 394807527, 0.4313844, 0.5451092, -0.43874368, 0.5694449, -0.016699882, 0.0073462003, 0.060034752, 0
723, 394824194, 0.4313797, 0.5451153, -0.43874466, 0.569442, -0.014531025, -0.007000426, 0.067521095, 0
724, 394840861, 0.4313952, 0.5451106, -0.43874437, 0.5694348, -0.0045613404, -0.010248963, 0.06701088, 0
725, 394857528, 0.43139535, 0.5451128, -0.43873698, 0.56943834, -0.0016076169, -0.008818257, 0.05360508, 0
726, 394874195, 0.4313755, 0.5451338, -0.43870533, 0.5694576, -4.57084E-5, 0.0051640435, 0.03769207, 0
727, 394890862, 0.43137375, 0.5451425, -0.438716, 0.5694425, -0.0103496555, 0.005452375, 0.061959267, 0
728, 394907529, 0.43136716, 0.5451461, -0.43871614, 0.56944376, -0.002942101, -0.0035252464, 0.07593918, 0
729, 394924196, 0.43134972, 0.5451625, -0.43871123, 0.5694452, -0.018057723, 0.015307508, 0.06683636, 0
730, 394940863, 0.43137562, 0.5451395, -0.43871456, 0.56944495, -0.006353244, 0.0038544808, 0.039797783, 0
731, 394957530, 0.43136314, 0.5451458, -0.43869928, 0.56946015, 0.007065021, -0.029198838, 0.04337406, 0
732, 394974197, 0.43136233, 0.54515916, -0.43872526, 0.56942797, 0.0016033702, -0.008655986, 0.042520523, 0
733, 394990864, 0.43136483, 0.5451605, -0.43873075, 0.5694206, -0.013793543, 0.020934448, 0.05466938, 0
734, 395007531, 0.4313832, 0.54514164, -0.43873155, 0.56942403, -0.0066077136, 4.1662814E-4, 0.064619064, 0
735, 395024198, 0.43135396, 0.54516447, -0.43870685, 0.56944335, -0.010674979, 0.0061472766, 0.03691578, 0
736, 395040865, 0.43134823, 0.54517466, -0.43870905, 0.5694362, -0.014964863, -0.016463742, 0.05680847, 0
737, 395057532, 0.431354, 0.5451736, -0.43871784, 0.56942636, -0.0042728973, -0.003832353, 0.051989555, 0
738, 395074199, 0.4313605, 0.5451749, -0.43872222, 0.56941676, 0.0033146972, 1.7366957E-4, 0.06123829, 0
739, 395090866, 0.43136907, 0.54516107, -0.43872526, 0.5694211, -0.0020671596, 0.0070688208, 0.050531387, 0
740, 395107533, 0.4313499, 0.5451752, -0.43872488, 0.56942236, 0.006206843, -0.03292279, 0.04084301, 0
741, 395124200, 0.43132353, 0.54519844, -0.43870652, 0.5694343, -0.009124022, 0.009310655, 0.0449934, 0
742, 395140867, 0.43133795, 0.54517645, -0.4387117, 0.56944025, -0.0077785864, -0.0016166692, 0.053461075, 0
743, 395157534, 0.43131447, 0.54519457, -0.43869156, 0.5694563, 0.0016946752, -0.041672874, 0.04833412, 0
744, 395174201, 0.43131372, 0.545198, -0.4386937, 0.5694519, -0.008517631, -3.8086608E-4, 0.058546066, 0
745, 395190868, 0.4312975, 0.54521155, -0.43869957, 0.5694466, -0.010984433, 0.011878372, 0.06358051, 0
746, 395207535, 0.4312918, 0.5452169, -0.4386932, 0.5694508, -0.018144894, 0.0020391087, 0.06230545, 0
747, 395224202, 0.4313009, 0.54520625, -0.43868986, 0.5694567, -0.0016253862, -0.014421727, 0.043741226, 0
748, 395240869, 0.43128443, 0.54521483, -0.43869492, 0.56945705, -0.0064232037, -9.796573E-4, 0.05797577, 0
749, 395257536, 0.4312914, 0.54521257, -0.4386885, 0.56945884, -0.02019786, 0.0075670313, 0.04692936, 0
750, 395274203, 0.43128836, 0.54521006, -0.43868175, 0.56946874, -0.008289872, -0.01747916, 0.06721687, 0
751, 395290870, 0.4312767, 0.5452224, -0.43869612, 0.5694548, 0.0022104313, 0.0076787877, 0.061048508, 0
752, 395307537, 0.43128863, 0.54521394, -0.43867734, 0.5694683, 0.0037597115, -0.01813003, 0.045433998, 0
753, 395324204, 0.4312749, 0.5452206, -0.43868077, 0.5694697, -0.0044641127, -0.026484497, 0.059080124, 0
754, 395340871, 0.4312818, 0.5452228, -0.43869844, 0.56944877, -0.0046117427, 0.01961125, 0.05395603, 0
755, 395357538, 0.4313081, 0.54519635, -0.4386875, 0.5694626, -0.002192215, 0.016542865, 0.055768013, 0
756, 395374205, 0.43130568, 0.54520404, -0.43869665, 0.56944996, -0.006573963, -0.03599408, 0.053858757, 0
757, 395390872, 0.4312945, 0.54521644, -0.43868315, 0.56945705, -9.2199096E-4, 2.2328945E-4, 0.057696342, 0
758, 395407539, 0.43129814, 0.54520696, -0.43869087, 0.56945735, -0.013750405, -0.0070339525, 0.05016327, 0
759, 395424206, 0.43127644, 0.5452245, -0.4386797, 0.56946564, -0.018419703, -0.004892475, 0.05100155, 0
760, 395440873, 0.4312871, 0.5452184, -0.4386724, 0.569469, -0.004926002, 0.008113073, 0.042834282, 0
761, 395457540, 0.43127885, 0.54522324, -0.43867725, 0.56946695, -0.006334357, -0.019834315, 0.06746197, 0
762, 395474207, 0.4312811, 0.54522663, -0.43867669, 0.5694623, -0.011244378, -0.0076792347, 0.05679226, 0
763, 395490874, 0.43127546, 0.5452254, -0.43865803, 0.5694821, -0.016229387, 5.842629E-4, 0.04757595, 0
764, 395507541, 0.43129775, 0.5452176, -0.43867692, 0.5694582, 0.010768742, -0.024766354, 0.063139915, 0
765, 395524208, 0.4312994, 0.54521704, -0.43867895, 0.5694559, 0.0019044421, -0.004224842, 0.069690704, 0
766, 395540875, 0.4312748, 0.545235, -0.4386596, 0.56947225, 0.008997067, -0.005319832, 0.05428505, 0
767, 395557542, 0.4312893, 0.5452264, -0.4386642, 0.56946594, -0.018010227, 0.014442289, 0.0547781, 0
768, 395574209, 0.4312522, 0.545249, -0.43861854, 0.5695076, -0.030036118, -0.015335224, 0.05884838, 0
769, 395590876, 0.4312838, 0.54523057, -0.43865016, 0.569477, 0.013216657, -0.028871393, 0.04174137, 0
770, 395607543, 0.4312712, 0.54523075, -0.43865114, 0.56948566, -0.004620795, -0.015238666, 0.06393051, 0
771, 395624210, 0.43126953, 0.5452298, -0.43865064, 0.5694882, -0.0010496168, 0.008240475, 0.05826664, 0
772, 395640877, 0.4312693, 0.5452302, -0.43865153, 0.5694873, -0.018288836, -0.006529037, 0.063625336, 0
773, 395657544, 0.43129918, 0.5451988, -0.43865564, 0.56949145, -0.002866889, -0.004535525, 0.04437542, 0
774, 395674211, 0.4312938, 0.545213, -0.43865743, 0.5694806, -0.008790094, -0.024786692, 0.054240227, 0
775, 395690878, 0.43129334, 0.54521036, -0.43866533, 0.5694773, -0.03279773, 0.03751464, 0.054441452, 0
776, 395707545, 0.43131652, 0.54518646, -0.43867004, 0.569479, -0.01632181, -3.5315048E-4, 0.058699608, 0
777, 395724212, 0.4313357, 0.5451723, -0.4386963, 0.569458, 0.0054760673, -0.03710449, 0.055075645, 0
778, 395740879, 0.43132377, 0.54518116, -0.43871015, 0.5694477, -0.01274795, 0.045493156, 0.056480408, 0
779, 395757546, 0.4313549, 0.5451566, -0.43871698, 0.5694424, -0.00734363, 0.0033354838, 0.04252243, 0
780, 395774213, 0.4313537, 0.5451627, -0.43872428, 0.56943196, 2.3558266E-4, -0.02927908, 0.05168152, 0
781, 395790880, 0.43134892, 0.5451654, -0.43872952, 0.5694288, -0.0022908961, -0.0013468891, 0.07116127, 0
782, 395807547, 0.43134224, 0.5451705, -0.43872386, 0.56943345, 0.0050383173, -0.010975157, 0.02780056, 0
783, 395824214, 0.43134248, 0.54516685, -0.43872118, 0.5694389, -0.0044807643, -0.009269529, 0.06563187, 0
784, 395840881, 0.43134043, 0.5451632, -0.43872744, 0.56943905, -0.011889436, 0.00730038, 0.06219673, 0
785, 395857548, 0.43134713, 0.5451627, -0.4387302, 0.5694324, -0.020949198, -0.009817136, 0.06321144, 0
786, 395874215, 0.43133968, 0.5451629, -0.43872914, 0.56943864, -0.008111397, 1.7992793E-4, 0.053354263, 0
787, 395890882, 0.43133655, 0.54516554, -0.43871316, 0.56945086, -6.972487E-4, -1.7456363E-4, 0.047056198, 0
788, 395907549, 0.43134224, 0.5451694, -0.43871367, 0.5694423, -0.0046005673, -0.032041922, 0.060691833, 0
789, 395924216, 0.43134525, 0.5451704, -0.43871757, 0.56943613, 0.0011957943, 0.0035176468, 0.058151245, 0
790, 395940883, 0.4313438, 0.5451629, -0.4387068, 0.56945276, 0.0036285094, -0.0045668166, 0.054092407, 0
791, 395957550, 0.43134207, 0.545161, -0.43871373, 0.56945056, 0.011925869, -0.014825167, 0.051124573, 0
792, 395974217, 0.43137166, 0.545139, -0.43873355, 0.56943387, -0.010868206, 0.004462213, 0.0523777, 0
793, 395990884, 0.43135884, 0.5451506, -0.43871918, 0.5694436, 0.0030740853, -0.015693516, 0.057017326, 0
794, 396007551, 0.43131933, 0.54519564, -0.43869284, 0.5694507, -0.011573836, 0.028035007, 0.0664978, 0
795, 396024218, 0.4313346, 0.54517627, -0.43867216, 0.56947356, -0.0030021144, -0.018389082, 0.047343254, 0
796, 396040885, 0.4313005, 0.54520553, -0.43867236, 0.56947124, -0.0044007464, -0.025956783, 0.054728508, 0
797, 396057552, 0.43130943, 0.54519683, -0.43866917, 0.56947523, -0.0010973369, 0.010911008, 0.04397869, 0
798, 396074219, 0.43132246, 0.545181, -0.43865478, 0.5694917, -0.0077613755, -0.015375009, 0.05630493, 0
799, 396090886, 0.43131274, 0.5451939, -0.43868887, 0.5694603, -5.9342687E-4, -0.010370554, 0.061504364, 0
800, 396107553, 0.43132326, 0.5451809, -0.43868405, 0.5694685, -0.012853559, 0.0032512194, 0.05194187, 0
801, 396124220, 0.43132553, 0.5451805, -0.43869632, 0.56945765, 0.001121141, -0.01178092, 0.06369305, 0
802, 396140887, 0.43131083, 0.5451982, -0.43869418, 0.5694534, -0.012599984, 0.025517803, 0.051380157, 0
803, 396157554, 0.43133157, 0.54517096, -0.43868858, 0.5694683, 0.004884764, -0.016208712, 0.049570084, 0
804, 396174221, 0.4313501, 0.54516166, -0.43873322, 0.56942874, -5.5397686E-4, -0.0041423654, 0.061810493, 0
805, 396190888, 0.43134782, 0.54517215, -0.43873176, 0.5694215, -0.017403612, 0.01754599, 0.0600214, 0
806, 396207555, 0.43138433, 0.54512894, -0.43874097, 0.569428, -0.0011266171, 0.0017733518, 0.041996956, 0
807, 396224222, 0.43137696, 0.5451377, -0.438763, 0.5694083, -0.0023784013, -0.028405368, 0.0301857, 0
808, 396240889, 0.4313741, 0.54514086, -0.4387584, 0.569411, 9.0578623E-4, 0.01800531, 0.05643177, 0
809, 396257556, 0.43138632, 0.5451299, -0.43876985, 0.5694035, -0.017189264, 0.007682811, 0.050852776, 0
810, 396274223, 0.43137696, 0.5451388, -0.43879655, 0.5693815, -0.030959785, 0.005183042, 0.052265167, 0
811, 396290890, 0.43138438, 0.5451378, -0.43882212, 0.56935704, -0.029703755, 0.015456815, 0.07388306, 0
812, 396307557, 0.43141475, 0.5451027, -0.43879685, 0.5693871, -0.010601667, -0.020945176, 0.05183506, 0
813, 396324224, 0.4314123, 0.54510367, -0.43877965, 0.56940126, 0.030704757, -0.07091038, 0.033441544, 0
814, 396340891, 0.4313676, 0.5451589, -0.43881455, 0.5693553, 0.0048161456, 0.010096975, 0.04537964, 0
815, 396357558, 0.43137234, 0.5451424, -0.43879384, 0.5693835, -0.048038635, 0.04449495, 0.07531929, 0
816, 396374225, 0.43138248, 0.54513603, -0.438795, 0.569381, -0.014029014, -0.009560543, 0.045760155, 0
817, 396390892, 0.43139097, 0.54512537, -0.43879196, 0.56938726, -0.015131157, 0.008866759, 0.027492523, 0
818, 396407559, 0.43141606, 0.54508847, -0.43880406, 0.5693942, 0.009144809, -0.023565194, 0.045160294, 0
819, 396424226, 0.43138847, 0.54512197, -0.43883166, 0.56936187, -0.00331615, 0.015106346, 0.05411148, 0
820, 396440893, 0.43140125, 0.54509985, -0.43880546, 0.5693936, -0.005604811, 0.013219674, 0.03570652, 0
821, 396457560, 0.43138468, 0.54512626, -0.43881735, 0.56937176, -0.002520332, -0.03576073, 0.059588432, 0
822, 396474227, 0.43135786, 0.54515445, -0.4388386, 0.5693486, -0.02992682, 0.051958047, 0.09191227, 0
823, 396490894, 0.43140435, 0.5450921, -0.43879914, 0.5694034, -0.014146806, -0.023646554, 0.05283928, 0
824, 396507561, 0.43138736, 0.54512256, -0.43881464, 0.5693752, 0.030475544, -0.035357516, 0.025144577, 0
825, 396524228, 0.43138745, 0.54512936, -0.43882236, 0.56936276, -0.011094065, 0.03649497, 0.064086914, 0
826, 396540895, 0.43138626, 0.5451225, -0.4387993, 0.5693878, -0.0012710064, -0.0119157, 0.06836796, 0
827, 396557562, 0.43135276, 0.5451561, -0.438814, 0.5693697, -0.014711958, 0.03628219, 0.04984951, 0
828, 396574229, 0.4313935, 0.54510844, -0.43879, 0.569403, -0.010013827, 0.014462406, 0.046621323, 0
829, 396590896, 0.43138096, 0.5451284, -0.43881097, 0.5693772, 0.00941526, -0.053999167, 0.04257202, 0
830, 396607563, 0.43137687, 0.54514897, -0.43883535, 0.56934184, -0.011427435, 0.04715587, 0.060747147, 0
831, 396624230, 0.43142715, 0.54508996, -0.43880337, 0.569385, -0.0076887337, -7.6150865E-4, 0.055581093, 0
832, 396640897, 0.43138367, 0.5451404, -0.43883502, 0.5693452, -0.02796527, -0.0061401245, 0.051772118, 0
833, 396657564, 0.43139774, 0.5451236, -0.43882287, 0.56935996, -0.030309139, 0.044947114, 0.058644295, 0
834, 396674231, 0.43142888, 0.545087, -0.4388304, 0.5693657, 0.010745833, -0.050936367, 0.049160004, 0
835, 396690898, 0.43139592, 0.54512465, -0.43887633, 0.5693191, -3.8097784E-4, 0.013552931, 0.061813354, 0
836, 396707565, 0.43141666, 0.54509455, -0.4388483, 0.5693539, -0.012923854, 0.04137381, 0.054621696, 0
837, 396724232, 0.4314137, 0.54510087, -0.43884975, 0.5693489, 0.0019966413, -0.03717557, 0.052165985, 0
838, 396740899, 0.4313884, 0.54512763, -0.4388562, 0.5693376, -0.013547456, 0.019784026, 0.062877655, 0
839, 396757566, 0.4314137, 0.5450884, -0.43882143, 0.5693828, 0.0047724484, -0.004864983, 0.056707382, 0
840, 396774233, 0.4314208, 0.5450959, -0.43884256, 0.56935376, 0.0010176544, -0.028248237, 0.050980568, 0
841, 396790900, 0.4314005, 0.54511327, -0.4388201, 0.56937003, -0.0043481095, 0.0054168366, 0.042119026, 0
842, 396807567, 0.43140188, 0.5451132, -0.4388168, 0.56937146, -0.0014029908, -0.0046533165, 0.058773994, 0
843, 396824234, 0.43137035, 0.54514444, -0.43881857, 0.56936413, -0.009729966, 0.01625051, 0.050637245, 0
844, 396840901, 0.4313812, 0.54512244, -0.43879583, 0.5693945, -0.01223834, 0.018507767, 0.059188843, 0
845, 396857568, 0.4313711, 0.54513544, -0.43881285, 0.56937665, 0.012745603, -0.032423906, 0.053351402, 0
846, 396874235, 0.43137246, 0.545137, -0.43882903, 0.5693615, -0.013941397, 0.019262124, 0.046465874, 0
847, 396890902, 0.43139997, 0.5451081, -0.4388273, 0.56936973, 0.009501647, -0.010118208, 0.05146694, 0
848, 396907569, 0.43140125, 0.54511577, -0.43883783, 0.5693533, -0.01170705, -0.0095084645, 0.05046463, 0
849, 396924236, 0.43141282, 0.5451069, -0.43883273, 0.56935704, -0.0201336, 0.023000153, 0.06263161, 0
850, 396940903, 0.4314123, 0.5451111, -0.43882394, 0.56936014, 0.0074810903, -0.005374369, 0.06556606, 0
851, 396957570, 0.43138954, 0.5451357, -0.43881974, 0.56935716, -0.0030328473, 0.031592887, 0.058386803, 0
852, 396974237, 0.43139943, 0.5451204, -0.43879858, 0.5693804, 0.008790877, 0.003450593, 0.06391621, 0
853, 396990904, 0.431377, 0.5451389, -0.43881458, 0.5693674, 0.0019813306, -0.008300601, 0.039323807, 0
854, 397007571, 0.43137497, 0.545146, -0.4388148, 0.56936204, -0.004807205, 0.0044154986, 0.048365593, 0
855, 397024238, 0.43139672, 0.54512644, -0.43881318, 0.56936556, -0.015155519, -0.018330298, 0.060035706, 0
856, 397040905, 0.43139622, 0.54513276, -0.4388326, 0.56934494, 0.006434491, -0.015209386, 0.05121994, 0
857, 397057572, 0.43140462, 0.54511803, -0.4388262, 0.56935763, -0.001314815, 0.012385077, 0.062968254, 0
858, 397074239, 0.43140686, 0.54511267, -0.43883783, 0.5693521, 0.0074746087, -0.0094778435, 0.04745388, 0
859, 397090906, 0.43138877, 0.54512703, -0.43882582, 0.5693613, -0.006325193, 0.0051157647, 0.046770096, 0
860, 397107573, 0.43139875, 0.54511756, -0.43882212, 0.5693656, 0.0057316544, -0.01029523, 0.05636692, 0
861, 397124240, 0.43140364, 0.54511696, -0.43883884, 0.5693495, -0.013761022, 0.015685916, 0.059212685, 0
862, 397140907, 0.43142784, 0.54509735, -0.4388344, 0.5693533, 0.004480429, -0.0035811246, 0.06161785, 0
863, 397157574, 0.431436, 0.54509467, -0.43883914, 0.56934625, 0.0056435904, -0.01943244, 0.06616688, 0
864, 397174241, 0.43144047, 0.54509276, -0.43885022, 0.5693362, -0.008528137, 8.464436E-4, 0.059967995, 0
865, 397190908, 0.4314418, 0.54507816, -0.43885824, 0.5693429, -0.018393999, -0.0029340545, 0.056256294, 0
866, 397207575, 0.431444, 0.545077, -0.43886766, 0.569335, -0.0034125957, -0.009084013, 0.07139301, 0
867, 397224242, 0.4314501, 0.545069, -0.43886235, 0.5693422, -0.0019690373, 0.020546429, 0.058372498, 0
868, 397240909, 0.43145472, 0.54505724, -0.43886572, 0.5693473, 0.0030456993, -0.013588023, 0.056856155, 0
869, 397257576, 0.43145597, 0.54505694, -0.43888286, 0.5693334, -0.004851684, 8.176104E-4, 0.07830238, 0
870, 397274243, 0.43151626, 0.5449954, -0.43894023, 0.5693023, -0.012251192, -0.023225008, 0.051914215, 0
871, 397290910, 0.43150276, 0.54501075, -0.43892342, 0.5693109, -0.0045209965, 1.7702226E-4, 0.07312775, 0
872, 397307577, 0.43150336, 0.5450143, -0.43892825, 0.5693034, -0.0065043387, -0.0019552913, 0.06419945, 0
873, 397324244, 0.43151274, 0.5450029, -0.43892094, 0.56931293, -0.014206595, 9.4903604E-4, 0.052915573, 0
874, 397340911, 0.43149886, 0.5450159, -0.43892264, 0.5693095, -0.013315338, 0.0026184542, 0.050180435, 0
875, 397357578, 0.43150127, 0.5450178, -0.43890935, 0.5693161, -0.005336148, 0.03001466, 0.054198265, 0
876, 397374245, 0.43149263, 0.54502255, -0.43891418, 0.56931454, -0.011315902, -0.018181438, 0.04145527, 0
877, 397390912, 0.4314839, 0.54502416, -0.43891737, 0.5693171, -0.013491466, 0.01362155, 0.05151081, 0
878, 397407579, 0.4314789, 0.5450199, -0.43891495, 0.5693268, -0.018618517, 0.0089105675, 0.05583763, 0
879, 397424246, 0.43148813, 0.5450156, -0.4389147, 0.5693242, -0.016662443, -0.009736895, 0.06167221, 0
880, 397440913, 0.43149072, 0.54501235, -0.43892974, 0.5693137, -0.010618206, -0.0054300237, 0.04334259, 0
881, 397457580, 0.43149537, 0.54500026, -0.4389232, 0.5693268, -0.0061753276, -0.014398704, 0.03934765, 0
882, 397474247, 0.43148935, 0.54501176, -0.4389081, 0.56933206, 0.0018043084, 0.0062125428, 0.06468201, 0
883, 397490914, 0.43148637, 0.5450207, -0.43888998, 0.5693395, 0.009777015, -6.705389E-6, 0.064022064, 0
884, 397507581, 0.43148878, 0.5450268, -0.43888667, 0.56933445, -0.016481956, -0.005287199, 0.05669403, 0
885, 397524248, 0.43149674, 0.5450235, -0.4389001, 0.5693212, -0.008665485, 3.229762E-4, 0.036211014, 0
886, 397540915, 0.4315127, 0.5450087, -0.43890125, 0.5693224, -0.012173968, 5.726402E-4, 0.071912766, 0
887, 397557582, 0.43149728, 0.5450202, -0.43890503, 0.56932014, 0.015105229, 0.0041805864, 0.056782722, 0
888, 397574249, 0.4315068, 0.5450181, -0.4389104, 0.5693108, -0.019847168, 0.023461709, 0.06113243, 0
889, 397590916, 0.43149334, 0.5450292, -0.43889374, 0.5693231, -0.008021768, -0.011036399, 0.06548786, 0
890, 397607583, 0.43150213, 0.5450278, -0.43890557, 0.5693087, -0.0095784245, 0.010485663, 0.055005074, 0
891, 397624250, 0.43151295, 0.5450155, -0.43891326, 0.5693066, 0.0029922796, -5.1005656E-4, 0.069052696, 0
892, 397640917, 0.4315136, 0.54501766, -0.43890688, 0.5693088, 0.0014787617, -0.0046691857, 0.07129383, 0
893, 397657584, 0.43157881, 0.544969, -0.4389675, 0.56925917, -0.0037670874, 0.009993264, 0.045303345, 0
894, 397674251, 0.4315624, 0.5449776, -0.43895045, 0.5692766, -1.7657524E-4, 0.0077748983, 0.037305832, 0
895, 397690918, 0.43156332, 0.5449718, -0.4389537, 0.5692789, -0.001345995, 0.00917096, 0.05007553, 0
896, 397707585, 0.4315701, 0.54496634, -0.4389595, 0.56927454, -0.0070276945, -0.01769038, 0.06553745, 0
897, 397724252, 0.43158606, 0.5449621, -0.43896738, 0.5692605, -0.016760342, -6.539989E-4, 0.05303955, 0
898, 397740919, 0.43154696, 0.54499847, -0.43894842, 0.56927, -0.0077403653, -0.009189288, 0.06379604, 0
899, 397757586, 0.43157682, 0.5449793, -0.4389534, 0.56926185, -0.01542217, -0.0032467493, 0.043584824, 0
900, 397774253, 0.43155542, 0.54499644, -0.43894953, 0.5692646, -0.0035880534, 0.0037219378, 0.057289124, 0
901, 397790920, 0.43155652, 0.54500765, -0.43894288, 0.5692581, -0.019296544, 0.013801254, 0.055220604, 0
902, 397807587, 0.43155533, 0.54500484, -0.43894115, 0.569263, 0.003710315, -0.010876588, 0.059955597, 0
903, 397824254, 0.431569, 0.54499733, -0.43896413, 0.5692421, -0.0047891005, 0.010989685, 0.060154915, 0
904, 397840921, 0.43158662, 0.54498196, -0.43896952, 0.56923926, -0.017419258, 0.0070276945, 0.06283474, 0
905, 397857588, 0.43158105, 0.544986, -0.438954, 0.5692519, -0.012754655, -0.012612389, 0.0484457, 0
906, 397874255, 0.43158367, 0.5449909, -0.43894386, 0.5692528, -0.0035829127, 0.010866529, 0.063319206, 0
907, 397890922, 0.43159026, 0.54497683, -0.4389452, 0.5692602, -0.017266152, 0.008801269, 0.038550377, 0
908, 397907589, 0.43158448, 0.5449935, -0.43894446, 0.56924933, -0.0019267935, 0.0015585559, 0.06474304, 0
909, 397924256, 0.43160656, 0.54498404, -0.43895558, 0.569233, -0.013230961, -0.005426224, 0.05343151, 0
910, 397940923, 0.4316166, 0.54497147, -0.43897337, 0.5692238, -0.011905641, 0.0038441992, 0.0503788, 0
911, 397957590, 0.43161282, 0.54497635, -0.43897325, 0.5692221, -0.0044586365, -9.809984E-4, 0.06321716, 0
912, 397974257, 0.43162677, 0.5449626, -0.43896902, 0.5692279, 0.0029402012, -0.0049282373, 0.047183037, 0
913, 397990924, 0.43162388, 0.5449698, -0.4389658, 0.56922555, -0.012362055, -0.020459482, 0.053435326, 0
914, 398007591, 0.4316215, 0.5449734, -0.43895757, 0.5692303, -0.011786285, 0.0019383044, 0.059192657, 0
915, 398024258, 0.43164304, 0.54496014, -0.4389653, 0.5692208, -0.008998743, -0.010256786, 0.04271221, 0
916, 398040925, 0.431649, 0.5449613, -0.43897933, 0.56920433, -7.352459E-4, 0.0057820566, 0.0503006, 0
917, 398057592, 0.43165284, 0.5449536, -0.4389793, 0.56920874, -0.00732899, 0.0019792072, 0.07776451, 0
918, 398074259, 0.43166164, 0.54494375, -0.43898636, 0.569206, -0.004964558, 0.0011513153, 0.037961006, 0
919, 398090926, 0.43167368, 0.54493564, -0.4390085, 0.5691877, -0.0029716047, 0.0059655607, 0.047792435, 0
920, 398107593, 0.43168193, 0.5449276, -0.4390069, 0.56919044, -0.0073768217, -0.021220544, 0.056117058, 0
921, 398124260, 0.43168855, 0.5449197, -0.4390133, 0.569188, -0.004550277, -0.02363672, 0.04777336, 0
922, 398140927, 0.4317008, 0.5449076, -0.43902218, 0.56918335, -0.0031454978, 0.024685217, 0.0597229, 0
923, 398157594, 0.4317067, 0.54490525, -0.43902037, 0.5691825, -0.012502197, -0.0070983246, 0.053832054, 0
924, 398174261, 0.4317109, 0.5449074, -0.43903473, 0.5691662, -0.017072367, -0.0035127297, 0.05040741, 0
925, 398190928, 0.4317025, 0.5449072, -0.43903187, 0.569175, -0.0033962794, 0.021056484, 0.057263374, 0
926, 398207595, 0.431688, 0.5449061, -0.4390177, 0.56919795, -0.00265254, -0.0059108003, 0.04616356, 0
927, 398224262, 0.43167302, 0.544915, -0.43902853, 0.5691924, -0.009848763, 0.013237778, 0.04925251, 0
928, 398240929, 0.4316796, 0.54491067, -0.43903252, 0.5691885, -0.020828279, -0.014123783, 0.06168747, 0
929, 398257596, 0.4316751, 0.54490864, -0.4390229, 0.56920123, -0.0037999437, -0.008730863, 0.06090164, 0
930, 398274263, 0.43166932, 0.54490983, -0.4390333, 0.56919646, -0.013540415, 0.013851768, 0.054141045, 0
931, 398290930, 0.4316745, 0.54490876, -0.4390216, 0.56920266, -0.0183674, 0.013554943, 0.06382656, 0
932, 398307597, 0.43166384, 0.54491985, -0.43901294, 0.5692067, -0.018674284, -0.01762489, 0.041721344, 0
933, 398324264, 0.43167725, 0.54491293, -0.43902338, 0.5691952, -0.020975908, 0.011784497, 0.05658245, 0
934, 398340931, 0.43168467, 0.54490286, -0.4390228, 0.5691996, -0.015449439, 0.010909891, 0.047626495, 0
935, 398357598, 0.43168932, 0.5449, -0.43902072, 0.56920046, -0.009178112, -0.020703334, 0.05219555, 0
936, 398374265, 0.4316787, 0.54490274, -0.4390076, 0.569216, -0.01922815, -0.007121123, 0.053115845, 0
937, 398390932, 0.43166846, 0.5449119, -0.43900493, 0.5692171, -0.0071743187, -0.004772672, 0.072797775, 0
938, 398407599, 0.43167475, 0.54491055, -0.43900412, 0.5692142, -0.023805583, 0.01351404, 0.054099083, 0
939, 398424266, 0.4316706, 0.5449072, -0.43899623, 0.5692266, -0.0019796542, 0.009487455, 0.06714058, 0
940, 398440933, 0.43166745, 0.5449092, -0.4390002, 0.569224, -0.016625788, 0.0025514003, 0.060167313, 0
941, 398457600, 0.43165514, 0.54491085, -0.438994, 0.5692367, -0.019320013, 0.0043305634, 0.052531242, 0
942, 398474267, 0.43164966, 0.54491204, -0.43899807, 0.5692365, 0.0011672964, -0.012096298, 0.049801826, 0
943, 398490934, 0.43163952, 0.5449216, -0.43899155, 0.5692401, -0.006385877, 0.0078048487, 0.051501274, 0
944, 398507601, 0.43165928, 0.5448998, -0.43900308, 0.569237, -0.0022498814, -0.012389546, 0.06373787, 0
945, 398524268, 0.4316449, 0.54491735, -0.43900973, 0.569226, -4.264627E-4, -0.0084382845, 0.06598759, 0
946, 398540935, 0.4316491, 0.5449135, -0.43900302, 0.5692317, -0.012535947, 0.0058859903, 0.07120037, 0
947, 398557602, 0.43163866, 0.544917, -0.43900308, 0.56923616, 0.008962423, -0.018194625, 0.058977127, 0
948, 398574269, 0.4316484, 0.5449067, -0.43900144, 0.5692399, -0.0066908603, -0.0025250257, 0.041654587, 0
949, 398590936, 0.4316543, 0.5449003, -0.43899995, 0.5692428, -0.012365184, -0.0038759382, 0.06202793, 0
950, 398607603, 0.4316542, 0.5449037, -0.43901727, 0.5692262, 0.0016178986, -0.0129785035, 0.06626797, 0
951, 398624270, 0.43165535, 0.5448971, -0.43899685, 0.5692474, -0.013881607, 0.019255642, 0.048833847, 0
952, 398640937, 0.4316539, 0.5449012, -0.43899766, 0.5692439, 0.0052722236, -0.0034648979, 0.051849365, 0
953, 398657604, 0.43166164, 0.5448954, -0.4390061, 0.5692371, -0.014004651, 0.013021641, 0.05000782, 0
954, 398674271, 0.43165746, 0.5448919, -0.43900296, 0.569246, -0.007999864, -4.188633E-4, 0.066576004, 0
955, 398690938, 0.43165845, 0.54489005, -0.43902844, 0.56922734, -0.0049919384, 0.01931286, 0.07027054, 0
956, 398707605, 0.43166137, 0.54488057, -0.43902692, 0.56923556, -0.0066214595, 0.00321881, 0.06552982, 0
957, 398724272, 0.4316498, 0.544885, -0.43901247, 0.5692512, -0.0041722045, -0.0034590864, 0.052075386, 0
958, 398740939, 0.43163884, 0.5449051, -0.43901512, 0.5692382, -0.012887534, 0.012874123, 0.055833817, 0
959, 398757606, 0.4315957, 0.5450088, -0.43904015, 0.5691524, 0.0067787007, -0.012857359, 0.048484802, 0
960, 398774273, 0.4315781, 0.5450213, -0.43903923, 0.5691545, -0.0136301555, -0.0040270328, 0.048519135, 0
961, 398790940, 0.43157467, 0.5450298, -0.4390204, 0.5691635, -0.0070840195, -0.0038012848, 0.05502224, 0
962, 398807607, 0.43157342, 0.54502887, -0.43902236, 0.56916386, -0.0022023849, -0.014024991, 0.053977966, 0
963, 398824274, 0.43156552, 0.5450435, -0.4390188, 0.5691586, -0.003682376, -2.6352177E-4, 0.04523468, 0
964, 398840941, 0.43156448, 0.5450457, -0.4390012, 0.56917065, -0.014651498, -0.0051814774, 0.06441212, 0
965, 398857608, 0.431564, 0.54504776, -0.4390135, 0.56915945, -0.006266856, -0.010279138, 0.06444931, 0
966, 398874275, 0.43157455, 0.5450437, -0.4390101, 0.5691582, -0.0035415627, 0.020985184, 0.048825264, 0
967, 398890942, 0.43156996, 0.54503566, -0.43900374, 0.5691743, -0.007005343, -0.019592028, 0.073420525, 0
968, 398907609, 0.43157497, 0.54503804, -0.43901178, 0.5691619, -0.0074074427, -0.014727268, 0.059350014, 0
969, 398924276, 0.4315867, 0.5450254, -0.43902245, 0.5691568, -0.012479287, -0.0011736666, 0.04928875, 0
970, 398940943, 0.431592, 0.5450244, -0.43903306, 0.5691456, -0.0066115134, 0.0015896241, 0.059536934, 0
971, 398957610, 0.4315902, 0.54502696, -0.4390282, 0.56914824, -0.005337713, 6.9780747E-4, 0.05867672, 0
972, 398974277, 0.4315865, 0.5450212, -0.43902886, 0.5691561, -0.021483619, 0.002295478, 0.045288086, 0
973, 398990944, 0.43158492, 0.5450158, -0.43903786, 0.5691555, -0.009039311, -0.006527696, 0.066511154, 0
974, 399007611, 0.4315827, 0.5450211, -0.43904033, 0.5691502, -0.028156374, 0.022160191, 0.05057144, 0
975, 399024278, 0.43156984, 0.5450339, -0.4390078, 0.5691728, -0.005854475, -0.016365396, 0.053705215, 0
976, 399040945, 0.43157762, 0.54503477, -0.43901134, 0.5691634, -0.0102106305, -7.822953E-5, 0.0429821, 0
977, 399057612, 0.4315823, 0.5450344, -0.4390032, 0.5691663, -0.013554272, -0.0032226099, 0.055426598, 0
978, 399074279, 0.43158457, 0.5450389, -0.43900082, 0.56916237, -0.010868653, -0.019672045, 0.041213036, 0
979, 399090946, 0.43156946, 0.54505235, -0.4389826, 0.569175, -0.015625233, -0.0028846583, 0.06384659, 0
980, 399107613, 0.43157294, 0.54503644, -0.43899268, 0.5691799, -7.740254E-4, 0.0121220015, 0.057361603, 0
981, 399124280, 0.4315698, 0.5450391, -0.4389893, 0.5691821, 6.309771E-4, 0.0010753209, 0.050408363, 0
982, 399140947, 0.43157357, 0.5450401, -0.43898293, 0.5691832, -0.009920399, -0.00294523, 0.032974243, 0
983, 399157614, 0.43155953, 0.5450527, -0.43898174, 0.5691829, -0.009121787, -0.02304888, 0.05148697, 0
984, 399174281, 0.43156952, 0.54504174, -0.43899205, 0.56917775, -0.003509824, -7.887772E-4, 0.058802605, 0
985, 399190948, 0.43157282, 0.5450325, -0.4389858, 0.56918895, -0.0012103226, -0.030577913, 0.056817055, 0
986, 399207615, 0.43157184, 0.54503906, -0.4389933, 0.5691775, 0.005557091, -0.031619485, 0.04921627, 0
987, 399224282, 0.43156847, 0.5450378, -0.43898484, 0.56918776, -0.010147376, -0.014840143, 0.052110672, 0
988, 399240949, 0.43157887, 0.54502845, -0.4389746, 0.5691968, -0.006768978, -0.022447629, 0.037395477, 0
989, 399257616, 0.43157193, 0.54504275, -0.4389669, 0.5691943, -0.008870782, 0.0075283633, 0.055235863, 0
990, 399274283, 0.43158123, 0.5450333, -0.43895346, 0.5692067, -0.0183037, -0.0019436687, 0.04700756, 0
991, 399290950, 0.43157613, 0.5450457, -0.4389571, 0.5691958, -0.0063489974, -0.0060142865, 0.054350853, 0
992, 399307617, 0.43156707, 0.54505515, -0.438947, 0.5692013, -0.010285955, -0.008547806, 0.047408104, 0
993, 399324284, 0.43158206, 0.5450321, -0.43895322, 0.56920743, -0.015613274, -0.005261495, 0.07203007, 0
994, 399340951, 0.43158227, 0.5450303, -0.4389606, 0.5692033, 2.6106313E-4, -0.009059427, 0.059034348, 0
995, 399357618, 0.43158334, 0.5450364, -0.43895796, 0.56919867, -0.0022096492, 0.0017344606, 0.054214478, 0
996, 399374285, 0.43157417, 0.5450527, -0.438944, 0.56920075, -0.0033630878, -0.01518547, 0.048047066, 0
997, 399390952, 0.4315836, 0.5450496, -0.43895894, 0.569185, -0.011914917, -0.011290757, 0.04243946, 0
998, 399407619, 0.43159294, 0.5450428, -0.43894365, 0.5691963, -0.012879711, -0.006950359, 0.05529976, 0
999, 399424286, 0.4315723, 0.54506654, -0.43892467, 0.5692039, -0.010148605, -0.010634076, 0.049401283, 0
1000, 399440953, 0.43156582, 0.5450749, -0.43891802, 0.569206, 0.002472165, 0.004315141, 0.033168793, 0
1001, 399457620, 0.43156, 0.5450811, -0.43891412, 0.56920743, 0.0040189866, -0.018745584, 0.043060303, 0
1002, 399474287, 0.43154854, 0.5450854, -0.4389137, 0.5692123, -0.01844943, -0.022263454, 0.053988457, 0
1003, 399490954, 0.4315349, 0.5450979, -0.4388963, 0.5692242, 0.0033173794, 0.002528155, 0.058935165, 0
1004, 399507621, 0.43153018, 0.5450954, -0.43890202, 0.5692255, -0.0017092036, -0.0115741715, 0.04421997, 0
1005, 399524288, 0.43152705, 0.54510325, -0.4389153, 0.56921023, 0.0073469826, -0.009257013, 0.0513525, 0
1006, 399540955, 0.43153408, 0.5451001, -0.43891656, 0.569207, -0.019902488, -0.010993708, 0.058128357, 0
1007, 399557622, 0.431538, 0.545094, -0.4389279, 0.5692011, -0.0037364662, -0.009443646, 0.04867649, 0
1008, 399574289, 0.43154344, 0.54508585, -0.43893114, 0.56920236, -0.010024332, -0.0067478563, 0.03978157, 0
1009, 399590956, 0.4315475, 0.54508215, -0.43892717, 0.5692057, -0.0044371793, -0.0023486742, 0.058124542, 0
1010, 399607623, 0.4315462, 0.5450818, -0.43893012, 0.56920475, -0.0058400584, -0.022985402, 0.046447754, 0
1011, 399624290, 0.4315315, 0.5450954, -0.43892372, 0.56920785, -0.015626015, -0.006177451, 0.05840397, 0
1012, 399640957, 0.43152612, 0.5450998, -0.43893158, 0.56920165, -0.014586008, -0.004009599, 0.05763054, 0
1013, 399657624, 0.4315339, 0.54509413, -0.43895993, 0.5691793, -0.015760122, 0.01312714, 0.055383682, 0
1014, 399674291, 0.4315279, 0.54509926, -0.4389583, 0.56918025, -0.014659209, -0.004151753, 0.050969124, 0
1015, 399690958, 0.43151292, 0.5451127, -0.43895105, 0.5691843, -0.001290005, 0.0075140586, 0.046245575, 0
1016, 399707625, 0.43150997, 0.5451143, -0.43894717, 0.569188, 6.7735603E-4, 0.015451227, 0.058213234, 0
1017, 399724292, 0.43150842, 0.5451077, -0.4389503, 0.5691931, -0.0018709152, 0.007882631, 0.0602293, 0
1018, 399740959, 0.43152416, 0.5450975, -0.4389579, 0.5691852, -0.011177659, 3.8913605E-4, 0.06266117, 0
1019, 399757626, 0.43153146, 0.5450873, -0.43896636, 0.5691829, -0.011054392, -0.0075310455, 0.06087017, 0
1020, 399774293, 0.43154117, 0.5450723, -0.43897697, 0.5691816, -6.3790596E-4, -0.01741747, 0.07505226, 0
1021, 399790960, 0.43151894, 0.5450875, -0.4389553, 0.56920075, 0.001133993, -0.003725514, 0.058185577, 0
1022, 399807627, 0.43152153, 0.54508746, -0.4389593, 0.5691956, 0.003768205, 0.002642817, 0.056385994, 0
1023, 399824294, 0.43151557, 0.5450924, -0.43895254, 0.56920063, 0.0064510307, 0.0100998795, 0.053066254, 0
1024, 399840961, 0.43150577, 0.54510415, -0.43895373, 0.5691959, -0.009647937, 0.003664942, 0.05034828, 0
1025, 399857628, 0.43150663, 0.54510486, -0.43895832, 0.5691911, -0.0047728955, -0.0071546496, 0.055716515, 0
1026, 399874295, 0.4314856, 0.5451296, -0.4389346, 0.5692015, -0.016252968, -0.0215766, 0.06497669, 0
1027, 399890962, 0.43148047, 0.5451341, -0.43893448, 0.5692012, -0.005284293, 0.0032760294, 0.05132103, 0
1028, 399907629, 0.43147647, 0.5451374, -0.43893844, 0.56919795, -0.002222054, 0.0024575249, 0.054631233, 0
1029, 399924296, 0.4314868, 0.54512405, -0.43894798, 0.5691956, -0.013863391, -0.018383717, 0.053546906, 0
1030, 399940963, 0.43147713, 0.54513186, -0.43892896, 0.56921005, -0.012545782, 0.0032541251, 0.052991867, 0
1031, 399957630, 0.4314682, 0.5451402, -0.43892145, 0.56921476, 0.0029041038, 0.012459059, 0.041573524, 0
1032, 399974297, 0.4314762, 0.5451409, -0.4389182, 0.56921047, 0.012732415, 0.011816683, 0.050868034, 0
1033, 399990964, 0.43147746, 0.54514486, -0.43890044, 0.5692195, -0.00747852, -0.007436276, 0.05646324, 0
1034, 400007631, 0.43148935, 0.5451341, -0.4389197, 0.569206, -0.0075384215, -0.0179691, 0.054000854, 0
1035, 400024298, 0.43152708, 0.5451035, -0.43893933, 0.56919134, -0.011107923, -0.0019177411, 0.046970367, 0
1036, 400040965, 0.4315243, 0.54510707, -0.4389383, 0.56919104, 8.2263944E-4, 0.006597879, 0.04748535, 0
1037, 400057632, 0.43153572, 0.5450954, -0.43894547, 0.56918794, -0.009594182, -0.0072015873, 0.045372963, 0
1038, 400074299, 0.43154746, 0.54509526, -0.4389549, 0.56917185, 0.00786665, 0.0022539047, 0.055343628, 0
1039, 400090966, 0.43155846, 0.54509425, -0.43895987, 0.56916064, -0.0053878915, -0.013765269, 0.05316162, 0
1040, 400107633, 0.43156663, 0.5450948, -0.4389487, 0.56916255, -0.01122862, -0.014676978, 0.05851555, 0
1041, 400124300, 0.43156397, 0.5451004, -0.4389424, 0.56916416, -0.004671756, -0.0154094305, 0.052977562, 0
1042, 400140967, 0.43157423, 0.54508895, -0.4389588, 0.56915456, -0.0031861772, -0.005742495, 0.048441887, 0
1043, 400157634, 0.43156236, 0.54509723, -0.43895435, 0.56915915, -0.0026329826, -0.012102333, 0.047055244, 0
1044, 400174301, 0.43156132, 0.54510266, -0.4389378, 0.5691675, -0.014324498, 0.021890858, 0.054707527, 0
1045, 400190968, 0.4315702, 0.5450965, -0.43894297, 0.5691626, -0.0054941718, -0.016144788, 0.058597565, 0
1046, 400207635, 0.4315603, 0.5450954, -0.43894607, 0.5691688, -0.01185848, 0.0019780896, 0.04419899, 0
1047, 400224302, 0.43156886, 0.5450886, -0.43892968, 0.5691815, 0.0011980295, 0.013214757, 0.04704857, 0
1048, 400240969, 0.43155986, 0.5451053, -0.4389355, 0.56916785, -0.010876141, -0.020823808, 0.05899048, 0
1049, 400257636, 0.4315647, 0.54510224, -0.43894333, 0.56916106, -0.0068221744, 0.020679642, 0.05675125, 0
1050, 400274303, 0.43155196, 0.5451055, -0.43892387, 0.5691825, -0.015741346, -0.0068086516, 0.051862717, 0
1051, 400290970, 0.4315498, 0.54510605, -0.43894345, 0.5691687, -0.006897945, -0.006180133, 0.051626205, 0
1052, 400307637, 0.43155745, 0.5450913, -0.43894678, 0.5691745, -0.0077299722, -0.01665194, 0.05924034, 0
1053, 400324304, 0.43156335, 0.5450817, -0.43895885, 0.56916976, -3.1437096E-4, -0.018362483, 0.045188904, 0
1054, 400340971, 0.43156746, 0.54508317, -0.43897012, 0.5691565, -0.014655186, -4.8032936E-4, 0.052409172, 0
1055, 400357638, 0.43158716, 0.54506177, -0.43897447, 0.5691586, -0.014002193, -0.011159332, 0.04705429, 0
1056, 400374305, 0.43157813, 0.5450766, -0.4389688, 0.5691559, -0.013364064, -0.0046421406, 0.0555439, 0
1057, 400390972, 0.43157277, 0.5450841, -0.43897218, 0.56915, -0.00917096, 0.01495391, 0.07108784, 0
1058, 400407639, 0.4315911, 0.54506755, -0.43896872, 0.5691547, -0.009277911, -0.014678319, 0.046142578, 0
1059, 400424306, 0.43159688, 0.5450653, -0.43898028, 0.56914353, -0.004733781, 0.0035379867, 0.04808426, 0
1060, 400440973, 0.4316065, 0.5450512, -0.43898407, 0.5691468, -1.3343724E-4, 0.009967336, 0.054599762, 0
1061, 400457640, 0.43160945, 0.5450578, -0.4389929, 0.5691314, -0.022111466, 0.017381486, 0.04297352, 0
1062, 400474307, 0.43160093, 0.5450598, -0.43898752, 0.56914, -0.011016171, 0.0048721354, 0.0605402, 0
1063, 400490974, 0.43161383, 0.54505503, -0.4389852, 0.5691366, -0.0032807232, -0.018678755, 0.06344128, 0
1064, 400507641, 0.43162078, 0.5450542, -0.43900335, 0.56911826, -0.0086176535, -0.018669814, 0.03763771, 0
1065, 400524308, 0.43163848, 0.5450406, -0.43900493, 0.5691166, -0.011654412, -0.0070230006, 0.052137375, 0
1066, 400540975, 0.43164343, 0.5450402, -0.43900892, 0.5691103, -0.006916608, -0.011318472, 0.06601524, 0
1067, 400557642, 0.4316599, 0.5450325, -0.43902326, 0.5690939, -0.019435123, 0.0021758985, 0.048689842, 0
1068, 400574309, 0.431685, 0.54500264, -0.43903154, 0.56909704, -0.005028818, -0.005646161, 0.050855637, 0
1069, 400590976, 0.4316813, 0.5450108, -0.4390351, 0.5690893, -9.2769053E-4, 0.0012677655, 0.062132835, 0
1070, 400607643, 0.43169105, 0.544998, -0.43904126, 0.5690894, -0.002642817, -0.012706712, 0.07353115, 0
1071, 400624310, 0.43170407, 0.5449869, -0.43904638, 0.56908625, -0.0014908314, -0.010994602, 0.051689148, 0
1072, 400640977, 0.43169975, 0.54498464, -0.43904826, 0.5690902, -0.010946994, -0.016904509, 0.060183525, 0
1073, 400657644, 0.43170315, 0.544986, -0.43904138, 0.5690916, -0.005356488, -0.026135817, 0.053660393, 0
1074, 400674311, 0.43171597, 0.54498446, -0.43904796, 0.5690785, -0.015911775, -5.4268946E-4, 0.049580574, 0
1075, 400690978, 0.43170875, 0.5449856, -0.43905216, 0.5690797, -0.0036250448, -0.011721914, 0.058709145, 0
1076, 400707645, 0.4317115, 0.5449784, -0.43906173, 0.56907684, -0.0021915445, -0.004916838, 0.060404778, 0
1077, 400724312, 0.43170938, 0.5449857, -0.439058, 0.5690744, 0.007492713, -0.016051136, 0.046172142, 0
1078, 400740979, 0.43170574, 0.54499584, -0.4390604, 0.5690656, -0.004492163, -0.023055585, 0.047472, 0
1079, 400757646, 0.4317236, 0.54492414, -0.43913215, 0.5690654, 0.0039359513, 3.3079917E-4, 0.05333233, 0
1080, 400774313, 0.43171874, 0.5449254, -0.4391365, 0.56906444, -0.0018739327, -0.015943179, 0.05567074, 0
1081, 400790980, 0.43170673, 0.5449328, -0.43912664, 0.56907415, -0.010798023, 0.002577775, 0.061935425, 0
1082, 400807647, 0.43171144, 0.5449222, -0.4391212, 0.569085, -0.0053868857, -0.02144115, 0.06240368, 0
1083, 400824314, 0.4316927, 0.5449374, -0.43912095, 0.5690848, -0.01667563, -0.007987459, 0.06215477, 0
1084, 400840981, 0.43169636, 0.54493576, -0.43912297, 0.569082, -0.02181397, 6.9534883E-4, 0.045176506, 0
1085, 400857648, 0.4317141, 0.5449237, -0.43914092, 0.5690662, -0.022023514, -0.008640117, 0.043578148, 0
1086, 400874315, 0.43171108, 0.5449217, -0.4391441, 0.56906796, 9.541768E-4, -0.007746959, 0.062160492, 0
1087, 400890982, 0.4317192, 0.54491377, -0.4391503, 0.56906456, -0.0013548238, 0.0062076254, 0.064941406, 0
1088, 400907649, 0.43170798, 0.5449266, -0.43914047, 0.5690686, -0.009886872, -0.014448101, 0.051467896, 0
1089, 400924316, 0.43170533, 0.5449309, -0.43913805, 0.56906813, -0.020642763, 0.0027449627, 0.04641819, 0
1090, 400940983, 0.43171442, 0.54493046, -0.4391298, 0.5690681, 0.0077707632, -0.008722593, 0.054971695, 0
1091, 400957650, 0.43172604, 0.5449294, -0.43913388, 0.56905717, -0.00955015, 0.0015804601, 0.05038929, 0
1092, 400974317, 0.43175727, 0.5449072, -0.43913788, 0.5690516, -0.0029539473, 0.01650129, 0.054616928, 0
1093, 400990984, 0.43176726, 0.5449084, -0.43913162, 0.5690477, -0.009415707, 0.0030715151, 0.059682846, 0
1094, 401007651, 0.4317659, 0.54490864, -0.4391387, 0.56904304, -0.007753888, -9.7228134E-5, 0.07170963, 0
1095, 401024318, 0.43176597, 0.5449051, -0.439127, 0.5690554, -0.0077893147, -3.1336516E-4, 0.055412292, 0
1096, 401040985, 0.4317581, 0.5449077, -0.43912485, 0.5690607, -0.0016016938, -0.025693038, 0.0614233, 0
1097, 401057652, 0.43176118, 0.544904, -0.43911844, 0.5690668, -0.025421247, -0.0025145207, 0.041303635, 0
1098, 401074319, 0.43176073, 0.54489964, -0.4391199, 0.5690702, -0.0063437447, -0.0049968557, 0.06540012, 0
1099, 401090986, 0.4317569, 0.5449039, -0.43912324, 0.56906646, -0.0042598215, 0.014451677, 0.066586494, 0
1100, 401107653, 0.43178114, 0.5448765, -0.43910286, 0.56909, 9.817807E-4, -6.55787E-4, 0.066176414, 0
1101, 401124320, 0.43177718, 0.544879, -0.43912378, 0.5690745, 0.006481205, -0.038174, 0.053934097, 0
1102, 401140987, 0.43174946, 0.54490554, -0.43912032, 0.56907284, -0.028340213, 0.036752682, 0.05866623, 0
1103, 401157654, 0.43176964, 0.54488134, -0.43908995, 0.5691039, -0.009628044, 0.010306406, 0.04977894, 0
1104, 401174321, 0.43176454, 0.5448901, -0.439099, 0.56909233, -8.3839707E-4, -0.019324707, 0.047959328, 0
1105, 401190988, 0.43175447, 0.54489905, -0.43907434, 0.5691107, -0.010760807, -4.2042788E-4, 0.07052994, 0
1106, 401207655, 0.43176958, 0.5448862, -0.43907687, 0.5691096, -0.009900283, -0.014269514, 0.051980972, 0
1107, 401224322, 0.43178797, 0.54487807, -0.43909976, 0.5690858, 0.0030122842, -0.0040864875, 0.050045013, 0
1108, 401240989, 0.4317937, 0.54487026, -0.43907535, 0.56910765, -8.077758E-4, 0.007170296, 0.050994873, 0
1109, 401257656, 0.4317814, 0.54487365, -0.4390735, 0.5691151, -0.0026096255, -4.1640463E-4, 0.06750393, 0
1110, 401274323, 0.431772, 0.54487777, -0.43906987, 0.56912106, -0.0111616785, 0.024578156, 0.02878952, 0
1111, 401290990, 0.43177456, 0.5448817, -0.43906772, 0.5691172, -0.008601896, -0.00398993, 0.0650835, 0
1112, 401307657, 0.43178245, 0.5448806, -0.43907374, 0.5691076, -0.009461974, 0.0015648142, 0.09070873, 0
1113, 401324324, 0.43178084, 0.54487604, -0.43905002, 0.5691313, -0.007458292, 0.013499959, 0.051312447, 0
1114, 401340991, 0.43179703, 0.54486316, -0.4390392, 0.56913984, -0.0054072253, -0.022187237, 0.021173477, 0
1115, 401357658, 0.43177316, 0.5448921, -0.43904048, 0.5691293, 0.009773774, -0.036933057, 0.062357903, 0
1116, 401374325, 0.43175757, 0.54490143, -0.43904185, 0.5691311, -0.013168378, 0.016905626, 0.07025623, 0
1117, 401390992, 0.43177474, 0.5448707, -0.43902996, 0.5691567, 0.007699351, 2.574869E-4, 0.04170227, 0
1118, 401407659, 0.43177775, 0.54486907, -0.43902543, 0.56915945, -0.0021375662, -0.022206906, 0.042473793, 0
1119, 401424326, 0.43176904, 0.54487884, -0.43902817, 0.5691546, -0.0018528106, -0.009124022, 0.045259476, 0
1120, 401440993, 0.43176588, 0.5448807, -0.43904737, 0.5691403, -0.025398336, 0.019718537, 0.07490063, 0
1121, 401457660, 0.43176708, 0.54486907, -0.43903613, 0.5691592, 1.1354458E-4, -0.0030699505, 0.056059837, 0
1122, 401474327, 0.4317739, 0.5448633, -0.43902677, 0.56916684, -0.0047592614, -0.031801872, 0.06084442, 0
1123, 401490994, 0.43176082, 0.5448772, -0.43902463, 0.5691651, -0.0058882255, -0.021060731, 0.060875893, 0
1124, 401507661, 0.43175703, 0.5448827, -0.43903098, 0.56915784, -0.009405984, 0.015386855, 0.05164814, 0
1125, 401524328, 0.43176654, 0.5448747, -0.43901473, 0.5691709, 0.0013371663, 0.005629174, 0.048425674, 0
1126, 401540995, 0.4317532, 0.54488254, -0.439002, 0.5691831, 0.013388538, -0.0218922, 0.046118736, 0
1127, 401557662, 0.43176767, 0.54488, -0.43901756, 0.5691627, -0.0068225097, -0.012017844, 0.058338165, 0
1128, 401574329, 0.4317562, 0.54488933, -0.43901548, 0.5691641, -0.0031805893, -0.0050527337, 0.06206703, 0
1129, 401590996, 0.4317486, 0.5448998, -0.4390055, 0.56916755, -0.009683922, -0.010915702, 0.06279659, 0
1130, 401607663, 0.43176153, 0.544887, -0.4390154, 0.56916225, 0.0027304343, -7.143474E-4, 0.054602623, 0
1131, 401624330, 0.43175572, 0.5448821, -0.43901876, 0.56916875, -0.0059800893, -0.013403849, 0.07137203, 0
1132, 401640997, 0.43174148, 0.54490024, -0.4390192, 0.5691618, -0.007243384, 0.0022387058, 0.06695652, 0
1133, 401657664, 0.43175438, 0.54489124, -0.43901002, 0.5691677, -0.0023343693, -0.022496803, 0.06601524, 0
1134, 401674331, 0.43175888, 0.5448889, -0.43900353, 0.56917155, 0.0031314164, -0.0073967143, 0.046892166, 0
1135, 401690998, 0.43173876, 0.5449133, -0.4389972, 0.56916845, 0.004974728, 0.005822736, 0.052827835, 0
1136, 401707665, 0.43173876, 0.54491323, -0.4389924, 0.56917214, -0.008094968, -0.006400964, 0.049393654, 0
1137, 401724332, 0.4317362, 0.5449132, -0.4389978, 0.56917, 0.0017118857, -0.011630273, 0.049500465, 0
