sep=,
DeviceTag:,Xsens_5,,,,,,,,,,,,,,,,,
FirmwareVersion:,2.4.0,,,,,,,,,,,,,,,,,
AppVersion:,2022.0.1,,,,,,,,,,,,,,,,,
SyncStatus:,Synced,,,,,,,,,,,,,,,,,
OutputRate:,60Hz,,,,,,,,,,,,,,,,,
FilterProfile:,General,,,,,,,,,,,,,,,,,
Measurement Mode:,Sensor fusion Mode - Extended (Quaternion),,,,,,,,,,,,,,,,,
StartTime:,2020-11-25 11:18:32.882 +0100,,,,,,,,,,,,,,,,,
© Xsens Technologies B. V. 2005-2020,,,,,,,,,,,,,,,,,,,

PacketCounter,SampleTimeFine,Quat_W,Quat_X,Quat_Y,Quat_Z,FreeAcc_X,FreeAcc_Y,FreeAcc_Z,Status
1, 2677336373, -0.1471208, 0.73694235, 0.135284, 0.64572537, 0.32781923, -0.50903386, 1.68676, 0
2, 2677353040, -0.14981829, 0.741725, 0.13675341, 0.6392876, 1.1638081, -0.052202832, 1.1907187, 0
3, 2677369707, -0.15304512, 0.7454441, 0.13923034, 0.6336377, 0.8487145, -0.42121017, 0.98211, 0
4, 2677386374, -0.15709397, 0.7477788, 0.14167002, 0.6293409, 0.7766408, -0.61481726, 0.9844856, 0
5, 2677403041, -0.16139296, 0.74864125, 0.14395428, 0.62670356, 0.8492822, -0.70331514, 0.9042587, 0
6, 2677419708, -0.16655362, 0.7476793, 0.1470253, 0.62578815, 1.4872415, -0.70718443, 0.9640322, 0
7, 2677436375, -0.17219517, 0.74479944, 0.15014623, 0.6269531, 1.8080562, -0.8744806, 0.92536545, 0
8, 2677453042, -0.17738645, 0.741115, 0.15245458, 0.6293105, 1.3173026, -0.7490568, -0.475914, 0
9, 2677469709, -0.18064642, 0.7381152, 0.15289673, 0.63179684, 0.81465083, -1.0148845, -1.7172546, 0
10, 2677486376, -0.18153186, 0.7361636, 0.15189902, 0.6340564, 1.0263145, -1.1256667, -2.6376595, 0
11, 2677503043, -0.18025818, 0.7359878, 0.1494763, 0.63519883, 0.9170471, -0.9268304, -2.5224662, 0
12, 2677519710, -0.17964825, 0.73646885, 0.1481216, 0.6351312, -1.4460603, -0.27627414, -1.3334589, 0
13, 2677536377, -0.18016356, 0.73712134, 0.15043914, 0.633682, -0.66263926, -0.2541359, -1.2390175, 0
14, 2677553044, -0.1818113, 0.7374622, 0.15592273, 0.63148534, -0.4468375, -0.15243109, -0.22636795, 0
15, 2677569711, -0.18420881, 0.73743343, 0.16139218, 0.6294468, -0.66892296, -0.3873605, 0.8758354, 0
16, 2677586378, -0.18593259, 0.73711514, 0.16543834, 0.6282611, -0.24870583, -0.71972376, 1.1341696, 0
17, 2677603045, -0.18633299, 0.73679805, 0.16785255, 0.627874, -0.20092921, -0.07593656, 0.54761505, 0
18, 2677619712, -0.18582743, 0.7369127, 0.16973256, 0.6273836, -0.084578104, -0.22173937, -1.1641102, 0
19, 2677636379, -0.18491504, 0.7371145, 0.17212962, 0.62676287, 0.08558687, -0.25858137, -1.0236044, 0
20, 2677653046, -0.18493488, 0.73762995, 0.1752017, 0.6252978, -0.05887275, 0.14702852, -0.98240566, 0
21, 2677669713, -0.18483312, 0.73949265, 0.17747235, 0.6224809, -0.48785418, -0.109373294, -1.6508284, 0
22, 2677686380, -0.1841267, 0.742791, 0.17780368, 0.6186569, -0.71876264, -0.3298602, -1.092452, 0
23, 2677703047, -0.18365312, 0.7467142, 0.17992008, 0.613441, 0.39489102, -0.82132083, -0.012209892, 0
24, 2677719714, -0.18512572, 0.74848723, 0.18207338, 0.6101936, 0.7359144, 1.2555898, 0.22076225, 0
25, 2677736381, -0.1900217, 0.7516075, 0.18055336, 0.6052851, -0.24195054, 0.87834114, -0.5355396, 0
26, 2677753048, -0.19598761, 0.7555239, 0.17774642, 0.5993082, -0.1687831, -0.07954204, -1.3180189, 0
27, 2677769715, -0.1982889, 0.7592768, 0.17738673, 0.5938904, 0.7818024, -1.1251966, -0.39281368, 0
28, 2677786382, -0.19569644, 0.761236, 0.18052569, 0.5912908, 1.3086916, -2.2024841, 1.3942242, 0
29, 2677803049, -0.18810244, 0.76109713, 0.1818968, 0.59350985, 2.0398104, -3.5235631, 0.5936098, 0
30, 2677819716, -0.1729486, 0.76104206, 0.17993091, 0.59876543, 3.079097, -5.014768, 0.6176081, 0
31, 2677836383, -0.1522647, 0.75909775, 0.17667985, 0.6077514, 3.624866, -4.2409177, 1.3382692, 0
32, 2677853050, -0.12945986, 0.75440836, 0.17251119, 0.6199513, 3.4931993, -2.5928874, 0.24781513, 0
33, 2677869717, -0.10704116, 0.74802274, 0.16870064, 0.6328791, 3.1227548, -1.7407403, -1.3765631, 0
34, 2677886384, -0.08526405, 0.7416041, 0.16581489, 0.6443993, 1.9890776, -1.4955966, -1.94207, 0
35, 2677903051, -0.065577805, 0.73444587, 0.16425855, 0.65520936, 1.0377252, -1.1299585, -1.6689758, 0
36, 2677919718, -0.04894054, 0.7273569, 0.1643005, 0.664495, 0.494509, -1.3312545, -1.4195127, 0
37, 2677936385, -0.033202827, 0.71962696, 0.16447823, 0.67377543, 0.4945119, -1.9917161, -1.0878801, 0
38, 2677953052, -0.017308787, 0.7114589, 0.1647507, 0.68291676, 0.28199622, -2.1617422, -0.8199148, 0
39, 2677969719, -0.0013712198, 0.7042735, 0.16480897, 0.6905262, -0.25845003, -1.115608, 0.6139574, 0
40, 2677986386, 0.014552012, 0.69872993, 0.16438267, 0.6960853, -0.9930256, 0.38910154, 2.1876984, 0
41, 2678003053, 0.029524192, 0.69387263, 0.1643987, 0.70045245, -1.257936, 1.4069693, 2.5265331, 0
43, 2678036387, 0.05559598, 0.6844878, 0.16680187, 0.70749855, -0.8487572, 1.9883999, 1.2714462, 0
45, 2678069721, 0.0681068, 0.6787091, 0.17322089, 0.7104236, -0.25217044, 4.2363524, 1.8323317, 0
46, 2678086388, 0.06722315, 0.6782705, 0.17787287, 0.70977664, -0.53199273, 5.1091957, 2.4674501, 0
47, 2678103055, 0.060673743, 0.67773867, 0.18443136, 0.70920074, -1.1655906, 5.239744, 1.5356131, 0
49, 2678136389, 0.037034377, 0.678654, 0.19793889, 0.70630664, -1.9140648, 2.3879695, -0.8399019, 0
52, 2678186390, -0.010110959, 0.6911305, 0.21875101, 0.6887497, -0.434709, 2.3800955, -1.5516787, 0
53, 2678203057, -0.027666315, 0.6967635, 0.22544345, 0.6803838, -0.25152752, 2.2411385, -1.2064247, 0
56, 2678253058, -0.08113752, 0.714772, 0.24546179, 0.64981353, 0.5002862, 1.0609881, 1.0771236, 0
57, 2678269725, -0.09783593, 0.72011817, 0.24658045, 0.6411298, 0.37526122, 1.818583, 0.7271738, 0
58, 2678286392, -0.117433585, 0.72587717, 0.24836178, 0.63057095, -0.54019886, 2.969736, 0.550827, 0
60, 2678319726, -0.16478227, 0.7332679, 0.26405945, 0.6045075, -1.3265779, 0.83629143, 2.1227436, 0
61, 2678336393, -0.18733287, 0.73345816, 0.2725513, 0.593846, -1.1238071, -1.123221, 1.9266653, 0
62, 2678353060, -0.20546865, 0.7316836, 0.27773058, 0.5876046, -0.2167549, -1.7999697, 1.6301813, 0
64, 2678386394, -0.22999822, 0.7252763, 0.279599, 0.5855691, 0.14413606, -0.92892003, 1.0014286, 0
65, 2678403061, -0.2381175, 0.72047603, 0.27902603, 0.5885154, 0.787545, -0.9607049, 0.63501835, 0
66, 2678419728, -0.24326335, 0.71518445, 0.2772169, 0.5936971, 1.4677516, -1.3530815, 0.22087288, 0
68, 2678453062, -0.24540323, 0.70389634, 0.27054697, 0.6091823, 1.7761896, -1.9280953, 0.28382874, 0
69, 2678469729, -0.24271217, 0.6981718, 0.2659018, 0.6188173, 1.4946481, -2.4605935, -0.15332699, 0
70, 2678486396, -0.23549718, 0.69474214, 0.2593167, 0.6281886, 0.28093237, -3.4655535, -1.3992195, 0
72, 2678519730, -0.21329388, 0.7004161, 0.24384987, 0.6359652, -2.9417636, -0.3117472, -0.9211292, 0
73, 2678536397, -0.20465922, 0.7066687, 0.23791027, 0.6341327, -1.9793632, 0.5293777, -0.051368713, 0
76, 2678586398, -0.19189276, 0.71805143, 0.23415683, 0.6266908, -0.743618, -0.08115387, 1.3307352, 0
77, 2678603065, -0.1907291, 0.71832985, 0.23619738, 0.6259608, 0.13899279, -0.5010591, 0.9667301, 0
79, 2678636399, -0.1864911, 0.71764284, 0.23587738, 0.62814283, 0.6747551, 0.13666396, 0.38990688, 0
80, 2678653066, -0.18546638, 0.71678257, 0.23657954, 0.62916356, 0.16136762, 0.08968868, -0.21025181, 0
81, 2678669733, -0.18568814, 0.7155524, 0.23861149, 0.6297307, 0.24280424, 0.12554373, -0.33885002, 0
84, 2678719734, -0.18349291, 0.7145825, 0.24297948, 0.62980545, 0.5100005, -0.4534639, -0.5010185, 0
85, 2678736401, -0.18092938, 0.71582454, 0.24235857, 0.6293756, 0.42693228, -0.2599149, -0.30406666, 0
87, 2678769735, -0.17545913, 0.7183818, 0.24120292, 0.6284541, -0.05979772, -0.22414663, -0.025466919, 0
88, 2678786402, -0.1728278, 0.7192469, 0.24063611, 0.6284108, 0.029465556, 0.04269775, 0.2366333, 0
89, 2678803069, -0.17086779, 0.719913, 0.24067971, 0.6281675, -0.12833293, 0.5270493, 0.5628395, 0
91, 2678836403, -0.17031223, 0.72012776, 0.24304312, 0.6271613, -0.5031835, 0.6189439, 0.6106472, 0
92, 2678853070, -0.17122331, 0.71983546, 0.24481381, 0.6265599, -0.42077821, 0.2571193, 0.4327879, 0
93, 2678869737, -0.17222922, 0.7194887, 0.24649239, 0.626024, -0.44950083, 0.021906998, 0.32964325, 0
95, 2678903071, -0.17345658, 0.7188325, 0.2478035, 0.6259215, -0.34125596, -0.122165464, 0.21067715, 0
96, 2678919738, -0.17372653, 0.71862584, 0.2474751, 0.62621355, -0.28182214, 0.044644523, 0.03197956, 0
99, 2678969739, -0.17699893, 0.7175403, 0.24864128, 0.62608, 0.37940794, 0.10690041, -2.412796E-4, 0
100, 2678986406, -0.17865802, 0.71730006, 0.24966379, 0.625477, 0.51878583, 0.17900124, -0.14093304, 0
101, 2679003073, -0.18016383, 0.7171625, 0.25048137, 0.6248757, 0.46467972, -0.041447103, -0.22911644, 0
103, 2679036407, -0.18253, 0.7173014, 0.2505532, 0.62400013, 0.46292454, -0.10836643, -0.3554592, 0
106, 2679086408, -0.18613666, 0.72090364, 0.24929433, 0.6192696, 0.42679915, -0.32137513, -0.4004984, 0
107, 2679103075, -0.18768455, 0.7235565, 0.24855244, 0.61599815, 0.26981536, -0.06659964, -0.2596283, 0
108, 2679119742, -0.18961306, 0.7268143, 0.24836724, 0.6116316, 0.057533428, -0.03406931, -0.07343578, 0
110, 2679153076, -0.19274431, 0.7314955, 0.24895509, 0.60479486, -0.5999503, -0.31521368, 0.7725563, 0
111, 2679169743, -0.19296125, 0.7320759, 0.24876285, 0.6041023, -0.570816, -0.29924735, 0.37292957, 0
114, 2679219744, -0.18959844, 0.7345607, 0.24651898, 0.60306966, -0.35654294, -0.06524742, 0.33313942, 0
116, 2679253078, -0.18834648, 0.73523563, 0.24812737, 0.6019788, 0.5330299, -0.15598781, -0.16194534, 0
118, 2679286412, -0.1865504, 0.7349968, 0.25059658, 0.6018069, 0.8038815, -0.46698585, -0.08520317, 0
119, 2679303079, -0.1856483, 0.7340073, 0.25109622, 0.60308397, 1.0465828, -0.18143213, 0.08362579, 0
120, 2679319746, -0.18475313, 0.7323884, 0.25151318, 0.6051498, 0.881415, 0.025485953, 0.21959877, 0
122, 2679353080, -0.1830632, 0.7267508, 0.25263903, 0.6119529, 0.42829776, 0.17956631, 0.5300751, 0
123, 2679369747, -0.18230665, 0.7229582, 0.2534992, 0.6162999, 0.10612074, 0.27180275, 0.5438757, 0
124, 2679386414, -0.18169348, 0.7189911, 0.25482297, 0.62056106, -0.32648006, 0.13075313, 0.42295647, 0
126, 2679419748, -0.18019, 0.712154, 0.2583125, 0.62740314, -0.59660095, -0.11638556, 0.2158041, 0
127, 2679436415, -0.17921521, 0.7098728, 0.25980216, 0.6296483, -0.46226835, -0.08896295, 0.08326626, 0
128, 2679453082, -0.17825517, 0.7086461, 0.26088375, 0.63085425, -0.45200595, 0.058687482, 0.06806755, 0
133, 2679536417, -0.17294732, 0.71122307, 0.25824907, 0.6305157, 0.36128092, 0.55577713, 0.21115017, 0
135, 2679569751, -0.17220613, 0.71286887, 0.25534496, 0.6300427, 0.3702062, 0.5411905, 0.0022659302, 0
137, 2679603085, -0.17290625, 0.713267, 0.25310767, 0.6303027, 0.28920758, -0.093609296, -0.16943073, 0
138, 2679619752, -0.17291445, 0.71331817, 0.25164732, 0.63082707, 0.3726051, -0.25498024, -0.19311619, 0
139, 2679636419, -0.1725319, 0.71353453, 0.24995202, 0.631361, 0.25852522, -0.2768147, -0.20738125, 0
141, 2679669753, -0.17163596, 0.7142833, 0.24722625, 0.63183147, -0.04574746, -0.31165564, -0.24006939, 0
142, 2679686420, -0.1711504, 0.71490854, 0.24656871, 0.63151336, -0.11094526, -0.5201601, -0.1457367, 0
143, 2679703087, -0.16984305, 0.7161554, 0.24569064, 0.63079494, -0.086259976, -0.6395241, -0.023275375, 0
145, 2679736421, -0.16547137, 0.7215759, 0.24301113, 0.626805, -0.21288596, -0.73450243, -0.5265541, 0
146, 2679753088, -0.16237803, 0.72626126, 0.24157083, 0.6227464, -0.18315983, -0.55085164, -0.5104475, 0
147, 2679769755, -0.15710579, 0.73162377, 0.23927057, 0.6186968, -0.6287666, -0.88679326, 0.12624359, 0
149, 2679803089, -0.14016482, 0.73867893, 0.23128891, 0.61741734, -0.55291706, -0.84474087, 0.47533417, 0
150, 2679819756, -0.12727988, 0.74087787, 0.22413974, 0.62020385, -0.13294594, -0.52723277, 0.694417, 0
151, 2679836423, -0.11232366, 0.7429559, 0.21527886, 0.6237359, -0.002281016, -0.5658591, 0.9207344, 0
153, 2679869757, -0.08347716, 0.74626195, 0.19842981, 0.62987447, 0.010416338, -0.034325946, 0.42180157, 0
154, 2679886424, -0.07051371, 0.7475193, 0.19170292, 0.63204765, 0.13873452, -0.09361449, -0.118888855, 0
156, 2679919758, -0.04104276, 0.7500111, 0.17728667, 0.63589305, 0.25033236, -1.1523734, 0.446702, 0
157, 2679936425, -0.023775086, 0.74987864, 0.16731259, 0.6396207, 0.3178651, -1.0133501, 0.32179165, 0
158, 2679953092, -0.0062377006, 0.7492428, 0.15650482, 0.64350146, 0.1959225, -0.29587272, -0.3596611, 0
161, 2680003093, 0.0477861, 0.7465017, 0.123955905, 0.6519803, 0.3374925, 0.1731347, 0.5840769, 0
162, 2680019760, 0.06585291, 0.744109, 0.112484656, 0.65521306, 0.21719317, 0.4801731, 0.43939686, 0
164, 2680053094, 0.10516623, 0.7369067, 0.085870035, 0.6622133, -0.22318889, -0.049187377, 0.3334217, 0
165, 2680069761, 0.12550396, 0.7326044, 0.07146677, 0.6651493, -0.22548945, 0.5117962, 0.1237154, 0
166, 2680086428, 0.1453497, 0.7275441, 0.057261065, 0.66803116, 0.03220858, 1.1096728, 0.20886421, 0
168, 2680119762, 0.17794198, 0.7163895, 0.033073008, 0.6738104, 0.4218538, 1.6796496, 0.14576054, 0
169, 2680136429, 0.19127257, 0.7106101, 0.022778407, 0.6766983, 0.5192288, 1.5264338, 0.1846981, 0
170, 2680153096, 0.20239925, 0.7054341, 0.013641432, 0.6791191, 0.52907425, 1.6242546, -0.049492836, 0
172, 2680186430, 0.2193234, 0.69593626, -0.0012865663, 0.68378335, 0.6754654, 1.2473277, -0.28942394, 0
173, 2680203097, 0.22500353, 0.6921385, -0.007624522, 0.68574876, 0.66359174, 1.0643524, -0.6461506, 0
176, 2680253098, 0.24082112, 0.68213964, -0.02685225, 0.6898993, 0.29880708, 0.3218419, -0.26789856, 0
177, 2680269765, 0.24479729, 0.67911327, -0.03295429, 0.69122, 0.29620624, 0.5731208, -0.4827156, 0
178, 2680286432, 0.24743268, 0.67659926, -0.037814677, 0.69249713, 0.10327785, 0.38157082, -0.28995514, 0
180, 2680319766, 0.25141984, 0.6724935, -0.047401294, 0.6944676, -0.16031042, -0.023584863, 0.16296577, 0
181, 2680336433, 0.25174725, 0.6716285, -0.05131364, 0.69490796, -0.060694497, -0.036199935, 0.068330765, 0
182, 2680353100, 0.25096852, 0.6715768, -0.054086417, 0.69502926, -0.18946366, -0.29224765, 0.08165932, 0
184, 2680386434, 0.24885423, 0.67225885, -0.058229864, 0.6947951, -0.5261523, -0.6733059, 0.26312637, 0
185, 2680403101, 0.2480791, 0.6727728, -0.059991986, 0.6944249, -0.54449666, -0.81227493, 0.19226456, 0
187, 2680436435, 0.25099462, 0.6731884, -0.0650045, 0.6925207, -0.59544766, -0.61681485, 0.31280422, 0
188, 2680453102, 0.25279492, 0.67375225, -0.06696734, 0.6911292, -0.2851347, -0.108765654, 0.2666893, 0
191, 2680503103, 0.2559684, 0.6761271, -0.06757882, 0.6875733, -0.6516049, -0.737435, 0.059207916, 0
192, 2680519770, 0.25870222, 0.6764217, -0.06826332, 0.6861914, -0.37153912, -0.7003805, -0.05490017, 0
193, 2680536437, 0.261619, 0.6770259, -0.06905776, 0.6844076, 0.11289963, -0.41504166, -0.013462067, 0
195, 2680569771, 0.2665639, 0.67894053, -0.07017021, 0.6804787, 0.6401713, 0.14898278, 0.3698311, 0
196, 2680586438, 0.2684107, 0.67964834, -0.070490494, 0.67901134, 0.8027621, 0.24011125, 0.41535664, 0
197, 2680603105, 0.26963592, 0.680073, -0.07036187, 0.67811346, 0.99231493, 0.39234683, 0.49947453, 0
199, 2680636439, 0.27174294, 0.67943215, -0.07113759, 0.6778339, 0.7514186, -0.07542288, 0.42423153, 0
200, 2680653106, 0.27298072, 0.67841625, -0.07240148, 0.67822015, 0.9409367, 0.09215573, 0.19585419, 0
201, 2680669773, 0.27301198, 0.6775164, -0.07344185, 0.67899466, 1.0127281, 0.3877239, 0.086250305, 0
203, 2680703107, 0.26716432, 0.6763509, -0.07200509, 0.6826269, 0.7248877, 0.6035619, -0.11683941, 0
207, 2680769775, 0.24489774, 0.6735176, -0.059415087, 0.69488174, -0.31676188, 0.26361588, 0.07300472, 0
208, 2680786442, 0.23780161, 0.6729105, -0.054736882, 0.6983104, -0.16302375, 0.22627111, -0.020460129, 0
209, 2680803109, 0.23010544, 0.67249197, -0.049776837, 0.7016551, -0.16592373, -0.030824672, -0.08944225, 0
211, 2680836443, 0.21799515, 0.67166823, -0.041915983, 0.70680594, -0.62135476, -0.3810393, 0.005712509, 0
212, 2680853110, 0.21331504, 0.6714599, -0.039010048, 0.7085959, -0.4238918, -0.22463812, -0.0041570663, 0
214, 2680886444, 0.20388888, 0.6718602, -0.03368759, 0.71125925, -0.15241298, -0.015533703, -0.077861786, 0
215, 2680903111, 0.20083898, 0.6722005, -0.032061964, 0.71188045, -0.6197511, -0.23536451, 0.13543129, 0
216, 2680919778, 0.19951609, 0.6723594, -0.03136061, 0.7121335, -0.6146068, -0.18907744, 0.13571548, 0
218, 2680953112, 0.1999394, 0.6723907, -0.03250256, 0.71193427, -0.69753635, -0.021620408, 0.3615389, 0
219, 2680969779, 0.20132577, 0.67195976, -0.034180045, 0.7118717, -0.42387828, -0.09947198, 0.25885963, 0
220, 2680986446, 0.20331112, 0.67128396, -0.036158994, 0.7118472, -0.23325543, -0.23793021, 0.17453861, 0
222, 2681019780, 0.207747, 0.6697452, -0.040127307, 0.7118033, 0.11333431, -0.27389702, -0.18308163, 0
223, 2681036447, 0.20905572, 0.6693181, -0.041519076, 0.71174204, 0.21726845, -0.34095538, -0.28025246, 0
224, 2681053114, 0.20971502, 0.6691499, -0.042499527, 0.7116485, 0.32176378, -0.40101734, -0.18157291, 0
226, 2681086448, 0.21030411, 0.66909, -0.043429643, 0.7114747, 0.20536873, -0.30117387, 0.1251936, 0
227, 2681103115, 0.21006732, 0.6691107, -0.043504223, 0.7115206, 0.15667632, -0.25932464, 0.02872181, 0
228, 2681119782, 0.20925865, 0.6692352, -0.04322833, 0.7116585, 0.07698697, -0.16683945, 0.061947823, 0
230, 2681153116, 0.20668323, 0.66974264, -0.04186505, 0.7120153, -0.060155775, -0.22729658, 0.16206455, 0
231, 2681169783, 0.20605674, 0.6700896, -0.041423127, 0.7118963, -0.1257129, -0.20188138, 0.21705627, 0
234, 2681219784, 0.20538706, 0.6712961, -0.04087688, 0.710984, -0.1145833, -0.10080658, 0.22695827, 0
235, 2681236451, 0.20529409, 0.6714914, -0.040796787, 0.71083117, -0.10695877, -0.15343359, 0.18917847, 0
236, 2681253118, 0.20547031, 0.67151195, -0.0408666, 0.7107568, -0.069709614, -0.21151568, 0.19682121, 0
238, 2681286452, 0.20531851, 0.67156273, -0.040576532, 0.7107692, 0.074455574, -0.036341418, 0.15894794, 0
239, 2681303119, 0.2046091, 0.6716148, -0.039986774, 0.71095806, 0.13189566, -0.14930107, 0.08389664, 0
241, 2681336453, 0.20320326, 0.67159694, -0.038287908, 0.7114713, 0.2222971, -0.29946512, 0.09970474, 0
242, 2681353120, 0.20251577, 0.67162406, -0.037432134, 0.7116874, 0.13541493, -0.19356044, 0.108478546, 0
243, 2681369787, 0.2019148, 0.6716359, -0.036629632, 0.7118887, -0.024497913, -0.17680322, 0.1326437, 0
245, 2681403121, 0.2013152, 0.6713794, -0.035259128, 0.71236944, -0.1654135, -0.2559228, 0.10548687, 0
246, 2681419788, 0.2015897, 0.6710866, -0.034920022, 0.7125845, -0.09854926, -0.25455645, 0.07626438, 0
249, 2681469789, 0.20232181, 0.6705532, -0.033761755, 0.7129346, -0.014652057, -0.15900399, 0.07102966, 0
250, 2681486456, 0.20233855, 0.6706137, -0.033300117, 0.71289486, 0.0060883253, -0.18281929, 0.035390854, 0
251, 2681503123, 0.20222317, 0.6707744, -0.03274919, 0.7128019, 0.0144222295, -0.1375796, 0.12801647, 0
253, 2681536457, 0.20174113, 0.6711929, -0.031261876, 0.7126114, 0.13299222, 0.0021942267, 0.17163944, 0
254, 2681553124, 0.20103994, 0.6714871, -0.030182034, 0.7125789, 0.11180906, -0.0043654316, 0.09201336, 0
255, 2681569791, 0.20013659, 0.67179316, -0.028970867, 0.7125949, -0.004793347, -0.072659366, 0.057783127, 0
257, 2681603125, 0.19852652, 0.67242014, -0.026942372, 0.7125336, 0.018669423, -0.111632206, 0.10142326, 0
258, 2681619792, 0.19779702, 0.67276835, -0.026143923, 0.71243745, 0.019782964, -0.011415477, 0.11075592, 0
259, 2681636459, 0.1970605, 0.67311937, -0.025456116, 0.7123349, 0.007610728, -0.05245022, 0.065927505, 0
261, 2681669793, 0.19571899, 0.67379534, -0.02447629, 0.7120999, -0.07106796, -0.0529757, 0.083966255, 0
263, 2681703127, 0.19622208, 0.6737782, -0.025069937, 0.71195716, -0.045263607, -0.1423621, 0.09896374, 0
265, 2681736461, 0.19770503, 0.6737312, -0.02630058, 0.71154696, -0.117652304, -0.0015294992, 0.1214056, 0
266, 2681753128, 0.19840126, 0.67369056, -0.027083486, 0.7113622, -0.29144347, -0.074029505, 0.08249664, 0
268, 2681786462, 0.19935575, 0.673336, -0.028843358, 0.71136165, -0.5587386, -0.1691689, -0.056126595, 0
269, 2681803129, 0.20024458, 0.6728432, -0.030125365, 0.7115252, -0.527393, -0.33333114, -0.15958023, 0
270, 2681819796, 0.20187183, 0.67251843, -0.031709656, 0.71130353, -0.13903517, -0.4304124, -0.072291374, 0
272, 2681853130, 0.20506722, 0.6741911, -0.034386992, 0.7086769, -0.072316386, -0.14256863, 0.06551647, 0
273, 2681869797, 0.20655654, 0.6758021, -0.03474219, 0.70668983, -0.55618143, -0.069882445, 0.57623196, 0
274, 2681886464, 0.20853299, 0.67726374, -0.034452707, 0.70472145, -1.0362618, -0.28046182, 0.88210106, 0
276, 2681919798, 0.21551812, 0.6792041, -0.03472379, 0.70072776, -1.2184209, -0.54103947, 0.8444147, 0
278, 2681953132, 0.22640282, 0.68141407, -0.037555918, 0.6949804, -0.52012175, -0.25853074, 0.13496494, 0
280, 2681986466, 0.23583901, 0.6854264, -0.037660643, 0.6878546, -0.042869113, -0.1774476, -0.11759186, 0
281, 2682003133, 0.24008395, 0.68807787, -0.037206814, 0.6837511, -0.085208446, -0.25687203, -0.11059952, 0
282, 2682019800, 0.24566396, 0.6904441, -0.037517324, 0.6793528, 0.101895645, -0.6414138, 0.17020321, 0
284, 2682053134, 0.2615847, 0.69448346, -0.042892978, 0.66889304, 0.943171, -0.10883695, 0.09833622, 0
285, 2682069801, 0.26991946, 0.6963142, -0.04672964, 0.6633986, 1.1028985, 0.29504603, -0.21825695, 0
286, 2682086468, 0.27767396, 0.6978732, -0.050543413, 0.6582606, 1.1718396, 0.38895255, -0.36641026, 0
288, 2682119802, 0.2929622, 0.6997195, -0.06033939, 0.6487807, 1.1384543, 0.48282868, -0.17170143, 0
289, 2682136469, 0.30021092, 0.69988257, -0.06616047, 0.6447109, 1.392059, 0.52685064, -0.16366005, 0
290, 2682153136, 0.30732888, 0.6992699, -0.072506994, 0.6413305, 1.48182, 0.42308208, -0.12516022, 0
292, 2682186470, 0.3178661, 0.6967708, -0.08495161, 0.6373746, 1.7394162, 0.88160014, -0.50139236, 0
293, 2682203137, 0.32031542, 0.6956279, -0.0901909, 0.63667655, 1.4500208, 0.5761308, -0.36341095, 0
295, 2682236471, 0.32201374, 0.6926861, -0.09989186, 0.6375785, 1.0868758, 0.562328, -0.02154541, 0
296, 2682253138, 0.3205973, 0.69096386, -0.10374981, 0.6395419, 0.8118578, 0.6097205, 0.12769508, 0
299, 2682303139, 0.29884273, 0.6881056, -0.103677854, 0.6530285, 0.27955022, 0.651878, 0.36913776, 0
300, 2682319806, 0.28987533, 0.6873479, -0.10211757, 0.6580949, -1.1350199, -1.0199149, 0.9587498, 0
301, 2682336473, 0.28487253, 0.6851133, -0.10322632, 0.6624223, -1.7256225, -1.3655862, 1.1023769, 0
303, 2682369807, 0.28364953, 0.6774769, -0.10977781, 0.6697078, -1.9508256, -1.0038738, 0.37379265, 0
304, 2682386474, 0.28434917, 0.6739405, -0.112434536, 0.67253244, -1.2849083, -0.5738588, -0.04317093, 0
307, 2682436475, 0.28253174, 0.67026126, -0.113230675, 0.6768279, -0.516601, -0.7053175, -0.17892838, 0
308, 2682453142, 0.28130424, 0.67084354, -0.11188297, 0.67698646, -0.27557114, -0.4669217, -0.3146429, 0
309, 2682469809, 0.27980137, 0.6718918, -0.11026864, 0.67683446, -0.35311782, -0.30972928, -0.07606888, 0
311, 2682503143, 0.27797875, 0.67411923, -0.10770509, 0.67578274, -0.21576153, 0.024992548, 0.25314617, 0
312, 2682519810, 0.27734482, 0.67516327, -0.106787264, 0.67514616, -0.04284676, 0.21909879, 0.27258873, 0
313, 2682536477, 0.27606228, 0.6759246, -0.10580863, 0.67506415, 0.10992758, 0.91549814, 0.4000845, 0
315, 2682569811, 0.26379228, 0.6782266, -0.09872426, 0.6787248, 1.3763529, 1.6668063, 0.23449898, 0
316, 2682586478, 0.25181797, 0.6803459, -0.09178683, 0.6821174, 1.6678147, 1.2752123, -0.004245758, 0
317, 2682603145, 0.23724236, 0.68263775, -0.08327399, 0.68613315, 1.3653313, 0.5164041, -0.0010852814, 0
319, 2682636479, 0.2166877, 0.6843706, -0.073565215, 0.6922884, -1.1847792, -2.6682513, 0.6525612, 0
322, 2682686480, 0.21634236, 0.68055326, -0.08051376, 0.6953792, -0.16006032, 0.04744085, -0.13292885, 0
323, 2682703147, 0.21403831, 0.68011874, -0.08069949, 0.6964951, -0.7935252, -0.35318398, 0.07958031, 0
324, 2682719814, 0.21281098, 0.67970765, -0.08062494, 0.6972805, -1.0074726, -0.6140719, 0.127388, 0
326, 2682753148, 0.21237937, 0.680493, -0.079354376, 0.6967917, -0.6616502, -0.20749915, 0.08641243, 0
327, 2682769815, 0.21241346, 0.68115, -0.07832508, 0.6962557, -0.33238968, -0.18587248, 0.16811562, 0
328, 2682786482, 0.21222399, 0.6818541, -0.07705061, 0.6957662, -0.10439038, 0.03535461, -5.3596497E-4, 0
330, 2682819816, 0.21064429, 0.6830661, -0.0742258, 0.69536436, 0.009961525, 0.107910715, -0.018755913, 0
331, 2682836483, 0.20973812, 0.68356603, -0.07318121, 0.6952579, 0.17588122, 0.09435532, 0.10525322, 0
332, 2682853150, 0.20931984, 0.68395436, -0.072427675, 0.69508094, 0.35018545, 0.05012859, 0.28724098, 0
334, 2682886484, 0.20753774, 0.6843601, -0.07126333, 0.69533616, 0.40361896, 0.16857012, 0.23286724, 0
336, 2682919818, 0.20335345, 0.6843599, -0.06939714, 0.6967598, 0.38155466, 0.13032459, 0.28470802, 0
338, 2682953152, 0.19586156, 0.6838909, -0.0646978, 0.6998124, 0.049167264, -0.19697548, 0.035832405, 0
339, 2682969819, 0.19302243, 0.68338406, -0.062422737, 0.70130134, -0.47429886, -0.46513963, 0.07360363, 0
340, 2682986486, 0.19140072, 0.68293315, -0.06067063, 0.70233804, -0.4731549, -0.19770078, -0.04260254, 0
342, 2683019820, 0.18952683, 0.6825116, -0.058058545, 0.7034757, -0.6959446, -0.102794506, -0.00832653, 0
343, 2683036487, 0.18850975, 0.68256205, -0.05677761, 0.7038046, -0.46764553, -0.19441694, -0.061805725, 0
344, 2683053154, 0.1875055, 0.68282306, -0.055556238, 0.7039172, -0.27401078, -0.35260576, -0.1575222, 0
346, 2683086488, 0.18540913, 0.68376184, -0.053214923, 0.70374215, 0.301435, -0.07701251, 0.024895668, 0
347, 2683103155, 0.18390357, 0.68432695, -0.051816314, 0.7036922, 0.28766012, 0.14544591, 0.17094898, 0
349, 2683136489, 0.17956445, 0.6847593, -0.048723355, 0.70461255, -0.008106312, 0.13876198, 0.1644268, 0
351, 2683169823, 0.1760535, 0.68449295, -0.046076536, 0.7059343, 0.1333004, -0.040460315, 0.19421864, 0
353, 2683203157, 0.17408521, 0.6843521, -0.044350147, 0.7066689, -0.073474854, 0.03710561, 0.18456554, 0
354, 2683219824, 0.17340271, 0.68421364, -0.043965697, 0.7069948, -0.27616826, 0.014791864, 0.1282959, 0
355, 2683236491, 0.17281498, 0.68405956, -0.043794915, 0.7072984, -0.29328626, -0.012308635, 0.19574547, 0
357, 2683269825, 0.17183432, 0.6836684, -0.04342492, 0.707938, -0.04244556, 0.01225365, 0.16984558, 0
358, 2683286492, 0.17074442, 0.68348205, -0.04276046, 0.708422, 0.01826397, -0.03680588, 0.062268257, 0
359, 2683303159, 0.1687565, 0.68334186, -0.041449472, 0.70911133, 0.12621984, -0.08008491, 0.014170647, 0
361, 2683336493, 0.16368227, 0.6832013, -0.037534595, 0.71065235, 0.09227347, -0.29432967, 0.07504177, 0
362, 2683353160, 0.161652, 0.6832656, -0.035693288, 0.7111498, 0.11050799, -0.16015865, 0.07279301, 0
363, 2683369827, 0.15984507, 0.68338734, -0.03401561, 0.71152353, -0.074202724, -0.029871613, 0.09648132, 0
365, 2683403161, 0.15625846, 0.6836779, -0.030863509, 0.71218467, -0.22552525, 0.039105378, 0.09490204, 0
366, 2683419828, 0.15505601, 0.683776, -0.029639408, 0.7124051, -0.22747332, -0.054338906, 0.1872139, 0
367, 2683436495, 0.15452364, 0.6838305, -0.028929517, 0.71249765, -0.1540767, -0.04570527, 0.13240814, 0
369, 2683469829, 0.15413654, 0.68409526, -0.028405964, 0.7123484, -0.040740546, 0.023917675, 0.08811951, 0
370, 2683486496, 0.15404724, 0.68426454, -0.028342053, 0.7122077, -0.05632236, 0.009521205, 0.07766056, 0
371, 2683503163, 0.15391047, 0.6843841, -0.028310865, 0.71212363, -0.05294083, 0.027830046, 0.10651684, 0
373, 2683536497, 0.15350649, 0.6844288, -0.028295115, 0.71216834, 0.0016192954, -0.053288393, 0.10440922, 0
374, 2683553164, 0.15307696, 0.68439054, -0.028123125, 0.7123046, 0.04594985, -0.13417952, 0.07024765, 0
376, 2683586498, 0.15188983, 0.6844768, -0.027313098, 0.7125073, 0.02543935, -0.112875834, 0.1113081, 0
378, 2683619832, 0.1513064, 0.6842917, -0.02656436, 0.7128372, -0.020356163, -0.07770786, 0.08055687, 0
380, 2683653166, 0.15151499, 0.6839962, -0.026452988, 0.7130808, -0.05236506, -0.03654124, 0.15477371, 0
381, 2683669833, 0.15157607, 0.6837568, -0.026409164, 0.71329904, 0.019945402, -0.03311121, 0.12183857, 0
382, 2683686500, 0.15158239, 0.68353885, -0.026402906, 0.7135068, 0.06924286, -0.071410604, 0.15373707, 0
384, 2683719834, 0.15160386, 0.6831978, -0.026537806, 0.7138237, 0.041732103, -0.0052559073, 0.16889286, 0
385, 2683736501, 0.15143764, 0.683099, -0.0263872, 0.7139592, 0.022037596, 0.029757174, 0.12650204, 0
386, 2683753168, 0.1510896, 0.68303233, -0.026051417, 0.714109, -0.049766053, -0.04827187, 0.0742836, 0
388, 2683786502, 0.15002842, 0.6830489, -0.025071397, 0.71435195, -0.06854357, -0.097007744, 0.048589706, 0
389, 2683803169, 0.14933835, 0.68315715, -0.024442658, 0.71441466, 0.012316123, -0.12289905, 0.066859245, 0
390, 2683819836, 0.14860417, 0.6833028, -0.023730218, 0.7144526, 0.005430359, -0.12868759, 0.06841469, 0
393, 2683869837, 0.14690782, 0.6835343, -0.022101775, 0.71463424, -0.06253959, -0.06185207, 0.06972885, 0
394, 2683886504, 0.14671315, 0.68348855, -0.021982104, 0.7147216, -0.09256403, -0.039058443, 0.07697582, 0
396, 2683919838, 0.14603329, 0.6833645, -0.021742016, 0.71498674, -0.10110262, -0.1882862, -0.008804321, 0
397, 2683936505, 0.14544192, 0.68340015, -0.02142416, 0.7150828, 0.03711645, -0.21464574, 0.059186935, 0
398, 2683953172, 0.1449813, 0.6835648, -0.021042556, 0.7150304, 0.20110606, -0.19780137, 0.22747135, 0
400, 2683986506, 0.14477499, 0.68403804, -0.020724386, 0.7146287, 0.07423748, -0.042453602, 0.22017097, 0
401, 2684003173, 0.14480376, 0.6841489, -0.020651579, 0.7145188, -0.041604478, -0.026672024, 0.18575954, 0
403, 2684036507, 0.14448951, 0.68407744, -0.020364285, 0.7146592, 0.08391, -0.115294464, 0.12902355, 0
404, 2684053174, 0.14424783, 0.6839886, -0.020160303, 0.7147987, 0.10821386, -0.1809, 0.07861805, 0
405, 2684069841, 0.14410539, 0.6840025, -0.020012885, 0.7148183, 0.16206752, -0.2254269, 0.06674957, 0
408, 2684119842, 0.14387761, 0.6843053, -0.019535944, 0.71458757, -0.12979007, -0.10818519, 0.12050438, 0
409, 2684136509, 0.14358793, 0.6843151, -0.019268677, 0.7146437, -0.087237775, -0.14147878, 0.060112953, 0
411, 2684169843, 0.14288428, 0.68445307, -0.018551946, 0.7146716, 0.04181827, -0.20440885, 0.04240513, 0
412, 2684186510, 0.14266402, 0.684578, -0.018163279, 0.7146059, 0.06790497, -0.15619957, 0.061157227, 0
413, 2684203177, 0.14247124, 0.68469095, -0.01774928, 0.71454644, 0.06207994, -0.10535663, 0.1299572, 0
415, 2684236511, 0.14194414, 0.6846438, -0.017065942, 0.7147131, 0.036054764, -0.13092987, 0.07353115, 0
416, 2684253178, 0.1415879, 0.6845555, -0.01679641, 0.7148748, 0.024313403, -0.13250071, 0.08355808, 0
417, 2684269845, 0.14123963, 0.684442, -0.016538769, 0.7150584, 0.046966106, -0.105045505, 0.066529274, 0
419, 2684303179, 0.14058873, 0.6842709, -0.015823409, 0.7153666, 0.09572194, -0.091044426, 0.17439651, 0
420, 2684319846, 0.14032523, 0.6842201, -0.015419334, 0.71547574, 0.011047742, -0.117308766, 0.1596775, 0
423, 2684369847, 0.14062151, 0.6842079, -0.014808565, 0.7154421, -0.05389579, -0.034161273, 0.14098358, 0
424, 2684386514, 0.14108838, 0.6841186, -0.0149362385, 0.715433, -0.032645967, -0.108752914, 0.060139656, 0
425, 2684403181, 0.14152196, 0.68401974, -0.015094176, 0.71543854, 0.035183508, -0.13307694, 0.017806053, 0
427, 2684436515, 0.14186728, 0.68378276, -0.015207753, 0.71559423, 0.09768114, -0.05083199, -0.011338234, 0
428, 2684453182, 0.14161584, 0.683691, -0.01504533, 0.71573496, 0.0955595, 0.0028665536, 0.097351074, 0
430, 2684486516, 0.14074287, 0.68343866, -0.014456466, 0.7161603, 0.03668909, -0.048083447, 0.15917397, 0
431, 2684503183, 0.14039345, 0.68327534, -0.014231831, 0.7163893, 0.03417731, -0.05163574, 0.14416695, 0
432, 2684519850, 0.140018, 0.68307465, -0.014023796, 0.7166581, 4.925667E-4, -0.016190384, 0.1522541, 0
434, 2684553184, 0.13938451, 0.68265593, -0.013592109, 0.7171888, -0.025627045, -0.095144324, 0.092062, 0
435, 2684569851, 0.13924694, 0.6824965, -0.01349172, 0.7173691, -0.029255107, -0.101304345, 0.07322502, 0
436, 2684586518, 0.13940129, 0.6823339, -0.013625532, 0.71749115, -0.05027762, -0.05896674, 0.073327065, 0
438, 2684619852, 0.14021157, 0.68201387, -0.014437363, 0.7176217, 0.008445266, -0.017519906, 0.09969807, 0
439, 2684636519, 0.140404, 0.68185127, -0.014742956, 0.71773237, 0.051439773, -0.04934317, 0.10633659, 0
440, 2684653186, 0.14055839, 0.6816788, -0.015031561, 0.7178601, 0.06614134, -0.1343219, 0.087150574, 0
442, 2684686520, 0.14106587, 0.68140763, -0.015824482, 0.7180008, 0.07722904, -0.08046891, 0.09786129, 0
443, 2684703187, 0.14123447, 0.6813079, -0.016182855, 0.71805423, 0.08810104, -0.07351341, 0.14118767, 0
444, 2684719854, 0.14134169, 0.68122494, -0.016484633, 0.71810496, 0.012442128, -0.07764013, 0.14513683, 0
446, 2684753188, 0.14152345, 0.68096316, -0.01704295, 0.7183044, -0.054552585, -0.10140157, 0.107933044, 0
447, 2684769855, 0.14169583, 0.68077916, -0.017377868, 0.71843684, -0.03647508, -0.12229757, 0.09670067, 0
450, 2684819856, 0.142357, 0.6804145, -0.018285021, 0.7186292, 0.0458719, -0.070626296, 0.082289696, 0
452, 2684853190, 0.14247242, 0.6803118, -0.018600747, 0.71869534, -0.01256059, -0.14793429, 0.11078453, 0
454, 2684886524, 0.14294027, 0.6800872, -0.01927115, 0.71879745, 0.059518818, -0.1004845, 0.08613968, 0
455, 2684903191, 0.14330307, 0.6799939, -0.019643784, 0.7188034, 0.05434036, -0.093805484, 0.15309334, 0
457, 2684936525, 0.14364335, 0.67986614, -0.020022273, 0.71884584, 0.01896122, -0.08549706, 0.11681938, 0
458, 2684953192, 0.14380166, 0.6798018, -0.02014026, 0.71887165, -0.066359825, -0.11544735, 0.10177517, 0
459, 2684969859, 0.14402084, 0.67967314, -0.020325944, 0.7189443, -0.06383837, -0.08430283, 0.08747864, 0
461, 2685003193, 0.1441419, 0.67944115, -0.020385534, 0.71913767, 0.03818132, -0.090244025, 0.0802927, 0
462, 2685019860, 0.14405854, 0.6793852, -0.020288616, 0.71920985, 0.055048224, -0.1506379, 0.08237171, 0
463, 2685036527, 0.14399645, 0.6793737, -0.020232424, 0.71923476, 0.039304584, -0.117570944, 0.08967686, 0
466, 2685086528, 0.14437215, 0.67908573, -0.020503119, 0.71942365, -0.018923892, -0.08369219, 0.11969757, 0
467, 2685103195, 0.14461169, 0.6789306, -0.020724222, 0.71951574, -0.004357385, -0.101468846, 0.101109505, 0
469, 2685136529, 0.14503048, 0.6786814, -0.021100536, 0.7196557, 0.0066007287, -0.11232666, 0.123262405, 0
470, 2685153196, 0.1452078, 0.6785992, -0.021229595, 0.71969354, 7.4066606E-4, -0.07508337, 0.14202118, 0
471, 2685169863, 0.1453586, 0.67851216, -0.021371216, 0.71974087, -0.012623397, -0.1247931, 0.09352207, 0
473, 2685203197, 0.14544073, 0.67843705, -0.021485224, 0.71979165, -0.037076216, -0.06647298, 0.107601166, 0
474, 2685219864, 0.14541505, 0.6784097, -0.021528885, 0.7198213, -0.02208157, -0.08020114, 0.087387085, 0
475, 2685236531, 0.14542392, 0.6783809, -0.021639898, 0.7198433, -0.033505987, -0.07336589, 0.07247257, 0
477, 2685269865, 0.1455379, 0.67831063, -0.021916553, 0.71987826, 0.0061682872, -0.106028065, 0.09256363, 0
478, 2685286532, 0.14560649, 0.67826146, -0.022039533, 0.7199069, -0.0035508946, -0.08171969, 0.13154888, 0
481, 2685336533, 0.14596638, 0.67808336, -0.022364855, 0.7199918, -0.05434008, -0.03426431, 0.12838268, 0
482, 2685353200, 0.14615506, 0.67800397, -0.022471637, 0.72002494, -0.044181693, -0.0031419217, 0.12253094, 0
484, 2685386534, 0.14628409, 0.6778929, -0.022476569, 0.72010314, -0.03064698, -0.07100448, 0.07775402, 0
485, 2685403201, 0.14630286, 0.677855, -0.022460029, 0.72013545, -0.05030332, -0.04449763, 0.0706377, 0
486, 2685419868, 0.14640827, 0.67781526, -0.022479728, 0.7201508, -0.04156715, -0.046740584, 0.11503315, 0
488, 2685453202, 0.14677687, 0.67771554, -0.022623256, 0.72016525, -0.11504521, 0.022795388, 0.10579014, 0
489, 2685469869, 0.1469035, 0.6775886, -0.022689447, 0.72025675, -0.09939398, -0.0016499726, 0.08359432, 0
490, 2685486536, 0.14703895, 0.677464, -0.022731349, 0.7203449, -0.009562387, -0.041659016, 0.07485199, 0
492, 2685519870, 0.14726827, 0.6773348, -0.02269806, 0.7204207, -0.010280926, -0.09176056, 0.14547348, 0
493, 2685536537, 0.14737524, 0.67728764, -0.022563785, 0.72044736, 0.016699435, -0.12638049, 0.16895962, 0
496, 2685586538, 0.14706013, 0.67713755, -0.021817073, 0.7206757, -0.06649516, -0.04453965, 0.070272446, 0
497, 2685603205, 0.14694493, 0.6770852, -0.021501034, 0.7207578, -0.00919225, -0.06335653, 0.08929634, 0
498, 2685619872, 0.14693852, 0.6770713, -0.021286428, 0.7207787, 0.029677045, -0.08785602, 0.11367321, 0
500, 2685653206, 0.14701247, 0.6770585, -0.02108343, 0.7207816, -0.009232929, -0.05053382, 0.10158253, 0
501, 2685669873, 0.14707927, 0.67700696, -0.021126986, 0.7208151, -0.032844335, -0.036365334, 0.10223484, 0
502, 2685686540, 0.14717437, 0.6769328, -0.021268815, 0.72086114, -0.05579783, -0.07043474, 0.07754898, 0
504, 2685719874, 0.14718315, 0.67680967, -0.021485016, 0.72096854, 0.026866145, -0.039248653, 0.09643841, 0
505, 2685736541, 0.14718196, 0.6768025, -0.021470562, 0.72097594, 0.02629736, -0.06448796, 0.16098785, 0
506, 2685753208, 0.14718454, 0.6768099, -0.021430254, 0.7209696, -0.0042957515, -0.085102335, 0.15411949, 0
508, 2685786542, 0.1471295, 0.6767734, -0.021305338, 0.72101885, -0.040248927, -0.0813909, 0.1100359, 0
509, 2685803209, 0.14697686, 0.6767396, -0.021084353, 0.72108835, 0.020680033, -0.034559127, 0.09573841, 0
510, 2685819876, 0.14674015, 0.6766734, -0.020765945, 0.72120774, 0.072455525, -0.058700312, 0.06562042, 0
512, 2685853210, 0.14632355, 0.676635, -0.020133957, 0.7213464, 0.008302165, -0.06979058, 0.06756115, 0
513, 2685869877, 0.14621176, 0.6766365, -0.019955024, 0.72137254, -0.0017949766, 0.0028766117, 0.15116215, 0
515, 2685903211, 0.14649493, 0.6764418, -0.0200845, 0.72149414, -0.061975785, -0.02460654, 0.14067173, 0
516, 2685919878, 0.1467192, 0.6763272, -0.020299792, 0.7215501, -0.027447335, -0.08053507, 0.12323952, 0
517, 2685936545, 0.14690818, 0.676268, -0.020444915, 0.72156304, 0.015978662, -0.030705092, 0.08367634, 0
519, 2685969879, 0.14707287, 0.67635477, -0.020341977, 0.721451, 0.006663927, -0.058499154, 0.13571167, 0
520, 2685986546, 0.14708692, 0.676471, -0.020142272, 0.7213446, -0.033965755, -0.077436514, 0.13502121, 0
523, 2686036547, 0.14685588, 0.6766195, -0.019203305, 0.7212782, 0.010014721, -0.053735197, 0.08659935, 0
524, 2686053214, 0.14682916, 0.67663586, -0.018933207, 0.72127545, 0.024312733, -0.061143085, 0.1096077, 0
525, 2686069881, 0.14681116, 0.67665577, -0.018719852, 0.72126603, 0.052300356, -0.06126803, 0.06802845, 0
527, 2686103215, 0.14654732, 0.67672706, -0.018284693, 0.721264, 0.044317033, -0.07341126, 0.07652569, 0
528, 2686119882, 0.14645702, 0.6767903, -0.018112764, 0.7212272, 0.029427437, -0.060777865, 0.13920307, 0
529, 2686136549, 0.14635721, 0.67690325, -0.017982006, 0.7211448, 0.051513087, -0.107992075, 0.1737957, 0
531, 2686169883, 0.14603506, 0.67725116, -0.017462045, 0.7208962, 0.042599447, -0.06934422, 0.20306587, 0
532, 2686186550, 0.14595565, 0.67740524, -0.017107293, 0.72077596, -0.010639496, -0.04351462, 0.1916914, 0
533, 2686203217, 0.14607769, 0.67751545, -0.016863689, 0.7206534, -0.058033127, -0.082979634, 0.12361717, 0
535, 2686236551, 0.14627597, 0.67773247, -0.016484067, 0.7204178, 0.022387505, -0.103147656, 0.04780197, 0
538, 2686286552, 0.14522588, 0.67835265, -0.014940515, 0.72008014, 0.04963608, -0.05376649, 0.090605736, 0
539, 2686303219, 0.14471707, 0.67855835, -0.014383838, 0.72000015, -0.0047935625, -0.049289025, 0.10894394, 0
540, 2686319886, 0.14424255, 0.67874414, -0.013919696, 0.71992946, 0.03273392, -0.051069357, 0.12402725, 0
542, 2686353220, 0.14339346, 0.6790415, -0.013155162, 0.719833, 0.040554807, -0.08061285, 0.10225105, 0
543, 2686369887, 0.14293523, 0.6791964, -0.012759343, 0.7197851, 0.058959644, -0.13201301, 0.1055212, 0
544, 2686386554, 0.14248416, 0.67937684, -0.012393147, 0.7197108, 0.04104145, -0.09188819, 0.08065796, 0
546, 2686419888, 0.14209116, 0.67966205, -0.011965215, 0.7195262, -0.034911048, -0.08056547, 0.12376022, 0
547, 2686436555, 0.14199494, 0.6797495, -0.011817828, 0.7194651, -0.013835843, -0.13099736, 0.10710049, 0
548, 2686453222, 0.14183605, 0.67980444, -0.011602849, 0.7194481, 0.03578951, -0.09329364, 0.0749979, 0
550, 2686486556, 0.14153409, 0.6798732, -0.011213064, 0.71944857, 0.052032754, -0.10843351, 0.080895424, 0
552, 2686519890, 0.14090334, 0.68003964, -0.010763228, 0.71942204, 0.027354969, -0.02550417, 0.087008476, 0
554, 2686553224, 0.14006056, 0.6801798, -0.010231763, 0.71946186, 0.0010310652, -0.06869157, 0.09242535, 0
555, 2686569891, 0.1396289, 0.6802102, -0.010018095, 0.71952003, 0.013031309, -0.10012241, 0.09182167, 0
556, 2686586558, 0.13916376, 0.6802526, -0.009796321, 0.7195732, 0.024613637, -0.11077704, 0.10551262, 0
558, 2686619892, 0.13816328, 0.6803921, -0.009227142, 0.7196415, 0.016917584, -0.07438064, 0.06837559, 0
559, 2686636559, 0.13772114, 0.6804726, -0.00895831, 0.7196535, -0.050182458, -0.1003752, 0.10122776, 0
560, 2686653226, 0.1374693, 0.680543, -0.008830845, 0.7196368, -0.066864684, -0.09556453, 0.12337971, 0
562, 2686686560, 0.13724174, 0.68058383, -0.008689031, 0.71964324, 0.023268873, -0.09237209, 0.13639641, 0
563, 2686703227, 0.13709494, 0.680537, -0.008633703, 0.71971613, -0.0038544252, -0.11720461, 0.068068504, 0
565, 2686736561, 0.13692917, 0.6804107, -0.008479685, 0.719869, 0.07420451, -0.07122754, 0.13658047, 0
567, 2686769895, 0.13685429, 0.68045276, -0.008344412, 0.71984506, 0.025912471, -0.10268565, 0.14234161, 0
569, 2686803229, 0.13689776, 0.6804505, -0.008218855, 0.71984035, -0.036293365, -0.08013699, 0.116633415, 0
570, 2686819896, 0.13708462, 0.6803917, -0.008302748, 0.71985936, -0.02371288, -0.06740055, 0.050689697, 0
571, 2686836563, 0.13718453, 0.68031895, -0.008349687, 0.7199086, 0.024210365, -0.11563465, 0.03924942, 0
573, 2686869897, 0.13697784, 0.6804045, -0.00808309, 0.71987015, 0.023885824, -0.060730707, 0.12160969, 0
574, 2686886564, 0.1368001, 0.680471, -0.007859364, 0.7198436, 0.009240305, -0.04981232, 0.14385796, 0
575, 2686903231, 0.13660812, 0.68048084, -0.007650897, 0.7198729, -0.0058083753, -0.06688469, 0.11810875, 0
577, 2686936565, 0.13653608, 0.6803349, -0.007656783, 0.7200245, -0.032429717, -0.093309954, 0.043851852, 0
578, 2686953232, 0.13654211, 0.68030244, -0.0077269524, 0.7200533, 0.045617655, -0.06847588, 0.074214935, 0
579, 2686969899, 0.13645878, 0.6802888, -0.007707581, 0.72008216, 0.064538136, -0.041069612, 0.09202862, 0
581, 2687003233, 0.13651562, 0.68028927, -0.007749602, 0.72007036, -0.078110404, -0.08682718, 0.10996723, 0
582, 2687019900, 0.13674153, 0.6802402, -0.007970586, 0.7200716, -0.036140423, -0.08666715, 0.13343048, 0
583, 2687036567, 0.13706261, 0.6801514, -0.0082372725, 0.7200913, -0.014476264, -0.077609956, 0.13101292, 0
585, 2687069901, 0.13773528, 0.68003374, -0.008671537, 0.7200689, 0.010204484, -0.1051586, 0.10647297, 0
586, 2687086568, 0.13806057, 0.68003726, -0.008797392, 0.7200019, 0.010414475, -0.10511367, 0.1175127, 0
587, 2687103235, 0.13829409, 0.6800573, -0.008820891, 0.7199378, 0.015594946, -0.08769397, 0.114486694, 0
589, 2687136569, 0.13866104, 0.6800965, -0.008761048, 0.719831, 8.63267E-5, -0.088854924, 0.11047363, 0
590, 2687153236, 0.13880861, 0.68010205, -0.008700177, 0.7197981, 0.011813498, -0.102643184, 0.08419037, 0
592, 2687186570, 0.1389152, 0.6801659, -0.008481622, 0.7197197, -0.005278538, -0.08537122, 0.100824356, 0
594, 2687219904, 0.13916555, 0.6801633, -0.00829187, 0.71967614, -0.026299987, -0.07013859, 0.11583233, 0
596, 2687253238, 0.13983558, 0.68003625, -0.008476108, 0.7196642, -0.01872977, -0.12643592, 0.11932087, 0
597, 2687269905, 0.14030278, 0.6799611, -0.008706614, 0.7196415, 0.01418715, -0.087361604, 0.11509323, 0
598, 2687286572, 0.1406658, 0.6799167, -0.008863181, 0.7196106, 0.039985687, -0.10659377, 0.1050024, 0
600, 2687319906, 0.14087047, 0.67990786, -0.008793533, 0.71957976, -0.021920977, -0.093838565, 0.0826025, 0
601, 2687336573, 0.14106451, 0.6798667, -0.008848682, 0.71957994, -0.05672798, -0.12318537, 0.06305504, 0
602, 2687353240, 0.14130059, 0.67986035, -0.008975655, 0.71953815, -0.02681038, -0.14111222, 0.11579418, 0
604, 2687386574, 0.14130169, 0.6799067, -0.008829713, 0.719496, 0.03508589, -0.09753189, 0.09517193, 0
605, 2687403241, 0.14115539, 0.6799239, -0.008609116, 0.71951103, -0.0025521268, -0.10488591, 0.066693306, 0
606, 2687419908, 0.14109601, 0.67992276, -0.008504897, 0.71952486, 0.011920057, -0.097782895, 0.076704025, 0
609, 2687469909, 0.14103438, 0.6796813, -0.008193612, 0.71976876, -0.020694952, -0.10488636, 0.086761475, 0
610, 2687486576, 0.14091332, 0.679567, -0.008108288, 0.7199013, 0.024459582, -0.060905047, 0.10223484, 0
612, 2687519910, 0.14064123, 0.6793168, -0.007862911, 0.72019327, 0.026965832, -0.114283964, 0.10983467, 0
613, 2687536577, 0.1406943, 0.6792078, -0.007895172, 0.7202854, -0.04934071, -0.08064616, 0.1343298, 0
614, 2687553244, 0.14076301, 0.6790583, -0.0079316795, 0.7204125, -0.028760642, -0.09167585, 0.11294651, 0
616, 2687586578, 0.14091897, 0.67880785, -0.008011892, 0.72061723, -0.028601611, -0.04514984, 0.10560322, 0
617, 2687603245, 0.14113653, 0.6786955, -0.008111849, 0.7206793, -0.012308523, -0.07098459, 0.12381554, 0
619, 2687636579, 0.1416845, 0.6784699, -0.008370444, 0.7207812, 0.021644771, -0.07510617, 0.09754276, 0
620, 2687653246, 0.14180712, 0.6783649, -0.008391738, 0.7208558, 0.019140644, -0.06899018, 0.098955154, 0
621, 2687669913, 0.14184092, 0.6783296, -0.00825718, 0.7208837, 0.03534377, -0.049965873, 0.14242172, 0
624, 2687719914, 0.14190747, 0.6783874, -0.007432997, 0.7208252, -0.033625904, -0.048988897, 0.12558556, 0
625, 2687736581, 0.14182085, 0.67838514, -0.007125646, 0.72084767, -0.050408263, -0.06301881, 0.10883713, 0
627, 2687769915, 0.14120069, 0.6782214, -0.006302297, 0.721131, 0.022491662, -0.13187018, 0.034534454, 0
628, 2687786582, 0.14100379, 0.67816395, -0.0060047656, 0.721226, 0.082422584, -0.09943242, 0.08752155, 0
629, 2687803249, 0.14074183, 0.67812634, -0.005677998, 0.72131515, 0.14552778, -0.08325075, 0.11316681, 0
631, 2687836583, 0.14026117, 0.67798275, -0.0051615387, 0.72154766, -0.06960311, -0.101057135, 0.08300114, 0
632, 2687853250, 0.14023587, 0.6778918, -0.0051986575, 0.72163785, -0.08356138, -0.07052415, 0.086606026, 0
633, 2687869917, 0.14040177, 0.6778071, -0.005436316, 0.7216834, -0.048383795, -0.03682756, 0.08278465, 0
635, 2687903251, 0.14092916, 0.6777046, -0.0060376227, 0.72167194, -0.042549994, 0.008093181, 0.10757637, 0
636, 2687919918, 0.14117154, 0.6776316, -0.0063244402, 0.7216907, -0.05305516, -0.030117253, 0.061785698, 0
639, 2687969919, 0.14205882, 0.6773982, -0.007185608, 0.72172767, 0.015624909, -0.0632906, 0.12814713, 0
640, 2687986586, 0.14214638, 0.67747426, -0.0072456896, 0.72163856, -0.025213268, -0.0436903, 0.11845207, 0
641, 2688003253, 0.14197001, 0.6776424, -0.00705418, 0.72151726, -0.051956426, -0.01451672, 0.0824337, 0
643, 2688036587, 0.14132796, 0.6781535, -0.0063649863, 0.7211695, -0.15616503, -0.13377854, 0.11983776, 0
644, 2688053254, 0.14115639, 0.67855483, -0.005943045, 0.720829, -0.17137676, -0.13146742, 0.11311531, 0
646, 2688086588, 0.14093849, 0.679801, -0.0045907497, 0.7197064, -0.19218482, -0.001914612, 0.32717514, 0
647, 2688103255, 0.14117746, 0.680823, -0.003267765, 0.7187001, -0.45119858, 0.17163962, 0.5218468, 0
650, 2688153256, 0.13876627, 0.68367326, 0.007423088, 0.7164294, -0.95000136, 0.24680702, 0.70425797, 0
651, 2688169923, 0.13696907, 0.68465155, 0.012613878, 0.71576834, -0.8571739, -0.058871526, 0.75469875, 0
652, 2688186590, 0.13543975, 0.6860569, 0.01759541, 0.7146077, -1.0609332, -0.59621274, 0.61560345, 0
654, 2688219924, 0.13571472, 0.68877774, 0.0271115, 0.7116342, -1.2742577, -0.7297356, 1.0824804, 0
655, 2688236591, 0.13727626, 0.68933517, 0.031775057, 0.71060133, -1.2484046, -0.98877525, 1.0416508, 0
656, 2688253258, 0.1396776, 0.6894149, 0.03689672, 0.7098081, -1.3200972, -0.90206677, 1.0000162, 0
658, 2688286592, 0.14524266, 0.688811, 0.04944192, 0.7085132, -0.8968038, -0.22155543, 0.98272896, 0
659, 2688303259, 0.14728369, 0.6883653, 0.057487816, 0.7079176, -0.81157357, -0.16623865, 0.9902859, 0
660, 2688319926, 0.14875162, 0.6880721, 0.06661789, 0.7070951, -0.9080032, -0.60146105, 1.1253939, 0
662, 2688353260, 0.15434378, 0.6875255, 0.084998585, 0.70445263, -1.5886317, -1.0943905, 1.1917477, 0
663, 2688369927, 0.15942056, 0.68697375, 0.09338784, 0.70279616, -1.3980905, -0.9283671, 1.0939865, 0
664, 2688386594, 0.16566472, 0.68637735, 0.10146244, 0.7008125, -0.95680755, -0.68980277, 0.7386055, 0
667, 2688436595, 0.18368454, 0.68765604, 0.12778904, 0.6906886, 0.111989826, 0.06479238, 0.035796165, 0
668, 2688453262, 0.1885088, 0.68941844, 0.13744904, 0.6857593, 0.27919072, -0.15475367, 0.21892262, 0
670, 2688486596, 0.20095219, 0.6920592, 0.15401122, 0.67597663, 0.15904748, -0.002489264, 1.0577497, 0
671, 2688503263, 0.20939916, 0.6922808, 0.16069144, 0.67161685, 0.004977522, 0.13537867, 0.45276546, 0
673, 2688536597, 0.22978702, 0.6924732, 0.17467196, 0.661181, -0.108918875, 0.39410207, 0.48545647, 0
674, 2688553264, 0.2410414, 0.69214123, 0.18252085, 0.6553755, -0.36942595, 0.54012954, 0.7795572, 0
675, 2688569931, 0.25303188, 0.6916519, 0.1905409, 0.6490595, -0.6810562, 0.16455047, 1.2932158, 0
677, 2688603265, 0.28185683, 0.68909776, 0.20624505, 0.6349452, -0.8825002, -0.3692016, 2.0151033, 0
678, 2688619932, 0.29885867, 0.6869009, 0.21369343, 0.62703854, -0.7081918, -0.31237993, 1.9113951, 0
679, 2688636599, 0.31602907, 0.684538, 0.22115685, 0.6185585, -0.74159044, -0.008912579, 1.4421225, 0
682, 2688686600, 0.36340797, 0.6812831, 0.24563749, 0.586039, -0.48957887, -0.23076953, 1.127162, 0
683, 2688703267, 0.3782503, 0.6812469, 0.25427943, 0.57285494, -0.18752588, -0.08927376, 1.1205873, 0
685, 2688736601, 0.40158975, 0.6838956, 0.27235714, 0.5448171, 0.24979778, 0.6470964, 0.3482008, 0
686, 2688753268, 0.41131866, 0.68623847, 0.2807072, 0.53017795, -0.02287778, 0.13512476, 0.3595152, 0
687, 2688769935, 0.42331767, 0.6881469, 0.28691378, 0.51471174, 0.6130899, -0.2555996, 0.5646124, 0
689, 2688803269, 0.453913, 0.68961257, 0.2917483, 0.4829824, 1.1649078, 0.6402113, 0.13323021, 0
690, 2688819936, 0.46986267, 0.6894819, 0.29236832, 0.46728602, 1.2178864, 0.80970085, -0.4305172, 0
691, 2688836603, 0.4858734, 0.68890965, 0.29234293, 0.45150584, 1.5542237, 0.7437257, -0.48911, 0
693, 2688869937, 0.5169023, 0.68700373, 0.28955555, 0.4206983, 1.3907269, 0.7301699, -0.1967001, 0
694, 2688886604, 0.53184456, 0.685243, 0.2870686, 0.406407, 1.2497659, 0.6476668, -0.32709122, 0
697, 2688936605, 0.5717423, 0.679208, 0.2774569, 0.36714673, 1.0224686, 0.617455, -0.52015877, 0
698, 2688953272, 0.58226043, 0.67804706, 0.27445337, 0.35481253, 1.1731695, 0.48489124, -0.70494175, 0
700, 2688986606, 0.59635127, 0.6797525, 0.26999122, 0.33075374, 0.96775824, 0.45062983, -1.0785303, 0
701, 2689003273, 0.601908, 0.68131924, 0.26826468, 0.31864807, 0.99074507, 0.35412857, -0.84967136, 0
702, 2689019940, 0.60689825, 0.68291485, 0.26677704, 0.30679536, 1.054132, 0.17832355, -0.75655174, 0
704, 2689053274, 0.6150942, 0.68625206, 0.26421148, 0.28443122, 0.80625415, 0.088701114, -1.0765333, 0
705, 2689069941, 0.61957186, 0.6869292, 0.26265508, 0.27434087, 1.018387, 0.015028117, -0.8947239, 0
706, 2689086608, 0.62358034, 0.687345, 0.2611668, 0.26549575, 1.1330435, 0.026005732, -1.0479088, 0
708, 2689119942, 0.62900496, 0.6889011, 0.25932014, 0.2500248, 0.4026537, 0.10636713, -1.3554487, 0
710, 2689153276, 0.63186693, 0.6917712, 0.25869668, 0.23508327, 0.8950423, 0.0081170965, -1.4697533, 0
713, 2689203277, 0.63238937, 0.69761974, 0.25779343, 0.21666673, 0.4209778, -0.50910485, -0.899106, 0
714, 2689219944, 0.6326596, 0.69940126, 0.2565947, 0.21149532, 0.27547583, -0.43697944, -0.98999596, 0
716, 2689253278, 0.6352267, 0.7014431, 0.25231197, 0.20197716, -0.025400627, -0.7823517, -0.27205276, 0
717, 2689269945, 0.6379444, 0.7012486, 0.24927834, 0.19781104, 0.15375437, -0.92599404, -0.4956398, 0
718, 2689286612, 0.6405249, 0.70093095, 0.24623546, 0.19437909, 0.032936506, -0.31624892, -1.2384939, 0
720, 2689319946, 0.64241505, 0.70327634, 0.24053825, 0.1866498, 0.16570546, -0.22936498, -1.1605339, 0
721, 2689336613, 0.64284474, 0.70496833, 0.23740728, 0.18275565, 0.25444046, -0.2770796, -0.80622005, 0
722, 2689353280, 0.64343405, 0.7060823, 0.23459895, 0.1799872, 0.38790986, -0.0013549356, -0.78806686, 0
724, 2689386614, 0.64451677, 0.7074787, 0.22986157, 0.17671268, -0.048070665, -0.43863478, -0.31225586, 0
725, 2689403281, 0.6455536, 0.70753896, 0.22750945, 0.17572844, -0.014862983, -0.6523521, -0.5311632, 0
726, 2689419948, 0.64588314, 0.7080547, 0.22550946, 0.17501587, 0.07772662, -0.25268185, -1.0264692, 0
728, 2689453282, 0.64350635, 0.71118224, 0.22373194, 0.1733636, 0.124607146, -0.4417233, -0.15682602, 0
729, 2689469949, 0.64281845, 0.7121598, 0.22295338, 0.17290452, 0.006604319, -0.5934251, 0.15607166, 0
731, 2689503283, 0.6421927, 0.71324885, 0.22149394, 0.17261723, 0.13576667, -0.29244703, 0.054846764, 0
732, 2689519950, 0.6423343, 0.7132699, 0.22089577, 0.17276886, 0.0134619195, -0.61604106, 0.1202364, 0
733, 2689536617, 0.643182, 0.7126364, 0.22004698, 0.17331193, 0.13930406, -0.67635465, 0.16778374, 0
735, 2689569951, 0.64426756, 0.7117417, 0.21870725, 0.17464752, 0.12191081, -0.114381865, -0.28089428, 0
736, 2689586618, 0.64435863, 0.711655, 0.21825801, 0.1752261, 0.12918326, -0.42717573, 0.115579605, 0
737, 2689603285, 0.6446638, 0.7113811, 0.21769051, 0.17592025, -0.08733034, -0.5442192, 0.098423004, 0
740, 2689653286, 0.64284, 0.7126282, 0.21821252, 0.1768975, 0.117179945, -0.56935745, 0.20493126, 0
741, 2689669953, 0.64311165, 0.7120176, 0.2186561, 0.1778187, 0.24058677, -0.3846345, 0.33381557, 0
743, 2689703287, 0.6444146, 0.710326, 0.21873233, 0.17976196, 0.027804852, -0.11429916, 0.093387604, 0
744, 2689719954, 0.6454035, 0.7092497, 0.21856643, 0.18066388, 0.16260311, -0.3233781, 0.19787502, 0
745, 2689736621, 0.6466512, 0.707941, 0.2182053, 0.18176843, 0.049047172, -0.4711291, -0.07725525, 0
747, 2689769955, 0.64829606, 0.70641625, 0.21715009, 0.18310034, 0.045150656, -0.1549432, 0.24124813, 0
748, 2689786622, 0.6496889, 0.7051302, 0.21646114, 0.18393452, 0.024276733, -0.46911928, 0.6012106, 0
749, 2689803289, 0.6522898, 0.7026612, 0.2153111, 0.18552062, 0.0058050225, -0.38403147, 0.48892498, 0
751, 2689836623, 0.65479136, 0.7000988, 0.21421532, 0.18765265, -0.020616723, 0.1435883, -0.47347546, 0
752, 2689853290, 0.654547, 0.7001617, 0.21459003, 0.18784176, -0.020622507, -0.30072507, -0.009796143, 0
755, 2689903291, 0.6571127, 0.69725406, 0.21411198, 0.19022973, 0.18179128, -0.32272455, 0.23228455, 0
756, 2689919958, 0.6586531, 0.6954364, 0.21402946, 0.19164367, 0.14402004, -0.47049746, 0.32101536, 0
758, 2689953292, 0.6614606, 0.6917709, 0.21471307, 0.19445531, -0.1053694, -0.1236277, -0.45975113, 0
759, 2689969959, 0.66116065, 0.6913986, 0.21618104, 0.19517118, -0.10179763, -0.03321939, -0.14201832, 0
760, 2689986626, 0.6609993, 0.6907311, 0.21804692, 0.1960043, -0.063851714, -0.16202946, 0.4217987, 0
762, 2690019960, 0.6622868, 0.68767756, 0.22129889, 0.19873129, -0.15899244, 0.12834382, -0.097387314, 0
763, 2690036627, 0.66225463, 0.6869811, 0.22302368, 0.19931859, 0.103976205, 0.41632193, -0.08155918, 0
764, 2690053294, 0.6619778, 0.686559, 0.22484455, 0.19964626, -0.10125211, 0.2347941, 0.24298286, 0
766, 2690086628, 0.6629154, 0.6844925, 0.22765306, 0.20044637, -0.13376021, 0.0761531, 0.4264202, 0
767, 2690103295, 0.6636647, 0.683167, 0.22899806, 0.200957, 0.0719567, 0.32014388, -0.026028633, 0
770, 2690153296, 0.66548395, 0.6805471, 0.23172745, 0.20070048, 0.07867364, 0.42250028, -0.13844013, 0
771, 2690169963, 0.66638374, 0.67958266, 0.23192655, 0.20075318, 0.0030184865, 0.25577885, -0.044958115, 0
772, 2690186630, 0.6672658, 0.6786466, 0.23210087, 0.20078854, 0.02826137, 0.4020341, -0.15994358, 0
774, 2690219964, 0.6683601, 0.67760414, 0.2326011, 0.2000891, -0.17695834, 0.0871553, -0.50434303, 0
775, 2690236631, 0.66892576, 0.677231, 0.23246989, 0.19961408, -0.003928911, -0.025722764, -0.6074972, 0
776, 2690253298, 0.66936016, 0.6770057, 0.2321962, 0.19924016, 0.17214334, 0.08288531, -0.6797428, 0
778, 2690286632, 0.66959596, 0.6771523, 0.23132786, 0.19895986, -0.08552257, -0.21995418, -0.5390358, 0
779, 2690303299, 0.6698161, 0.6772149, 0.23045014, 0.19902456, 0.05881031, -0.22120452, -0.5342226, 0
781, 2690336633, 0.6692591, 0.67806596, 0.22924626, 0.19939044, 0.028214991, -0.17823191, -0.22850132, 0
782, 2690353300, 0.6690204, 0.6783089, 0.22877924, 0.19990076, 0.022928769, -0.52001315, -0.021204948, 0
785, 2690403301, 0.66794354, 0.6791463, 0.22738762, 0.20223343, -0.019414866, -0.21632478, -0.04856968, 0
786, 2690419968, 0.66703874, 0.68002456, 0.2271654, 0.20251782, 0.01934013, -0.33973342, 0.30762482, 0
787, 2690436635, 0.6667077, 0.68016386, 0.22717924, 0.20312372, 0.047191016, -0.29022756, 0.62100697, 0
789, 2690469969, 0.6672979, 0.6790626, 0.22734493, 0.20467833, 0.033876434, -0.059141975, 0.5956459, 0
790, 2690486636, 0.6676831, 0.67836857, 0.2275535, 0.20549087, 0.0087761, -0.1753716, 0.40510178, 0
791, 2690503303, 0.66802174, 0.6778767, 0.22760287, 0.20595847, -0.04408173, -0.16737634, 0.19970512, 0
793, 2690536637, 0.66877735, 0.6769458, 0.22790739, 0.2062305, 0.015080224, -0.074710995, 0.59544754, 0
794, 2690553304, 0.66993004, 0.6755355, 0.22822367, 0.20676282, -0.1288714, -0.05624212, 0.44313145, 0
795, 2690569971, 0.6713331, 0.67388743, 0.2284452, 0.20734479, -0.03600397, 0.030706657, 0.13685799, 0
797, 2690603305, 0.6734475, 0.67150253, 0.22870058, 0.20794283, 0.13586996, -0.06987239, -0.089616776, 0
798, 2690619972, 0.6744915, 0.6703995, 0.22862104, 0.20820585, -0.026385397, -0.14107959, -0.14192486, 0
799, 2690636639, 0.67505264, 0.6697481, 0.22873315, 0.20836055, -0.15776896, -0.07306951, -0.23115158, 0
801, 2690669973, 0.6757034, 0.66897833, 0.22945584, 0.20792942, 0.1667661, 0.016311975, 0.21560955, 0
802, 2690686640, 0.6763159, 0.66824436, 0.22962645, 0.2081089, 0.02456603, -0.12303226, 7.2956085E-4, 0
803, 2690703307, 0.67652076, 0.6679722, 0.2298573, 0.20806214, 0.0028993262, 0.032068297, -0.2433033, 0
805, 2690736641, 0.6756936, 0.66865957, 0.23106405, 0.20720437, 0.112038925, -0.1158937, 0.090408325, 0
806, 2690753308, 0.6757101, 0.6685891, 0.23138806, 0.20701626, 0.019093119, -0.18124218, 0.2514, 0
808, 2690786642, 0.6756232, 0.66860914, 0.23208427, 0.20645498, -0.05487592, -0.06034537, -0.055791855, 0
809, 2690803309, 0.6757268, 0.66856426, 0.23238212, 0.20592542, 0.026919732, -0.045278806, 0.03202343, 0
814, 2690886644, 0.67597073, 0.6686407, 0.2336952, 0.20337456, -0.032243393, -0.14110507, 0.22659016, 0
816, 2690919978, 0.6760895, 0.66881603, 0.23400962, 0.2020376, 0.07954566, 0.003361635, -0.018016815, 0
817, 2690936645, 0.6758405, 0.66933113, 0.23410694, 0.20104934, -0.014324554, -0.16143447, 0.13885689, 0
818, 2690953312, 0.6759513, 0.6694296, 0.23422468, 0.2002104, -0.0638783, -0.22886117, 0.20736027, 0
820, 2690986646, 0.676243, 0.6694399, 0.2346873, 0.19864318, -0.015974779, -0.12734069, -0.06067276, 0
821, 2691003313, 0.6763867, 0.6694982, 0.23484349, 0.19777015, 0.0040569836, -0.34808075, -0.020494461, 0
822, 2691019980, 0.6769711, 0.66905624, 0.23488297, 0.1972193, 0.02147479, -0.39071807, -0.028448105, 0
824, 2691053314, 0.67767864, 0.66841173, 0.23533876, 0.19642995, 0.09619017, -0.16321318, -0.47116184, 0
825, 2691069981, 0.67773515, 0.66853595, 0.23526525, 0.19589974, 0.07859721, -0.2722428, -0.20138645, 0
826, 2691086648, 0.6779615, 0.66840655, 0.23509282, 0.1957651, 0.13896734, -0.3112038, -0.26863003, 0
829, 2691136649, 0.6772279, 0.6688644, 0.2354983, 0.19625232, 0.039373286, -0.21656126, -0.20619678, 0
830, 2691153316, 0.6771874, 0.66889966, 0.23516443, 0.19667189, 0.095035166, -0.23525454, 0.0013561249, 0
832, 2691186650, 0.67726815, 0.66847646, 0.23491895, 0.19812079, -0.0017537385, 0.11033091, -0.16936493, 0
833, 2691203317, 0.6766174, 0.6691182, 0.23485786, 0.19824956, -0.07055284, -0.004747415, -0.041945457, 0
835, 2691236651, 0.6759767, 0.66978973, 0.23453654, 0.1985482, -0.08791709, -0.059552345, 0.35195637, 0
836, 2691253318, 0.6759225, 0.6698734, 0.23435608, 0.19866341, -0.05974895, 0.2026793, 0.15644455, 0
837, 2691269985, 0.67541814, 0.6704301, 0.234417, 0.198429, -0.076721154, 0.24129207, 0.102622986, 0
839, 2691303319, 0.6752269, 0.67078435, 0.23444602, 0.19784711, -0.06797328, -0.10562418, 0.48805332, 0
840, 2691319986, 0.67568344, 0.67033356, 0.23439518, 0.19787677, -0.10256029, -0.0070165186, 0.07688904, 0
841, 2691336653, 0.6755235, 0.6705506, 0.23458627, 0.19746095, -0.08975093, 0.12960336, -4.196167E-5, 0
844, 2691386654, 0.67603004, 0.67028326, 0.23505598, 0.19607133, 0.086699754, -0.07498502, 0.10215092, 0
845, 2691403321, 0.67642015, 0.6698582, 0.23531647, 0.195866, 0.038510248, -0.022064306, 0.048056602, 0
847, 2691436655, 0.67753756, 0.66907024, 0.2351256, 0.19492494, 0.15205358, -0.29399866, 0.27318764, 0
848, 2691453322, 0.67827904, 0.66832834, 0.23513459, 0.19487937, 0.1414609, -0.18062082, -8.420944E-4, 0
849, 2691469989, 0.67835844, 0.66822755, 0.23547435, 0.19453833, -0.11491673, -0.09238863, -0.09537411, 0
851, 2691503323, 0.67793715, 0.6687046, 0.236445, 0.19318534, -0.025065077, -0.43930668, 0.28376007, 0
852, 2691519990, 0.67834646, 0.6682628, 0.23677357, 0.19287531, 0.06473941, -0.35125822, 0.1316433, 0
853, 2691536657, 0.678651, 0.66787976, 0.2373722, 0.19239448, 0.058272537, -0.06615045, -0.08141041, 0
855, 2691569991, 0.67920417, 0.66719633, 0.23855935, 0.19134213, 0.0954005, -0.33494177, 0.033010483, 0
856, 2691586658, 0.67975324, 0.66658103, 0.23885089, 0.19117323, 0.052107017, -0.26675063, -0.1293869, 0
859, 2691636659, 0.67983294, 0.6656864, 0.24132359, 0.19090107, 0.27078366, 0.014783147, -0.3718214, 0
860, 2691653326, 0.67990935, 0.6653562, 0.2417247, 0.19127247, 0.089298844, 0.076509826, -0.3287096, 0
862, 2691686660, 0.6794638, 0.66530514, 0.2425679, 0.19196403, -0.047125805, -0.034872938, -0.33236885, 0
864, 2691719994, 0.6792246, 0.66516346, 0.24283126, 0.19296657, -0.1688574, 0.07796445, -0.22824001, 0
866, 2691753328, 0.67910933, 0.6650866, 0.2426331, 0.19388355, -0.135816, 0.0018533694, -0.28718853, 0
867, 2691769995, 0.6791235, 0.6650579, 0.2423289, 0.19431314, -0.0993134, 0.03699497, -0.22550964, 0
868, 2691786662, 0.6787554, 0.66547966, 0.24197188, 0.19459972, -0.05131567, 0.079021215, -0.32481384, 0
870, 2691819996, 0.6775132, 0.6667008, 0.24146798, 0.19537313, -0.04499651, -0.023643648, 0.06550598, 0
871, 2691836663, 0.6773464, 0.66702133, 0.24068643, 0.19582182, -0.101815686, -0.095681876, 0.25332832, 0
872, 2691853330, 0.67734563, 0.6670942, 0.23993349, 0.19649872, 0.017516179, -0.025318654, 0.097616196, 0
874, 2691886664, 0.6769703, 0.667544, 0.2388682, 0.1975592, -0.120495, 0.14696915, -0.0054798126, 0
875, 2691903331, 0.67665166, 0.6679995, 0.23831932, 0.19777383, -2.3373867E-4, 0.015851092, 0.2493124, 0
876, 2691919998, 0.67675716, 0.66804737, 0.23761405, 0.19810036, -0.0041787145, -0.1128736, 0.30254364, 0
878, 2691953332, 0.67677414, 0.66809124, 0.23687536, 0.19877748, -0.06540238, -0.0042887665, 0.19000435, 0
879, 2691969999, 0.6766537, 0.66828096, 0.23664016, 0.19883023, -0.04816081, -0.16599324, 0.33709145, 0
880, 2691986666, 0.67705363, 0.66790843, 0.23634571, 0.19907029, 0.08442797, -0.10910562, 0.41434193, 0
882, 2692020000, 0.6772268, 0.66758245, 0.23647845, 0.19941664, -0.140616, -6.7590317E-4, -0.15983105, 0
883, 2692036667, 0.6766268, 0.66829634, 0.23666352, 0.19884203, 0.03127575, -0.072457984, 0.17247581, 0
884, 2692053334, 0.6764643, 0.6684585, 0.23679736, 0.1986902, 0.097022615, -0.26155844, 0.44091415, 0
887, 2692103335, 0.6781702, 0.66655356, 0.23645723, 0.19967714, -0.058909353, -0.04608569, -0.30778027, 0
889, 2692136669, 0.67860913, 0.6660897, 0.23635612, 0.19985348, 0.13275376, 0.0050822375, 0.17078209, 0
890, 2692153336, 0.67915535, 0.665466, 0.23622796, 0.20022765, -0.05925907, 0.06725058, -0.1358881, 0
891, 2692170003, 0.6794115, 0.66525453, 0.23602849, 0.2002959, 8.712571E-4, -0.02065091, -0.23600483, 0
893, 2692203337, 0.6801194, 0.66485065, 0.23502906, 0.20040955, -0.0225379, -0.12761427, 0.003818512, 0
894, 2692220004, 0.68059593, 0.66449964, 0.23448683, 0.20059119, 0.02809312, 0.024865815, -0.16414928, 0
895, 2692236671, 0.68066174, 0.664542, 0.2340885, 0.20069301, -0.015768392, 0.004274015, -0.15360928, 0
897, 2692270005, 0.6805778, 0.6648742, 0.23331647, 0.20077671, 0.017452255, -0.1658864, 0.023467064, 0
898, 2692286672, 0.6810203, 0.6644675, 0.23285484, 0.20115778, 0.06718967, -0.033729892, 0.097857475, 0
899, 2692303339, 0.6815153, 0.66397834, 0.23236898, 0.20165756, -0.070314325, 0.009875696, -0.1450634, 0
902, 2692353340, 0.6813867, 0.6645051, 0.23095864, 0.2019767, -0.031844057, -0.17277016, 0.18911076, 0
903, 2692370007, 0.68160444, 0.66433007, 0.230607, 0.20221995, -0.0498872, -0.13670857, 0.035778046, 0
905, 2692403341, 0.680888, 0.66518986, 0.23033363, 0.20211849, -2.8000586E-4, 0.004934719, -0.15163898, 0
906, 2692420008, 0.68001753, 0.6661784, 0.23040028, 0.20171724, 0.08451859, -0.16055785, 0.12614727, 0
907, 2692436675, 0.67961097, 0.6666999, 0.23022965, 0.20155911, 0.09550974, -0.298388, 0.45135403, 0
909, 2692470009, 0.6804083, 0.6659351, 0.22965562, 0.20205157, 0.06356658, -0.13761157, 0.12695408, 0
910, 2692486676, 0.6808542, 0.66552025, 0.22937958, 0.20223054, -0.038705908, -0.0024568543, -0.0016088486, 0
911, 2692503343, 0.6811792, 0.66526884, 0.22908452, 0.20229656, -0.03152164, -0.07483839, 0.059419632, 0
913, 2692536677, 0.6817446, 0.6647261, 0.22880006, 0.20249815, 0.037727952, -0.0590928, -0.2149229, 0
915, 2692570011, 0.68149376, 0.6649599, 0.22890817, 0.2024529, 0.005037144, -0.3249002, -0.04216194, 0
918, 2692620012, 0.68144953, 0.66507554, 0.2283176, 0.20288825, -0.05007246, -0.16332985, -0.2570734, 0
920, 2692653346, 0.6805915, 0.6661578, 0.22776064, 0.20284374, 0.053389225, -0.32969546, 0.16477585, 0
921, 2692670013, 0.6806819, 0.6659714, 0.22758366, 0.20335083, 0.03654856, -0.27273408, 0.11434555, 0
922, 2692686680, 0.68074304, 0.66574615, 0.22760631, 0.2038578, -0.045783136, -0.089079745, -0.031868935, 0
924, 2692720014, 0.680149, 0.66603965, 0.22808912, 0.20434129, -0.0107978275, -0.17840894, 0.21553326, 0
925, 2692736681, 0.68017167, 0.6658575, 0.22812778, 0.20481598, -0.012679275, -0.25434077, 0.3210411, 0
926, 2692753348, 0.68021315, 0.6657052, 0.22808063, 0.20522508, -0.045481954, -0.15471299, 0.06709576, 0
928, 2692786682, 0.6793168, 0.6664108, 0.22882868, 0.2050712, -0.05794716, -0.035615, 0.15527344, 0
929, 2692803349, 0.679225, 0.6665107, 0.22898619, 0.20487478, -0.046980217, -0.20189792, 0.25656986, 0
930, 2692820016, 0.6794061, 0.6663105, 0.22905862, 0.20484467, -0.0059757866, -0.14169872, 0.17480087, 0
933, 2692870017, 0.6788745, 0.666661, 0.22991818, 0.20450354, -0.030871497, -0.09011193, 0.044608116, 0
934, 2692886684, 0.67893136, 0.6664907, 0.23021786, 0.20453317, 0.043992855, -0.18498603, 0.03017807, 0
936, 2692920018, 0.6791877, 0.66588163, 0.2307109, 0.20510936, 0.033177312, -0.11900813, -0.29488182, 0
937, 2692936685, 0.67888564, 0.6660546, 0.2309515, 0.20527652, 0.011216411, -0.1880039, -0.13104916, 0
938, 2692953352, 0.67879915, 0.66600806, 0.23106417, 0.20558634, 0.024366181, -0.32788053, 0.030688286, 0
940, 2692986686, 0.67911863, 0.6650869, 0.23154855, 0.20696408, 0.063119754, -0.019423723, -0.2460289, 0
941, 2693003353, 0.67879826, 0.66515344, 0.23180446, 0.20751376, 0.02089271, -0.06092687, -0.30901814, 0
944, 2693053354, 0.67775506, 0.6653702, 0.23250487, 0.20943597, 0.12946793, 0.04295472, 0.086833954, 0
945, 2693070021, 0.67749316, 0.6652598, 0.23292214, 0.21016966, 0.03435327, 0.027239524, 0.04880333, 0
947, 2693103355, 0.67718124, 0.665109, 0.23328471, 0.21124771, -0.036766708, -0.014948994, -0.054338455, 0
948, 2693120022, 0.6768531, 0.6652152, 0.23346403, 0.21176563, -0.0077459253, 0.021363815, -0.09259987, 0
949, 2693136689, 0.67652804, 0.6653089, 0.23366679, 0.21228613, -0.06227378, 0.0598523, 0.049679756, 0
951, 2693170023, 0.67638445, 0.66484344, 0.23413152, 0.21368584, 0.08067407, -0.06261313, 0.09042454, 0
952, 2693186690, 0.6764212, 0.66450197, 0.2342565, 0.21449235, 0.013131917, -0.20566857, -0.050105095, 0
953, 2693203357, 0.6762705, 0.6645782, 0.23405142, 0.21495527, 0.04877131, -0.1996239, 0.031247139, 0
955, 2693236691, 0.67613417, 0.6643092, 0.23405007, 0.21621276, -0.12279251, -0.020192161, 0.19708061, 0
956, 2693253358, 0.6760165, 0.6641233, 0.23443992, 0.21672907, -0.06992348, 0.18798423, -0.022812843, 0
957, 2693270025, 0.6754676, 0.664488, 0.23491088, 0.21681215, -0.04976586, 0.009282493, -0.013056755, 0
959, 2693303359, 0.67478883, 0.664811, 0.23573104, 0.21704555, -0.05449947, -0.1596562, 0.19247913, 0
961, 2693336693, 0.6740502, 0.66531086, 0.23644286, 0.21703473, -0.06036529, 0.0075109294, 0.13584614, 0
963, 2693370027, 0.6741502, 0.6649977, 0.23690033, 0.21718478, -0.014762528, -0.07699485, 0.21522331, 0
964, 2693386694, 0.6747108, 0.6642949, 0.23693568, 0.2175557, -0.021496918, -0.031037902, -0.18109894, 0
965, 2693403361, 0.6747507, 0.664239, 0.2369985, 0.21753457, 0.004039494, 0.14938086, -0.33741474, 0
967, 2693436695, 0.67434067, 0.66475856, 0.23703402, 0.21717992, -0.033269513, -0.16697803, 0.3010559, 0
968, 2693453362, 0.67491394, 0.6641021, 0.23692706, 0.21752423, -0.030731244, -0.12612389, 0.16747761, 0
969, 2693470029, 0.6755926, 0.6632848, 0.23685455, 0.2179895, -0.008502014, -0.025522944, -0.29690552, 0
971, 2693503363, 0.6752662, 0.66354936, 0.23694074, 0.21810237, -0.07807308, 0.010649499, -0.27954674, 0
972, 2693520030, 0.6748887, 0.66402143, 0.2368209, 0.21796384, -0.0022879625, -0.09817896, -0.028680801, 0
974, 2693553364, 0.67497975, 0.6640871, 0.23629747, 0.21805003, 0.039433498, -0.1612789, 0.073919296, 0
976, 2693586698, 0.6753002, 0.66387033, 0.23550509, 0.21857415, -0.01710053, 0.018210495, -0.1792593, 0
978, 2693620032, 0.67498267, 0.6643152, 0.23491901, 0.21883385, -0.082680345, -0.10492905, 0.014468193, 0
979, 2693636699, 0.6749004, 0.6643915, 0.23481655, 0.218966, 0.019788524, -0.09584951, 0.10925484, 0
980, 2693653366, 0.67490506, 0.66431075, 0.23473915, 0.21927948, 0.021900246, -0.09484549, 0.018331528, 0
982, 2693686700, 0.67482936, 0.66437, 0.23433782, 0.21976194, 0.027686046, -0.12574929, 0.18531418, 0
983, 2693703367, 0.6749993, 0.6641747, 0.23411353, 0.2200687, 0.0106050195, -0.15843806, 0.21160793, 0
984, 2693720034, 0.6754656, 0.6636867, 0.2337889, 0.22045526, -0.043243583, -0.18229583, 0.20417309, 0
986, 2693753368, 0.6758826, 0.6634191, 0.23296386, 0.22085567, 0.007016323, -0.14611131, 0.13404179, 0
987, 2693770035, 0.67598945, 0.6634568, 0.2325727, 0.22082725, 0.02490387, -0.16114435, 0.35074234, 0
988, 2693786702, 0.6763231, 0.663155, 0.232316, 0.22098276, -0.016323067, -0.08984237, 0.2832775, 0
991, 2693836703, 0.6765569, 0.66285205, 0.2327387, 0.22073123, -0.015417142, -0.1790674, 0.13134956, 0
992, 2693853370, 0.6767369, 0.66267526, 0.23290987, 0.2205295, 0.053495117, -0.17304407, 0.26272964, 0
994, 2693886704, 0.67710704, 0.66209877, 0.23378226, 0.22020146, 0.03756451, -0.040302068, 0.11508846, 0
995, 2693903371, 0.67722845, 0.6619771, 0.23413771, 0.21981609, -0.055366646, -0.21565334, 0.051426888, 0
997, 2693936705, 0.6778391, 0.6614487, 0.23449293, 0.21914439, 0.093043774, -0.16038708, -0.06315327, 0
998, 2693953372, 0.67825663, 0.66101533, 0.23468634, 0.21895352, -0.009567193, -0.11778328, -0.12796402, 0
999, 2693970039, 0.67859626, 0.6607543, 0.23472032, 0.21865232, 0.003943076, -0.084998846, -0.16106796, 0
1001, 2694003373, 0.67931986, 0.6598866, 0.23497587, 0.21875115, -7.9945E-4, -0.20942135, -0.23549366, 0
1002, 2694020040, 0.67943114, 0.6597165, 0.23514824, 0.21873336, -0.026774645, -0.20357068, -0.4679451, 0
1003, 2694036707, 0.67904615, 0.6601281, 0.235367, 0.21845192, 0.040549666, -0.09114769, -0.50074005, 0
1006, 2694086708, 0.6779112, 0.6612627, 0.23572713, 0.21815656, 0.09846601, -0.13807647, -0.12944221, 0
1007, 2694103375, 0.67753077, 0.66146773, 0.23596367, 0.21846086, 0.061644733, -0.1412593, -0.26639652, 0
1009, 2694136709, 0.67623407, 0.6626416, 0.2362513, 0.21861084, 0.0029902402, -0.26577255, -0.07824135, 0
1010, 2694153376, 0.675809, 0.662982, 0.23630111, 0.2188383, 0.09275969, -0.19425288, 0.098591805, 0
1011, 2694170043, 0.67556125, 0.6630914, 0.23635265, 0.21921627, 0.05880704, -0.074387796, 0.20218086, 0
1013, 2694203377, 0.6751511, 0.66327864, 0.2362068, 0.22006911, 0.049143095, -0.15875275, 0.1488657, 0
1014, 2694220044, 0.6749231, 0.6633593, 0.23631226, 0.22041182, 0.06935551, -0.009673194, 0.118616104, 0
1015, 2694236711, 0.67466164, 0.6634523, 0.23658271, 0.22064243, -0.06455954, 0.04715855, 0.14249325, 0
1017, 2694270045, 0.6738467, 0.6640842, 0.23717186, 0.22059883, 0.022412846, 0.0062395874, 0.16682053, 0
1018, 2694286712, 0.6734425, 0.6643769, 0.23759627, 0.22049518, 0.057304643, 0.021744234, 0.26238632, 0
1019, 2694303379, 0.67321855, 0.6644687, 0.2380282, 0.22043622, 0.0022036422, -0.06782009, 0.31592274, 0
1021, 2694336713, 0.6734777, 0.66399175, 0.23858868, 0.2204768, -0.012759348, 0.054529116, 0.045248985, 0
1022, 2694353380, 0.67357194, 0.66374624, 0.2389215, 0.22056767, -0.016705079, 0.09453078, -0.047429085, 0
1024, 2694386714, 0.6736282, 0.6635612, 0.23940434, 0.22042812, -0.096669465, 0.005329443, -0.004668236, 0
1025, 2694403381, 0.67383057, 0.6632896, 0.23962724, 0.22038502, 0.016005343, 0.035580132, -0.046928406, 0
1026, 2694420048, 0.6740942, 0.662983, 0.23973489, 0.22038406, 0.039390806, 0.10734835, -0.12123299, 0
1028, 2694453382, 0.67378247, 0.6635857, 0.23944792, 0.21983539, -0.07109003, -0.051976595, 0.061797142, 0
1029, 2694470049, 0.67384964, 0.66367275, 0.23922618, 0.21960777, 0.003231746, -0.027394194, 0.20613098, 0
1030, 2694486716, 0.6744393, 0.66311723, 0.23905736, 0.21965937, 0.02252519, 0.102971524, 0.15460014, 0
1033, 2694536717, 0.6752555, 0.6628133, 0.23828977, 0.21890198, -0.030488983, -0.06767615, -0.041492462, 0
1034, 2694553384, 0.675335, 0.66295063, 0.2380712, 0.21847844, -0.062386572, -0.08192554, 0.19229221, 0
1036, 2694586718, 0.67623395, 0.66251177, 0.2372717, 0.21789779, 0.08014049, 0.1395302, -0.052119255, 0
1037, 2694603385, 0.67635024, 0.66252315, 0.23706943, 0.2177222, -0.17612967, 0.011419277, -0.26163292, 0
1038, 2694620052, 0.6762989, 0.66279787, 0.23683716, 0.2172981, -0.17170425, -0.11843773, -0.2691679, 0
1040, 2694653386, 0.6763477, 0.66308606, 0.23644698, 0.21669169, -0.05108224, -0.082160234, -0.122434616, 0
1041, 2694670053, 0.6763724, 0.6632584, 0.23613308, 0.21642904, -0.074744016, -0.10460809, -0.19672012, 0
1042, 2694686720, 0.67631924, 0.6635677, 0.2356903, 0.21612908, 0.023244232, -0.06443536, -0.16974926, 0
1044, 2694720054, 0.67660254, 0.66381025, 0.23436111, 0.21594284, -0.02622472, -0.10921066, -0.1703186, 0
1045, 2694736721, 0.6766873, 0.6639644, 0.23364645, 0.2159781, -0.04973289, 0.10973413, -0.17299366, 0
1048, 2694786722, 0.6768096, 0.6644633, 0.23159377, 0.21627076, 0.084371924, -0.24834435, -0.01941681, 0
1049, 2694803389, 0.67719847, 0.6640557, 0.2310102, 0.21692893, 0.0985894, -0.10981907, -0.21547699, 0
1051, 2694836723, 0.6765622, 0.6649833, 0.22990698, 0.21724404, -0.008782243, -0.076950595, -0.055690765, 0
1052, 2694853390, 0.67612904, 0.6656117, 0.22931603, 0.21729317, -0.07325045, -0.31543043, 0.22287178, 0
1053, 2694870057, 0.67624795, 0.6656197, 0.22858995, 0.21766342, -0.0059940307, -0.279127, 0.2843609, 0
1055, 2694903391, 0.67633426, 0.6656562, 0.2273306, 0.2186, -0.021505216, 0.050424077, -0.108187675, 0
1056, 2694920058, 0.67578566, 0.6663808, 0.22685194, 0.21858636, 0.010244381, 0.021160865, -0.120532036, 0
1057, 2694936725, 0.6753202, 0.6669662, 0.2264917, 0.2186133, 0.055372387, 0.0349011, 0.19713879, 0
1059, 2694970059, 0.67545587, 0.66701275, 0.22539608, 0.21918368, -0.073487625, -0.12901749, 0.29036903, 0
1060, 2694986726, 0.67561203, 0.6669331, 0.22483268, 0.21952352, 0.012569587, -0.07088311, -0.012889862, 0
1063, 2695036727, 0.6753571, 0.667261, 0.22397026, 0.22019185, 0.06635319, -0.26619858, 0.19437218, 0
1064, 2695053394, 0.6755425, 0.6669007, 0.2240183, 0.22066541, 0.21191725, -0.0920319, -0.026778221, 0
1065, 2695070061, 0.6752714, 0.66697395, 0.22429553, 0.22099169, 0.05607799, 0.007455945, -0.0760088, 0
1067, 2695103395, 0.67430586, 0.66779834, 0.22460714, 0.22113377, 0.11010157, -0.35509726, 0.44817066, 0
1068, 2695120062, 0.6747769, 0.66702074, 0.2247444, 0.22190297, 0.116611265, -0.22534174, 0.32185078, 0
1069, 2695136729, 0.6753464, 0.6660641, 0.2249789, 0.22280474, 0.013991324, -0.027597591, -0.106656075, 0
1071, 2695170063, 0.674808, 0.66619307, 0.22565617, 0.22336474, 0.026151938, -0.04221355, -0.043497086, 0
1072, 2695186730, 0.674528, 0.6662894, 0.22593722, 0.22363879, -0.0515883, -0.10416017, 0.1797266, 0
1073, 2695203397, 0.6744622, 0.66612566, 0.22622812, 0.22403072, -0.032658428, 0.10193845, 0.14656544, 0
1075, 2695236731, 0.67441165, 0.6657979, 0.22668718, 0.22469197, -0.16062988, 0.13397457, -0.012065887, 0
1078, 2695286732, 0.6742246, 0.6658872, 0.22678933, 0.22488578, -0.1444757, 0.29322442, 0.013541222, 0
1079, 2695303399, 0.67422473, 0.66601175, 0.22659525, 0.22471198, -0.16820404, 0.19220057, -0.012268066, 0
1080, 2695320066, 0.6742742, 0.66610867, 0.22624348, 0.22463092, -0.09080004, 0.1237399, -0.03868866, 0
1082, 2695353400, 0.6744506, 0.66640145, 0.22527482, 0.22420655, -0.060421642, 0.1906722, -0.020934105, 0
1083, 2695370067, 0.67457163, 0.6665961, 0.22456568, 0.2239742, -0.08997005, 0.14241485, -0.003736496, 0
1084, 2695386734, 0.6748352, 0.6666472, 0.22380191, 0.22379269, -0.13430034, 0.06207804, 0.002820015, 0
1086, 2695420068, 0.6751613, 0.66684216, 0.2225658, 0.22346124, -0.044983517, 0.0720722, -0.17055416, 0
1087, 2695436735, 0.67497104, 0.6674106, 0.22184145, 0.22305872, -0.0832714, -0.033699047, -0.07738209, 0
1088, 2695453402, 0.67475057, 0.66805166, 0.2210624, 0.22257943, 0.024811657, -0.12073588, 0.087859154, 0
1090, 2695486736, 0.6753053, 0.6679262, 0.21983439, 0.22248948, 0.043640066, -0.07479012, 0.20522976, 0
1091, 2695503403, 0.67563415, 0.6677882, 0.21917523, 0.22255632, -0.07293265, -0.15630932, -0.05321884, 0
1092, 2695520070, 0.67548835, 0.66809416, 0.21878037, 0.22246861, 0.050399385, -0.1438537, -0.11054325, 0
1094, 2695553404, 0.6749485, 0.6688198, 0.21855283, 0.22215043, 0.12793349, -0.27237916, 0.33003235, 0
1095, 2695570071, 0.67509246, 0.6686019, 0.21861175, 0.22231087, 0.08295963, -0.2814037, 0.2635498, 0
1096, 2695586738, 0.6752557, 0.668323, 0.21869746, 0.22256915, -0.041837115, -0.33579603, -0.027057648, 0
1098, 2695620072, 0.6747878, 0.66858524, 0.21929377, 0.22261432, 0.25218937, -0.22540522, 0.09022045, 0
1099, 2695636739, 0.67470056, 0.6685452, 0.2194936, 0.22280204, 0.08031282, -0.38452587, 0.13128662, 0
1100, 2695653406, 0.67486835, 0.6683666, 0.21934193, 0.22297892, 0.013692194, -0.31020692, 0.12784672, 0
1102, 2695686740, 0.6753177, 0.66765547, 0.21936963, 0.22372, 0.01781883, -0.078791, 0.04986, 0
1105, 2695736741, 0.6759924, 0.66643286, 0.21968774, 0.22501184, -0.049256865, -0.07703553, -0.13502121, 0
1106, 2695753408, 0.67614526, 0.6660063, 0.22003487, 0.22547609, -0.006421751, -0.13762543, 0.08194733, 0
1107, 2695770075, 0.67649907, 0.6653154, 0.22037584, 0.22612077, 0.10086557, -0.22615086, 0.259243, 0
1109, 2695803409, 0.67936975, 0.6609956, 0.22148505, 0.22907948, 0.1360404, -0.3294259, 0.45255184, 0
1110, 2695820076, 0.68107724, 0.65802544, 0.22272414, 0.23134778, 0.106090635, -0.5779741, -0.16372967, 0
1111, 2695836743, 0.68207216, 0.65587693, 0.2242082, 0.23307756, 0.070276275, -0.72940993, -0.40024853, 0
1113, 2695870077, 0.68223, 0.653348, 0.22870278, 0.23534071, 0.35807174, -0.91315013, 0.52780247, 0
1114, 2695886744, 0.6836907, 0.65012, 0.23138511, 0.23740992, 0.5012269, -0.6308582, 0.94080544, 0
1115, 2695903411, 0.686693, 0.64457965, 0.23455429, 0.24071914, 0.6040677, -0.08243292, 1.1224184, 0
1117, 2695936745, 0.69596267, 0.6275214, 0.24297585, 0.2506138, 0.22689365, -0.4519186, 0.63410664, 0
1119, 2695970079, 0.70582515, 0.6064037, 0.2541044, 0.26364344, 0.34516662, -0.02567091, -0.087825775, 0
1121, 2696003413, 0.7133529, 0.5853889, 0.26814795, 0.2766509, 0.30798024, 0.05593948, 0.17750359, 0
1122, 2696020080, 0.7173442, 0.57343966, 0.27631342, 0.28324297, 0.47043458, 0.43407288, 0.4665928, 0
1123, 2696036747, 0.7217682, 0.5597065, 0.28530607, 0.2904676, 0.687596, 0.461029, 0.42997837, 0
1125, 2696070081, 0.7306703, 0.5275804, 0.30578497, 0.30702907, 0.8620791, 0.19411832, -0.472826, 0
1126, 2696086748, 0.7329372, 0.5123973, 0.31772572, 0.31510925, 0.5539117, 0.08280842, -1.1657953, 0
1127, 2696103415, 0.7339284, 0.49829936, 0.33069924, 0.32198834, 0.45053613, 0.026279312, -1.0770407, 0
1129, 2696136749, 0.734433, 0.4716161, 0.35698628, 0.33277443, 0.5975541, -0.107285775, 0.29777145, 0
1130, 2696153416, 0.7329402, 0.45992857, 0.3705424, 0.33757162, 0.18669131, -0.42020705, 0.3576212, 0
1131, 2696170083, 0.7302568, 0.4495694, 0.3846516, 0.34153634, 0.10548291, -0.51392335, 0.40232182, 0
1134, 2696220084, 0.7253404, 0.4121831, 0.42296895, 0.35365945, 0.66142935, 0.13102955, 0.8304596, 0
1136, 2696253418, 0.72350043, 0.38265383, 0.44570053, 0.36258188, 0.34980336, 0.42194194, 0.045000076, 0
1137, 2696270085, 0.7224672, 0.36712822, 0.45759678, 0.3658617, 0.40920952, 0.3894834, 0.022115707, 0
1138, 2696286752, 0.7217083, 0.35070246, 0.4692507, 0.36870062, 0.34073836, 0.27825755, 0.29700756, 0
1140, 2696320086, 0.7196479, 0.31626418, 0.49132013, 0.37507302, 0.29969534, 0.50823385, 0.02843666, 0
1141, 2696336753, 0.71805775, 0.29861158, 0.50196475, 0.3784799, 0.07195038, 0.4374828, -0.18304443, 0
1142, 2696353420, 0.7164959, 0.2802817, 0.51240003, 0.3814623, 0.043163482, 0.40081528, -0.04088497, 0
1144, 2696386754, 0.7131033, 0.24293593, 0.5319062, 0.38669524, 0.45325992, 0.5160476, 0.012436867, 0
1145, 2696403421, 0.7103713, 0.22459063, 0.5420138, 0.38877314, 0.29075682, 0.79711515, -0.18365765, 0
1146, 2696420088, 0.7073389, 0.20553613, 0.55174345, 0.39114887, -0.20659749, 0.69913, -0.2486372, 0
1149, 2696470089, 0.69738925, 0.1500069, 0.5776051, 0.39687568, 0.040817488, 0.07331248, -0.3465166, 0
1150, 2696486756, 0.69388735, 0.13256685, 0.58500963, 0.39837378, -0.058406617, 0.45157173, -0.5461559, 0
1152, 2696520090, 0.6848835, 0.10133189, 0.60076845, 0.3996693, -0.25949228, -0.25228164, -0.5394869, 0
1153, 2696536757, 0.6800172, 0.08665694, 0.60851514, 0.39971, -0.2644422, -0.021944838, -0.46357822, 0
1154, 2696553424, 0.67490834, 0.071952626, 0.6159214, 0.39994258, 0.030338308, 0.53023005, -0.44085503, 0
1156, 2696586758, 0.6642442, 0.04174307, 0.62914884, 0.40149808, 0.098080166, 0.23870972, -0.34517002, 0
1157, 2696603425, 0.6589773, 0.027896881, 0.6354548, 0.4014467, -0.6374768, -0.025709912, -0.4836731, 0
1158, 2696620092, 0.65354955, 0.015153274, 0.64204997, 0.4005082, -0.8821426, -0.33096224, -0.46477985, 0
1160, 2696653426, 0.64300346, -0.008354098, 0.6550883, 0.39664555, 0.010892234, 0.11968057, -0.16571712, 0
1161, 2696670093, 0.6375835, -0.020350918, 0.66112393, 0.3949426, 0.16645412, 0.45222214, -0.11115646, 0
1163, 2696703427, 0.627059, -0.046697482, 0.67095506, 0.3929722, -0.21795464, -0.1696412, -0.3425703, 0
1164, 2696720094, 0.62228304, -0.05874846, 0.6755611, 0.39105156, -0.46396104, -0.30982104, -0.53093433, 0
1165, 2696736761, 0.61793774, -0.06916833, 0.6804009, 0.38783354, -0.73254627, -0.07330236, -0.5792208, 0
1167, 2696770095, 0.6078379, -0.09098919, 0.6901754, 0.3819732, -0.122436374, 0.8983241, -0.20694447, 0
1168, 2696786762, 0.6022643, -0.10170075, 0.6949948, 0.3793525, -0.11430095, 0.5197653, -0.3536005, 0
1169, 2696803429, 0.59668994, -0.11197688, 0.69945645, 0.37706017, -0.45136207, 0.049926087, -0.5876112, 0
1171, 2696836763, 0.58559585, -0.12891957, 0.70910984, 0.3709615, -0.5073758, -0.059762698, -0.20896244, 0
1172, 2696853430, 0.5803627, -0.13668771, 0.7134248, 0.36812007, -0.36104316, 0.2912031, -0.15145397, 0
1173, 2696870097, 0.57520026, -0.14483187, 0.71706545, 0.36602885, -0.3902608, 0.3403804, 5.0354004E-4, 0
1176, 2696920098, 0.5614123, -0.16452932, 0.72793525, 0.3575586, -0.74712425, 0.11082672, 0.7857094, 0
1177, 2696936765, 0.5575634, -0.1699108, 0.73110104, 0.3545929, -0.8280306, 0.059646863, 0.913208, 0
1179, 2696970099, 0.55141777, -0.17875771, 0.73591197, 0.34987053, -0.96112853, 0.24385051, 0.65323067, 0
1180, 2696986766, 0.5493445, -0.18222678, 0.73752683, 0.34793627, -0.81749237, 0.31412527, 0.32666302, 0
1181, 2697003433, 0.54751796, -0.18521062, 0.73901635, 0.34607428, -0.7149147, 0.46112803, -0.050740242, 0
1183, 2697036767, 0.5444572, -0.18972676, 0.7421726, 0.3416745, -0.72890794, 0.31261027, -0.2112341, 0
1184, 2697053434, 0.5435261, -0.19148484, 0.74335706, 0.33959517, -0.707068, 0.37669966, -0.2399826, 0
1185, 2697070101, 0.5432813, -0.19296046, 0.7441915, 0.33731633, -0.6451487, 0.34725878, -0.19816875, 0
1187, 2697103435, 0.54424125, -0.19400445, 0.74583787, 0.33148348, -0.66644233, 0.289047, -0.2096386, 0
1188, 2697120102, 0.5449738, -0.1938621, 0.7466211, 0.32858747, -0.65017194, 0.28271845, -0.25635433, 0
1191, 2697170103, 0.5474304, -0.19009693, 0.7491604, 0.3208322, -0.45309874, 0.26682374, -0.378397, 0
1192, 2697186770, 0.5478935, -0.18786336, 0.7503846, 0.31848776, -0.42593077, 0.19864428, -0.2913046, 0
1194, 2697220104, 0.5483129, -0.18245924, 0.7532566, 0.314098, -0.047486223, -0.096648574, -0.27433205, 0
1195, 2697236771, 0.5484422, -0.17948359, 0.7546614, 0.31220928, 0.031004377, -0.27180964, -0.18424606, 0
1196, 2697253438, 0.5487486, -0.17641383, 0.7558825, 0.3104617, 0.14860259, -0.4409778, -0.084153175, 0
1198, 2697286772, 0.54929864, -0.17071204, 0.7578738, 0.30781078, 0.37029615, -0.07513992, 0.07816887, 0
1199, 2697303439, 0.5495259, -0.16833799, 0.75864774, 0.30680433, 0.18135796, 0.029109601, 0.073503494, 0
1200, 2697320106, 0.54991484, -0.16594604, 0.7594296, 0.3054731, -0.20488182, 0.0024023731, -0.030661583, 0
1202, 2697353440, 0.5513751, -0.15929128, 0.76145154, 0.30132216, -0.8326962, 0.5730328, -0.3363762, 0
1203, 2697370107, 0.5524187, -0.15505128, 0.7627397, 0.29834923, -0.9252256, 0.99318933, -0.5367403, 0
1206, 2697420108, 0.5559381, -0.13638967, 0.7693012, 0.28372118, -0.8868062, 1.553961, -0.6723385, 0
1207, 2697436775, 0.5563279, -0.12986994, 0.7720306, 0.27855587, -0.4047927, 1.0460734, -0.6447277, 0
1208, 2697453442, 0.5569284, -0.123648144, 0.774394, 0.27358285, -0.02026145, 0.52209723, -0.6846714, 0
1210, 2697486776, 0.55945814, -0.11144552, 0.7779985, 0.26324186, 0.13348953, -5.7090796E-4, -0.5965128, 0
1211, 2697503443, 0.5609271, -0.105339915, 0.7796843, 0.25758168, 0.17634055, -0.030738844, -0.42383385, 0
1212, 2697520110, 0.5618276, -0.100288294, 0.7811916, 0.25302827, 0.4048991, -0.23096421, -0.1035862, 0
1214, 2697553444, 0.56360817, -0.089704335, 0.7836212, 0.2454145, 0.36228767, -0.5525022, -0.09054756, 0
1215, 2697570111, 0.564435, -0.08504178, 0.7845745, 0.24210611, 0.3744146, -0.59030795, 0.07199669, 0
1217, 2697603445, 0.56602764, -0.07629126, 0.78610474, 0.23626943, 0.11266573, -0.66948825, 0.0662384, 0
1218, 2697620112, 0.56686246, -0.07234375, 0.7865985, 0.23385409, 0.08378472, -0.6670575, -0.18445683, 0
1221, 2697670113, 0.57073975, -0.061398134, 0.7867929, 0.22679284, 0.080971144, -0.34486663, -0.3328638, 0
1222, 2697686780, 0.57228404, -0.05846013, 0.78641146, 0.22499304, 0.0849452, -0.39444226, -0.33213997, 0
1223, 2697703447, 0.57399064, -0.0561378, 0.7857205, 0.22364727, 0.070306, -0.50561255, -0.32289696, 0
1225, 2697736781, 0.57825327, -0.05233033, 0.78366727, 0.22077557, 0.08260905, -0.568453, -0.30789185, 0
1226, 2697753448, 0.5803505, -0.051141128, 0.7824888, 0.21972856, -0.056484405, -0.6057398, -0.07474899, 0
1227, 2697770115, 0.58233684, -0.050788045, 0.7811993, 0.21914338, 0.12390977, -0.69909966, 0.10172939, 0
1229, 2697803449, 0.58702564, -0.052393124, 0.77777183, 0.21844539, 0.36724028, -0.98028827, 0.3574419, 0
1230, 2697820116, 0.5894797, -0.05395949, 0.77591294, 0.21806598, 0.025583293, -0.81090784, 0.5037041, 0
1231, 2697836783, 0.59201056, -0.055746168, 0.7739401, 0.217771, 0.080343075, -0.67574877, 0.37637424, 0
1233, 2697870117, 0.5968138, -0.060668185, 0.7698332, 0.21790138, 0.3031676, -0.5052305, 0.40268135, 0
1234, 2697886784, 0.599039, -0.06367172, 0.76774657, 0.21829963, 0.13695176, -0.39212346, 0.25688744, 0
1235, 2697903451, 0.6011432, -0.06667481, 0.7657371, 0.21867672, -0.0855469, -0.3252717, 0.18552876, 0
1237, 2697936785, 0.6054982, -0.07278478, 0.761461, 0.21964304, 0.06253222, -0.12549342, 0.09134102, 0
1238, 2697953452, 0.60761577, -0.075712755, 0.7593707, 0.22004203, 0.084746726, 0.052309632, 0.06158924, 0
1240, 2697986786, 0.611462, -0.08178383, 0.7552722, 0.22131617, -0.15146042, 0.1432224, 0.20114613, 0
1241, 2698003453, 0.61317176, -0.08464096, 0.7533836, 0.2219485, -0.09947712, 0.04115354, 0.19021988, 0
1242, 2698020120, 0.6148879, -0.08724857, 0.7514964, 0.22258802, -0.08610479, 0.042246576, 0.081908226, 0
1244, 2698053454, 0.61773944, -0.09166742, 0.7481483, 0.22418913, -0.025577929, -0.06320634, -0.23834896, 0
1245, 2698070121, 0.61894447, -0.09356639, 0.7465322, 0.22546434, -0.11807877, -0.05638159, -0.37598515, 0
1248, 2698120122, 0.62194425, -0.096639864, 0.742256, 0.22998603, -0.15619846, 0.30805287, -0.5680847, 0
1249, 2698136789, 0.6225272, -0.09699357, 0.7411512, 0.23181596, -0.15784888, 0.3137657, -0.6673746, 0
1250, 2698153456, 0.6229861, -0.09704204, 0.7401427, 0.23377654, -0.16473351, 0.21409468, -0.67878914, 0
1252, 2698186790, 0.6240757, -0.09605805, 0.7381538, 0.23753513, -0.051786162, 0.3012494, -0.6274891, 0
1253, 2698203457, 0.62450695, -0.095510386, 0.7373001, 0.23926751, -0.17334458, 0.33872697, -0.34928036, 0
1254, 2698220124, 0.6246668, -0.09515176, 0.7365784, 0.24120823, -0.13745376, 0.20508112, -0.22370625, 0
1256, 2698253458, 0.6250389, -0.09351777, 0.73527104, 0.24484503, -0.092768155, 0.16820456, -0.18120098, 0
1257, 2698270125, 0.6252231, -0.09216887, 0.7348702, 0.24608621, -0.23276684, 0.19894676, 0.008674622, 0
1258, 2698286792, 0.6253797, -0.09089647, 0.73447186, 0.24734691, -0.18529671, 0.14081188, 0.006454468, 0
1260, 2698320126, 0.6254328, -0.08922209, 0.73366994, 0.25018644, 0.21762785, 0.15605994, -0.103432655, 0
1262, 2698353460, 0.6252142, -0.088380426, 0.7330537, 0.25282386, -0.19084653, -0.05827117, -0.18363476, 0
1264, 2698386794, 0.6254084, -0.08726145, 0.7324165, 0.25457302, 0.01583321, -0.026724998, -0.16768646, 0
1265, 2698403461, 0.6255984, -0.086602144, 0.7321099, 0.25521216, 0.10810159, 0.16191004, -0.27783585, 0
1267, 2698436795, 0.6253569, -0.086305656, 0.7316463, 0.2572262, -0.06964529, 0.068335675, -0.19909, 0
1268, 2698453462, 0.6252712, -0.08590039, 0.7314701, 0.25806984, -0.15535715, -0.054367963, -0.11029434, 0
1269, 2698470129, 0.6252284, -0.085418366, 0.7313288, 0.2587332, -0.07146559, -0.03082065, 0.034005165, 0
1271, 2698503463, 0.625109, -0.084330685, 0.73113126, 0.25993428, -8.091169E-5, 0.071959384, 0.10150814, 0
1272, 2698520130, 0.6249061, -0.083767645, 0.73114526, 0.26056382, 0.043119673, 0.0902381, -0.03196621, 0
1273, 2698536797, 0.6246314, -0.083404705, 0.7311785, 0.26124462, -0.012743368, 0.10413854, 0.009451866, 0
1275, 2698570131, 0.6239668, -0.08306739, 0.73125756, 0.26271483, -0.0731093, -0.015587011, -0.017599106, 0
1277, 2698603465, 0.6233447, -0.08260321, 0.7315279, 0.2635839, -0.032587294, 0.051465534, -0.17221451, 0
1279, 2698636799, 0.6227002, -0.08261038, 0.7317562, 0.2644704, 0.10168409, 0.082709014, -0.27638912, 0
1280, 2698653466, 0.6223191, -0.08298247, 0.7318194, 0.26507527, -0.012875687, 6.5204315E-4, -0.19167423, 0
1281, 2698670133, 0.621953, -0.08327144, 0.731928, 0.2655435, -0.15576886, -0.07760901, -0.16779137, 0
1283, 2698703467, 0.6216956, -0.083571106, 0.7319111, 0.26609802, -0.02531776, 0.0091969995, -0.21966362, 0
1284, 2698720134, 0.6216548, -0.08380445, 0.73182034, 0.26636928, 0.015937367, 0.05102488, -0.2237072, 0
1285, 2698736801, 0.6215798, -0.08427339, 0.7316221, 0.26694033, -0.058434334, 0.0645468, -0.18496609, 0
1287, 2698770135, 0.6214164, -0.08478334, 0.7313073, 0.26801983, -0.12979352, 0.06969028, -0.09982586, 0
1288, 2698786802, 0.6213574, -0.08491497, 0.7311233, 0.26861617, -0.20428592, 0.031247055, -0.016264915, 0
1289, 2698803469, 0.62136143, -0.084961474, 0.7308736, 0.26927075, -0.1449562, 0.009077811, -0.031568527, 0
1292, 2698853470, 0.62139124, -0.08450139, 0.7303284, 0.2708215, -0.104050644, 0.20221475, -0.022567749, 0
1294, 2698886804, 0.6212255, -0.083976425, 0.73014784, 0.27185014, -0.08413551, -0.031604398, -0.108242035, 0
1295, 2698903471, 0.6212464, -0.08363962, 0.7300081, 0.27228144, -0.024849724, 0.002607111, -0.1768446, 0
1296, 2698920138, 0.6213445, -0.08331671, 0.7298362, 0.27261686, -0.039099567, 0.013298183, -0.1751337, 0
1298, 2698953472, 0.6214004, -0.082732424, 0.72963214, 0.2732132, -0.10279495, 0.004944777, -0.07039356, 0
1299, 2698970139, 0.6214222, -0.08251275, 0.72951716, 0.27353674, -0.0050285943, 0.017945856, -0.119799614, 0
1300, 2698986806, 0.62142605, -0.0823756, 0.72938937, 0.27390963, 0.01926503, -0.014121772, -0.10865879, 0
1302, 2699020140, 0.62156594, -0.08227831, 0.7290157, 0.2746151, -0.071781635, -0.084794894, -0.044864655, 0
1303, 2699036807, 0.6215825, -0.08215865, 0.7288784, 0.2749781, 0.010983427, -0.05841511, -0.064273834, 0
1304, 2699053474, 0.62162066, -0.081987426, 0.7286993, 0.27541733, 0.04215365, 0.09311594, -0.09964752, 0
1306, 2699086808, 0.6215638, -0.08188721, 0.72833186, 0.27654505, -0.046788413, 0.050185308, -0.02734375, 0
1307, 2699103475, 0.62152416, -0.08182286, 0.7281761, 0.2770628, -0.12269967, -0.082308084, 0.0075588226, 0
1308, 2699120142, 0.6216009, -0.08151686, 0.7280143, 0.27740622, -0.10120488, -0.06492258, -0.020256042, 0
1310, 2699153476, 0.62183297, -0.080700226, 0.7277494, 0.27781922, -0.0036159926, 0.23602264, -0.110795975, 0
1311, 2699170143, 0.62178683, -0.08065306, 0.72766674, 0.27815288, -0.049271643, 0.20797071, -0.08841801, 0
1312, 2699186810, 0.6216869, -0.080773786, 0.7275588, 0.2786231, -0.10790669, 0.085317075, -0.052742004, 0
1314, 2699220144, 0.6217215, -0.08033062, 0.72743976, 0.27898407, -0.07311243, 0.1154716, -0.1586523, 0
1315, 2699236811, 0.621802, -0.08003613, 0.7274041, 0.27898267, -0.0627307, 0.15353887, -0.11981678, 0
1316, 2699253478, 0.62185705, -0.07986215, 0.72733736, 0.2790838, -0.046657883, 0.14776821, 0.036042213, 0
1319, 2699303479, 0.6219003, -0.07929093, 0.7274301, 0.2789087, -0.11137025, 0.054285094, -0.037589073, 0
1321, 2699336813, 0.62228435, -0.07882591, 0.72737515, 0.27832696, -0.0075484794, 0.06397248, -0.110673904, 0
1322, 2699353480, 0.62252456, -0.07863716, 0.72730714, 0.2780202, -0.05318178, 0.18320541, -0.09911919, 0
1323, 2699370147, 0.62270045, -0.07848708, 0.72729796, 0.27769232, -0.13159773, 0.21152137, -0.12171936, 0
1325, 2699403481, 0.6226936, -0.07783799, 0.7276377, 0.27699962, -0.09644137, 0.13977875, -0.16484356, 0
1326, 2699420148, 0.6227603, -0.077438004, 0.72772557, 0.27673107, -0.06433463, 0.0020159192, -0.28007603, 0
1327, 2699436815, 0.6229209, -0.07705336, 0.7277515, 0.2764086, -0.0044447784, -0.09181884, -0.35360432, 0
1329, 2699470149, 0.62322515, -0.07641721, 0.7277716, 0.2758454, 0.018622205, 0.044527914, -0.20409775, 0
1330, 2699486816, 0.6233119, -0.07633944, 0.7277207, 0.27580583, 0.030254267, -0.028671907, -0.2033577, 0
1331, 2699503483, 0.6234141, -0.07627715, 0.7276503, 0.27577755, -0.03552202, -0.108989835, -0.111745834, 0
1334, 2699553484, 0.6237904, -0.07583014, 0.7273465, 0.27585143, 0.07151654, 0.060214166, -0.14432621, 0
1335, 2699570151, 0.6237943, -0.07593525, 0.72721225, 0.27616715, 0.074659586, 0.019281456, -0.08560562, 0
1337, 2699603485, 0.62369925, -0.07598891, 0.7269493, 0.277058, -0.1017346, 0.04335084, -0.02052021, 0
1338, 2699620152, 0.62371635, -0.07580034, 0.72686964, 0.2772803, -0.08534082, 0.10874453, -0.07047272, 0
1339, 2699636819, 0.62371355, -0.075602114, 0.72681165, 0.27749282, -0.0145346, 0.10284999, 0.019506454, 0
1341, 2699670153, 0.6236222, -0.07518356, 0.7267548, 0.27796024, -0.09922321, 0.1350781, 0.0017576218, 0
1342, 2699686820, 0.6235641, -0.07509241, 0.72672063, 0.27820432, 0.014575727, 0.10844368, -0.13119411, 0
1343, 2699703487, 0.6236027, -0.0749963, 0.7266135, 0.2784236, -0.059656054, 0.029782878, -0.18142796, 0
1345, 2699736821, 0.6238337, -0.07471866, 0.7263373, 0.27870107, -0.06735161, 0.06664787, -0.1588955, 0
1346, 2699753488, 0.62400705, -0.074481614, 0.72618973, 0.278761, 0.0046191188, 0.19949704, -0.1677618, 0
1349, 2699803489, 0.62415326, -0.07426767, 0.7257931, 0.27952236, -0.119864635, 0.001911371, -0.12815762, 0
1350, 2699820156, 0.6242747, -0.07401373, 0.72567207, 0.27963346, -0.1188557, -0.05431281, -0.14553165, 0
1352, 2699853490, 0.62450635, -0.07352171, 0.72548896, 0.27972084, 0.049116973, 0.18878837, -0.20375729, 0
1353, 2699870157, 0.6244545, -0.073376425, 0.7254832, 0.27988985, -0.053281017, 0.15577172, -0.1894474, 0
1356, 2699920158, 0.62419575, -0.0728809, 0.72550917, 0.28052813, -0.0037349015, 0.03325504, -0.20283127, 0
1357, 2699936825, 0.6241144, -0.072590075, 0.7255242, 0.28074574, -0.022911418, 0.1843455, -0.1364317, 0
1358, 2699953492, 0.6239015, -0.072351106, 0.72559077, 0.2811083, -0.12290665, 0.20542568, -0.15968609, 0
1360, 2699986826, 0.6232778, -0.07179616, 0.72583735, 0.28199628, -0.20050274, 0.0064201304, -0.19127178, 0
1361, 2700003493, 0.6230566, -0.07117674, 0.72596145, 0.2823226, -0.18724664, 0.03437713, -0.19292355, 0
1362, 2700020160, 0.62282664, -0.07057756, 0.7260924, 0.282643, -0.14121504, 0.13098557, -0.121154785, 0
1365, 2700070161, 0.62227404, -0.06872666, 0.726277, 0.2838397, -0.27016592, 0.109241955, -0.16211319, 0
1366, 2700086828, 0.62205076, -0.068063624, 0.7263881, 0.284204, -0.3090326, 0.07110517, -0.08546066, 0
1368, 2700120162, 0.62192905, -0.0665447, 0.7265029, 0.28453693, 0.0024398675, 0.13078542, -0.13016605, 0
1369, 2700136829, 0.6220302, -0.065918714, 0.7264426, 0.28461534, -0.11861028, 0.09538678, -0.020970345, 0
1370, 2700153496, 0.62213975, -0.0653698, 0.7263836, 0.28465313, -0.2836746, -0.017105727, 0.0678463, 0
1372, 2700186830, 0.62247133, -0.06420703, 0.72628963, 0.2844324, 0.018034814, 0.023778146, 0.0016345978, 0
1373, 2700203497, 0.6226794, -0.06349498, 0.7262529, 0.2842305, -0.04200926, -0.010246169, -0.07835579, 0
1374, 2700220164, 0.6228403, -0.06289072, 0.72619915, 0.2841497, -0.06415537, -0.09989934, -0.14683437, 0
1376, 2700253498, 0.6234482, -0.061428428, 0.7258231, 0.28409734, 0.16453683, -0.073229104, -0.12633324, 0
1377, 2700270165, 0.62371665, -0.06074661, 0.7256275, 0.28415424, 0.12149583, -0.05440607, -0.120615005, 0
1379, 2700303499, 0.6242343, -0.059649676, 0.7251115, 0.28456706, 0.15910546, -0.15227295, -0.25411987, 0
1380, 2700320166, 0.62459743, -0.059215456, 0.72478133, 0.28470218, 0.18428732, -0.18388836, -0.19470406, 0
1381, 2700336833, 0.6249517, -0.05907893, 0.7244043, 0.28491288, 0.12585522, -0.17592202, -0.097001076, 0
1383, 2700370167, 0.6258108, -0.059252158, 0.7233229, 0.28573668, 0.051620763, -0.1668837, -0.06597328, 0
1384, 2700386834, 0.6262208, -0.059393093, 0.72279817, 0.2861368, 0.037351698, -0.064110555, -0.068489075, 0
1385, 2700403501, 0.62657195, -0.05956617, 0.7222846, 0.28662872, 0.010725046, 0.020616835, -0.020448685, 0
1387, 2700436835, 0.62688375, -0.059839994, 0.72147286, 0.28793135, -0.039225183, 0.03662243, -0.050769806, 0
1388, 2700453502, 0.6269829, -0.059852883, 0.7211054, 0.2886323, 0.017846616, 0.008269588, -0.07787514, 0
1389, 2700470169, 0.62706006, -0.05985959, 0.7207329, 0.2893925, 0.018401375, 0.088805385, -0.10421848, 0
1392, 2700520170, 0.62747264, -0.05925697, 0.7197842, 0.29097933, -0.11377793, 0.1478978, -0.08321667, 0
1393, 2700536837, 0.627608, -0.05891958, 0.7196108, 0.29118502, -0.06865603, 0.1948388, -0.119600296, 0
1395, 2700570171, 0.6279417, -0.058313787, 0.7192301, 0.29152724, -0.12124237, 0.2175673, -0.045435905, 0
1396, 2700586838, 0.62803644, -0.05806862, 0.7191361, 0.29160434, -0.056875106, 0.16942818, -0.065096855, 0
1397, 2700603505, 0.62822086, -0.05787857, 0.71898955, 0.29160655, -0.0057545644, 0.20061232, -0.1103735, 0
1399, 2700636839, 0.62872434, -0.057819247, 0.71859944, 0.29149425, -0.026171578, 0.10629706, -0.0058689117, 0
1400, 2700653506, 0.62899125, -0.05782619, 0.71841717, 0.29136625, -0.0115046585, 0.15988067, 0.033236504, 0
1401, 2700670173, 0.62924093, -0.057816923, 0.7183172, 0.29107532, 0.04285369, 0.16152583, 0.07328415, 0
1403, 2700703507, 0.62961453, -0.058086827, 0.71819097, 0.29052535, 0.007898054, 0.028259804, 0.083524704, 0
1404, 2700720174, 0.62980914, -0.05803293, 0.7181883, 0.29011983, 0.0415296, 0.00494433, -0.008732796, 0
1407, 2700770175, 0.63021624, -0.05780123, 0.71835345, 0.28887063, 0.09915884, 0.012453751, -0.18007565, 0
1408, 2700786842, 0.6302674, -0.05758828, 0.7184906, 0.2884603, 0.07931983, -0.010743206, -0.18555164, 0
1410, 2700820176, 0.629973, -0.057315856, 0.719064, 0.2877282, 0.0034233243, 0.037879523, -0.07312775, 0
1411, 2700836843, 0.6296442, -0.057473093, 0.71936536, 0.2876631, 0.044076756, -0.06797364, -0.048519135, 0
1412, 2700853510, 0.62940353, -0.057453275, 0.719662, 0.28745177, -0.010113514, -0.08654522, -0.106469154, 0
1414, 2700886844, 0.62880856, -0.057294995, 0.7206276, 0.2863644, 0.027281545, -0.07983391, -0.12238312, 0
1415, 2700903511, 0.6285277, -0.05754958, 0.7209611, 0.28609058, 0.07791483, -0.062414374, -0.19761944, 0
1416, 2700920178, 0.6282663, -0.058173135, 0.72119987, 0.2859366, 0.0125752855, -0.1214352, -0.30057812, 0
1418, 2700953512, 0.62786704, -0.05936499, 0.7216919, 0.28532615, -0.17948046, -0.053104274, -0.3662262, 0
1419, 2700970179, 0.6276934, -0.059910655, 0.72196114, 0.28491262, -0.1355092, -0.07411282, -0.2790985, 0
1422, 2701020180, 0.6273313, -0.061538056, 0.72232956, 0.28442973, -0.03784119, 0.07024498, -0.20205021, 0
1423, 2701036847, 0.6271701, -0.062113836, 0.72234327, 0.28462455, -0.11037606, 0.10556523, -0.0792284, 0
1424, 2701053514, 0.6269944, -0.062434226, 0.72234374, 0.28494027, -0.14480957, 0.018809173, -0.07744694, 0
1426, 2701086848, 0.62680674, -0.06262338, 0.72224444, 0.28556255, -0.03486936, -0.011465153, 0.03368473, 0
1427, 2701103515, 0.626803, -0.06269875, 0.72209585, 0.28593004, -0.088762805, -0.0059884707, 0.11424446, 0
1428, 2701120182, 0.62681115, -0.0627183, 0.7219168, 0.28635994, -0.109326445, 0.042178012, 0.080592155, 0
1430, 2701153516, 0.6268422, -0.06267166, 0.72156984, 0.28717506, -0.023458133, 0.09301452, 0.052858353, 0
1431, 2701170183, 0.62686217, -0.06269324, 0.721391, 0.28757635, -0.047484435, 0.017666576, 0.02876091, 0
1433, 2701203517, 0.6269157, -0.06244883, 0.72119933, 0.28799298, -0.07904625, 0.060300164, -0.24785137, 0
1434, 2701220184, 0.6269855, -0.062400237, 0.7210982, 0.28810462, -0.035470612, 0.124975815, -0.2986641, 0
1437, 2701270185, 0.62686205, -0.06320262, 0.72083926, 0.28884548, -0.054694515, -0.029736666, -0.17436504, 0
1438, 2701286852, 0.62692606, -0.06351146, 0.72066224, 0.28908044, -0.009808643, 0.03433293, -0.18823624, 0
1439, 2701303519, 0.6269926, -0.06377907, 0.7204905, 0.2893051, -0.01007507, 0.12454539, -0.19972038, 0
1441, 2701336853, 0.6268348, -0.064324096, 0.7202914, 0.2900216, -0.0761151, 0.1231253, -0.06614876, 0
1442, 2701353520, 0.6267797, -0.06442952, 0.7201831, 0.2903859, -0.13295713, 0.05626184, -0.008916855, 0
1443, 2701370187, 0.62668616, -0.06436193, 0.720188, 0.2905905, -0.16133702, 0.049977887, 0.052098274, 0
1445, 2701403521, 0.626654, -0.064121515, 0.72010195, 0.29092607, 0.09290295, 0.047797166, -0.07878113, 0
1446, 2701420188, 0.6266938, -0.064300016, 0.71996975, 0.29112795, 0.058557265, 0.030587357, -0.07150555, 0
1449, 2701470189, 0.6267968, -0.06518394, 0.71964806, 0.29150486, -0.09037121, 0.051940277, -0.12417126, 0
1450, 2701486856, 0.6268677, -0.06545365, 0.71954286, 0.29155165, -0.022729926, 0.0012028909, -0.20252228, 0
1451, 2701503523, 0.627001, -0.06569676, 0.71939737, 0.29156917, 0.036723178, 0.040782843, -0.27745247, 0
1453, 2701536857, 0.62720585, -0.06627544, 0.71909994, 0.2917314, -0.056388296, 0.13201301, -0.27495956, 0
1454, 2701553524, 0.62722415, -0.06678303, 0.7189052, 0.29205608, -0.08452009, 0.019503461, -0.20682621, 0
1456, 2701586858, 0.62740946, -0.06708493, 0.7185497, 0.2924633, -0.11679714, -0.06472024, -0.13200474, 0
1457, 2701603525, 0.62750494, -0.067197055, 0.7183376, 0.29275346, 0.004932037, -0.016226035, -0.076625824, 0
1458, 2701620192, 0.62760997, -0.06740694, 0.7180168, 0.29326668, 0.09362332, 0.06832411, -0.065693855, 0
1460, 2701653526, 0.62772846, -0.067799054, 0.71741146, 0.29440227, -0.11422764, 0.013307347, 0.004555702, 0
1461, 2701670193, 0.62774783, -0.06789422, 0.7171688, 0.29492944, -0.15019132, 0.06443538, 0.088526726, 0
1462, 2701686860, 0.62774444, -0.06781738, 0.7170112, 0.29533735, -0.09121296, 0.079176225, 0.07166004, 0
1465, 2701736861, 0.627432, -0.06770593, 0.71684545, 0.2964273, -0.053347625, 0.08747956, -0.08644867, 0
1466, 2701753528, 0.62725294, -0.06785303, 0.7168456, 0.29677215, -0.005140351, 0.019054424, -0.14089966, 0
1468, 2701786862, 0.62702346, -0.06837457, 0.7167955, 0.29725835, 0.076850906, 0.054841362, -0.22991085, 0
1469, 2701803529, 0.62696147, -0.06878252, 0.71672446, 0.29746604, 0.033503696, 0.123941064, -0.28682804, 0
1470, 2701820196, 0.6269069, -0.06929327, 0.7166241, 0.29770422, -0.018728597, 0.077548884, -0.28421116, 0
1472, 2701853530, 0.6268151, -0.07070853, 0.7162884, 0.29837152, 0.0025310607, 0.012056457, -0.15812874, 0
1473, 2701870197, 0.6268664, -0.07127079, 0.71607095, 0.2986516, -0.07358896, 0.10037783, -0.15453339, 0
1474, 2701886864, 0.6268521, -0.071861774, 0.7158848, 0.29898626, -0.0750333, 0.13177894, -0.1841011, 0
1476, 2701920198, 0.6267686, -0.07255075, 0.7155321, 0.2998382, -0.08721654, -0.029340155, -0.07950497, 0
1477, 2701936865, 0.6267157, -0.07288721, 0.7152972, 0.30042714, -0.01803079, -0.09081862, -0.0493927, 0
1480, 2701986866, 0.62614614, -0.07599839, 0.71414316, 0.3035732, 0.5151871, -0.5033425, -0.021129608, 0
1481, 2702003533, 0.6258404, -0.078838214, 0.7132878, 0.30548388, 0.7010475, -0.7770426, -0.12938023, 0
1483, 2702036867, 0.62522906, -0.087904334, 0.7105352, 0.31063315, 1.1501243, -1.1880593, -0.32654, 0
1484, 2702053534, 0.62481284, -0.094618656, 0.7084812, 0.31416923, 1.1778579, -1.3006601, -0.3755932, 0
1485, 2702070201, 0.62434727, -0.10261633, 0.70600885, 0.31812507, 1.2088404, -1.3630692, -0.54582214, 0
1487, 2702103535, 0.62293357, -0.12162719, 0.6997618, 0.32784986, 1.3163335, -1.0402079, -0.58678055, 0
1488, 2702120202, 0.6216992, -0.13207762, 0.69609195, 0.333906, 1.1991411, -0.77389705, -0.5202694, 0
1489, 2702136869, 0.6198303, -0.14255911, 0.69244957, 0.34057662, 1.1311437, -0.6003486, -0.52968407, 0
1491, 2702170203, 0.6143885, -0.16426906, 0.68423396, 0.35687232, 1.2654544, -0.33328283, -0.74367523, 0
1492, 2702186870, 0.6108814, -0.17530076, 0.67952365, 0.36651447, 1.1891301, -0.1880962, -0.70011044, 0
1495, 2702236871, 0.5980642, -0.20844908, 0.6638363, 0.39772, 0.7709675, 0.0498345, -0.19383335, 0
1496, 2702253538, 0.5934763, -0.21954682, 0.65802264, 0.40814593, 0.5785427, 0.18874872, -0.035718918, 0
1497, 2702270205, 0.58894134, -0.23073976, 0.6518849, 0.4182643, 0.5033713, 0.39482847, -0.076869965, 0
1499, 2702303539, 0.5800496, -0.25391233, 0.6385063, 0.43746132, 0.41799873, 0.554453, -0.040145874, 0
1500, 2702320206, 0.5757604, -0.26591533, 0.63124275, 0.4464449, 0.12528929, 0.4946734, -0.11768055, 0
1501, 2702336873, 0.57149255, -0.27795357, 0.62394214, 0.45478076, 0.15624048, 0.60164547, -0.096144676, 0
1503, 2702370207, 0.56259316, -0.30210453, 0.60854244, 0.47105154, 0.1087623, 0.8890475, 0.043226242, 0
1504, 2702386874, 0.55766636, -0.31382954, 0.6010926, 0.47874683, -0.2403265, 0.71146166, 0.0075244904, 0
1505, 2702403541, 0.5521913, -0.3250618, 0.5941897, 0.48615825, -0.21838735, 0.69455343, -0.032611847, 0
1507, 2702436875, 0.53919196, -0.34622753, 0.5810578, 0.50175893, 0.29527447, 0.98836267, 0.16253853, 0
1509, 2702470209, 0.5246251, -0.3638858, 0.5693633, 0.51785374, -0.20974769, 0.6087809, -0.18594456, 0
1511, 2702503543, 0.50758976, -0.37924767, 0.55962646, 0.53416634, 0.124496266, 0.48025358, 0.1951704, 0
1512, 2702520210, 0.49830407, -0.38621163, 0.55484146, 0.54284084, -0.14376263, 0.45390296, 0.04914856, 0
1514, 2702553544, 0.48004228, -0.39706635, 0.5478523, 0.5583432, -0.57646984, 0.5745121, 0.23819542, 0
1515, 2702570211, 0.47038928, -0.40172774, 0.5446271, 0.56632316, -0.6211894, 0.48710322, 0.28783607, 0
1516, 2702586878, 0.4609257, -0.40584442, 0.5414017, 0.57420695, -0.988109, 0.3803121, 0.22775269, 0
1518, 2702620212, 0.44316253, -0.41283414, 0.5369684, 0.58722353, -0.4216143, 0.6197429, 0.3774109, 0
1519, 2702636879, 0.4341639, -0.41695696, 0.5334817, 0.5941696, -0.054586332, 0.48591974, 0.30610085, 0
1520, 2702653546, 0.42562515, -0.42108572, 0.5298963, 0.6006093, -0.24139825, 0.38098475, 0.05953884, 0
1522, 2702686880, 0.41004413, -0.42897522, 0.52328753, 0.6115601, -0.7030824, 0.54124445, 0.20190048, 0
1523, 2702703547, 0.40284216, -0.43259495, 0.51991403, 0.61665285, -0.69357413, 0.6942526, 0.17716694, 0
1524, 2702720214, 0.39609528, -0.43609643, 0.5164989, 0.6214088, -0.94501346, 0.42834303, 0.17187405, 0
1526, 2702753548, 0.38339275, -0.4432727, 0.5100598, 0.6295632, -0.7641609, 0.27294832, 0.121170044, 0
1527, 2702770215, 0.37785417, -0.44694424, 0.50663567, 0.63307106, -0.68650687, 0.17593822, 0.17465115, 0
1528, 2702786882, 0.3728798, -0.4507569, 0.5030669, 0.6361558, -0.43573806, 0.28863615, 0.14645863, 0
1530, 2702820216, 0.36416596, -0.45953235, 0.4934644, 0.6424154, -0.029186098, 0.4493633, -0.3477373, 0
1531, 2702836883, 0.36081284, -0.4642701, 0.48742515, 0.64550424, -0.5695358, 0.14987303, -0.33691692, 0
1532, 2702853550, 0.35793948, -0.4688918, 0.48208982, 0.6477661, -0.93705237, 0.13111438, -0.18815422, 0
1534, 2702886884, 0.35228407, -0.477499, 0.47141898, 0.65241575, -1.550157, 0.09571272, -0.18927765, 0
1536, 2702920218, 0.34722966, -0.48382437, 0.46498093, 0.6550801, -1.4001759, 0.22559834, -0.08317852, 0
1538, 2702953552, 0.34148747, -0.4891942, 0.45887053, 0.6584108, -0.44163746, -0.10334982, -0.246624, 0
1539, 2702970219, 0.33919317, -0.4912687, 0.4569643, 0.6593771, -0.6354699, -0.014620095, -0.20915127, 0
1541, 2703003553, 0.33424008, -0.49427295, 0.4538564, 0.6618035, -0.72604316, -0.02758798, -0.3183918, 0
1542, 2703020220, 0.3316669, -0.49535516, 0.4530968, 0.6628085, -0.5659129, 0.054090694, -0.25637245, 0
1543, 2703036887, 0.3287964, -0.49630082, 0.4522984, 0.6640753, -0.52975184, 0.09329956, -0.16873741, 0
1545, 2703070221, 0.3230222, -0.49771821, 0.4522373, 0.6658877, -0.7139749, -0.06420706, 0.06489277, 0
1546, 2703086888, 0.32025868, -0.4982736, 0.45252705, 0.66661, -0.38101897, 0.01747849, 0.17712498, 0
1547, 2703103555, 0.31760788, -0.49916956, 0.45237392, 0.66731143, -0.10130211, -0.04757082, 0.16370583, 0
1549, 2703136889, 0.31392, -0.5011431, 0.45099968, 0.6685063, -0.02849522, 0.052730504, 0.11072731, 0
1551, 2703170223, 0.31165296, -0.5027976, 0.44965696, 0.669229, -0.54936177, -0.10993518, 0.10346317, 0
1553, 2703203557, 0.3094372, -0.50413954, 0.4485893, 0.6699635, -0.54869926, -0.01892853, 0.113921165, 0
1554, 2703220224, 0.30852485, -0.5045532, 0.4480886, 0.67040807, -0.48856422, -0.12880571, 0.054203033, 0
1555, 2703236891, 0.3078766, -0.5047713, 0.44789627, 0.6706702, -0.62076855, -0.066786565, -0.05308819, 0
1557, 2703270225, 0.30696803, -0.5051395, 0.44750693, 0.6710692, -0.5055284, -0.20725618, -0.34058475, 0
1558, 2703286892, 0.30684394, -0.5052471, 0.44748452, 0.6710598, -0.6237225, -0.24555312, -0.37945938, 0
1559, 2703303559, 0.30699173, -0.5051171, 0.4479655, 0.6707692, -0.69536716, -0.13885842, -0.39268684, 0
1561, 2703336893, 0.30680057, -0.50554526, 0.44798562, 0.6705204, -0.00402368, 0.11637828, -0.33782387, 0
1562, 2703353560, 0.30678737, -0.50593144, 0.4476597, 0.670453, 0.05376537, 0.019333089, -0.28032207, 0
1563, 2703370227, 0.30688763, -0.506372, 0.4471532, 0.67041254, 0.07706883, -0.08715228, -0.27525902, 0
1566, 2703420228, 0.30719778, -0.5070584, 0.4451065, 0.6711133, -0.15023379, 0.07802983, -0.1333437, 0
1568, 2703453562, 0.30675507, -0.5071272, 0.443837, 0.672104, -0.42782548, -0.16871451, -0.078289986, 0
1569, 2703470229, 0.306645, -0.50672317, 0.44391108, 0.6724098, -0.48660806, 0.017521515, -0.076841354, 0
1570, 2703486896, 0.30634123, -0.50637436, 0.44383287, 0.67286247, -0.15489022, 0.308165, -0.062311172, 0
1572, 2703520230, 0.30545136, -0.50628287, 0.44324052, 0.6737259, -0.021131586, -0.107832484, 0.037423134, 0
1573, 2703536897, 0.30515957, -0.50618047, 0.443, 0.6740931, -0.02600685, -0.07684744, 0.019421577, 0
1574, 2703553564, 0.30496442, -0.5061066, 0.44264522, 0.67446995, -0.08312268, 0.096986406, 0.02072525, 0
1576, 2703586898, 0.30434674, -0.5061895, 0.44199, 0.6751159, -0.26242208, 0.17063828, 0.12941933, 0
1577, 2703603565, 0.30391693, -0.5062761, 0.44186494, 0.6753266, -0.22213276, 0.08738038, -0.02087593, 0
1578, 2703620232, 0.3034101, -0.5063603, 0.4418413, 0.67550683, 0.025921468, 0.16983062, -0.096414566, 0
1581, 2703670233, 0.3010746, -0.50679785, 0.44162458, 0.6763648, -0.14833504, 0.047985997, -0.08012104, 0
1582, 2703686900, 0.30020136, -0.5067369, 0.44185376, 0.67664886, -0.46873215, -0.09510856, -0.07536602, 0
1584, 2703720234, 0.29853183, -0.506207, 0.4433457, 0.67680824, -0.5448886, 0.11948701, -0.112054825, 0
1585, 2703736901, 0.29758954, -0.50614524, 0.44403672, 0.67681634, -0.2851301, 0.009824176, -0.07437706, 0
1586, 2703753568, 0.2968533, -0.5060918, 0.44465503, 0.67677385, -0.2136252, -0.08150981, -0.10151291, 0
1588, 2703786902, 0.2963539, -0.50579, 0.44599086, 0.67633903, -0.3704298, 0.11644511, -0.1273861, 0
1589, 2703803569, 0.29615304, -0.5058123, 0.44629756, 0.676208, -0.19404456, 0.17080614, -0.090426445, 0
1590, 2703820236, 0.29600796, -0.5059753, 0.44637132, 0.6761009, 0.06301277, 0.19451751, -0.061052322, 0
1592, 2703853570, 0.29579508, -0.5067253, 0.4454105, 0.6762661, 0.11476675, 0.02770499, -0.15177345, 0
1593, 2703870237, 0.2959544, -0.5068016, 0.44514546, 0.67631364, -0.12122605, 0.078087494, -0.15052795, 0
1595, 2703903571, 0.2955494, -0.50669515, 0.4447615, 0.6768228, -0.67894566, 0.05584516, -0.071466446, 0
1596, 2703920238, 0.29513955, -0.50636125, 0.44545197, 0.6767977, -0.69869334, 0.05028773, -0.11566353, 0
1597, 2703936905, 0.2945357, -0.5061599, 0.446092, 0.6767898, -0.19111855, 0.059356995, -0.1514492, 0
1599, 2703970239, 0.2935654, -0.50613153, 0.44632912, 0.6770761, 0.32453164, 0.2531406, -0.16697788, 0
1600, 2703986906, 0.29351443, -0.5061499, 0.44628528, 0.6771134, -0.109719604, 0.19858198, -0.21500206, 0
1601, 2704003573, 0.29333642, -0.5063561, 0.44600457, 0.6772213, -0.37343806, 0.1100551, -0.12323856, 0
1603, 2704036907, 0.29279667, -0.5065509, 0.44598752, 0.6773205, -0.25581348, 0.08944731, -0.04518509, 0
1604, 2704053574, 0.29246002, -0.5065452, 0.44612086, 0.67738247, -0.1860846, 0.05121185, -0.019680977, 0
1605, 2704070241, 0.2921422, -0.50657254, 0.44622126, 0.677433, -0.16367228, 0.031729676, -0.09833431, 0
1608, 2704120242, 0.29151914, -0.50692564, 0.44593474, 0.67762583, 0.043539654, 0.14074756, -0.22281647, 0
1609, 2704136909, 0.29142794, -0.50702405, 0.44559824, 0.6778128, -0.120099545, 0.055736978, -0.20751095, 0
1611, 2704170243, 0.29104677, -0.5071903, 0.4452345, 0.67809117, -0.16680594, 0.16228504, -0.13844585, 0
1612, 2704186910, 0.29068333, -0.5072524, 0.44476375, 0.67850953, -0.060588997, 0.150117, -0.18282509, 0
1613, 2704203577, 0.2904999, -0.50708705, 0.44459686, 0.6788209, -0.33209398, 0.066230245, -0.1386013, 0
1615, 2704236911, 0.28993922, -0.50655645, 0.4447802, 0.67933637, -0.44220003, 0.03419659, -0.06739235, 0
1616, 2704253578, 0.28959206, -0.50622416, 0.44499105, 0.6795941, -0.32135507, 0.0859604, -0.062343597, 0
1617, 2704270245, 0.2894295, -0.5059, 0.44536072, 0.6796626, -0.17730992, 0.14998569, 0.05151272, 0
1619, 2704303579, 0.28930932, -0.50570226, 0.4450203, 0.68008363, 0.015158202, 0.102934755, 0.010957718, 0
1620, 2704320246, 0.28960866, -0.50568163, 0.4448521, 0.6800818, -0.07828273, 0.15558927, -0.039624214, 0
1623, 2704370247, 0.2900433, -0.50666475, 0.4430692, 0.6803286, -0.030251808, 0.16071387, -0.10882664, 0
1624, 2704386914, 0.2902611, -0.50694156, 0.4425454, 0.68037033, -0.20618266, 0.12845312, -0.13972378, 0
1626, 2704420248, 0.29033515, -0.50774676, 0.44127703, 0.6805622, -0.14918372, 0.1963378, -0.08666229, 0
1627, 2704436915, 0.29026905, -0.50840545, 0.44045407, 0.6806319, -0.048467666, 0.1152682, -0.051493645, 0
1628, 2704453582, 0.290317, -0.50899804, 0.43959776, 0.680722, -0.17006072, -0.07370999, -0.046887398, 0
1630, 2704486916, 0.29072082, -0.5095224, 0.4389524, 0.6805738, -0.5273567, 0.058580287, -0.15559387, 0
1631, 2704503583, 0.2906502, -0.5097722, 0.4389004, 0.68045044, -0.43927023, 0.13937932, -0.16905975, 0
1632, 2704520250, 0.29046857, -0.5099591, 0.4387625, 0.6804767, -0.2522212, 0.028634356, -0.17605114, 0
1634, 2704553584, 0.29069844, -0.50959635, 0.43922698, 0.68035096, -0.19446722, 0.07847786, -0.11593056, 0
1635, 2704570251, 0.2908392, -0.5095305, 0.43913716, 0.68039787, -0.04138834, 0.21770899, -0.1462555, 0
1638, 2704620252, 0.2916863, -0.5097447, 0.43765345, 0.6808307, -0.19464312, 0.07592948, -0.1729517, 0
1639, 2704636919, 0.29207057, -0.5098249, 0.43698424, 0.6810358, -0.110767655, 0.13204318, -0.16684914, 0
1640, 2704653586, 0.29239354, -0.509953, 0.43628615, 0.68124896, -0.15221255, 0.104816064, -0.12474632, 0
1642, 2704686920, 0.29305238, -0.5100961, 0.43517965, 0.6815663, -0.29342178, 0.10595039, -0.073031425, 0
1643, 2704703587, 0.29327673, -0.510237, 0.4345673, 0.68175495, -0.111383885, 0.094823025, -0.13399124, 0
1644, 2704720254, 0.29344687, -0.51035714, 0.43400967, 0.68194705, -0.14344414, 0.03837259, -0.056144714, 0
1646, 2704753588, 0.29398203, -0.5103676, 0.43334347, 0.6821325, -0.40891364, 0.08578784, 0.04284668, 0
1647, 2704770255, 0.29408753, -0.51056683, 0.4329843, 0.68216586, -0.19197863, 0.18501084, -0.015926361, 0
1649, 2704803589, 0.29435366, -0.5108247, 0.4326061, 0.682098, -0.27641624, -0.11166685, -0.09608364, 0
1650, 2704820256, 0.29460263, -0.5107614, 0.43277714, 0.68192923, -0.30617273, 0.050328746, -0.09131527, 0
1653, 2704870257, 0.2944375, -0.51083004, 0.43295553, 0.68183583, -0.21695441, -0.0072491956, -0.06256485, 0
1654, 2704886924, 0.2943651, -0.5108085, 0.4331637, 0.681751, -0.21421437, -0.021085989, -0.08003044, 0
1655, 2704903591, 0.29423907, -0.5107508, 0.4332474, 0.6817955, -0.026608324, 0.13070703, -0.08435345, 0
1657, 2704936925, 0.29395944, -0.51067454, 0.43326265, 0.68196374, -0.27304342, 0.013892448, -0.140481, 0
1658, 2704953592, 0.2937284, -0.5107076, 0.4334642, 0.68191034, -0.3021779, -0.07195038, -0.050294876, 0
1659, 2704970259, 0.29351398, -0.51063263, 0.4335588, 0.68199855, -0.10450885, 0.08868111, -0.058948517, 0
1661, 2705003593, 0.2932546, -0.5103466, 0.43392712, 0.68209016, -0.3842608, 0.08273835, -0.09790707, 0
1662, 2705020260, 0.29304728, -0.5102835, 0.43426025, 0.68201435, -0.401212, 0.032603275, -0.12804794, 0
1663, 2705036927, 0.29285836, -0.5102277, 0.43467835, 0.6818709, -0.18687606, 0.071488045, -0.11414623, 0
1665, 2705070261, 0.29273075, -0.50997496, 0.43531495, 0.6817086, -0.22897829, 0.053712174, -0.10995865, 0
1666, 2705086928, 0.29270005, -0.5099494, 0.43568695, 0.6815034, -0.26939815, -0.018325157, -0.123485565, 0
1667, 2705103595, 0.29260305, -0.5100128, 0.43601346, 0.68128866, -0.1425284, 0.034144174, -0.12034798, 0
1669, 2705136929, 0.29258794, -0.51007813, 0.43625215, 0.68109334, -0.061274737, 0.09768935, -0.14854431, 0
1670, 2705153596, 0.29258013, -0.5100849, 0.43632945, 0.68104213, -0.21084067, -0.009017854, -0.08104038, 0
1671, 2705170263, 0.29249, -0.5100819, 0.43646985, 0.6809932, -0.19260111, -0.020584984, -0.12174225, 0
1673, 2705203597, 0.29210657, -0.51000124, 0.4365471, 0.6811687, -0.011088701, 0.051121324, -0.07854462, 0
1674, 2705220264, 0.29198432, -0.5097199, 0.4366225, 0.68138325, -0.11392925, 0.072022244, -0.015437126, 0
