sep=,
DeviceTag:,Xsens_2,,,,,,,,,,,,,,,,,
FirmwareVersion:,2.4.0,,,,,,,,,,,,,,,,,
AppVersion:,2022.0.1,,,,,,,,,,,,,,,,,
SyncStatus:,Synced,,,,,,,,,,,,,,,,,
OutputRate:,60Hz,,,,,,,,,,,,,,,,,
FilterProfile:,General,,,,,,,,,,,,,,,,,
Measurement Mode:,Sensor fusion Mode - Extended (Quaternion),,,,,,,,,,,,,,,,,
StartTime:,2020-11-25 11:18:32.882 +0100,,,,,,,,,,,,,,,,,
© Xsens Technologies B. V. 2005-2020,,,,,,,,,,,,,,,,,,,

PacketCounter,SampleTimeFine,Quat_W,Quat_X,Quat_Y,Quat_Z,FreeAcc_X,FreeAcc_Y,FreeAcc_Z,Status
1, 2677336373, -0.063411176, 0.8150631, -0.3486686, 0.45833308, 0.16053835, 0.8328446, 0.35979939, 0
2, 2677353040, -0.06364992, 0.81584287, -0.34954488, 0.45624068, -0.11635917, 0.3213077, 0.00459671, 0
3, 2677369707, -0.063260034, 0.81699145, -0.35050032, 0.45349836, -0.21717559, 0.1197683, -0.014515877, 0
4, 2677386374, -0.06257787, 0.8179306, -0.35207602, 0.45067057, -0.08148176, -0.34059653, 0.14320755, 0
5, 2677403041, -0.061446846, 0.8185656, -0.3539787, 0.44817597, -0.03932811, -0.59547496, 0.16049671, 0
6, 2677419708, -0.060063407, 0.8191743, -0.35583746, 0.44577277, 0.13763134, -0.38671747, 0.063679695, 0
7, 2677436375, -0.058721334, 0.81972003, -0.35767716, 0.44347024, 0.28052643, -0.3343009, -0.12667465, 0
8, 2677453042, -0.05758533, 0.8203466, -0.35912484, 0.44128507, 0.0819223, -0.16562545, -0.07549286, 0
9, 2677469709, -0.056682512, 0.820884, -0.36024246, 0.43948805, -0.20895836, -0.39520347, 0.16053581, 0
10, 2677486376, -0.05532086, 0.8209529, -0.36151782, 0.43848434, -0.23864299, -1.0095944, -0.04023838, 0
11, 2677503043, -0.05374834, 0.8206927, -0.36246076, 0.4383888, -0.41781768, -1.389933, -0.17673874, 0
12, 2677519710, -0.050809026, 0.82011366, -0.36337882, 0.43906218, -0.70209306, -1.7345355, -0.34307957, 0
13, 2677536377, -0.045556992, 0.81930995, -0.36483938, 0.439927, -0.7805913, -1.2847053, -0.7909708, 0
14, 2677553044, -0.038327098, 0.8184021, -0.36736035, 0.4402082, -0.7007683, -0.71708214, -0.8055763, 0
15, 2677569711, -0.030326545, 0.8177508, -0.37013286, 0.43971992, -0.41655752, -0.054921605, -0.5402756, 0
16, 2677586378, -0.022847474, 0.81744444, -0.37196517, 0.43919528, -0.2298861, -0.11842197, -0.24657536, 0
17, 2677603045, -0.015686676, 0.81685185, -0.37289643, 0.43982166, -0.45255226, -0.50395334, -0.26416492, 0
18, 2677619712, -0.008775473, 0.8160731, -0.3731077, 0.4412781, -0.6828036, -0.6158075, -0.99067116, 0
19, 2677636379, -0.0024446994, 0.815591, -0.3728692, 0.44244984, -0.33221143, -0.23227243, -1.2598028, 0
20, 2677653046, 0.0016403794, 0.81556845, -0.37175894, 0.44342834, 0.6155422, -0.20454559, -0.69556713, 0
21, 2677669713, 0.0051760077, 0.815177, -0.37018576, 0.44543234, 0.61753, -0.7719773, -0.08574295, 0
22, 2677686380, 0.009213194, 0.81425095, -0.36827263, 0.44863528, 0.006170522, -0.843745, -0.4840355, 0
23, 2677703047, 0.012416184, 0.81335866, -0.36654833, 0.45157924, 0.5806005, -0.3546661, -0.69731426, 0
24, 2677719714, 0.014196202, 0.8123331, -0.36563694, 0.45410454, 1.4893346, 0.43035915, -0.1557064, 0
25, 2677736381, 0.014148265, 0.8112149, -0.36453533, 0.45698148, 1.244687, 0.8019888, 0.6423807, 0
26, 2677753048, 0.013363257, 0.8104185, -0.3625463, 0.45999068, 0.68766475, 0.6149592, 0.49080658, 0
27, 2677769715, 0.011412814, 0.8100654, -0.35960776, 0.46296212, 0.35839173, 0.100581944, 0.24094772, 0
28, 2677786382, 0.008595273, 0.8099234, -0.35611048, 0.4659651, 0.23895825, -0.113015525, -0.24330807, 0
29, 2677803049, 0.003978312, 0.80966616, -0.3518239, 0.4697156, 0.23090588, -0.14344558, -0.5249443, 0
30, 2677819716, -0.0031359494, 0.80968094, -0.34638023, 0.47372538, 0.87749463, -0.19370191, 0.092443466, 0
31, 2677836383, -0.011594415, 0.80971307, -0.3396081, 0.47841862, 1.2383709, -0.31532353, 0.3115635, 0
32, 2677853050, -0.020988554, 0.809276, -0.3317988, 0.4842821, 0.94314265, -0.506682, 0.03166771, 0
33, 2677869717, -0.031555012, 0.8078502, -0.3240051, 0.49131545, 1.0614439, -1.0676869, -0.036426544, 0
34, 2677886384, -0.04088603, 0.80507696, -0.31789246, 0.49911094, 1.1438067, -1.9734093, -0.5530157, 0
35, 2677903051, -0.047114894, 0.8015051, -0.31351727, 0.50701547, 0.5059808, -2.1076646, -1.4712086, 0
36, 2677919718, -0.05187267, 0.79765403, -0.30987856, 0.5148016, -0.022901697, -1.301771, -1.8384562, 0
37, 2677936385, -0.055843398, 0.7933934, -0.30749667, 0.5223429, 0.36530456, -0.9703625, -1.610961, 0
38, 2677953052, -0.058243662, 0.7881309, -0.3062112, 0.53073543, 0.35550305, -1.5424591, -0.8870592, 0
39, 2677969719, -0.05923894, 0.78196985, -0.30488244, 0.54041535, -0.7430033, -2.4412553, 0.052012444, 0
40, 2677986386, -0.057670638, 0.77554256, -0.30332884, 0.55062455, -2.0459998, -2.1722548, 0.27489948, 0
41, 2678003053, -0.055154473, 0.7694138, -0.302136, 0.56005543, -1.7160943, -0.9407465, 0.53258514, 0
42, 2678019720, -0.05296956, 0.76351166, -0.30090675, 0.56893486, -0.057757646, -4.901639E-4, 0.73897076, 0
43, 2678036387, -0.051825702, 0.75762033, -0.29799488, 0.5783706, 1.2316103, 0.47825223, 1.1138659, 0
44, 2678053054, -0.05115865, 0.7514404, -0.29295278, 0.5889709, 0.99152595, 0.43031117, 1.780796, 0
45, 2678069721, -0.050002605, 0.744923, -0.28804258, 0.5996738, -0.188579, 0.30533132, 3.3045826, 0
46, 2678086388, -0.04861191, 0.7388251, -0.28455278, 0.60892683, -0.47032717, 1.2075602, 3.0031195, 0
47, 2678103055, -0.04689315, 0.73366064, -0.28352582, 0.6157468, -0.15905719, 2.51129, 2.0041199, 0
48, 2678119722, -0.043589145, 0.7289432, -0.28519183, 0.6208022, -0.058884487, 2.8573308, 1.1165676, 0
49, 2678136389, -0.038064197, 0.72438717, -0.2889813, 0.62473357, -0.26571947, 2.520304, 0.2275505, 0
50, 2678153056, -0.031951994, 0.72010404, -0.29320085, 0.6280529, -0.35231465, 1.9047542, -0.3370037, 0
51, 2678169723, -0.026195765, 0.7162895, -0.2967313, 0.6310163, -0.35445467, 1.1275901, -0.80782795, 0
52, 2678186390, -0.020887554, 0.71313155, -0.29985026, 0.63331264, -0.29754537, 0.6885961, -1.1925802, 0
53, 2678203057, -0.015569568, 0.71065533, -0.30308664, 0.6347071, -0.40539393, 0.6925855, -1.0489817, 0
54, 2678219724, -0.00992921, 0.7088605, -0.30630565, 0.6352816, -0.688931, 0.77447754, -0.65057564, 0
55, 2678236391, -0.0043742657, 0.7077887, -0.30904102, 0.63521457, -0.6744794, 0.7315648, -0.2177372, 0
56, 2678253058, 8.5633993E-4, 0.7073531, -0.31126446, 0.6346283, 0.13031845, 0.6589191, 0.2963457, 0
57, 2678269725, 0.0067655146, 0.70682585, -0.31442982, 0.63361907, 0.14723134, 0.4978181, 0.42418098, 0
58, 2678286392, 0.015087426, 0.70664626, -0.3189345, 0.6314207, -1.0161395, 0.6396204, 0.020084381, 0
59, 2678303059, 0.025847316, 0.70689297, -0.32495815, 0.6277137, -1.9799421, 1.304304, 0.08385658, 0
60, 2678319726, 0.038417578, 0.70708984, -0.33264837, 0.6228008, -1.8319341, 1.735324, 0.30886555, 0
61, 2678336393, 0.051326722, 0.7070788, -0.34114563, 0.61726224, -0.37908155, 1.8005816, 0.35249233, 0
62, 2678353060, 0.06327537, 0.7075113, -0.34885406, 0.6113205, 0.44599018, 1.9586828, 0.5633888, 0
63, 2678369727, 0.07357381, 0.70883465, -0.35391933, 0.6056975, 1.0030812, 1.7973284, 0.8274746, 0
64, 2678386394, 0.0818381, 0.7110503, -0.35554352, 0.60107136, 0.7245072, 1.1429048, 0.3518219, 0
65, 2678403061, 0.087698445, 0.71430254, -0.3543086, 0.5971048, 0.15094568, 0.6230826, -0.020981789, 0
66, 2678419728, 0.09151903, 0.7181874, -0.35097915, 0.59382886, -0.107205085, 0.11140858, -0.18482876, 0
67, 2678436395, 0.093836516, 0.7225077, -0.34591278, 0.59119326, -0.15333794, -0.5223261, -0.19766045, 0
68, 2678453062, 0.09474482, 0.7270321, -0.3392882, 0.5893377, 0.0016206924, -1.1313614, -0.2515669, 0
69, 2678469729, 0.0946403, 0.7314278, -0.331667, 0.588253, -0.015410325, -1.5216386, -0.250782, 0
70, 2678486396, 0.09451765, 0.7352061, -0.32380235, 0.58794415, -0.21734266, -1.8511709, -0.08603573, 0
71, 2678503063, 0.0952574, 0.7380096, -0.31661102, 0.58822894, -0.3656965, -1.9794996, -0.02857685, 0
72, 2678519730, 0.09752771, 0.7397984, -0.31059247, 0.5888182, -0.5367979, -1.9209218, 0.048362732, 0
73, 2678536397, 0.10086636, 0.7407255, -0.30499136, 0.59001666, -0.093383715, -2.151573, 0.15666676, 0
74, 2678553064, 0.102439314, 0.74081457, -0.30045485, 0.5919585, 2.5916302, -1.8091363, 0.31597614, 0
75, 2678569731, 0.10050318, 0.740267, -0.2969567, 0.59473413, 4.1997027, -0.662224, 0.50854397, 0
76, 2678586398, 0.096658394, 0.7390609, -0.2939862, 0.5983361, 2.826848, 0.21970351, 1.0738344, 0
77, 2678603065, 0.09353645, 0.7369888, -0.29299992, 0.6018615, 0.6438349, 1.0153769, 0.9707155, 0
78, 2678619732, 0.093142524, 0.7341825, -0.29578638, 0.6039859, -0.22348769, 1.3037081, 0.6218128, 0
79, 2678636399, 0.094757274, 0.7311181, -0.30141762, 0.60466737, -0.07496468, 1.1519216, 0.38879967, 0
80, 2678653066, 0.09692602, 0.72822785, -0.3077671, 0.60461295, -0.04576316, 0.89252454, 0.405859, 0
81, 2678669733, 0.09921335, 0.72554207, -0.31374398, 0.6043989, -0.41972247, 0.45133322, 0.39529705, 0
82, 2678686400, 0.101538, 0.7231215, -0.3189714, 0.60417753, -0.80621725, 0.04661698, 0.288105, 0
83, 2678703067, 0.1035372, 0.7210123, -0.32315964, 0.60413337, -0.8321604, -0.26354054, 0.035248756, 0
84, 2678719734, 0.10498801, 0.71935916, -0.32597542, 0.6043409, -0.7318261, -0.43854785, -0.18204308, 0
85, 2678736401, 0.1057203, 0.7181772, -0.32703918, 0.60504377, -0.6776104, -0.57271117, -0.21922112, 0
86, 2678753068, 0.10563508, 0.71735805, -0.3262433, 0.60645854, -0.71978277, -0.6416229, -0.32551193, 0
87, 2678769735, 0.104917586, 0.7167502, -0.32393703, 0.6085345, -0.73304427, -0.6990658, -0.39228344, 0
88, 2678786402, 0.10402489, 0.7162231, -0.32064652, 0.61104584, -0.7117562, -0.6070537, -0.30076027, 0
89, 2678803069, 0.10328668, 0.715703, -0.317033, 0.6136605, -0.6075652, -0.46525016, -0.07920647, 0
90, 2678819736, 0.10284871, 0.7151481, -0.31379643, 0.6160399, -0.32925045, -0.26865387, 0.14601326, 0
91, 2678836403, 0.102618635, 0.7145125, -0.31129754, 0.61808014, 0.14783527, 0.026746118, 0.2717743, 0
92, 2678853070, 0.10246119, 0.71384394, -0.3094989, 0.61977965, 0.4897008, 0.3049166, 0.21238327, 0
93, 2678869737, 0.10231495, 0.71320856, -0.3085186, 0.6210229, 0.5430674, 0.63398755, 0.19954014, 0
94, 2678886404, 0.10227625, 0.7126217, -0.3084618, 0.6217306, 0.44603062, 0.8414315, 0.19548225, 0
95, 2678903071, 0.10241024, 0.71217394, -0.30927354, 0.6218184, 0.35604328, 0.92005414, 0.14815617, 0
96, 2678919738, 0.10263364, 0.7119411, -0.31064567, 0.6213641, 0.2381468, 0.8347294, 0.23122692, 0
97, 2678936405, 0.10261923, 0.71203667, -0.31200725, 0.6205743, 0.12618111, 0.6148301, 0.26316547, 0
98, 2678953072, 0.102158055, 0.7125402, -0.31296185, 0.619591, -0.0030426818, 0.38978624, 0.27785873, 0
99, 2678969739, 0.10124113, 0.7134113, -0.31334493, 0.6185446, -0.19213577, 0.1688019, 0.3077221, 0
100, 2678986406, 0.0999587, 0.7145797, -0.31310672, 0.6175242, -0.25712326, 0.021997474, 0.3163929, 0
101, 2679003073, 0.09860638, 0.7158272, -0.31230545, 0.6167021, -0.39705625, -0.09135421, 0.25559902, 0
102, 2679019740, 0.097528875, 0.717136, -0.31121978, 0.61590123, -0.4934491, -0.10466106, 0.07246685, 0
103, 2679036407, 0.0967845, 0.71846735, -0.31005895, 0.61505175, -0.3300911, -0.16789153, -0.052170753, 0
104, 2679053074, 0.09604536, 0.71991825, -0.3087684, 0.61411977, -0.12405439, -0.31654206, -0.052088737, 0
105, 2679069741, 0.09537482, 0.7215332, -0.30740613, 0.6130113, -0.013288963, -0.5115568, -0.023888588, 0
106, 2679086408, 0.0947603, 0.72316796, -0.3061398, 0.61181283, 0.02476926, -0.7293712, 0.4343958, 0
107, 2679103075, 0.0947597, 0.72368443, -0.30546862, 0.6115376, -0.388244, -1.0939784, 0.3925085, 0
108, 2679119742, 0.09671222, 0.7231833, -0.3059569, 0.6115807, -0.37890497, -1.2920877, 0.33420753, 0
109, 2679136409, 0.09907214, 0.7224496, -0.3069207, 0.61158717, -0.09901177, -1.0949626, -0.13295174, 0
110, 2679153076, 0.10138354, 0.7218662, -0.30824697, 0.61123013, 0.31171945, -0.29623336, -0.17192364, 0
111, 2679169743, 0.10339266, 0.72135365, -0.30951068, 0.6108601, 0.38965315, 0.61905926, -0.0134391785, 0
112, 2679186410, 0.10475786, 0.72082484, -0.31037492, 0.6108131, 0.54881126, 0.878247, 0.017867088, 0
113, 2679203077, 0.105490625, 0.7205037, -0.31070775, 0.61089677, 0.5297673, 0.7338234, 0.14286995, 0
114, 2679219744, 0.105579734, 0.720513, -0.31043616, 0.6110084, 0.2936082, 0.38038853, 0.268919, 0
115, 2679236411, 0.10465483, 0.7209593, -0.30955178, 0.6110898, 0.2861643, 0.18638454, 0.09551144, 0
116, 2679253078, 0.102995664, 0.7218209, -0.30832636, 0.6109741, 0.35629395, 0.12720335, 0.046632767, 0
117, 2679269745, 0.10095063, 0.72287214, -0.30677953, 0.610851, 0.21310507, 0.11138847, 0.0538826, 0
118, 2679286412, 0.09898925, 0.7239266, -0.30528027, 0.61067444, 0.04088432, 0.14863443, 0.023177147, 0
119, 2679303079, 0.097313344, 0.7249441, -0.30398148, 0.61038464, 0.016233075, 0.052053485, 0.027942657, 0
120, 2679319746, 0.095705196, 0.7259629, -0.30276895, 0.6100305, 0.16438104, -0.06694213, 5.6266785E-4, 0
121, 2679336413, 0.093807995, 0.72700125, -0.3013918, 0.6097706, 0.32859847, -0.20016949, 0.106022835, 0
122, 2679353080, 0.09166996, 0.7279637, -0.29975337, 0.60975516, 0.35379598, -0.30049115, 0.14885235, 0
123, 2679369747, 0.08942181, 0.7287732, -0.2980258, 0.60996884, 0.3335171, -0.36747798, 0.059365273, 0
124, 2679386414, 0.087144464, 0.72941756, -0.29643822, 0.6103017, 0.2913668, -0.43394592, 0.047914505, 0
125, 2679403081, 0.084872186, 0.7298975, -0.29504552, 0.6107228, 0.31347513, -0.4515087, 0.02198124, 0
126, 2679419748, 0.08263241, 0.7302959, -0.29379776, 0.61115515, 0.29846177, -0.4348791, -0.010456085, 0
127, 2679436415, 0.080477774, 0.73057413, -0.29273626, 0.6116192, 0.24604909, -0.45164227, 0.07076931, 0
128, 2679453082, 0.07864778, 0.7306726, -0.29176205, 0.6122049, -0.039817046, -0.47116643, 0.13716602, 0
129, 2679469749, 0.07746211, 0.7306531, -0.29105014, 0.612718, -0.30556545, -0.36165872, 0.19256496, 0
130, 2679486416, 0.077148974, 0.73047173, -0.29089612, 0.61304677, -0.36110038, -0.28083318, 0.2971077, 0
131, 2679503083, 0.07756245, 0.7300137, -0.29149792, 0.61325437, -0.18068318, -0.2227424, 0.46518612, 0
132, 2679519750, 0.07869606, 0.72935236, -0.29249382, 0.6134228, -0.16313025, -0.17568263, 0.41716003, 0
133, 2679536417, 0.08072397, 0.7287432, -0.29375505, 0.61328036, -0.32379586, 0.12658119, 0.26653957, 0
134, 2679553084, 0.08325443, 0.7281386, -0.29539245, 0.61287355, -0.18821423, 0.3190045, 0.05391693, 0
135, 2679569751, 0.0854688, 0.7276335, -0.2971319, 0.6123276, 0.266984, 0.3875632, -0.060203552, 0
136, 2679586418, 0.08690722, 0.72741306, -0.2982947, 0.6118217, 0.45741436, 0.2676144, 0.034768105, 0
137, 2679603085, 0.08738522, 0.7275227, -0.29844683, 0.6115488, 0.4960528, 0.10559814, 0.052764893, 0
138, 2679619752, 0.08691713, 0.7279062, -0.29782793, 0.6114607, 0.27269542, 0.04335302, 0.005217552, 0
139, 2679636419, 0.08619669, 0.7284231, -0.29707813, 0.6113119, -0.11219255, 0.050821707, 0.011802673, 0
140, 2679653086, 0.085887745, 0.72885144, -0.29680055, 0.6109797, -0.29033685, -0.037474517, 0.006978035, 0
141, 2679669753, 0.08592306, 0.72913307, -0.29711464, 0.6104859, -0.19795962, -0.13560441, 0.038837433, 0
142, 2679686420, 0.08607802, 0.7293942, -0.29774702, 0.60984373, -0.07301073, -0.19109295, 0.10188484, 0
143, 2679703087, 0.08605906, 0.72976166, -0.29824057, 0.6091652, 0.08482199, -0.25215304, 0.27307034, 0
144, 2679719754, 0.08576438, 0.7302476, -0.29822695, 0.6086307, 0.24740896, -0.14717914, 0.39121532, 0
145, 2679736421, 0.084875345, 0.7307487, -0.2975233, 0.60849845, 0.14258741, -0.15307966, 0.24263, 0
146, 2679753088, 0.08307253, 0.73156106, -0.2960229, 0.60850286, 0.3867657, -0.097794294, -0.14043427, 0
147, 2679769755, 0.080626816, 0.7331769, -0.2934612, 0.60812795, 0.3738661, 0.4244302, -0.33471584, 0
148, 2679786422, 0.07666947, 0.7355373, -0.28931296, 0.60777664, 0.21427494, 0.7380293, -0.20396805, 0
149, 2679803089, 0.071203396, 0.73823917, -0.28388074, 0.6077273, 0.2501709, 0.74828994, -0.06505203, 0
150, 2679819756, 0.06458348, 0.7410721, -0.2775122, 0.6079606, 0.31721944, 0.5528649, 0.22819996, 0
151, 2679836423, 0.056981295, 0.7437942, -0.27076933, 0.60843664, 0.4834393, 0.2902395, 0.6331873, 0
152, 2679853090, 0.04828459, 0.74623966, -0.26379544, 0.6092576, 0.7938425, 0.16163026, 0.9275751, 0
153, 2679869757, 0.038745522, 0.748114, -0.2567424, 0.61065173, 0.9240904, -0.1266183, 0.76055336, 0
154, 2679886424, 0.028954625, 0.74921954, -0.24996418, 0.61264795, 0.8507802, -0.3311884, 0.40397453, 0
155, 2679903091, 0.01947242, 0.7496697, -0.24369997, 0.6149915, 0.38736606, -0.46230102, 0.111992836, 0
156, 2679919758, 0.010545075, 0.74968076, -0.23785535, 0.61747885, -0.15220942, -0.43771672, -0.08855152, 0
157, 2679936425, 0.0021907985, 0.74936855, -0.23252764, 0.61996835, -0.3693963, -0.39743778, -0.19484806, 0
158, 2679953092, -0.0056619346, 0.74865806, -0.22783747, 0.62254083, -0.30150333, -0.50535965, -0.16077232, 0
159, 2679969759, -0.012934744, 0.7474334, -0.22350544, 0.6254674, -0.24974465, -0.8988968, -0.03832054, 0
160, 2679986426, -0.019405127, 0.74572897, -0.21927047, 0.6288245, -0.2537158, -1.017099, 0.0119075775, 0
161, 2680003093, -0.025286466, 0.7439276, -0.21467394, 0.63232523, -0.33036467, -0.8225297, 0.13603783, 0
162, 2680019760, -0.03142941, 0.74225926, -0.20890287, 0.635933, -0.11248759, -0.50556237, 0.21733284, 0
163, 2680036427, -0.0383237, 0.74048114, -0.20199472, 0.63984764, 0.18402503, -0.32006797, 0.23289299, 0
164, 2680053094, -0.045331016, 0.7385298, -0.19405931, 0.6440867, 0.007383415, -0.33851606, 0.13635063, 0
165, 2680069761, -0.05203283, 0.7367257, -0.18470865, 0.6483814, -0.26695383, -0.2692427, -0.07600021, 0
166, 2680086428, -0.0588966, 0.7348306, -0.17541438, 0.6525128, -0.20559448, -0.12622547, -0.008780479, 0
167, 2680103095, -0.06505424, 0.73270047, -0.16768625, 0.6563437, -0.008190073, -0.32071483, 0.1070776, 0
168, 2680119762, -0.068945825, 0.73066294, -0.16155663, 0.6597466, -0.37023714, -0.34369186, -0.054462433, 0
169, 2680136429, -0.070534885, 0.72895527, -0.15698099, 0.6625663, -0.81239194, -0.10855521, -0.026363373, 0
170, 2680153096, -0.070650816, 0.72757614, -0.15419558, 0.6647203, -0.6893598, 0.20002343, 0.023598671, 0
171, 2680169763, -0.06971201, 0.72666, -0.15277877, 0.6661472, -0.3989191, 0.5049399, -0.07243061, 0
172, 2680186430, -0.06807001, 0.72636795, -0.15188044, 0.66684055, -0.22166227, 0.5777116, -0.077542305, 0
173, 2680203097, -0.06621593, 0.72649765, -0.1505256, 0.6671931, -0.21086927, 0.5304247, 0.0144405365, 0
174, 2680219764, -0.064502925, 0.7269403, -0.1487655, 0.6672735, -0.10238626, 0.45511472, -0.022426605, 0
175, 2680236431, -0.06306878, 0.727634, -0.14689848, 0.66706795, 0.21305971, 0.37744924, -0.15672398, 0
176, 2680253098, -0.061814025, 0.7286715, -0.14496017, 0.6664767, 0.3020954, 0.3028221, -0.27838135, 0
177, 2680269765, -0.060669973, 0.73001075, -0.14283031, 0.6655756, 0.103701964, 0.25970092, -0.30797386, 0
178, 2680286432, -0.0596388, 0.7313523, -0.14099798, 0.664586, 0.17946403, 0.11321401, -0.17141533, 0
179, 2680303099, -0.058327645, 0.7326548, -0.1399276, 0.66349304, 0.23570772, 0.020999936, 0.107209206, 0
180, 2680319766, -0.05646798, 0.73398924, -0.13975468, 0.66221416, 0.08511899, 0.014514708, 0.28673744, 0
181, 2680336433, -0.053827524, 0.7352865, -0.14045814, 0.66084486, 0.019814089, -0.030506277, 0.26972485, 0
182, 2680353100, -0.050543785, 0.7365191, -0.14183033, 0.6594369, 0.10660439, -0.090867184, 0.25731087, 0
183, 2680369767, -0.04716426, 0.73772395, -0.14306808, 0.65807164, 0.28846225, -0.018307723, 0.122359276, 0
184, 2680386434, -0.044498593, 0.73882246, -0.1437701, 0.656871, 0.55528563, 0.030653348, 0.07766819, 0
185, 2680403101, -0.042770714, 0.7397039, -0.14367509, 0.65601385, 0.60943836, -0.1744569, 0.27003574, 0
186, 2680419768, -0.04177934, 0.7403047, -0.14291766, 0.6555653, 0.6017379, -0.38040966, 0.2851076, 0
187, 2680436435, -0.04117644, 0.74064064, -0.14209908, 0.6554019, 0.55913585, -0.36725783, 0.3213892, 0
188, 2680453102, -0.040376365, 0.74058187, -0.14164296, 0.6556169, 0.45277947, -0.284132, 0.21953487, 0
189, 2680469769, -0.039393336, 0.74027073, -0.14156115, 0.65604544, 0.36873826, -0.0654408, 0.07551384, 0
190, 2680486436, -0.03858733, 0.7398474, -0.14178964, 0.65652156, 0.4552236, 0.27352655, 0.05753994, 0
191, 2680503103, -0.03821668, 0.7393343, -0.14209706, 0.6570544, 0.56464165, 0.42035556, 0.117549896, 0
192, 2680519770, -0.038377434, 0.73872405, -0.14218843, 0.6577115, 0.45989263, 0.3620196, 0.26206875, 0
193, 2680536437, -0.03909275, 0.7381403, -0.14210483, 0.6583423, 0.26074597, 0.21726309, 0.27403355, 0
194, 2680553104, -0.040113747, 0.73786306, -0.14214376, 0.65858334, 0.26520437, 0.22319344, 0.3626175, 0
195, 2680569771, -0.04086688, 0.7379578, -0.1426458, 0.6583224, -0.12204713, 0.47695285, 0.7233391, 0
196, 2680586438, -0.040064007, 0.73828447, -0.14370593, 0.6577745, -0.7650319, 0.54374355, 0.762537, 0
197, 2680603105, -0.03754881, 0.7388077, -0.14504749, 0.6570406, -0.76171273, 0.3801915, 0.41209412, 0
198, 2680619772, -0.03445849, 0.7396043, -0.14615035, 0.6560687, -0.3759679, 0.2671893, 0.1599245, 0
199, 2680636439, -0.03159374, 0.74071336, -0.1464127, 0.6549021, -0.030909942, 0.15534464, -0.08751488, 0
200, 2680653106, -0.029165536, 0.74198604, -0.14593744, 0.6536791, 0.050494257, -0.2518344, -0.022461891, 0
201, 2680669773, -0.026543856, 0.7432419, -0.14540046, 0.65248257, -0.013512922, -0.469741, -0.11666393, 0
202, 2680686440, -0.023286402, 0.7445904, -0.14520541, 0.65111136, -0.22766504, -0.41607597, -0.14292145, 0
203, 2680703107, -0.019222945, 0.7459983, -0.14570203, 0.6495197, -0.062170353, -0.06073339, -0.2933321, 0
204, 2680719774, -0.01482752, 0.7474301, -0.14643955, 0.6478208, 0.024381911, 0.33778462, -0.44001198, 0
205, 2680736441, -0.010599732, 0.74876666, -0.147421, 0.64613545, 0.3650085, 0.55655307, -0.34687328, 0
206, 2680753108, -0.0068975687, 0.74973434, -0.14895543, 0.64471, 0.8135, 0.44119936, -0.12357235, 0
207, 2680769775, -0.0037204623, 0.75029266, -0.15121374, 0.6435598, 0.81342834, 0.39206776, 0.10024452, 0
208, 2680786442, -0.0013642013, 0.750663, -0.15291539, 0.6427349, 0.6203053, 0.2954437, 0.26661587, 0
209, 2680803109, -4.2420626E-4, 0.75090396, -0.15377367, 0.64224976, 0.804912, 0.0592848, 0.43163395, 0
210, 2680819776, -5.7020783E-4, 0.75104725, -0.15398815, 0.6420305, 0.7405201, -0.23340139, 0.4799366, 0
211, 2680836443, -0.0010744333, 0.7510451, -0.15399164, 0.64203143, 0.31469697, -0.34728783, 0.44852448, 0
212, 2680853110, -0.0013583302, 0.7508732, -0.15434763, 0.6421465, 0.073690884, -0.4819069, 0.33245945, 0
213, 2680869777, -9.1457367E-4, 0.75061965, -0.15532231, 0.6422087, 0.024253614, -0.3823617, 0.15507793, 0
214, 2680886444, 5.4836273E-5, 0.7503518, -0.15678093, 0.6421682, 0.05511863, -0.22341886, 0.08878136, 0
215, 2680903111, 0.0013267994, 0.7500171, -0.15840322, 0.64215946, -0.0057540056, -0.32260218, 0.06766796, 0
216, 2680919778, 0.0030539632, 0.7496107, -0.16012537, 0.64220095, -0.10061413, -0.5057064, 0.058834076, 0
217, 2680936445, 0.005311787, 0.7491714, -0.16208279, 0.642208, 0.058275975, -0.34915072, -0.041028023, 0
218, 2680953112, 0.0075621605, 0.74882597, -0.16403839, 0.64209175, 0.22764347, 0.025164764, -0.04608822, 0
219, 2680969779, 0.009265453, 0.748568, -0.16582286, 0.64191204, 0.43307143, 0.14539105, 0.065011024, 0
220, 2680986446, 0.010466605, 0.7483321, -0.16736066, 0.6417692, 0.42580605, 0.16178147, 0.12473297, 0
221, 2681003113, 0.011265218, 0.7481636, -0.1686, 0.6416278, 0.3354488, 0.08542263, 0.10350132, 0
222, 2681019780, 0.011677563, 0.7479973, -0.16961369, 0.6415472, 0.24637777, -0.08014582, 0.053863525, 0
223, 2681036447, 0.011728674, 0.74779475, -0.1705158, 0.6415433, 0.06452294, -0.33674428, 0.11265278, 0
224, 2681053114, 0.011767477, 0.74747217, -0.17156184, 0.64163965, 0.063255064, -0.41466638, 0.20047283, 0
225, 2681069781, 0.012065858, 0.7470337, -0.17280146, 0.641812, 0.05655351, -0.3846426, 0.221344, 0
226, 2681086448, 0.012749195, 0.7465081, -0.17409244, 0.6420613, 0.03612908, -0.33113602, 0.16790295, 0
227, 2681103115, 0.01356411, 0.7460367, -0.17532301, 0.64225787, 0.06672275, -0.113119796, 0.05461216, 0
228, 2681119782, 0.014277697, 0.74563956, -0.17641193, 0.6424052, 0.16216859, 0.057022847, 0.09879875, 0
229, 2681136449, 0.014879227, 0.7452879, -0.17738247, 0.64253235, 0.20007974, 0.11146658, 0.07617569, 0
230, 2681153116, 0.015389681, 0.74497825, -0.17817599, 0.6426599, 0.09063126, 0.0712167, 0.1333561, 0
231, 2681169783, 0.01585421, 0.7446663, -0.17884919, 0.6428233, 0.025093017, -0.0074319174, 0.12801552, 0
232, 2681186450, 0.01630196, 0.7444148, -0.17940027, 0.6429497, 0.071820974, 0.0960538, 0.07157421, 0
233, 2681203117, 0.01654607, 0.7441835, -0.17981312, 0.64309573, 0.16600855, 0.14138904, 0.10996628, 0
234, 2681219784, 0.016607493, 0.7439065, -0.18007517, 0.6433413, 0.06890491, 0.090160206, 0.13439655, 0
235, 2681236451, 0.016522884, 0.74370944, -0.18005294, 0.6435775, 0.080920406, -0.055043083, 0.12779999, 0
236, 2681253118, 0.016297162, 0.7435988, -0.17979309, 0.6437837, 0.2423133, -0.1699389, 0.13467216, 0
237, 2681269785, 0.015953153, 0.74355876, -0.17949775, 0.64392096, 0.29717535, -0.063343234, 0.114310265, 0
238, 2681286452, 0.015475005, 0.7435739, -0.17924994, 0.6439843, 0.17268209, 0.05531711, 0.09612656, 0
239, 2681303119, 0.015051305, 0.743551, -0.17905468, 0.6440749, 0.09891711, -0.075678356, 0.07012272, 0
240, 2681319786, 0.014899313, 0.74346304, -0.17885223, 0.6442362, -0.008911685, -0.24931149, 0.006629944, 0
241, 2681336453, 0.014911532, 0.7433926, -0.17870778, 0.6443573, 0.059454545, -0.1838986, -0.005842209, 0
242, 2681353120, 0.014814854, 0.74337727, -0.17848676, 0.6444386, 0.24698919, -0.1023838, 0.03877449, 0
243, 2681369787, 0.0145094395, 0.7433265, -0.17814487, 0.6445988, 0.28621316, -0.16280359, 0.07958794, 0
244, 2681386454, 0.014312506, 0.7431789, -0.17781368, 0.6448648, 0.2305468, -0.1878708, 0.026452065, 0
245, 2681403121, 0.014262944, 0.74300385, -0.17760563, 0.6451249, 0.13296148, -0.09476435, 0.026572227, 0
246, 2681419788, 0.0142635405, 0.74285364, -0.17736799, 0.6453632, 0.11831971, -0.08345962, 0.05129528, 0
247, 2681436455, 0.014323652, 0.7427521, -0.1771296, 0.645544, 0.12174438, -0.050210733, 0.08032417, 0
248, 2681453122, 0.0143381655, 0.74267036, -0.17685792, 0.64571226, 0.18156438, -0.044268865, 0.095274925, 0
249, 2681469789, 0.014297694, 0.74255407, -0.17651537, 0.64594054, 0.19705193, -0.11384297, 0.1664381, 0
250, 2681486456, 0.014305323, 0.7423892, -0.17611948, 0.6462378, 0.17824812, -0.17649567, 0.13755035, 0
251, 2681503123, 0.014454365, 0.74221075, -0.17581618, 0.64652205, 0.1349893, -0.10139609, 0.121943474, 0
252, 2681519790, 0.014711082, 0.74200976, -0.17571136, 0.6467755, 0.08249036, 0.055271067, 0.15687656, 0
253, 2681536457, 0.014785111, 0.74184394, -0.17564514, 0.646982, 0.039398964, 0.13526177, 0.20515728, 0
254, 2681553124, 0.014663428, 0.74179506, -0.17540237, 0.64710677, 0.15617912, 0.08751862, 0.19735622, 0
255, 2681569791, 0.014417708, 0.7418257, -0.17488769, 0.6472163, 0.2262084, 0.0015512917, 0.19431114, 0
256, 2681586458, 0.014098525, 0.7418632, -0.17422852, 0.64735824, 0.21251087, -0.0636604, 0.16514587, 0
257, 2681603125, 0.013787746, 0.74188876, -0.1736066, 0.6475024, 0.16519816, -0.084183715, 0.12775135, 0
258, 2681619792, 0.0136449635, 0.7419108, -0.17315108, 0.6476022, 0.006463771, -0.12604879, 0.13717079, 0
259, 2681636459, 0.013669789, 0.7420113, -0.17276356, 0.6475902, 0.04317108, -0.020400139, 0.096961975, 0
260, 2681653126, 0.013629794, 0.74216187, -0.17235917, 0.6475261, 0.21996781, 0.073744744, 0.07638359, 0
261, 2681669793, 0.0132725835, 0.74230206, -0.17188367, 0.6474993, 0.27751356, 0.081690855, 0.043474197, 0
262, 2681686460, 0.012808889, 0.7424556, -0.17131865, 0.6474824, 0.13263996, -0.06019975, 0.048377037, 0
263, 2681703127, 0.012280941, 0.74275255, -0.17016768, 0.6474557, -0.08621342, -0.017616173, 0.17733955, 0
264, 2681719794, 0.011160791, 0.74330765, -0.16815424, 0.647365, 0.11837179, 0.053172838, 0.25993538, 0
265, 2681736461, 0.009183884, 0.7440449, -0.16557643, 0.64721346, 0.49902666, 0.10399074, 0.28234577, 0
266, 2681753128, 0.006829649, 0.7449028, -0.16288775, 0.64693785, 0.51533604, 0.019824259, 0.09356499, 0
267, 2681769795, 0.004542947, 0.7457895, -0.16068119, 0.6464881, 0.331793, -0.108942, 0.0978775, 0
268, 2681786462, 0.0020416677, 0.74649495, -0.1588929, 0.64612836, 0.26859564, 0.035968933, -0.12341499, 0
269, 2681803129, -8.094609E-4, 0.7472731, -0.15692964, 0.6457113, 0.35038495, 0.3223125, -0.4174595, 0
270, 2681819796, -0.0047350526, 0.748346, -0.1540645, 0.64514184, 0.62128866, 0.5096492, -0.41950512, 0
271, 2681836463, -0.010101229, 0.7494147, -0.1502755, 0.64473313, 0.728937, 0.32967523, -0.24109268, 0
272, 2681853130, -0.01651162, 0.7503747, -0.14608774, 0.64444673, 0.47697765, 0.0040341853, -0.012304306, 0
273, 2681869797, -0.023354352, 0.75134295, -0.14233646, 0.6439461, 0.28417486, -0.18002008, 0.35572243, 0
274, 2681886464, -0.029663742, 0.7522282, -0.13936308, 0.6433029, 0.103914976, -0.0944986, 0.7594757, 0
275, 2681903131, -0.035791904, 0.7529912, -0.13669375, 0.6426708, 0.342814, -0.021725459, 0.74970245, 0
276, 2681919798, -0.04219863, 0.75362194, -0.13422284, 0.6420633, 0.62238324, 2.4586425E-5, 0.72842026, 0
277, 2681936465, -0.048323438, 0.754122, -0.13201141, 0.6415026, 0.47860962, 0.1206124, 0.56289005, 0
278, 2681953132, -0.05397816, 0.75463295, -0.12986356, 0.64088905, 0.08835512, 0.030137258, 0.45959473, 0
279, 2681969799, -0.05895792, 0.7551122, -0.12829316, 0.64020175, -0.087010466, -0.20778535, 0.20009136, 0
280, 2681986466, -0.06282024, 0.755663, -0.12721926, 0.6393983, -0.2960362, -0.28166923, -0.055031776, 0
281, 2682003133, -0.06667374, 0.75643665, -0.12517008, 0.6384971, -0.2197072, -0.10261323, -0.15628815, 0
282, 2682019800, -0.07160187, 0.7570876, -0.12188065, 0.6378281, 0.0011429335, -0.1684188, 0.11593437, 0
283, 2682036467, -0.07692015, 0.7574794, -0.11773777, 0.6375215, 0.09091423, -0.3799888, 0.13888645, 0
284, 2682053134, -0.081509784, 0.75774544, -0.11361915, 0.63738257, -0.2284099, -0.3734724, -0.04428482, 0
285, 2682069801, -0.084432855, 0.75805056, -0.110405356, 0.63720405, -0.879825, -0.5177082, 0.08588982, 0
286, 2682086468, -0.085757956, 0.7584777, -0.10770485, 0.63698095, -0.95444024, -0.38870937, 0.10335827, 0
287, 2682103135, -0.086357504, 0.7590035, -0.10499799, 0.6367254, -0.7021752, -0.2811963, 0.2428627, 0
288, 2682119802, -0.08609116, 0.75949657, -0.10204393, 0.636654, -0.36249623, -0.3986091, 0.11588383, 0
289, 2682136469, -0.0847898, 0.75987345, -0.09865251, 0.6369134, -0.3940578, -0.61189646, 0.0093746185, 0
290, 2682153136, -0.08251108, 0.7601335, -0.09500474, 0.63745666, -0.556608, -0.82888097, 0.029870987, 0
291, 2682169803, -0.0796192, 0.76041555, -0.09154716, 0.6379937, -0.47690725, -0.65247715, -0.008387566, 0
292, 2682186470, -0.07622114, 0.7608606, -0.08851004, 0.63830674, -0.18737437, -0.36650726, 0.015152931, 0
293, 2682203137, -0.07207978, 0.76145166, -0.08605644, 0.6384185, 0.116433375, -0.023713384, 0.042258263, 0
294, 2682219804, -0.06685583, 0.7621262, -0.084664226, 0.638368, 0.29856402, 0.21310082, 0.10454273, 0
295, 2682236471, -0.061016753, 0.7628629, -0.08376166, 0.63819194, 0.39039063, 0.410699, 0.040611267, 0
296, 2682253138, -0.05576706, 0.7636411, -0.0828307, 0.63786304, 1.077796, 0.7661653, 0.23009205, 0
297, 2682269805, -0.051967174, 0.76435685, -0.081976086, 0.6374368, 1.6002992, 1.063816, 0.4651041, 0
298, 2682286472, -0.049482003, 0.764733, -0.08174017, 0.6372138, 1.4027412, 0.54282635, 0.5344925, 0
299, 2682303139, -0.047253296, 0.76470625, -0.08335084, 0.63720644, 1.3064139, 0.074369915, 0.49076366, 0
300, 2682319806, -0.044564426, 0.7642335, -0.08726111, 0.63744366, 0.97997355, -0.36543095, 0.37969017, 0
301, 2682336473, -0.04102549, 0.76355606, -0.09248564, 0.63775647, 0.41123423, -0.1834343, -4.1389465E-4, 0
302, 2682353140, -0.038333923, 0.7631344, -0.09725919, 0.63771856, 0.46225497, 0.4257344, -0.3304987, 0
303, 2682369807, -0.03765729, 0.7627778, -0.100792676, 0.63763666, 0.84439766, 0.26249698, -0.14275646, 0
304, 2682386474, -0.038092613, 0.7620956, -0.103423595, 0.63800514, 0.62981355, -0.47708717, 0.0066900253, 0
305, 2682403141, -0.038122058, 0.7613294, -0.10605621, 0.63848585, -0.046411123, -0.59424496, 0.13072395, 0
306, 2682419808, -0.037843794, 0.7608682, -0.10856885, 0.6386298, -0.1319256, -0.14106838, 0.12019634, 0
307, 2682436475, -0.037513703, 0.76053, -0.110496044, 0.6387217, -0.038057663, 0.06966116, 0.20247841, 0
308, 2682453142, -0.037346005, 0.7601448, -0.11160031, 0.638998, -0.07749898, 0.026550544, 0.032159805, 0
309, 2682469809, -0.03717771, 0.75995344, -0.11235073, 0.639104, -0.2755557, -0.024761995, -0.1557436, 0
310, 2682486476, -0.036502242, 0.76008195, -0.11314112, 0.63885057, -0.26639482, -0.06312878, -0.20883751, 0
311, 2682503143, -0.035010308, 0.760259, -0.11421579, 0.6385322, -0.0280397, -0.05987856, -0.19789124, 0
312, 2682519810, -0.033217102, 0.76034296, -0.11532113, 0.6383292, 0.17014924, 0.072502464, -0.2286129, 0
313, 2682536477, -0.031821072, 0.76044714, -0.11614114, 0.63812745, 0.39838222, 0.13983507, -0.19813251, 0
314, 2682553144, -0.030880392, 0.76054114, -0.11658162, 0.63798136, 0.42516947, 0.16903894, -0.038049698, 0
315, 2682569811, -0.030266076, 0.76049906, -0.11672267, 0.63803506, 0.287362, 0.08137481, 0.11882305, 0
316, 2682586478, -0.029760838, 0.7603675, -0.117037356, 0.638158, 0.28287578, -0.0038001672, 0.08510208, 0
317, 2682603145, -0.029110461, 0.76022243, -0.11769238, 0.6382403, 0.19699997, 0.031207439, 0.07616711, 0
318, 2682619812, -0.028620422, 0.76017034, -0.11850837, 0.63817364, 0.23199058, 0.1692525, 0.14270496, 0
319, 2682636479, -0.028339267, 0.7600888, -0.11955443, 0.6380882, 0.26610893, 0.11878127, 0.25003815, 0
320, 2682653146, -0.027897, 0.7598096, -0.120762885, 0.6382126, 0.1581761, -0.19508512, 0.43259525, 0
321, 2682669813, -0.026920944, 0.75953466, -0.12232548, 0.6382842, 0.2933868, -0.22658503, 0.33021545, 0
322, 2682686480, -0.02566585, 0.75954115, -0.12421483, 0.63796335, 0.3015252, 0.1903413, 0.2791214, 0
323, 2682703147, -0.024864644, 0.7597898, -0.1258761, 0.6373729, 0.31192598, 0.29320776, 0.22519398, 0
324, 2682719814, -0.024343342, 0.76011556, -0.12736663, 0.63670826, 0.4441425, 0.13079755, 0.14591408, 0
325, 2682736481, -0.023432314, 0.76021385, -0.12925234, 0.6362449, -0.063042276, -0.35769907, 0.14902687, 0
326, 2682753148, -0.021641135, 0.7603346, -0.13086537, 0.63583434, -0.55446726, -0.5178584, 0.115501404, 0
327, 2682769815, -0.019708663, 0.7606105, -0.13209769, 0.635312, -0.30642843, -0.17534748, 0.048280716, 0
328, 2682786482, -0.01799512, 0.76085556, -0.13327324, 0.6348237, 0.25220454, -0.0024570778, 0.062438965, 0
329, 2682803149, -0.016491205, 0.7609451, -0.1342434, 0.63455284, 0.4897826, 0.10117392, 0.003873825, 0
330, 2682819816, -0.015073121, 0.7607772, -0.13522613, 0.63458055, 0.37138042, 0.06432044, -0.061673164, 0
331, 2682836483, -0.013952643, 0.7605899, -0.13616061, 0.63463104, 0.205013, 0.100233376, -0.06829357, 0
332, 2682853150, -0.013251841, 0.76042736, -0.13709152, 0.63464034, 0.26151833, 0.10953878, 0.11113453, 0
333, 2682869817, -0.0126749575, 0.7601484, -0.1381205, 0.6347633, 0.26673767, 0.04441627, 0.17736244, 0
334, 2682886484, -0.011948228, 0.7597826, -0.1393458, 0.6349475, 0.06935361, -0.042721596, 0.123417854, 0
335, 2682903151, -0.011000216, 0.7593701, -0.1407299, 0.63515294, -0.03772586, -0.099242546, 0.17163754, 0
336, 2682919818, -0.010003209, 0.75910425, -0.14179409, 0.63525045, -0.02978679, 0.18308282, 0.13887596, 0
337, 2682936485, -0.009597927, 0.75910044, -0.14226028, 0.63515675, 0.09178358, 0.435188, 0.16930676, 0
338, 2682953152, -0.009660363, 0.75921047, -0.14210063, 0.6350602, 0.17132804, 0.25826326, 0.12987614, 0
339, 2682969819, -0.009684414, 0.7593506, -0.14163494, 0.6349962, 0.011664135, 0.024390293, 0.09394264, 0
340, 2682986486, -0.0094926655, 0.759488, -0.14133346, 0.63490206, -0.07090837, -0.16297838, 0.09520531, 0
341, 2683003153, -0.008861452, 0.75963575, -0.14146966, 0.6347041, 0.11465421, -0.21927537, 0.06914616, 0
342, 2683019820, -0.0077222288, 0.7596741, -0.14208034, 0.63453656, 0.205894, -0.058134377, 0.14709568, 0
343, 2683036487, -0.0064334273, 0.7595902, -0.14288229, 0.6344714, 0.14378265, 0.023404488, 0.11669445, 0
344, 2683053154, -0.005196035, 0.7594921, -0.1437602, 0.63440186, 0.12698966, 0.09449446, 0.059955597, 0
345, 2683069821, -0.0041571856, 0.7594637, -0.14469275, 0.6342314, 0.18915488, 0.07901596, 0.1514349, 0
346, 2683086488, -0.003272593, 0.75937915, -0.1456145, 0.63412696, 0.27131164, 0.0202144, 0.22638988, 0
347, 2683103155, -0.0023699403, 0.7591584, -0.14656982, 0.6341753, 0.19842978, -0.043332234, 0.24539566, 0
348, 2683119822, -0.0012986362, 0.7587924, -0.14771235, 0.6343512, 0.079250544, -0.079992495, 0.21092796, 0
349, 2683136489, -5.7071447E-5, 0.758417, -0.14904696, 0.6344892, -0.019652488, 0.06932545, 0.13982105, 0
350, 2683153156, 0.0011214912, 0.75807863, -0.15031686, 0.634593, 0.011849875, 0.13722076, 0.15178108, 0
351, 2683169823, 0.002111137, 0.75769913, -0.15129513, 0.6348113, 0.08725007, 0.078494176, 0.18451977, 0
352, 2683186490, 0.0029252768, 0.75733864, -0.15194345, 0.63508344, 0.08391, 0.014232858, 0.14904022, 0
353, 2683203157, 0.0035342574, 0.7570003, -0.15249753, 0.63535076, 0.09891901, -0.0044555073, 0.118234634, 0
354, 2683219824, 0.004083365, 0.7566871, -0.15303594, 0.63559103, 0.17172681, 0.03568386, 0.051691055, 0
355, 2683236491, 0.004665941, 0.7563624, -0.1536262, 0.6358311, 0.14725961, 0.16296676, 0.030154228, 0
356, 2683253158, 0.005266547, 0.75603807, -0.15436101, 0.636034, 0.1462889, 0.19830796, 0.044833183, 0
357, 2683269825, 0.0058135986, 0.755689, -0.15512842, 0.6362574, 0.13042976, -8.630953E-4, 0.06864166, 0
358, 2683286492, 0.0064537823, 0.7553444, -0.15593779, 0.63646257, 0.042158566, -0.08969162, 0.0879364, 0
359, 2683303159, 0.0071007013, 0.7551081, -0.15665463, 0.63655996, 0.063871734, -0.009101336, 0.041072845, 0
360, 2683319826, 0.007575214, 0.75496674, -0.15722227, 0.6365822, 0.14343207, -0.017308172, 0.022517204, 0
361, 2683336493, 0.007936776, 0.75483215, -0.15782669, 0.63658774, 0.09252196, 0.020375777, 0.062996864, 0
362, 2683353160, 0.008332998, 0.7546703, -0.15858468, 0.63658625, 0.06772912, -0.002907233, 0.112436295, 0
363, 2683369827, 0.00884378, 0.75452185, -0.15945774, 0.6365374, 0.09605894, -0.046794336, 0.10409832, 0
364, 2683386494, 0.009453177, 0.7544285, -0.16030872, 0.63642526, 0.08806187, -0.03823122, 0.06485653, 0
365, 2683403161, 0.010112077, 0.7543733, -0.16115001, 0.63626814, 0.0048262035, -0.003286758, 0.1451416, 0
366, 2683419828, 0.010803878, 0.75433457, -0.16206822, 0.6360695, -0.007270653, 0.05395871, 0.18812561, 0
367, 2683436495, 0.011451006, 0.7543272, -0.16290069, 0.63585436, 0.12445839, 0.10989797, 0.2529459, 0
368, 2683453162, 0.012000293, 0.7542585, -0.16365385, 0.63573205, 0.1882805, -0.007807531, 0.252141, 0
369, 2683469829, 0.012607574, 0.7541729, -0.16447276, 0.6356107, 0.19193716, -0.029369825, 0.16295433, 0
370, 2683486496, 0.013293296, 0.75412977, -0.16538179, 0.6354117, 0.14405723, 0.028648885, 0.11402607, 0
371, 2683503163, 0.0140784085, 0.7540442, -0.1664328, 0.63522214, 0.10782442, 0.020720894, 0.073654175, 0
372, 2683519830, 0.014982253, 0.75386214, -0.16765854, 0.63509524, 0.10230523, -0.05860208, 0.08709812, 0
373, 2683536497, 0.016010106, 0.75357455, -0.16910988, 0.63502675, 0.124129705, -0.11029839, 0.118392944, 0
374, 2683553164, 0.01714459, 0.75321984, -0.1706965, 0.6349933, 0.09654128, -0.131549, 0.13516712, 0
375, 2683569831, 0.018333107, 0.7528406, -0.17222115, 0.6349983, 0.04089952, -0.1438355, 0.14500141, 0
376, 2683586498, 0.019475013, 0.75247395, -0.17367691, 0.6350024, 0.09676558, -0.09501524, 0.113604546, 0
377, 2683603165, 0.02046886, 0.75218034, -0.17497635, 0.6349621, 0.12348431, 0.08222461, 0.12877655, 0
378, 2683619832, 0.021206915, 0.7519736, -0.17595944, 0.6349111, 0.047102563, 0.16144575, 0.18085957, 0
379, 2683636499, 0.021826923, 0.75180215, -0.17681468, 0.63485557, 0.034259282, 0.12332138, 0.15830135, 0
380, 2683653166, 0.022408426, 0.751707, -0.17762241, 0.63472253, 0.084568694, 0.09016892, 0.12367439, 0
381, 2683669833, 0.022831827, 0.7516829, -0.17826068, 0.634557, 0.16863729, 0.02635743, 0.18343163, 0
382, 2683686500, 0.023083985, 0.75169384, -0.17867905, 0.6344172, 0.18257354, 0.031263538, 0.25353718, 0
383, 2683703167, 0.02320379, 0.7517238, -0.17900062, 0.63428676, 0.119603686, 0.07381716, 0.21538353, 0
384, 2683719834, 0.023268402, 0.75175345, -0.1793085, 0.6341623, 0.004749203, 0.05626268, 0.21482086, 0
385, 2683736501, 0.02338311, 0.75176245, -0.17963591, 0.6340547, 0.036622934, -0.02817515, 0.12923717, 0
386, 2683753168, 0.02354464, 0.7518002, -0.17992777, 0.63392115, 0.17993508, 0.027740752, 0.044578552, 0
387, 2683769835, 0.02363056, 0.7518313, -0.18014255, 0.63382, 0.17871681, 0.026791533, 0.045545578, 0
388, 2683786502, 0.023685455, 0.75179785, -0.1803154, 0.63380855, 0.08866189, -0.07194178, 0.06988335, 0
389, 2683803169, 0.023864686, 0.75170314, -0.18057415, 0.63384044, 0.048803605, -0.10236368, 0.06305981, 0
390, 2683819836, 0.024113327, 0.75158364, -0.18084615, 0.63389516, 0.10797699, -0.08948196, 0.052232742, 0
391, 2683836503, 0.024361223, 0.75145376, -0.1811215, 0.6339611, 0.12013676, -0.029985158, 0.06722164, 0
392, 2683853170, 0.024559349, 0.75134426, -0.18143383, 0.6339941, 0.11321457, 0.0075683724, 0.07039261, 0
393, 2683869837, 0.024703711, 0.751269, -0.18180615, 0.63397086, 0.1566856, 0.09448988, 0.09919453, 0
394, 2683886504, 0.024781078, 0.7512085, -0.18217489, 0.6339339, 0.09740706, 0.045605697, 0.15101147, 0
395, 2683903171, 0.024698257, 0.75120145, -0.18244281, 0.6338683, 0.1214508, 0.010517403, 0.15493965, 0
396, 2683919838, 0.024402022, 0.7513022, -0.18243736, 0.633762, 0.19502757, -0.005326202, 0.15569401, 0
397, 2683936505, 0.023806542, 0.75144947, -0.18202296, 0.6337292, 0.22181337, -0.058529884, 0.18566036, 0
398, 2683953172, 0.022984117, 0.7515793, -0.18147257, 0.6337634, 0.14647698, -0.13031487, 0.19263554, 0
399, 2683969839, 0.022180647, 0.7516683, -0.18109751, 0.6337937, 0.05167396, -0.15479368, 0.22111893, 0
400, 2683986506, 0.02163595, 0.7517006, -0.18107745, 0.6337799, -0.002052296, -0.15987234, 0.21771622, 0
401, 2684003173, 0.021468848, 0.75165945, -0.18128973, 0.6337737, 3.6723178E-4, -0.13242294, 0.119529724, 0
402, 2684019840, 0.021494836, 0.7516311, -0.1815848, 0.63372207, 0.065655254, 0.022663543, 0.029304504, 0
403, 2684036507, 0.021424443, 0.7516501, -0.18179289, 0.6336422, 0.10700195, 0.14496511, 0.019033432, 0
404, 2684053174, 0.021187186, 0.7516896, -0.18178138, 0.63360655, 0.10820564, 0.07918796, 0.0691843, 0
405, 2684069841, 0.020902663, 0.7517314, -0.18165147, 0.6336038, 0.05075767, -0.0052946866, 0.0982008, 0
406, 2684086508, 0.02060914, 0.75183094, -0.18148619, 0.63354254, 0.0013062097, -0.047905307, 0.077168465, 0
407, 2684103175, 0.02036786, 0.75198734, -0.18135002, 0.63340366, 0.07792377, -0.051406194, 0.039564133, 0
408, 2684119842, 0.020189047, 0.7521328, -0.18119982, 0.63327974, 0.15174966, 0.035908364, 0.005238533, 0
409, 2684136509, 0.01995644, 0.75221634, -0.18097281, 0.63325286, 0.1618159, 0.022249822, -0.0144433975, 0
410, 2684153176, 0.019692093, 0.7522168, -0.18061393, 0.63336277, 0.11468763, -0.07953407, 0.059731483, 0
411, 2684169843, 0.019474804, 0.7521704, -0.18023089, 0.6335338, 0.08828292, -0.16400789, 0.07652569, 0
412, 2684186510, 0.019315273, 0.752132, -0.17987081, 0.63368666, 0.090788506, -0.11233582, 0.07936859, 0
413, 2684203177, 0.01908809, 0.75211567, -0.17954978, 0.6338037, 0.15985692, -0.04981154, 0.05962181, 0
414, 2684219844, 0.018816888, 0.75201976, -0.17935076, 0.63398206, 0.2498687, 0.040805083, 0.11041355, 0
415, 2684236511, 0.018503755, 0.75185764, -0.1792674, 0.63420707, 0.24510129, 0.03600503, 0.12360287, 0
416, 2684253178, 0.018235326, 0.75168216, -0.17917961, 0.6344478, 0.21129875, -0.004038432, 0.1072979, 0
417, 2684269845, 0.01799938, 0.75155264, -0.17909464, 0.63463205, 0.079078995, -0.11652267, 0.10275459, 0
418, 2684286512, 0.01778385, 0.75148267, -0.17901179, 0.63474417, 0.04839905, -0.19842687, 0.17068863, 0
419, 2684303179, 0.017796129, 0.7514039, -0.17902458, 0.63483334, 0.100746684, -0.16299844, 0.2073555, 0
420, 2684319846, 0.018060714, 0.75129145, -0.17922342, 0.63490295, 0.11919186, -0.057668578, 0.121931076, 0
421, 2684336513, 0.018340945, 0.7512022, -0.17950207, 0.63492185, 0.119344965, 0.079962544, 0.0523777, 0
422, 2684353180, 0.018445253, 0.75117177, -0.17968932, 0.6349019, 0.1784182, 0.05360489, 0.03400421, 0
423, 2684369847, 0.018499345, 0.75116366, -0.17975613, 0.6348909, 0.18866192, -0.012230853, 0.05069542, 0
424, 2684386514, 0.018527865, 0.7511425, -0.17974672, 0.63491786, 0.07231583, -0.080449015, 0.07947636, 0
425, 2684403181, 0.018497437, 0.75110066, -0.17964613, 0.63499665, 0.07923713, -0.1216096, 0.08437252, 0
426, 2684419848, 0.018396348, 0.7510499, -0.17955756, 0.63508475, 0.15186253, -0.11841683, 0.1098156, 0
427, 2684436515, 0.018337876, 0.75094026, -0.17951253, 0.6352287, 0.19518894, -0.12497615, 0.10333347, 0
428, 2684453182, 0.018366218, 0.7507801, -0.17954421, 0.6354083, 0.09143144, -0.124895014, 0.15680695, 0
429, 2684469849, 0.01847428, 0.75065583, -0.1797246, 0.635501, 0.08375735, -0.106242746, 0.17121315, 0
430, 2684486516, 0.018732756, 0.7505715, -0.18007684, 0.6354933, 0.17255692, -0.04684105, 0.1659298, 0
431, 2684503183, 0.019021004, 0.75050956, -0.18042448, 0.6354593, 0.20112199, 0.0061873975, 0.16061878, 0
432, 2684519850, 0.01923111, 0.75038517, -0.18077525, 0.6355002, 0.20959872, -0.0775296, 0.1277523, 0
433, 2684536517, 0.019460678, 0.750239, -0.1812506, 0.6355305, 0.11175447, -0.09503938, 0.12917042, 0
434, 2684553184, 0.019777507, 0.75008905, -0.18179184, 0.635543, 0.062229473, -0.1028316, 0.15765572, 0
435, 2684569851, 0.020144522, 0.74992776, -0.18235722, 0.6355597, 0.10406137, -0.0964797, 0.11971569, 0
436, 2684586518, 0.020537853, 0.7497616, -0.18295518, 0.6355715, 0.15067364, -0.05918475, 0.100494385, 0
437, 2684603185, 0.020868301, 0.7496282, -0.18350285, 0.6355601, 0.16877978, 0.025053455, 0.07012081, 0
438, 2684619852, 0.021113992, 0.7495055, -0.18396533, 0.63556314, 0.1516418, 0.04562715, 0.058757782, 0
439, 2684636519, 0.021297723, 0.7494013, -0.18436375, 0.6355642, 0.08164146, 0.023966176, 0.09542179, 0
440, 2684653186, 0.02147293, 0.74934983, -0.18470663, 0.6355195, 0.04038477, 0.0044086813, 0.11891365, 0
441, 2684669853, 0.021576911, 0.749347, -0.18493369, 0.63545346, 0.058129683, -0.0445791, 0.13881016, 0
442, 2684686520, 0.021569252, 0.7493758, -0.18502682, 0.6353924, 0.15229256, -0.06276568, 0.12507153, 0
443, 2684703187, 0.021514773, 0.7494049, -0.1850088, 0.6353651, 0.14983548, -0.07845383, 0.08924103, 0
444, 2684719854, 0.02143839, 0.74945796, -0.18497992, 0.6353135, 0.13716286, -0.019774862, 0.0527153, 0
445, 2684736521, 0.021380216, 0.7495117, -0.18495333, 0.63526, 0.082485, -0.053937253, 0.08314133, 0
446, 2684753188, 0.02136439, 0.7495448, -0.18499565, 0.6352092, 0.08513832, -0.055175066, 0.10213661, 0
447, 2684769855, 0.021342903, 0.74956983, -0.18510926, 0.6351473, 0.10820262, -0.034063373, 0.13859844, 0
448, 2684786522, 0.021331847, 0.7495737, -0.1852302, 0.63510776, 0.10767826, -0.03191765, 0.144104, 0
449, 2684803189, 0.021371782, 0.74959767, -0.18535835, 0.63504076, 0.16495882, -0.03313546, 0.1101408, 0
450, 2684819856, 0.021447003, 0.7495891, -0.18556133, 0.6349891, 0.14770988, -0.0043837596, 0.09854603, 0
451, 2684836523, 0.02151519, 0.74956423, -0.18581322, 0.63494253, 0.10896469, -0.020295758, 0.12374687, 0
452, 2684853190, 0.021585554, 0.74950814, -0.18607575, 0.63492954, 0.06716945, -0.024120506, 0.124640465, 0
453, 2684869857, 0.02154237, 0.7495219, -0.18622515, 0.63487077, 0.11414963, -0.059824023, 0.13851929, 0
454, 2684886524, 0.021374851, 0.74953645, -0.18620983, 0.63486385, 0.14541921, -0.08405462, 0.16930771, 0
455, 2684903191, 0.021250874, 0.7494637, -0.18620262, 0.6349559, 0.10918943, -0.07274855, 0.1255703, 0
456, 2684919858, 0.021311551, 0.749328, -0.18640804, 0.6350539, 0.09832302, -0.0332214, 0.058776855, 0
457, 2684936525, 0.021460533, 0.7492125, -0.1867342, 0.6350894, 0.031594228, 0.032465145, 0.02935505, 0
458, 2684953192, 0.02163431, 0.7491292, -0.18710372, 0.6350729, 0.046528246, 0.04512179, 0.08078861, 0
459, 2684969859, 0.021750808, 0.74909866, -0.18733725, 0.6350361, 0.118589714, -0.0074112425, 0.09855366, 0
460, 2684986526, 0.021802038, 0.7490657, -0.18744609, 0.635041, 0.11622294, -0.060643088, 0.113731384, 0
461, 2685003193, 0.021802872, 0.7490009, -0.18747726, 0.63510823, 0.1268693, -0.05797669, 0.11702347, 0
462, 2685019860, 0.021766752, 0.7489469, -0.18748122, 0.63517195, 0.1325767, 0.0036452727, 0.08534527, 0
463, 2685036527, 0.021752954, 0.74887353, -0.18750867, 0.6352508, 0.068863, -0.04435145, 0.11436081, 0
464, 2685053194, 0.021805972, 0.74877715, -0.18758428, 0.63534033, 0.01232294, -0.06561793, 0.10172081, 0
465, 2685069861, 0.021911979, 0.74870664, -0.18769196, 0.635388, 0.088309854, -0.061992995, 0.09689617, 0
466, 2685086528, 0.022043645, 0.7486328, -0.18784288, 0.6354258, 0.09730681, -0.015459386, 0.100209236, 0
467, 2685103195, 0.022170722, 0.74856377, -0.1879648, 0.6354666, 0.09688068, -0.017510004, 0.10113716, 0
468, 2685119862, 0.022290647, 0.74850017, -0.18810466, 0.63549596, 0.10025135, -0.050154395, 0.11895847, 0
469, 2685136529, 0.022405416, 0.7484604, -0.18827602, 0.63548803, 0.08488542, 0.01372269, 0.1288538, 0
470, 2685153196, 0.022425026, 0.748465, -0.18836358, 0.63545585, 0.08263967, 0.010111055, 0.18413544, 0
471, 2685169863, 0.022390753, 0.74845445, -0.1883927, 0.6354609, 0.06789575, -0.025439462, 0.16593552, 0
472, 2685186530, 0.022369593, 0.74842894, -0.18841085, 0.6354863, 0.057405055, -0.06597689, 0.15069199, 0
473, 2685203197, 0.022373378, 0.748374, -0.18844101, 0.6355421, 0.054061748, -0.08261598, 0.16180134, 0
474, 2685219864, 0.022415161, 0.74831104, -0.18851778, 0.6355918, 0.051517054, -0.014034155, 0.09971905, 0
475, 2685236531, 0.02242276, 0.74827576, -0.18858406, 0.6356134, 0.09275787, 0.04606423, 0.08625603, 0
476, 2685253198, 0.022368252, 0.7482524, -0.18861663, 0.6356333, 0.069405355, 0.105956204, 0.12500954, 0
477, 2685269865, 0.022198707, 0.7482506, -0.188575, 0.6356537, 0.07979826, 0.07623871, 0.10643101, 0
478, 2685286532, 0.022019148, 0.74823284, -0.18850699, 0.6357011, 0.08934204, -0.022389516, 0.0979929, 0
479, 2685303199, 0.021912247, 0.7482078, -0.18847176, 0.6357446, 0.030562378, -0.07524116, 0.084760666, 0
480, 2685319866, 0.021879226, 0.7481791, -0.18847838, 0.63577753, 1.6539958E-5, -0.0868825, 0.08406544, 0
481, 2685336533, 0.021953434, 0.7481721, -0.18854505, 0.6357634, 0.058032904, -0.032891832, 0.07394695, 0
482, 2685353200, 0.02205196, 0.7481749, -0.18864048, 0.6357285, 0.13670175, 0.016003974, 0.10290527, 0
483, 2685369867, 0.022147596, 0.7481369, -0.18874156, 0.63573974, 0.1306955, 0.009079543, 0.09716892, 0
484, 2685386534, 0.022153646, 0.7481082, -0.18877825, 0.6357624, 0.06048299, -0.0083132805, 0.11399174, 0
485, 2685403201, 0.02209866, 0.7481042, -0.18881574, 0.6357579, 0.08058972, -0.003076991, 0.12087631, 0
486, 2685419868, 0.022089034, 0.7480637, -0.18885145, 0.63579524, 0.07806883, -0.024142975, 0.13276768, 0
487, 2685436535, 0.022157192, 0.74796975, -0.18894026, 0.63587713, 0.06610485, -0.08571934, 0.09747791, 0
488, 2685453202, 0.02235347, 0.74784863, -0.18916956, 0.63594455, 0.011771422, -0.03542155, 0.07561302, 0
489, 2685469869, 0.022517502, 0.7477665, -0.18939781, 0.6359674, 0.08057519, -0.02086337, 0.06025505, 0
490, 2685486536, 0.022624314, 0.7477195, -0.18950891, 0.6359857, 0.12777218, -0.062240757, 0.15133, 0
491, 2685503203, 0.0226793, 0.7476493, -0.18957031, 0.63604796, 0.13727261, -0.03898591, 0.12231064, 0
492, 2685519870, 0.022826493, 0.7475581, -0.18973684, 0.6361003, 0.030151116, -0.018226812, 0.11739349, 0
493, 2685536537, 0.023173928, 0.7474214, -0.19018689, 0.63611406, -0.034310356, -0.03860214, 0.052147865, 0
494, 2685553204, 0.023704648, 0.74732935, -0.1907796, 0.6360251, 0.061783675, 0.012204813, 0.05629921, 0
495, 2685569871, 0.02421847, 0.74729645, -0.19127727, 0.635895, 0.11640912, 0.021818887, 0.100792885, 0
496, 2685586538, 0.024591982, 0.74724895, -0.19161454, 0.63583493, 0.08489447, -0.020043747, 0.13371086, 0
497, 2685603205, 0.024806231, 0.7471995, -0.19184536, 0.63581514, 0.09736772, -0.012680225, 0.13527489, 0
498, 2685619872, 0.024853587, 0.74719423, -0.19194937, 0.6357881, 0.079968244, 0.031181175, 0.19798946, 0
499, 2685636539, 0.02488026, 0.7471851, -0.19199961, 0.6357826, 0.069806114, 0.02529675, 0.16389942, 0
500, 2685653206, 0.024953663, 0.7471775, -0.19204009, 0.6357764, 0.08360178, -0.021940144, 0.099430084, 0
501, 2685669873, 0.025089711, 0.74715996, -0.1921395, 0.6357616, 0.03416958, 0.027801761, 0.07591438, 0
502, 2685686540, 0.025242418, 0.7471228, -0.19228709, 0.6357545, 0.03718887, 0.014230846, 0.08520031, 0
503, 2685703207, 0.02542165, 0.7470715, -0.19241786, 0.6357682, 0.06575785, 0.020054588, 0.1252842, 0
504, 2685719874, 0.025583535, 0.7469952, -0.19254884, 0.6358117, 0.06747096, -0.034799293, 0.11844444, 0
505, 2685736541, 0.02574724, 0.74690163, -0.19274077, 0.63585687, 0.119199686, -0.02385889, 0.14476585, 0
506, 2685753208, 0.025883973, 0.7468118, -0.19292268, 0.63590163, 0.14129382, -0.037816044, 0.112971306, 0
507, 2685769875, 0.026026845, 0.74669904, -0.1931062, 0.6359726, 0.02513962, -0.0049634404, 0.11792946, 0
508, 2685786542, 0.026212662, 0.74658185, -0.19332126, 0.63603723, 0.0062599275, 0.0021173381, 0.08459568, 0
509, 2685803209, 0.026404083, 0.7464886, -0.19352573, 0.6360764, 0.033925913, 0.010942076, 0.087667465, 0
510, 2685819876, 0.026572496, 0.7464129, -0.19370094, 0.63610494, 0.0610187, 0.058721434, 0.109609604, 0
511, 2685836543, 0.026658684, 0.74635375, -0.19379002, 0.63614357, 0.07742869, 0.061766576, 0.10419941, 0
512, 2685853210, 0.026685148, 0.7463302, -0.19378948, 0.63617027, 0.087637305, 0.026156716, 0.10517979, 0
513, 2685869877, 0.026733398, 0.74631095, -0.1938053, 0.6361862, 0.05285858, 0.0012311094, 0.097001076, 0
514, 2685886544, 0.026757568, 0.74629813, -0.19382542, 0.6361939, 0.060800888, 0.008495951, 0.12818813, 0
515, 2685903211, 0.026740283, 0.7463096, -0.1937607, 0.6362009, 0.08665463, 0.023968523, 0.15132046, 0
516, 2685919878, 0.026714772, 0.7463219, -0.1935851, 0.63624096, 0.09565606, 0.03813187, 0.14262581, 0
517, 2685936545, 0.026600063, 0.746343, -0.19332534, 0.63629997, 0.10702442, 0.027563483, 0.12041664, 0
518, 2685953212, 0.026441514, 0.7463616, -0.19309005, 0.63635623, 0.121126026, -0.013114958, 0.1285801, 0
519, 2685969879, 0.026326, 0.7463161, -0.19294432, 0.63645864, 0.09940225, -0.025602851, 0.14475918, 0
520, 2685986546, 0.02633655, 0.7462431, -0.19290912, 0.63655436, 0.08794832, -0.033747215, 0.14082146, 0
521, 2686003213, 0.026436925, 0.74617684, -0.19292322, 0.6366236, 0.085289635, -0.0062150015, 0.11488056, 0
522, 2686019880, 0.026507735, 0.7461126, -0.19297838, 0.6366793, 0.14345576, 0.01028696, 0.12172413, 0
523, 2686036547, 0.026564091, 0.7460246, -0.19307801, 0.63674986, 0.1521057, 0.0034328238, 0.1517334, 0
524, 2686053214, 0.026660264, 0.7459073, -0.19317323, 0.63685435, 0.12296264, 0.014884063, 0.12978363, 0
525, 2686069881, 0.026727438, 0.7458345, -0.19320768, 0.6369264, 0.093739435, 0.059466068, 0.089304924, 0
526, 2686086548, 0.02668479, 0.74579173, -0.19313133, 0.6370013, 0.09145569, 0.003487808, 0.0761652, 0
527, 2686103215, 0.026546627, 0.74578804, -0.19298223, 0.6370567, 0.099520035, -0.0699885, 0.09045124, 0
528, 2686119882, 0.02641359, 0.7458118, -0.19283736, 0.6370782, 0.10832332, -0.004985121, 0.12611103, 0
529, 2686136549, 0.026311934, 0.7458339, -0.19270507, 0.63709664, 0.09375586, 0.042748753, 0.118616104, 0
530, 2686153216, 0.026203036, 0.7458637, -0.19259226, 0.63710034, 0.075817384, 0.057808943, 0.09874344, 0
531, 2686169883, 0.026112467, 0.7459419, -0.19245929, 0.6370528, 0.07183997, -0.019634832, 0.11746979, 0
532, 2686186550, 0.026100338, 0.7460319, -0.19230446, 0.6369946, 0.0914054, -0.09009092, 0.15103817, 0
533, 2686203217, 0.026097804, 0.74608064, -0.19215783, 0.6369817, 0.10741403, -0.09537233, 0.16261101, 0
534, 2686219884, 0.026058257, 0.7461046, -0.19198176, 0.6370085, 0.108552195, -0.038866334, 0.12341499, 0
535, 2686236551, 0.025988877, 0.7461097, -0.19179946, 0.63706017, 0.105949275, 0.013843722, 0.12879181, 0
536, 2686253218, 0.025838286, 0.7461171, -0.1916534, 0.63710165, 0.11228687, 0.06981159, 0.12909508, 0
537, 2686269885, 0.02567181, 0.7461117, -0.19148487, 0.63716537, 0.06010375, 0.0055540735, 0.15943527, 0
538, 2686286552, 0.025531977, 0.74613374, -0.19130924, 0.6371981, 0.09126369, -0.013258453, 0.144063, 0
539, 2686303219, 0.025402844, 0.7461579, -0.19113696, 0.63722646, 0.14789349, -0.045196667, 0.13307571, 0
540, 2686319886, 0.02529174, 0.7461617, -0.19093716, 0.6372863, 0.08933053, -0.07569769, 0.13436699, 0
541, 2686336553, 0.025296032, 0.7461568, -0.1908179, 0.6373277, 0.061538927, -0.07885224, 0.08358574, 0
542, 2686353220, 0.025390983, 0.7461997, -0.19078812, 0.6372825, 0.07329415, -0.025889507, 0.094680786, 0
543, 2686369887, 0.025464833, 0.7462764, -0.19075567, 0.6371997, 0.092181325, -0.016509337, 0.11058426, 0
544, 2686386554, 0.025511086, 0.7463795, -0.19070643, 0.63709164, 0.11439683, -0.033368472, 0.10096264, 0
545, 2686403221, 0.025566876, 0.74649745, -0.19070959, 0.63695025, 0.08647761, 0.019150143, 0.09089184, 0
546, 2686419888, 0.025666803, 0.746612, -0.1907796, 0.636791, 0.093276314, 0.048621777, 0.08152294, 0
547, 2686436555, 0.025782049, 0.7466916, -0.19092229, 0.6366503, 0.09191769, 0.022326263, 0.08963966, 0
548, 2686453222, 0.025942445, 0.74674875, -0.19105628, 0.63653654, 0.097979136, -0.069364116, 0.08129597, 0
549, 2686469889, 0.026052177, 0.7468202, -0.1911481, 0.63642055, 0.052340932, -0.01811167, 0.11215019, 0
550, 2686486556, 0.026053697, 0.7468897, -0.19117698, 0.63633025, 0.078181036, -0.020256309, 0.13411617, 0
551, 2686503223, 0.026056677, 0.74693847, -0.19116488, 0.6362765, 0.106851265, -0.03245017, 0.14380074, 0
552, 2686519890, 0.026039898, 0.74699956, -0.19109997, 0.6362249, 0.07619333, -0.0015925298, 0.1482935, 0
553, 2686536557, 0.025935173, 0.7470522, -0.19101214, 0.6361937, 0.09861928, 0.034757495, 0.14777946, 0
554, 2686553224, 0.025768608, 0.7471088, -0.19087145, 0.63617635, 0.11814537, 0.0075984346, 0.14566422, 0
555, 2686569891, 0.025553882, 0.747159, -0.190676, 0.6361847, 0.11482363, -0.021477696, 0.11948109, 0
556, 2686586558, 0.025301546, 0.747218, -0.1904614, 0.6361899, 0.07923456, -0.02331553, 0.11307144, 0
557, 2686603225, 0.025056422, 0.74726194, -0.19028887, 0.63619953, 0.11415354, -0.052113276, 0.122014046, 0
558, 2686619892, 0.024861544, 0.74727976, -0.19019833, 0.63621324, 0.11138221, -0.06600639, 0.09330177, 0
559, 2686636559, 0.02474302, 0.74729645, -0.19021752, 0.63619244, 0.14568228, -0.052326508, 0.048033714, 0
560, 2686653226, 0.024741858, 0.7472806, -0.19036674, 0.6361666, 0.101135924, -0.04107587, 0.074910164, 0
561, 2686669893, 0.024851978, 0.7472435, -0.19059956, 0.6361362, 0.04086979, -0.042586483, 0.12754154, 0
562, 2686686560, 0.025072813, 0.7471982, -0.1909002, 0.6360907, 0.122076966, -0.025918897, 0.098207474, 0
563, 2686703227, 0.02516228, 0.7472048, -0.19115835, 0.6360019, 0.12806778, -0.028293164, 0.083581924, 0
564, 2686719894, 0.025005907, 0.74726766, -0.19123438, 0.6359111, 0.22190377, -0.11499518, 0.12360668, 0
565, 2686736561, 0.02488029, 0.74731565, -0.19121039, 0.6358669, 0.14926285, -0.079289995, 0.19001484, 0
566, 2686753228, 0.024963826, 0.74730223, -0.19131619, 0.63584757, 0.026722576, -0.042725947, 0.14422512, 0
567, 2686769895, 0.025139838, 0.7472804, -0.19161215, 0.6357772, 0.012490351, -0.011406648, 0.11754799, 0
568, 2686786562, 0.025268853, 0.7473093, -0.19197449, 0.6356288, 0.08415531, 0.009230973, 0.08724213, 0
569, 2686803229, 0.025388092, 0.7473557, -0.19229677, 0.6354721, 0.12282942, -0.034932617, 0.040294647, 0
570, 2686819896, 0.02547115, 0.7473732, -0.19246835, 0.6353962, 0.10817122, -0.043750763, 0.02471447, 0
571, 2686836563, 0.025415003, 0.74735665, -0.19251302, 0.6354043, 0.05636684, -0.08620101, 0.04050255, 0
572, 2686853230, 0.025333196, 0.7473467, -0.19254887, 0.63540834, 0.045048144, -0.061346706, 0.06406212, 0
573, 2686869897, 0.025268704, 0.7473345, -0.19263083, 0.63540053, 0.06018779, -0.048611384, 0.12256527, 0
574, 2686886564, 0.02529499, 0.7473166, -0.19273347, 0.6353894, 0.056506757, -0.039265305, 0.10304737, 0
575, 2686903231, 0.02534768, 0.7473182, -0.19278872, 0.6353686, 0.071476534, -0.045407552, 0.07899666, 0
576, 2686919898, 0.025385112, 0.7473273, -0.19281465, 0.63534856, 0.051539183, -0.028735273, 0.07156181, 0
577, 2686936565, 0.02541092, 0.7473239, -0.19278839, 0.63535964, 0.026510648, -0.05030416, 0.10719967, 0
578, 2686953232, 0.025465488, 0.7473161, -0.19277713, 0.63536996, 0.11745103, -0.04819163, 0.05631733, 0
579, 2686969899, 0.025571287, 0.74730885, -0.19283259, 0.63535744, 0.1008144, -0.020593813, 0.07973671, 0
580, 2686986566, 0.025683284, 0.7472775, -0.1928972, 0.63537025, 0.058268487, -0.07135394, 0.10082245, 0
581, 2687003233, 0.025887847, 0.7472422, -0.19301134, 0.6353687, 0.07349598, -0.03883683, 0.10995102, 0
582, 2687019900, 0.02614373, 0.74720275, -0.19317564, 0.6353549, 0.059361447, -0.027377062, 0.119981766, 0
583, 2687036567, 0.026400149, 0.7471651, -0.19338697, 0.6353241, 0.09805893, 0.009573731, 0.11338425, 0
584, 2687053234, 0.026548862, 0.74713904, -0.19356704, 0.6352937, 0.13381408, 0.058545977, 0.116641045, 0
585, 2687069901, 0.026601136, 0.7471116, -0.19364768, 0.6352993, 0.09459158, -0.0014493697, 0.11938763, 0
586, 2687086568, 0.026631236, 0.74705505, -0.19365454, 0.63536227, 0.068019465, -0.061484948, 0.12018108, 0
587, 2687103235, 0.026684433, 0.7470143, -0.19365701, 0.6354072, 0.040393263, -0.04212884, 0.08523941, 0
588, 2687119902, 0.02671969, 0.7470032, -0.19365594, 0.63541913, 0.033694576, -0.039171875, 0.10224056, 0
589, 2687136569, 0.026756912, 0.7469856, -0.19360673, 0.6354532, 0.03714137, -0.02902137, 0.11035919, 0
590, 2687153236, 0.026805103, 0.74696386, -0.19348836, 0.6355128, 0.025075918, -0.033228554, 0.11069965, 0
591, 2687169903, 0.026833802, 0.7469679, -0.19332275, 0.6355573, 0.06184179, -0.017906517, 0.11618042, 0
592, 2687186570, 0.026785731, 0.74702185, -0.19313192, 0.6355541, 0.11193395, -8.853348E-4, 0.08454609, 0
593, 2687203237, 0.026710749, 0.747084, -0.19291693, 0.6355493, 0.10573884, -0.032765545, 0.10456562, 0
594, 2687219904, 0.026688218, 0.7471067, -0.19269827, 0.6355901, 0.008694654, -0.07430733, 0.12023735, 0
595, 2687236571, 0.026758492, 0.7471163, -0.19256043, 0.6356174, 1.2628482E-4, -0.10488245, 0.07925415, 0
596, 2687253238, 0.026962936, 0.7471325, -0.19254485, 0.6355946, 0.057671707, -0.030353619, 0.117627144, 0
597, 2687269905, 0.027220845, 0.7470722, -0.19263229, 0.63562787, 0.033664852, -0.013958831, 0.16257381, 0
598, 2687286572, 0.027511746, 0.7469727, -0.19276822, 0.63569117, 0.10594367, -0.0027845795, 0.11675739, 0
599, 2687303239, 0.027689934, 0.74691474, -0.19281873, 0.63573605, 0.080450356, 0.043999083, 0.09924698, 0
600, 2687319906, 0.027587414, 0.74691933, -0.19268477, 0.6357758, 0.1243853, -0.010184368, 0.102505684, 0
601, 2687336573, 0.027407765, 0.7468902, -0.19244468, 0.63589054, 0.12800409, -0.030714033, 0.15174103, 0
602, 2687353240, 0.027318925, 0.74678326, -0.19227463, 0.63607144, 0.03004193, 0.015942508, 0.1308279, 0
603, 2687369907, 0.027321786, 0.7466389, -0.19228551, 0.6362374, 9.4635383E-4, 0.0312765, 0.0870657, 0
604, 2687386574, 0.027383417, 0.74649614, -0.19238114, 0.6363734, -0.012237782, 0.0023591793, 0.10630703, 0
605, 2687403241, 0.027443439, 0.7464035, -0.19246158, 0.63645494, 0.057278994, -0.05191435, 0.08779907, 0
606, 2687419908, 0.02747953, 0.74635637, -0.19245279, 0.6365114, 0.08296354, 0.0020092698, 0.1379757, 0
607, 2687436575, 0.02742362, 0.74626994, -0.19232693, 0.6366533, 0.052989557, -0.010596302, 0.14595795, 0
608, 2687453242, 0.027309358, 0.7461462, -0.19218746, 0.63684535, 0.05472849, -0.025749028, 0.13739109, 0
609, 2687469909, 0.027213871, 0.7460319, -0.19206953, 0.6370188, 0.046029363, 0.012607696, 0.11589241, 0
610, 2687486576, 0.027154535, 0.7459287, -0.19192892, 0.6371846, -0.0022856435, 0.00816314, 0.14788151, 0
611, 2687503243, 0.027051508, 0.74586487, -0.1917569, 0.6373155, 0.053243022, 0.014604001, 0.12889862, 0
612, 2687519910, 0.026858509, 0.74586856, -0.19152775, 0.6373882, 0.09630715, 0.07823255, 0.1376419, 0
613, 2687536577, 0.026535004, 0.7458935, -0.19122139, 0.6374646, 0.11923288, 0.065419, 0.15623951, 0
614, 2687553244, 0.026162118, 0.74594355, -0.19080704, 0.6375457, 0.11134921, 0.032569915, 0.09916115, 0
615, 2687569911, 0.025830567, 0.74600345, -0.19040209, 0.6376101, 0.07472463, -0.013134627, 0.05023575, 0
616, 2687586578, 0.025537193, 0.74604195, -0.19002128, 0.6376904, 0.024831396, -0.03625101, 0.06068802, 0
617, 2687603245, 0.0252586, 0.7460996, -0.18964836, 0.63774526, 0.048993815, -0.046334237, 0.048513412, 0
618, 2687619912, 0.024993718, 0.7461479, -0.18927279, 0.6378107, 0.036723625, -0.065090105, 0.08488369, 0
619, 2687636579, 0.024739504, 0.7461721, -0.18887258, 0.63791084, 0.049886752, -0.07773915, 0.11689472, 0
620, 2687653246, 0.024418592, 0.74617696, -0.18855256, 0.6380122, 0.076088056, -0.052871767, 0.1948061, 0
621, 2687669913, 0.02398792, 0.74612045, -0.18820605, 0.63819677, 0.09189087, 0.016545547, 0.15364075, 0
622, 2687686580, 0.023526609, 0.74600923, -0.18784377, 0.6384506, 0.16137993, 0.034476984, 0.15499973, 0
623, 2687703247, 0.023025393, 0.7458711, -0.18747988, 0.63873726, 0.20889945, 0.08733914, 0.09753513, 0
624, 2687719914, 0.022221237, 0.7457447, -0.18704006, 0.6390422, 0.23207876, 0.15056403, 0.06808758, 0
625, 2687736581, 0.021113366, 0.74562615, -0.18659273, 0.63934875, 0.24054241, 0.16373554, 0.03668499, 0
626, 2687753248, 0.019738525, 0.74552524, -0.18619478, 0.63962644, 0.19281144, 0.21403635, 0.0054922104, 0
627, 2687769915, 0.01819387, 0.7454804, -0.18601385, 0.63977706, 0.19252077, 0.13594761, 0.005367279, 0
628, 2687786582, 0.016679436, 0.7454864, -0.18607038, 0.63979506, 0.18799116, 0.08264291, 0.05922222, 0
629, 2687803249, 0.0151747465, 0.7454774, -0.1861831, 0.6398102, 0.04555563, -0.060703438, 0.27302742, 0
630, 2687819916, 0.013787478, 0.74540055, -0.18606612, 0.63996494, -0.12259661, -0.3146044, 0.3905182, 0
631, 2687836583, 0.0126248, 0.74533665, -0.18577218, 0.64014876, -0.1405226, -0.35358822, 0.2629366, 0
632, 2687853250, 0.011691272, 0.7453046, -0.18551359, 0.6402789, -0.009143915, -0.3556431, 0.19210815, 0
633, 2687869917, 0.011233747, 0.7451111, -0.18549973, 0.6405163, 0.053914677, -0.38984817, 0.15645981, 0
634, 2687886584, 0.011204392, 0.7448796, -0.18575242, 0.6407125, 0.0042896606, -0.15313286, 0.023366928, 0
635, 2687903251, 0.011240602, 0.74473286, -0.1860007, 0.64081067, 0.00601451, 0.10054999, 1.9264221E-4, 0
636, 2687919918, 0.010959297, 0.7447408, -0.18607622, 0.64078426, 0.1583567, 0.19339961, 0.0011034012, 0
637, 2687936585, 0.01010412, 0.7449353, -0.18581724, 0.6406476, 0.29681817, 0.3321778, 0.054631233, 0
638, 2687953252, 0.008788317, 0.74521434, -0.1852217, 0.6405146, 0.32678252, 0.30871543, 0.07553387, 0
639, 2687969919, 0.007326573, 0.74550676, -0.1845505, 0.6403867, 0.26874816, 0.25659746, 0.02530384, 0
640, 2687986586, 0.0057436824, 0.74564254, -0.18403018, 0.6403944, 0.16316368, 0.021726688, -0.010601044, 0
641, 2688003253, 0.0040026307, 0.74567366, -0.18368015, 0.6404719, 0.28497353, -0.13785742, 0.009438515, 0
642, 2688019920, 0.0021311939, 0.7456475, -0.18347546, 0.64057, 0.28790268, -0.15771097, 0.12617493, 0
643, 2688036587, 2.3463368E-4, 0.7455058, -0.18338719, 0.6407638, 0.20464723, -0.22753184, 0.17811584, 0
644, 2688053254, -0.0017316341, 0.7452276, -0.18356812, 0.64103293, 0.23810299, -0.26429915, 0.24595833, 0
645, 2688069921, -0.0038135648, 0.7448674, -0.18407312, 0.6412978, 0.35489422, -0.07348547, 0.2561903, 0
646, 2688086588, -0.006486684, 0.7444595, -0.18462497, 0.6415912, 0.47881448, 0.08386161, 0.46636677, 0
647, 2688103255, -0.009799838, 0.7438748, -0.1850842, 0.6420951, 0.47384962, 0.23303829, 0.56704617, 0
648, 2688119922, -0.013753653, 0.7431543, -0.18540621, 0.6427634, 0.55025506, 0.34613338, 0.50577164, 0
649, 2688136589, -0.018439442, 0.7423372, -0.18556836, 0.64354306, 0.7301399, 0.431497, 0.3612337, 0
650, 2688153256, -0.02408272, 0.74144495, -0.18539312, 0.6444352, 0.8743423, 0.46741197, 0.46536636, 0
651, 2688169923, -0.030798465, 0.7402903, -0.18495923, 0.64560026, 0.8554737, 0.42822757, 0.63037014, 0
652, 2688186590, -0.038337618, 0.73889136, -0.18423337, 0.6470052, 0.7748154, 0.34916368, 0.5293255, 0
653, 2688203257, -0.046551615, 0.73725575, -0.18373433, 0.6484725, 0.7094938, 0.18385114, 0.6000633, 0
654, 2688219924, -0.055200234, 0.7353959, -0.18378282, 0.64989054, 0.6905396, 0.1599462, 0.616066, 0
655, 2688236591, -0.064312726, 0.73320687, -0.1844165, 0.6513449, 0.81016606, 0.21880578, 0.62704086, 0
656, 2688253258, -0.07395208, 0.73062986, -0.1856057, 0.652878, 1.100903, 0.32535383, 0.5202999, 0
657, 2688269925, -0.084196806, 0.72764885, -0.18722776, 0.6545012, 1.2833003, 0.29050225, 0.5008373, 0
658, 2688286592, -0.09506747, 0.7242284, -0.18914682, 0.65625215, 1.2003895, 0.22406392, 0.741869, 0
659, 2688303259, -0.10637376, 0.72040886, -0.19160709, 0.65800494, 1.0981392, 0.23904018, 0.8626375, 0
660, 2688319926, -0.11819033, 0.7161889, -0.19472623, 0.6596773, 1.0860912, 0.16460007, 1.0181856, 0
661, 2688336593, -0.13039204, 0.7114565, -0.1982196, 0.66145635, 1.2003095, 0.17944995, 1.0216484, 0
662, 2688353260, -0.14311182, 0.70628226, -0.2015745, 0.6633551, 1.1430563, 0.08724839, 1.1319656, 0
663, 2688369927, -0.15633777, 0.70063925, -0.20451063, 0.665452, 0.9837878, -0.09511986, 1.0535336, 0
664, 2688386594, -0.16988525, 0.69464505, -0.20720479, 0.6675789, 0.86397815, -0.18587108, 0.78159046, 0
665, 2688403261, -0.18363352, 0.6884414, -0.209761, 0.6695636, 0.7482127, -0.13631183, 0.6047268, 0
666, 2688419928, -0.19781116, 0.68184793, -0.21229558, 0.67147046, 0.6039028, -0.10668212, 0.6623955, 0
667, 2688436595, -0.21227142, 0.6749085, -0.21467307, 0.67330736, 0.46662804, -0.038885053, 0.76374435, 0
668, 2688453262, -0.2268959, 0.6676951, -0.21656388, 0.67512184, 0.26523277, -0.019357452, 0.8796768, 0
669, 2688469929, -0.24164343, 0.6601917, -0.21762098, 0.67704093, -0.014943853, -0.10039308, 0.9462986, 0
670, 2688486596, -0.25679198, 0.6524068, -0.21709926, 0.67917544, -0.06667771, 0.0731426, 0.82661533, 0
671, 2688503263, -0.27279404, 0.64391875, -0.21544631, 0.68155915, -0.014123057, 0.16848406, 1.0615358, 0
672, 2688519930, -0.28934196, 0.6345824, -0.21323568, 0.68418187, -0.06418002, 0.30508676, 1.0666552, 0
673, 2688536597, -0.30596447, 0.62470317, -0.2109671, 0.68674046, -0.20227973, 0.28603685, 0.8802538, 0
674, 2688553264, -0.32176664, 0.6145432, -0.2096843, 0.6890742, -0.447342, -0.08042714, 0.7562418, 0
675, 2688569931, -0.33603424, 0.6044178, -0.21008195, 0.69109595, -0.653097, -0.38629633, 0.87959194, 0
676, 2688586598, -0.34855413, 0.59450126, -0.21253717, 0.69274396, -0.6495431, -0.47277036, 1.0653734, 0
677, 2688603265, -0.35937378, 0.5849224, -0.21704884, 0.69396985, -0.6417485, -0.4748826, 1.0155334, 0
678, 2688619932, -0.3686411, 0.5757304, -0.2229385, 0.6949278, -0.48904455, -0.46509334, 0.7035284, 0
679, 2688636599, -0.3769602, 0.5668433, -0.2295064, 0.69563234, -0.41634429, -0.37887615, 0.6487503, 0
680, 2688653266, -0.38470018, 0.55788875, -0.2368972, 0.69615626, -0.37503126, -0.34590587, 0.5646448, 0
681, 2688669933, -0.39198774, 0.54884756, -0.24460869, 0.6966106, -0.29623976, -0.23481673, 0.34632397, 0
682, 2688686600, -0.39918375, 0.5398854, -0.25167727, 0.6970097, -0.4102007, -0.11665245, 0.16172886, 0
683, 2688703267, -0.40677968, 0.5307852, -0.25784677, 0.6973523, -0.4483686, 0.13128373, 0.3277235, 0
684, 2688719934, -0.41496778, 0.5211828, -0.26325607, 0.6977495, -0.3941063, 0.40022922, 0.411232, 0
685, 2688736601, -0.42353854, 0.5111261, -0.26773536, 0.6983344, -0.30363214, 0.3637389, 0.28732777, 0
686, 2688753268, -0.43206722, 0.50077105, -0.27141148, 0.6991926, -0.44627586, 0.0036168203, 0.100875854, 0
687, 2688769935, -0.44014853, 0.49061322, -0.27438122, 0.70019346, -0.71910655, -0.35005468, -0.23352528, 0
688, 2688786602, -0.44790596, 0.4806565, -0.27714598, 0.7010904, -0.8497962, -0.3648223, -0.39286613, 0
689, 2688803269, -0.45546052, 0.47061682, -0.27966082, 0.70203495, -0.7780834, -0.2296221, -0.26036263, 0
690, 2688819936, -0.46297032, 0.46025157, -0.28156465, 0.70323265, -0.6373828, -0.073963106, 0.04515648, 0
691, 2688836603, -0.47033715, 0.44965893, -0.28276724, 0.704713, -0.5819785, -0.0035828534, 0.17851257, 0
692, 2688853270, -0.47734877, 0.43908462, -0.28339416, 0.70641243, -0.41987202, -0.1930038, -0.055871964, 0
693, 2688869937, -0.48363847, 0.42904764, -0.28404775, 0.7080373, -0.2922622, -0.4315569, -0.4455433, 0
694, 2688886604, -0.48932424, 0.41956282, -0.28476706, 0.7095241, -0.35353592, -0.37913722, -0.5617075, 0
695, 2688903271, -0.49507856, 0.41023272, -0.2853945, 0.71073496, -0.5360267, 0.038708344, -0.40237236, 0
696, 2688919938, -0.5008446, 0.40064383, -0.28585356, 0.7119795, -0.39187816, 0.13352607, -0.21246243, 0
697, 2688936605, -0.5059499, 0.39114875, -0.2862223, 0.71349996, -0.08784585, -0.033877768, -0.09660435, 0
698, 2688953272, -0.51061267, 0.38187394, -0.28594816, 0.7153101, -0.1718998, 0.08939794, -0.20058155, 0
699, 2688969939, -0.51550114, 0.37262625, -0.28480008, 0.71713686, -0.30256948, 0.2667015, -0.3284979, 0
700, 2688986606, -0.5203601, 0.3633724, -0.28351724, 0.71888244, -0.2792382, 0.21729985, -0.5172386, 0
701, 2689003273, -0.5247345, 0.35454184, -0.28283465, 0.7203792, -0.11119845, -0.046862885, -0.6158695, 0
702, 2689019940, -0.5284195, 0.34639454, -0.2830531, 0.7215625, -0.089457706, -0.13554946, -0.7289381, 0
703, 2689036607, -0.53154725, 0.33909625, -0.28401032, 0.7223555, -0.086435005, 0.08226734, -0.87403584, 0
704, 2689053274, -0.53446203, 0.3325122, -0.2850891, 0.7228402, -0.10899263, 0.3824847, -0.9679918, 0
705, 2689069941, -0.5372797, 0.32624742, -0.28628743, 0.72313243, -0.05930637, 0.3853823, -0.8809433, 0
706, 2689086608, -0.5397974, 0.32038894, -0.28808495, 0.72316307, -0.05378912, 0.11156704, -0.7356205, 0
707, 2689103275, -0.541787, 0.31551036, -0.2907367, 0.72275877, 0.10904884, -0.05789286, -0.6903734, 0
708, 2689119942, -0.54323506, 0.3116591, -0.29415148, 0.72196054, 0.1743234, -0.122641556, -0.81757545, 0
709, 2689136609, -0.5442582, 0.30844235, -0.29834923, 0.7208481, 0.07635935, -0.20046279, -0.5857878, 0
710, 2689153276, -0.5450225, 0.30562457, -0.30335638, 0.71937954, 0.22569059, -0.100994855, -0.52678394, 0
711, 2689169943, -0.54542756, 0.30329564, -0.3086509, 0.7178043, 0.27456, 0.05754945, -0.49259472, 0
712, 2689186610, -0.5458215, 0.30106762, -0.31321743, 0.7164635, 0.12840164, 0.24874416, -0.30190086, 0
713, 2689203277, -0.54669875, 0.29831588, -0.31645238, 0.7155235, -0.060535103, 0.3848306, -0.011444092, 0
714, 2689219944, -0.54785645, 0.29490614, -0.3186741, 0.71506536, 0.13571799, 0.23618513, 0.11394501, 0
715, 2689236611, -0.5489781, 0.29148197, -0.32037464, 0.71484923, 0.26263425, -0.054607715, 0.0355196, 0
716, 2689253278, -0.5502052, 0.28847027, -0.32165185, 0.7145539, 0.08053582, 0.026323093, -0.17243958, 0
717, 2689269945, -0.55129355, 0.28582123, -0.3230063, 0.7141683, 0.20214233, 0.020851733, -0.4791975, 0
718, 2689286612, -0.55200446, 0.28384715, -0.32492638, 0.7135353, 0.1750484, -0.06126592, -0.72378826, 0
719, 2689303279, -0.55251586, 0.28253227, -0.32740578, 0.7125274, -0.004029296, 0.05469599, -0.64138985, 0
720, 2689319946, -0.55271626, 0.28175718, -0.33050942, 0.71124476, -0.11928336, -0.04526467, -0.3491106, 0
721, 2689336613, -0.552634, 0.2814039, -0.33385864, 0.709883, 0.031233197, -0.04914709, -0.08154392, 0
722, 2689353280, -0.5527369, 0.2811293, -0.33659527, 0.7086182, 0.045345638, 0.1964822, -0.0039863586, 0
723, 2689369947, -0.55319005, 0.2805231, -0.33827722, 0.7077034, 0.04289275, 0.5171693, 0.14286995, 0
724, 2689386614, -0.5537976, 0.2794173, -0.3389354, 0.70735055, 0.22792614, 0.3724392, 0.18925285, 0
725, 2689403281, -0.554449, 0.27833673, -0.33923537, 0.70712256, 0.30762693, 0.0897465, -0.039913177, 0
726, 2689419948, -0.55518544, 0.27771533, -0.33959514, 0.7066161, 0.32327777, 0.11467044, -0.2887659, 0
727, 2689436615, -0.5557606, 0.27777442, -0.3405434, 0.70568395, 0.17200895, 0.2514763, -0.3718195, 0
728, 2689453282, -0.55613804, 0.2780595, -0.3419531, 0.70459175, 0.051737353, 0.28235748, -0.28550053, 0
729, 2689469949, -0.5562932, 0.278405, -0.3438298, 0.7034185, 0.062257577, 0.17789161, -0.22664547, 0
730, 2689486616, -0.5563317, 0.27907124, -0.3459061, 0.70210475, 0.053095892, 0.17784949, -0.22518444, 0
731, 2689503283, -0.5558712, 0.28001088, -0.34867984, 0.7007221, -0.005445055, -0.19073531, -0.118992805, 0
732, 2689519950, -0.55531174, 0.28098306, -0.35160896, 0.69931126, 0.0831293, 0.076954484, -0.1552105, 0
733, 2689536617, -0.55515933, 0.28158933, -0.35357526, 0.6981962, -0.04697946, 0.3594723, -0.18934917, 0
734, 2689553284, -0.5551635, 0.28180373, -0.3548211, 0.6974741, -0.018743237, 0.118106596, -0.35069942, 0
735, 2689569951, -0.5551285, 0.28204829, -0.35570204, 0.69695413, -0.035634, -0.12069656, -0.45236492, 0
736, 2689586618, -0.5549289, 0.28260648, -0.3565382, 0.6964596, 0.060107104, -0.30218956, -0.47166348, 0
737, 2689603285, -0.5547911, 0.2829893, -0.35694802, 0.696204, 0.17368607, -0.29879168, -0.010562897, 0
738, 2689619952, -0.55468476, 0.2832561, -0.35692257, 0.69619334, 0.3600218, -0.19141147, -0.0584774, 0
739, 2689636619, -0.5546169, 0.28373682, -0.3569137, 0.69605595, 0.25893924, 0.14250663, -0.31969833, 0
740, 2689653286, -0.5546877, 0.28421003, -0.35711426, 0.6957036, 0.3139677, 0.25947136, -0.1785183, 0
741, 2689669953, -0.55492884, 0.2847534, -0.3570758, 0.6953088, 0.08272147, 0.18744098, 0.10074711, 0
742, 2689686620, -0.55521715, 0.28538257, -0.35683042, 0.69494665, 0.13163307, 0.10012779, 0.18181324, 0
743, 2689703287, -0.55549675, 0.2864051, -0.35650462, 0.69446945, 0.27524433, 0.021749495, -0.069070816, 0
744, 2689719954, -0.555925, 0.2874985, -0.3560396, 0.69391334, 0.22393695, -0.006467148, -0.018913269, 0
745, 2689736621, -0.55672425, 0.288361, -0.3550788, 0.6934068, 0.21199565, 0.22465307, 0.07876682, 0
746, 2689753288, -0.5575851, 0.28916818, -0.3540352, 0.69291246, 0.10026266, 0.21994111, 0.0877409, 0
747, 2689769955, -0.5582452, 0.2902064, -0.35335237, 0.69229513, 0.009690627, 0.066701, 0.05355358, 0
748, 2689786622, -0.55893433, 0.29128554, -0.35264897, 0.69164425, 0.11311611, 0.22308691, 0.3058777, 0
749, 2689803289, -0.5599938, 0.29203472, -0.35130054, 0.6911574, 0.089432, 0.29707408, 0.25773716, 0
750, 2689819956, -0.56125134, 0.29262668, -0.34969598, 0.69070053, -0.025788423, 0.27106798, 0.022333145, 0
751, 2689836623, -0.56238806, 0.29327193, -0.34816206, 0.690277, -0.068305336, -0.023641426, -0.03102398, 0
752, 2689853290, -0.56339496, 0.29388386, -0.34666306, 0.68995005, -0.07322441, -0.176425, 0.07970142, 0
753, 2689869957, -0.5642659, 0.29425856, -0.34534895, 0.68973756, 0.10260156, -0.2363379, 0.119522095, 0
754, 2689886624, -0.56492853, 0.29458645, -0.34456012, 0.68944967, 0.11243149, -0.24354424, 0.26140118, 0
755, 2689903291, -0.56568116, 0.29462865, -0.34369698, 0.6892453, 0.11472456, -0.03402375, 0.48137093, 0
756, 2689919958, -0.56651735, 0.29412958, -0.3426977, 0.6892693, 0.027421743, -0.21138148, 0.40263653, 0
757, 2689936625, -0.5670153, 0.29370397, -0.342626, 0.6890767, -4.3976175E-5, -0.42150715, 0.12748528, 0
758, 2689953292, -0.56707966, 0.2936875, -0.34366113, 0.6885152, 0.15221372, -0.4019229, 0.16262531, 0
759, 2689969959, -0.56716835, 0.2937917, -0.34472322, 0.6878665, 0.31632656, -0.22025889, 0.25063705, 0
760, 2689986626, -0.5675514, 0.29353118, -0.34498265, 0.68753165, 0.21266124, -0.2006236, 0.45576954, 0
761, 2690003293, -0.56814027, 0.2927464, -0.34430975, 0.68771714, 0.16931643, -0.31752864, 0.64327335, 0
762, 2690019960, -0.5687234, 0.29184258, -0.34333968, 0.6881044, 0.11375485, -0.30846018, 0.3656683, 0
763, 2690036627, -0.5692482, 0.29094255, -0.34267303, 0.68838364, -0.097507864, -0.13973776, 0.073327065, 0
764, 2690053294, -0.56963897, 0.28999412, -0.3426963, 0.688449, -0.012081993, -0.04772177, 0.14788151, 0
765, 2690069961, -0.5700178, 0.28890052, -0.34263363, 0.6886262, 0.2122336, 0.011737056, 0.3833561, 0
766, 2690086628, -0.57037795, 0.28760293, -0.34213254, 0.6891203, 0.379206, -0.2506009, 0.40357685, 0
767, 2690103295, -0.57070124, 0.28646216, -0.34162012, 0.6895819, 0.24838036, -0.2970935, -0.110788345, 0
768, 2690119962, -0.5708085, 0.28576356, -0.3419093, 0.68963975, 0.16348101, -0.20066658, -0.5101681, 0
769, 2690136629, -0.5706804, 0.28537437, -0.34318188, 0.68927467, 0.26191503, 0.0357823, -0.23975086, 0
770, 2690153296, -0.57061595, 0.28498194, -0.34443322, 0.6888659, 0.19631855, 0.32043883, 0.2083559, 0
771, 2690169963, -0.5707657, 0.28416863, -0.3449485, 0.68882, 0.12370034, 0.2260481, 0.41621876, 0
772, 2690186630, -0.5710645, 0.28324655, -0.34503138, 0.68891066, 0.23416975, -0.017898625, 0.243474, 0
773, 2690203297, -0.5713761, 0.2824815, -0.34531033, 0.6888267, 0.25586832, -0.12057743, -0.0054855347, 0
774, 2690219964, -0.57164234, 0.2819142, -0.3460073, 0.6884885, 0.3087282, -0.0356962, 0.0035161972, 0
775, 2690236631, -0.5719201, 0.28131762, -0.34655377, 0.68822676, 0.14620496, 0.03183662, 0.17945957, 0
776, 2690253298, -0.5721793, 0.28053892, -0.34669277, 0.68825936, 0.089250006, -0.07676934, 0.20781994, 0
777, 2690269965, -0.5723796, 0.27992305, -0.34648865, 0.6884461, 0.20992947, -0.08974983, -0.044501305, 0
778, 2690286632, -0.57249486, 0.27945065, -0.34633934, 0.68861717, 0.30161944, -0.23431078, -0.19480991, 0
779, 2690303299, -0.5726043, 0.27904385, -0.34636107, 0.68868035, 0.20307231, -0.11325289, -0.12660122, 0
780, 2690319966, -0.5724786, 0.27880245, -0.34677297, 0.6886756, 0.21185645, 0.0091821775, -0.11095047, 0
781, 2690336633, -0.5720614, 0.27869523, -0.34757322, 0.6886622, 0.18193977, -0.11993273, -0.12218094, 0
782, 2690353300, -0.5715346, 0.27864045, -0.3485719, 0.6886169, 0.06542146, -0.14011331, -0.119000435, 0
783, 2690369967, -0.5710828, 0.27840716, -0.34923962, 0.6887479, 0.04518834, -0.062423613, 0.104146, 0
784, 2690386634, -0.5706233, 0.2779917, -0.34960926, 0.6891087, 0.074662715, -0.13976738, 0.21060753, 0
785, 2690403301, -0.5700897, 0.2776076, -0.3498342, 0.68959105, -0.013997722, -0.08913595, 0.11748314, 0
786, 2690419968, -0.56951463, 0.27726537, -0.35003352, 0.69010264, 0.03889511, 0.011851719, 0.049983025, 0
787, 2690436635, -0.5689479, 0.2768677, -0.35022345, 0.6906331, 0.053237267, 0.01720412, 0.1531992, 0
788, 2690453302, -0.5684117, 0.2764168, -0.35037485, 0.6911782, 0.060154993, 0.07354043, 0.1399746, 0
789, 2690469969, -0.5679052, 0.27590466, -0.3504075, 0.69178236, 0.10122164, 0.07418969, 0.13113976, 0
790, 2690486636, -0.5674958, 0.2752795, -0.35042205, 0.6923599, 0.19902515, -0.06455908, 0.1751442, 0
791, 2690503303, -0.567083, 0.27459806, -0.35052663, 0.69291556, 0.14800876, -0.02363373, 0.24124241, 0
792, 2690519970, -0.5667525, 0.2738181, -0.35048482, 0.6935154, 0.16308688, 0.07516608, 0.30658817, 0
793, 2690536637, -0.5665571, 0.27305782, -0.35038087, 0.6940271, 0.15236059, 0.25192353, 0.08001137, 0
794, 2690553304, -0.566493, 0.27221453, -0.35017478, 0.69451463, 0.092606276, 0.23038031, -0.02743721, 0
795, 2690569971, -0.566488, 0.27117017, -0.34985912, 0.6950859, 0.0024985396, 0.058088195, 0.08695984, 0
796, 2690586638, -0.5663125, 0.27012977, -0.34959954, 0.6957644, 0.16798334, -0.25965697, 0.18892574, 0
797, 2690603305, -0.56585616, 0.26954672, -0.34984288, 0.6962395, 0.24521615, -0.37470385, 0.071481705, 0
798, 2690619972, -0.56522, 0.26957238, -0.35083926, 0.6962447, 0.15778942, -0.0035033142, -0.156147, 0
799, 2690636639, -0.56461513, 0.26975805, -0.35208312, 0.6960356, 0.13149932, 0.22170666, -0.077316284, 0
800, 2690653306, -0.56404936, 0.26983893, -0.35315645, 0.6959193, 0.09319205, 0.20760499, 0.13488483, 0
801, 2690669973, -0.5633845, 0.26977274, -0.35417622, 0.69596535, 0.06926806, -0.096904814, 0.17069721, 0
802, 2690686640, -0.56270427, 0.2697211, -0.3551783, 0.6960249, 0.10364117, -0.08541409, 0.23639679, 0
803, 2690703307, -0.56217813, 0.26961818, -0.3560321, 0.6960535, 0.17099577, 0.18342252, 0.26942444, 0
804, 2690719974, -0.56183493, 0.2693559, -0.35655728, 0.6961636, 0.20144628, 0.17325108, 0.16442585, 0
805, 2690736641, -0.5615509, 0.26899466, -0.35711557, 0.69624627, 0.03207031, 0.030410467, 0.0653801, 0
806, 2690753308, -0.56122494, 0.26873007, -0.35795778, 0.69617885, 0.01576258, 0.0050535896, 0.14391327, 0
807, 2690769975, -0.5608839, 0.26853088, -0.3587774, 0.6961086, 0.13470642, 0.10067748, 0.21273804, 0
808, 2690786642, -0.56068176, 0.2682172, -0.3591571, 0.6961965, 0.06565905, 0.17629771, 0.19684696, 0
809, 2690803309, -0.5606416, 0.26777855, -0.35924622, 0.69635177, 0.011026443, 0.17206642, 0.074095726, 0
810, 2690819976, -0.56058854, 0.26731128, -0.35951495, 0.6964352, 0.097347714, 0.013267062, 0.07190323, 0
811, 2690836643, -0.5604674, 0.26700816, -0.36021757, 0.6962861, 0.15381472, 0.0014147182, 0.07129192, 0
812, 2690853310, -0.5603338, 0.26683122, -0.36105245, 0.6960289, 0.13402583, 0.05008047, 0.07036209, 0
813, 2690869977, -0.5602149, 0.2669177, -0.36200476, 0.69559664, 0.12741496, 0.15076505, -0.027072906, 0
814, 2690886644, -0.56016004, 0.267126, -0.36305955, 0.6950109, 0.16725332, 0.009596634, 0.04778576, 0
815, 2690903311, -0.56014174, 0.2673562, -0.3641949, 0.69434273, 0.15420939, 0.07544671, 0.14497185, 0
816, 2690919978, -0.5601363, 0.2675446, -0.36525992, 0.6937149, 0.08945933, 0.1680471, 0.24336433, 0
817, 2690936645, -0.5602247, 0.2677636, -0.36613482, 0.6930976, 0.037976526, 0.13786815, 0.12568569, 0
818, 2690953312, -0.560374, 0.26801354, -0.36688414, 0.69248366, 0.032010183, 0.19025876, -0.12304211, 0
819, 2690969979, -0.5605004, 0.2681713, -0.36755225, 0.691966, -0.01607332, 0.052932955, -0.11155796, 0
820, 2690986646, -0.56061155, 0.26828808, -0.36796883, 0.69160897, 0.004241214, 0.1022969, 0.009943008, 0
821, 2691003313, -0.56064963, 0.26831496, -0.36801592, 0.69154257, 0.14163585, -0.033510543, -0.011190414, 0
822, 2691019980, -0.56060606, 0.26839805, -0.36810327, 0.6914992, 0.17745769, -0.16616029, -0.21996975, 0
823, 2691036647, -0.56050295, 0.26867968, -0.368446, 0.6912909, 0.17902784, 0.033228576, -0.29858303, 0
824, 2691053314, -0.5603977, 0.26891845, -0.36869484, 0.69115084, 0.10701124, 0.1367648, -0.11737347, 0
825, 2691069981, -0.5603257, 0.26890397, -0.36842188, 0.6913604, 0.10356747, 0.15425092, 0.07152462, 0
826, 2691086648, -0.56017333, 0.26886845, -0.3678663, 0.6917932, 0.18687382, 0.016801102, -0.06315994, 0
827, 2691103315, -0.5598968, 0.269024, -0.3675899, 0.6921033, 0.27020174, -0.16619554, -0.19014168, 0
828, 2691119982, -0.5595832, 0.26950195, -0.36773282, 0.6920954, 0.1489359, 0.051584322, -0.06855869, 0
829, 2691136649, -0.5592614, 0.2700822, -0.36790234, 0.69203913, 0.15591376, 0.17794985, 0.15988064, 0
830, 2691153316, -0.5589563, 0.27054518, -0.36782196, 0.69214743, 0.13855222, 0.19293834, 0.19116306, 0
831, 2691169983, -0.5587048, 0.2707759, -0.3676219, 0.6923666, 0.040227078, 0.0823459, 0.22044468, 0
832, 2691186650, -0.5584893, 0.27100796, -0.3673308, 0.692604, -0.040116385, 0.030159755, 0.2695999, 0
833, 2691203317, -0.5583513, 0.27117524, -0.36676824, 0.6929481, 0.022932932, 0.09139036, 0.2552595, 0
834, 2691219984, -0.55818725, 0.27129692, -0.3663744, 0.6932409, 0.0426627, 0.006746791, 0.14053917, 0
835, 2691236651, -0.5578696, 0.2714583, -0.36670348, 0.6932592, 0.044126544, 0.03204646, 0.16332626, 0
836, 2691253318, -0.5576623, 0.27165562, -0.3672537, 0.6930574, 0.011389494, 0.23340128, 0.4043455, 0
837, 2691269985, -0.5576873, 0.27161178, -0.36731118, 0.6930241, 0.0017230056, 0.2802024, 0.5278759, 0
838, 2691286652, -0.55788124, 0.27129295, -0.36687192, 0.6932256, -4.865877E-4, 0.10463563, 0.45171833, 0
839, 2691303319, -0.55816555, 0.27088776, -0.36642414, 0.69339186, 0.04372774, 0.028916517, 0.19769955, 0
840, 2691319986, -0.55848026, 0.27043337, -0.36646396, 0.69329464, -0.0066985157, -0.014454886, 0.23674393, 0
841, 2691336653, -0.5588631, 0.2700653, -0.3667407, 0.69298327, -0.030492643, 0.2224567, 0.4101429, 0
842, 2691353320, -0.55931354, 0.2696565, -0.36681727, 0.69273853, 0.05415032, 0.2632315, 0.3850174, 0
843, 2691369987, -0.55991864, 0.2690486, -0.36664212, 0.6925788, 0.07703212, 0.114206746, 0.21080875, 0
844, 2691386654, -0.5605243, 0.268298, -0.36660013, 0.69240236, 0.021419302, -0.08819464, 0.12994766, 0
845, 2691403321, -0.5610646, 0.26756948, -0.36684826, 0.69211537, 0.070299685, -0.104280986, 0.245574, 0
846, 2691419988, -0.56162, 0.266944, -0.36701325, 0.6918188, 0.067342274, 0.16761805, 0.18663406, 0
847, 2691436655, -0.5622088, 0.26619318, -0.36723328, 0.6915129, -0.031005774, 0.10615512, 0.15027618, 0
848, 2691453322, -0.5627032, 0.26547065, -0.36771765, 0.6911311, -0.0135051, -0.031415373, 0.19410801, 0
849, 2691469989, -0.5631422, 0.26483428, -0.36823803, 0.6907404, 0.16724686, -0.0777304, 0.26577187, 0
850, 2691486656, -0.5634973, 0.26436672, -0.36886108, 0.6902974, 0.20368311, -0.17428519, 0.118061066, 0
851, 2691503323, -0.563795, 0.2640291, -0.3696899, 0.6897398, 0.060069107, -0.0073300935, -0.06700325, 0
852, 2691519990, -0.5640952, 0.26354015, -0.37062407, 0.6891798, 0.1692348, 0.004397338, 0.083685875, 0
853, 2691536657, -0.5644482, 0.26299962, -0.37120634, 0.68878376, 0.24848405, 0.18221731, 0.123496056, 0
854, 2691553324, -0.5648962, 0.2623018, -0.37139842, 0.68857914, 0.2767412, 0.18660223, -0.13387299, 0
855, 2691569991, -0.5654601, 0.2613639, -0.37161052, 0.6883584, 0.06794347, -0.08055432, -0.23991299, 0
856, 2691586658, -0.5657196, 0.26066118, -0.37241578, 0.68797636, 0.1105979, -0.23244946, -0.1383295, 0
857, 2691603325, -0.5656694, 0.2604513, -0.37346727, 0.68752694, 0.28252333, -0.06443744, -0.09757805, 0
858, 2691619992, -0.5657007, 0.26019675, -0.37422383, 0.68718606, 0.20903294, 0.15471919, -0.2720852, 0
859, 2691636659, -0.5658841, 0.25966087, -0.37467244, 0.68699336, -0.13055766, 0.034305885, -0.16301537, 0
860, 2691653326, -0.5658189, 0.25933245, -0.3752127, 0.68687636, 0.041133594, -0.13504927, 0.08124256, 0
861, 2691669993, -0.56556195, 0.25937954, -0.37576917, 0.6867659, 0.2506477, -0.06868577, 0.035913467, 0
862, 2691686660, -0.565396, 0.25934452, -0.37596318, 0.68680966, 0.17718528, 0.038107958, -0.09687519, 0
863, 2691703327, -0.565271, 0.2592004, -0.37599036, 0.6869519, 0.09451, -0.04350238, -0.16874027, 0
864, 2691719994, -0.56499434, 0.25928026, -0.3763012, 0.6869792, 0.15445656, -0.17299779, -0.21466732, 0
865, 2691736661, -0.5645906, 0.25967735, -0.37686905, 0.6868499, 0.19565542, -0.06632483, -0.15154266, 0
866, 2691753328, -0.5642473, 0.26003295, -0.3771991, 0.6868163, 0.14698072, 0.12961476, -0.13282585, 0
867, 2691769995, -0.5639506, 0.26011774, -0.37720537, 0.6870244, 0.09465645, 0.11710565, -0.113191605, 0
868, 2691786662, -0.5636123, 0.26031163, -0.37718293, 0.68724084, 0.10706198, 0.054284856, -0.04923916, 0
869, 2691803329, -0.56325614, 0.26073983, -0.37721246, 0.6873543, 0.16412587, 0.006262536, -0.025511742, 0
870, 2691819996, -0.5628567, 0.26122683, -0.3771427, 0.6875348, 0.17065114, -0.18351981, 0.12073517, 0
871, 2691836663, -0.5624396, 0.2617122, -0.37694994, 0.6877971, 0.14537975, -0.10744399, 0.050408363, 0
872, 2691853330, -0.56201786, 0.26223317, -0.37676236, 0.6880463, 0.10463686, -0.0711271, -0.015773773, 0
873, 2691869997, -0.56153136, 0.26283696, -0.37677056, 0.6882085, -0.025630174, 0.07257779, 0.011076927, 0
874, 2691886664, -0.5611027, 0.2633078, -0.37664345, 0.6884477, -0.018273, 0.31743464, 0.18248463, 0
875, 2691903331, -0.5607775, 0.26343998, -0.37594122, 0.6890458, -2.2356883E-4, 0.1333405, 0.29687023, 0
876, 2691919998, -0.56036025, 0.26349914, -0.37521696, 0.6897571, 0.044704266, -0.14981645, 0.08823776, 0
877, 2691936665, -0.55982786, 0.2636373, -0.37507924, 0.6902112, 0.02696952, -0.29159707, 0.084591866, 0
878, 2691953332, -0.5592092, 0.2638834, -0.37523562, 0.69053364, 0.1342748, -0.0851878, 0.31015396, 0
879, 2691969999, -0.5587007, 0.26402098, -0.375061, 0.69098735, -0.0020796205, 0.24482565, 0.29410076, 0
880, 2691986666, -0.5583102, 0.2638245, -0.3747148, 0.69156575, -0.10259479, 0.1190715, 0.22072697, 0
881, 2692003333, -0.5578866, 0.2635067, -0.37457126, 0.6921061, -0.06368616, -0.030996753, 0.234478, 0
882, 2692020000, -0.55742884, 0.26316687, -0.37459257, 0.6925926, 0.06492007, 0.002791579, 0.28732204, 0
883, 2692036667, -0.55701613, 0.2627974, -0.37450543, 0.693112, 0.09017194, 0.033125393, 0.33655262, 0
884, 2692053334, -0.55666417, 0.26223585, -0.37423968, 0.6937506, 0.13051553, 0.0028131027, 0.2573614, 0
885, 2692070001, -0.5561385, 0.261713, -0.3745679, 0.6941924, 0.15455037, -0.2705358, 0.06247711, 0
886, 2692086668, -0.5553987, 0.2616368, -0.37582278, 0.6941352, 0.17133693, -0.11861214, 0.026560783, 0
887, 2692103335, -0.5547112, 0.26159653, -0.37725875, 0.693921, 0.1866831, 0.16883326, 0.26263046, 0
888, 2692120002, -0.5542475, 0.26120648, -0.3779954, 0.6940377, -0.004583357, 0.29020488, 0.36528683, 0
889, 2692136669, -0.55408466, 0.26019713, -0.37772298, 0.6946949, 0.0062227123, 0.13107045, 0.38783932, 0
890, 2692153336, -0.5540432, 0.25888675, -0.37699994, 0.6956097, 0.26555473, -0.06589008, 0.24291229, 0
891, 2692170003, -0.55390584, 0.25773698, -0.37653437, 0.69639766, 0.24130012, -0.24249208, -0.03273487, 0
892, 2692186670, -0.55355304, 0.25700244, -0.37660953, 0.6969089, 0.1765801, -0.27340874, -0.18636417, 0
893, 2692203337, -0.5530728, 0.25657424, -0.37704372, 0.697213, 0.079602264, -0.13102067, -0.12064648, 0
894, 2692220004, -0.55249554, 0.256154, -0.37729388, 0.6976899, -0.038954005, 0.037828762, 0.07366562, 0
895, 2692236671, -0.5518249, 0.25555977, -0.37725314, 0.6984599, 0.055590857, 0.06548659, 0.00854969, 0
896, 2692253338, -0.551054, 0.25506404, -0.37743202, 0.6991527, 0.23294571, 0.04535968, -0.2500744, 0
897, 2692270005, -0.55018437, 0.25494677, -0.37816387, 0.6994849, 0.20395021, -0.11320986, -0.31434822, 0
898, 2692286672, -0.54928446, 0.2550422, -0.37904555, 0.69968027, 0.089335, 0.014801667, -0.08137035, 0
899, 2692303339, -0.54845494, 0.25503308, -0.3794326, 0.7001245, -0.033590365, 0.19673073, 0.0912838, 0
900, 2692320006, -0.5477345, 0.25475237, -0.3792789, 0.70087355, -0.054460663, 0.21164916, 0.16253853, 0
901, 2692336673, -0.54707164, 0.25423133, -0.378826, 0.70182467, 0.011456603, 0.056575704, 0.07941151, 0
902, 2692353340, -0.5463949, 0.25367492, -0.37840474, 0.70277977, 0.113197885, -0.13554727, -0.003394127, 0
903, 2692370007, -0.54557943, 0.25348336, -0.37844148, 0.7034623, 0.13016196, -0.18340132, 0.011837959, 0
904, 2692386674, -0.5447478, 0.25356945, -0.3786319, 0.70397323, -0.01036709, 0.047569625, 0.13738346, 0
905, 2692403341, -0.54399025, 0.25345245, -0.3785721, 0.7046329, 0.011138712, 0.24050732, 0.18194962, 0
906, 2692420008, -0.5432176, 0.2531606, -0.37863103, 0.70530194, 0.080884635, 0.16013433, 0.022644997, 0
907, 2692436675, -0.542474, 0.2530169, -0.3791467, 0.70564884, 0.12646632, 0.07826787, 0.056996346, 0
908, 2692453342, -0.5418014, 0.2531236, -0.3798796, 0.70573294, 0.14845903, 0.05761118, 0.2649393, 0
909, 2692470009, -0.5411953, 0.25320992, -0.38028833, 0.705947, 0.15414493, 0.10594327, 0.34628582, 0
910, 2692486676, -0.5407472, 0.25306582, -0.3803141, 0.70632803, 0.046827585, 0.16141388, 0.3029642, 0
911, 2692503343, -0.54048336, 0.25263467, -0.3801307, 0.7067828, -0.03259249, 0.19367023, 0.30813026, 0
912, 2692520010, -0.54038113, 0.25204295, -0.3795987, 0.7073579, -0.0013826512, 0.31320333, 0.30498505, 0
913, 2692536677, -0.5404049, 0.25129986, -0.3788193, 0.7080217, 0.023300946, 0.20556259, 0.22450733, 0
914, 2692553344, -0.5403411, 0.25080773, -0.37833336, 0.7085045, 0.10013475, -0.02819898, -0.0013904572, 0
915, 2692570011, -0.54015803, 0.25063646, -0.3783412, 0.70870036, 0.0906872, -0.14091918, -0.07087326, 0
916, 2692586678, -0.54004085, 0.25060168, -0.37846202, 0.7087376, -0.0354548, 0.04108358, 0.07376099, 0
917, 2692603345, -0.53986394, 0.2504809, -0.37855792, 0.708864, -0.10604695, 0.11290681, 0.08526802, 0
918, 2692620012, -0.5394942, 0.25050506, -0.37920764, 0.70878947, 0.0047536734, 0.06444882, -0.05529499, 0
919, 2692636679, -0.53904027, 0.25080666, -0.38043067, 0.7083727, 0.08564955, 0.09805603, 0.014521599, 0
920, 2692653346, -0.5386978, 0.25110242, -0.38157403, 0.7079134, -0.08253674, 0.20444685, 0.17986679, 0
921, 2692670013, -0.5384777, 0.25114086, -0.38205293, 0.7078088, -0.07922339, 0.20103027, 0.32726955, 0
922, 2692686680, -0.5383825, 0.25092143, -0.38191473, 0.7080338, 0.011505329, 0.04837581, 0.25667858, 0
923, 2692703347, -0.5383726, 0.25062957, -0.38183618, 0.7081869, 0.0657218, -0.04257196, 0.108742714, 0
924, 2692720014, -0.5384393, 0.25035343, -0.38185978, 0.7082213, 0.00499124, 0.16576494, 0.1959486, 0
925, 2692736681, -0.5386288, 0.24986325, -0.3816235, 0.70837754, 0.03080207, 0.2626604, 0.22814369, 0
926, 2692753348, -0.5387403, 0.24943237, -0.3815657, 0.7084759, 0.17408, -0.062202558, 0.0063762665, 0
927, 2692770015, -0.5386032, 0.2495324, -0.3825474, 0.70801514, 0.220605, -0.34780043, -0.2952013, 0
928, 2692786682, -0.5383338, 0.25025803, -0.38445994, 0.7069271, 0.10000034, -0.10658689, -0.2234602, 0
929, 2692803349, -0.53806615, 0.2510987, -0.3865269, 0.7057046, -0.009492037, 0.23537014, 0.09021187, 0
930, 2692820016, -0.5379253, 0.2515538, -0.38793993, 0.70487416, -0.12116268, 0.34707636, 0.39093494, 0
931, 2692836683, -0.53807837, 0.25144976, -0.38819903, 0.7046518, -0.12785159, 0.2490775, 0.50812054, 0
932, 2692853350, -0.5384433, 0.25098607, -0.38754845, 0.70489645, -0.0038759382, 0.052636325, 0.2706213, 0
933, 2692870017, -0.53876936, 0.25049448, -0.38680673, 0.7052296, 0.06803251, -0.16364074, -0.10597992, 0
934, 2692886684, -0.53899705, 0.25016528, -0.38629684, 0.70545167, 0.08750063, -0.12876843, -0.28043938, 0
935, 2692903351, -0.53909165, 0.24992281, -0.38596085, 0.7056494, 0.06809926, -0.028337233, -0.2066946, 0
936, 2692920018, -0.5390256, 0.24979462, -0.38580546, 0.70583004, 0.1079208, 0.03636784, -0.16137218, 0
937, 2692936685, -0.53887326, 0.24978933, -0.38582587, 0.70593715, 0.1126094, 0.057168238, -0.122136116, 0
938, 2692953352, -0.538652, 0.24991404, -0.38603994, 0.7059449, 0.13941732, 0.025123743, -0.12430668, 0
939, 2692970019, -0.5384909, 0.2500759, -0.38612068, 0.70596635, 0.131733, 0.10744484, 0.016714096, 0
940, 2692986686, -0.53845763, 0.25005865, -0.38579553, 0.7061756, 0.017840749, 0.049714465, 0.17480087, 0
941, 2693003353, -0.53837687, 0.24993438, -0.38543454, 0.7064782, 0.09731276, -0.07553894, 0.14326096, 0
942, 2693020020, -0.53812, 0.25005782, -0.38573396, 0.70646673, 0.16895314, -0.15258421, 0.04780674, 0
943, 2693036687, -0.537837, 0.25044128, -0.38643995, 0.70616055, 0.14203295, 0.021943586, 0.0775795, 0
944, 2693053354, -0.5376971, 0.25077987, -0.38687074, 0.70591104, 0.07859347, 0.17291044, 0.21623802, 0
945, 2693070021, -0.53772116, 0.25081828, -0.38673943, 0.7059508, 0.011291064, 0.15129706, 0.2982359, 0
946, 2693086688, -0.5378036, 0.25062224, -0.38617787, 0.70626503, 0.018469462, 0.075922966, 0.27431393, 0
947, 2693103355, -0.53790665, 0.25025266, -0.385517, 0.7066785, 0.11392017, -0.040877752, 0.16303062, 0
948, 2693120022, -0.53788793, 0.25009742, -0.3853094, 0.706861, 0.08549535, -0.112338126, -0.05627632, 0
949, 2693136689, -0.5378209, 0.25012395, -0.38550937, 0.70679355, 0.03833292, 0.044332944, -0.097626686, 0
950, 2693153356, -0.53779966, 0.25010425, -0.38559875, 0.70676786, 0.036414005, 0.13505161, 0.085103035, 0
951, 2693170023, -0.53777343, 0.24986468, -0.38546407, 0.706946, 0.05691352, 0.026728548, 0.27229118, 0
952, 2693186690, -0.5375746, 0.24957989, -0.38552076, 0.70716715, 0.07635834, -0.23838373, 0.21882439, 0
953, 2693203357, -0.5372184, 0.24959612, -0.38613373, 0.7070975, 0.09535937, -0.30262154, 0.10592365, 0
954, 2693220024, -0.53701437, 0.24982366, -0.38690645, 0.70674974, 0.12013056, 0.05979972, 0.12854862, 0
955, 2693236691, -0.5370057, 0.24982728, -0.38730058, 0.70653903, 0.030589722, 0.27533236, 0.19354153, 0
956, 2693253358, -0.5371732, 0.24929048, -0.38697386, 0.7067803, -0.12862156, 0.2264197, 0.20126247, 0
957, 2693270025, -0.5374439, 0.24840114, -0.38622737, 0.7072958, -0.04737357, -0.014588842, 0.19942379, 0
958, 2693286692, -0.5376392, 0.24766067, -0.38546956, 0.7078202, 0.13782912, -0.20343491, 0.085627556, 0
959, 2693303359, -0.53767556, 0.24725112, -0.38513926, 0.7081156, 0.14279695, -0.2068403, -0.057073593, 0
960, 2693320026, -0.5376301, 0.24702205, -0.38521385, 0.70818937, 0.056304507, -0.1463393, -0.046331406, 0
961, 2693336693, -0.5373792, 0.24711864, -0.3859345, 0.7079537, 0.0736478, -0.087777674, -0.023375511, 0
962, 2693353360, -0.53706694, 0.24740764, -0.38692737, 0.70754766, 0.11153707, 0.058497198, 0.061469078, 0
963, 2693370027, -0.53693634, 0.24756008, -0.38744697, 0.7073092, 0.06842251, 0.2373547, 0.13586807, 0
964, 2693386694, -0.53702605, 0.2473979, -0.3871998, 0.707433, 0.06668925, 0.28249413, 0.11219406, 0
965, 2693403361, -0.53719133, 0.246979, -0.38665056, 0.7077543, 0.09340355, -0.0077271443, 0.077423096, 0
966, 2693420028, -0.5373026, 0.2466957, -0.38637236, 0.7079205, 0.0099353185, -0.15582532, 0.07982731, 0
967, 2693436695, -0.5373663, 0.24665982, -0.38633555, 0.70790464, 0.061907977, -0.032450624, 0.12516117, 0
968, 2693453362, -0.5374328, 0.24674423, -0.38616356, 0.7079186, 0.072607845, 0.08169086, 0.05821514, 0
969, 2693470029, -0.53745925, 0.24669695, -0.38597205, 0.7080195, 0.030278713, 0.022920163, -0.104777336, 0
970, 2693486696, -0.53740793, 0.24666928, -0.38596302, 0.70807296, 0.07463184, -0.002871003, -0.0874567, 0
971, 2693503363, -0.53733164, 0.24675943, -0.38615015, 0.7079974, 0.07661589, 0.032692663, 0.033290863, 0
972, 2693520030, -0.5373422, 0.24691318, -0.38608667, 0.7079705, 0.026333375, 0.13025926, 0.15223694, 0
973, 2693536697, -0.53739166, 0.2468678, -0.3856982, 0.7081605, 0.00831404, 0.0109461, 0.14701653, 0
974, 2693553364, -0.53737986, 0.24679543, -0.38539064, 0.7083621, 0.11348465, -0.14382783, 0.054255486, 0
975, 2693570031, -0.537194, 0.24694192, -0.38564676, 0.70831275, 0.11452765, -0.2336917, 0.028523445, 0
976, 2693586698, -0.53696156, 0.24735816, -0.38614085, 0.70807445, 0.09636445, -0.043597978, 0.03757, 0
977, 2693603365, -0.53679, 0.24774942, -0.38639405, 0.7079296, 0.03529507, 0.16033544, 0.08702469, 0
978, 2693620032, -0.53674984, 0.24785773, -0.38611713, 0.7080732, -0.04236009, 0.12180988, 0.15142345, 0
979, 2693636699, -0.5367601, 0.24766101, -0.3855528, 0.70844173, -0.024376435, -0.07366434, 0.19795609, 0
980, 2693653366, -0.53676546, 0.24740879, -0.38493332, 0.7088624, -0.012899631, -0.07834925, 0.20275974, 0
981, 2693670033, -0.536734, 0.24717462, -0.3843195, 0.7093009, -1.432718E-4, -0.026263734, 0.1173563, 0
982, 2693686700, -0.53662413, 0.2469654, -0.38369372, 0.70979553, -0.04170612, -0.041115474, -0.010601044, 0
983, 2693703367, -0.53647226, 0.24670063, -0.38293862, 0.7104099, -0.07043983, 0.014742614, -0.095648766, 0
984, 2693720034, -0.5362919, 0.24626048, -0.3821673, 0.7111138, 0.010452807, -0.010219807, -0.027716637, 0
985, 2693736701, -0.5359705, 0.24581924, -0.38175204, 0.71173155, 0.047137737, -0.09209594, -0.033057213, 0
986, 2693753368, -0.5355413, 0.24557693, -0.38180387, 0.7121104, 0.057006057, -0.12959628, 0.15519238, 0
987, 2693770035, -0.5351103, 0.24551737, -0.38197175, 0.7123648, 0.16797379, 0.0048710746, 0.3145113, 0
988, 2693786702, -0.5348197, 0.24544017, -0.38170382, 0.7127531, 0.123325415, 0.13992783, 0.28949356, 0
989, 2693803369, -0.5346925, 0.24506417, -0.38112715, 0.71328634, 0.09530917, 0.008161823, 0.21006012, 0
990, 2693820036, -0.5345433, 0.2447038, -0.38091046, 0.7136376, 0.14854358, -0.11421645, 0.080563545, 0
991, 2693836703, -0.53441525, 0.24459124, -0.38119853, 0.7136183, 0.15326323, 0.009509292, 0.12817001, 0
992, 2693853370, -0.5344103, 0.2446576, -0.38159287, 0.71338856, 0.075880356, 0.18997523, 0.25570583, 0
993, 2693870037, -0.53448176, 0.2446177, -0.3817971, 0.7132393, 0.03705191, 0.18660116, 0.31640053, 0
994, 2693886704, -0.5345508, 0.24440572, -0.3818865, 0.7132124, 0.013315366, -0.024811523, 0.25637722, 0
995, 2693903371, -0.53460497, 0.24418144, -0.3820649, 0.713153, -0.0020615717, -0.056497615, 0.091433525, 0
996, 2693920038, -0.53475124, 0.24394916, -0.3821292, 0.71308833, 0.12221887, -0.022659259, 0.03773117, 0
997, 2693936705, -0.5349894, 0.24368079, -0.3819042, 0.7131219, 0.117138304, 0.11002507, 0.16137505, 0
998, 2693953372, -0.5351847, 0.24325459, -0.38152874, 0.7133218, 0.064107955, 0.028370555, 0.09083271, 0
999, 2693970039, -0.5352689, 0.2429506, -0.3813536, 0.71345603, 0.07839608, -0.113132164, -0.10087204, 0
1000, 2693986706, -0.5352657, 0.24289444, -0.38155437, 0.71337014, 0.123825476, -0.16998488, -0.07191372, 0
1001, 2694003373, -0.53525084, 0.24304645, -0.38165706, 0.71327466, 0.14003749, 0.021964114, -0.06169033, 0
1002, 2694020040, -0.53522605, 0.24311802, -0.38157362, 0.7133135, 0.11033823, -0.072612554, -0.21178341, 0
1003, 2694036707, -0.5351259, 0.24327785, -0.38182807, 0.7131981, 0.052908253, -0.12029907, -0.22475243, 0
1004, 2694053374, -0.5349157, 0.24378376, -0.3824627, 0.7128428, 0.08723443, -0.069986396, -0.097005844, 0
1005, 2694070041, -0.5346186, 0.24453615, -0.38310388, 0.7124636, 0.16926868, -0.06191806, 0.021603584, 0
1006, 2694086708, -0.5342906, 0.24534644, -0.38348684, 0.712225, 0.079421446, -0.061988104, -0.025444984, 0
1007, 2694103375, -0.53393996, 0.24604039, -0.3837566, 0.71210337, 6.310609E-4, -0.13584764, -0.16108131, 0
1008, 2694120042, -0.5335157, 0.24678493, -0.38406774, 0.7119959, 0.06184718, -0.18314382, -0.07618332, 0
1009, 2694136709, -0.53306204, 0.24761184, -0.38418898, 0.71198326, 0.073229246, 0.011093374, 0.048491478, 0
1010, 2694153376, -0.5326541, 0.24821898, -0.38391203, 0.7122264, 0.06539693, 0.11260175, 0.14766788, 0
1011, 2694170043, -0.5322739, 0.24859354, -0.38338897, 0.71266174, 0.050935615, 0.03697548, 0.07772732, 0
1012, 2694186710, -0.53187716, 0.24892977, -0.38300273, 0.71304786, 0.058863312, -0.07875931, -0.005209923, 0
1013, 2694203377, -0.5313162, 0.24946871, -0.3830666, 0.7132435, 0.019927884, -0.23141788, 0.0374918, 0
1014, 2694220044, -0.5306726, 0.2502237, -0.38331893, 0.7133227, -0.025326142, -0.03407457, 0.08455467, 0
1015, 2694236711, -0.53009135, 0.25084904, -0.38346952, 0.71345437, -0.0067991246, 0.14283578, 0.16092587, 0
1016, 2694253378, -0.52960056, 0.25111684, -0.383487, 0.7137151, -0.00738674, 0.14658019, 0.2670517, 0
1017, 2694270045, -0.52912825, 0.2512041, -0.38348445, 0.714036, -0.031849924, 0.022299722, 0.35346794, 0
1018, 2694286712, -0.5287167, 0.25119767, -0.38333786, 0.71442175, -0.06901775, 0.044370458, 0.3251629, 0
1019, 2694303379, -0.52849495, 0.25107533, -0.38271177, 0.7149643, -0.07204714, 0.13855584, 0.33877468, 0
1020, 2694320046, -0.5283146, 0.2506364, -0.38170683, 0.7157882, -0.03226765, 0.17601141, 0.15409756, 0
1021, 2694336713, -0.527967, 0.2501367, -0.38112837, 0.7165274, 0.1679806, -0.068001, -0.044984818, 0
1022, 2694353380, -0.5274434, 0.25013223, -0.3816027, 0.716662, 0.17898233, -0.1736003, -0.050718307, 0
1023, 2694370047, -0.52691686, 0.250629, -0.38275257, 0.71626246, 0.13058297, 0.052579243, 0.07082653, 0
1024, 2694386714, -0.52650744, 0.25116533, -0.38371915, 0.71585846, 0.07764304, 0.28793165, 0.2789383, 0
1025, 2694403381, -0.5262869, 0.25130072, -0.383967, 0.7158402, 0.048991524, 0.25428605, 0.41323948, 0
1026, 2694420048, -0.5262375, 0.25101683, -0.3835927, 0.7161768, 0.0409628, 0.080707006, 0.4550171, 0
1027, 2694436715, -0.52628136, 0.25057277, -0.38313693, 0.7165439, 0.07148579, -0.049729496, 0.34702206, 0
1028, 2694453382, -0.526376, 0.2502662, -0.38281628, 0.71675295, 0.16005343, 0.061676618, 0.19978619, 0
1029, 2694470049, -0.5266528, 0.25001016, -0.38247412, 0.7168217, 0.09318724, 0.21581769, 0.14128208, 0
1030, 2694486716, -0.527113, 0.24954578, -0.3820046, 0.7168955, 0.062656574, 0.20130277, 0.18954849, 0
1031, 2694503383, -0.5274483, 0.2492128, -0.38198572, 0.7167748, 0.13070373, 0.009595247, 0.08677292, 0
1032, 2694520050, -0.5276262, 0.24934961, -0.38278756, 0.7161683, 0.06904025, 0.072306775, -0.03156948, 0
1033, 2694536717, -0.5279053, 0.24972825, -0.3840323, 0.71516347, 0.038842585, 0.19708462, 0.12100506, 0
1034, 2694553384, -0.5282829, 0.25009483, -0.38501936, 0.7142252, -0.007821975, 0.2664412, 0.2418766, 0
1035, 2694570051, -0.52890295, 0.2500807, -0.38529396, 0.71362317, -0.11744857, 0.21382815, 0.3519163, 0
1036, 2694586718, -0.52968496, 0.24972092, -0.3851152, 0.71326536, -0.09954439, 0.036654837, 0.25128746, 0
1037, 2694603385, -0.5305173, 0.24945314, -0.38488233, 0.7128662, -0.059832435, 0.115636736, 0.12959862, 0
1038, 2694620052, -0.53141546, 0.24928202, -0.38448745, 0.71247, 0.027002126, 0.26097265, 0.034819603, 0
1039, 2694636719, -0.53241986, 0.24911016, -0.38372606, 0.7121905, -0.004731406, 0.17957991, -0.049967766, 0
1040, 2694653386, -0.5333833, 0.24888773, -0.38282698, 0.7120313, -0.009430403, 0.020666566, -0.15969276, 0
1041, 2694670053, -0.5342532, 0.24876304, -0.38204414, 0.71184313, 0.025675464, -0.07171723, -0.16997433, 0
1042, 2694686720, -0.5350594, 0.24884841, -0.38129798, 0.7116079, -0.04577797, -0.009997879, -0.13941097, 0
1043, 2694703387, -0.5357301, 0.24908127, -0.38078249, 0.71129775, 0.07221497, -0.011759374, -0.23013115, 0
1044, 2694720054, -0.5361422, 0.24970262, -0.38091612, 0.7106976, 0.114097804, -0.009307149, -0.25873375, 0
1045, 2694736721, -0.53649324, 0.2505701, -0.38145712, 0.7098366, 0.10795036, 0.06540198, -0.1689539, 0
1046, 2694753388, -0.53693867, 0.25137198, -0.3815454, 0.70916855, 0.009300654, 0.23061779, 7.133484E-4, 0
1047, 2694770055, -0.5374757, 0.2517366, -0.38084608, 0.70900834, 0.009330995, 0.04851894, 0.060590744, 0
1048, 2694786722, -0.5379858, 0.2519528, -0.37989658, 0.70905405, 0.0044802334, -0.1817196, 0.06958389, 0
1049, 2694803389, -0.5384239, 0.2522664, -0.37914786, 0.7090107, -0.031540025, -0.1844629, 0.07213974, 0
1050, 2694820056, -0.53881353, 0.25280458, -0.3784624, 0.70888925, -0.053031635, -0.03479812, 0.09238529, 0
1051, 2694836723, -0.5392025, 0.25341856, -0.37752536, 0.708874, -0.05118402, 0.10824273, 0.06704044, 0
1052, 2694853390, -0.53955936, 0.2539512, -0.3762473, 0.70909125, 0.04068679, 0.088804655, -0.13399601, 0
1053, 2694870057, -0.53986675, 0.25436872, -0.37497967, 0.70937896, 0.045621477, -0.064254515, -0.26104164, 0
1054, 2694886724, -0.54005027, 0.25491282, -0.3742194, 0.7094455, 0.08915451, -0.18263173, -0.12924004, 0
1055, 2694903391, -0.5401356, 0.25567856, -0.3738403, 0.70930487, 0.06215599, -0.025541808, 0.120116234, 0
1056, 2694920058, -0.54029274, 0.2564408, -0.3731418, 0.7092779, 0.0647488, 0.1399724, 0.3098812, 0
1057, 2694936725, -0.54042387, 0.25718322, -0.3724703, 0.709262, -0.041380014, 0.116879076, 0.046642303, 0
1058, 2694953392, -0.5405407, 0.2578788, -0.37199464, 0.70917004, -0.05031922, 0.060136594, -0.047288895, 0
1059, 2694970059, -0.54068404, 0.25854146, -0.37165514, 0.70899755, 0.05172537, 0.06627553, 0.10549545, 0
1060, 2694986726, -0.54087573, 0.25912568, -0.37122074, 0.7088657, 0.1218534, 0.092781425, 0.33130836, 0
1061, 2695003393, -0.5410902, 0.25962636, -0.37068924, 0.7087969, 0.030856047, -0.046222672, 0.36101723, 0
1062, 2695020060, -0.5413003, 0.2599797, -0.3702058, 0.7087595, -0.06041815, -0.13250242, 0.32677555, 0
1063, 2695036727, -0.5415231, 0.2602013, -0.36971268, 0.7087654, 0.049331125, -0.15666392, 0.3774166, 0
1064, 2695053394, -0.541759, 0.26038647, -0.3689641, 0.7089073, 0.11415807, -0.16896963, 0.40682316, 0
1065, 2695070061, -0.54189605, 0.26059863, -0.36833456, 0.70905185, 0.020886866, -0.25578523, 0.2667675, 0
1066, 2695086728, -0.54184216, 0.26075244, -0.36831322, 0.7090476, -0.034742128, -0.17003617, 0.1459446, 0
1067, 2695103395, -0.54175967, 0.2608007, -0.368619, 0.7089341, 0.13218075, 0.03843718, 0.21238041, 0
1068, 2695120062, -0.54175603, 0.26069015, -0.3686911, 0.7089399, 0.06306122, 0.1029729, 0.2242403, 0
1069, 2695136729, -0.54177076, 0.26026762, -0.3685511, 0.7091567, -0.035286345, -0.10506042, 0.11537838, 0
1070, 2695153396, -0.54175496, 0.2596777, -0.36838493, 0.7094713, -0.015097825, -0.24556056, 0.07691383, 0
1071, 2695170063, -0.5416047, 0.25928596, -0.36850983, 0.70966446, 0.13905434, -0.2963972, 0.21218681, 0
1072, 2695186730, -0.54130566, 0.25932252, -0.369023, 0.70961267, 0.088898815, -0.13891384, 0.23308754, 0
1073, 2695203397, -0.54094803, 0.25932252, -0.36967036, 0.7095484, -0.0027824289, 0.019339152, 0.18980408, 0
1074, 2695220064, -0.5406694, 0.25904757, -0.3702063, 0.7095817, 0.008856729, 0.09007146, 0.11861801, 0
1075, 2695236731, -0.5404719, 0.25861588, -0.37045294, 0.70976067, 0.05788262, 0.0882518, 0.12480545, 0
1076, 2695253398, -0.5402932, 0.25814974, -0.3703546, 0.7101178, 0.15103614, -0.034796517, 0.072226524, 0
1077, 2695270065, -0.54016817, 0.25786474, -0.3700613, 0.71046925, 0.042169016, 0.008789867, -0.0390234, 0
1078, 2695286732, -0.5400679, 0.25760862, -0.37004232, 0.7106483, 0.0813393, -0.023031725, -0.050432205, 0
1079, 2695303399, -0.5398897, 0.25758025, -0.37046444, 0.710574, 0.13610841, -0.044770338, 0.027326584, 0
1080, 2695320066, -0.53961325, 0.25773075, -0.37119406, 0.71034867, 0.10331423, -0.06019317, 0.120212555, 0
1081, 2695336733, -0.53942883, 0.2578618, -0.3716118, 0.71022284, 0.039876666, 0.14466923, 0.22421837, 0
1082, 2695353400, -0.53951854, 0.25767937, -0.37114063, 0.7104671, 0.030993145, 0.20435923, 0.20073509, 0
1083, 2695370067, -0.53968465, 0.2573167, -0.37035638, 0.7108817, 0.04881942, -0.005427806, -0.042832375, 0
1084, 2695386734, -0.53974223, 0.25720316, -0.37009048, 0.71101743, 0.09283901, -0.1319226, -0.1868782, 0
1085, 2695403401, -0.53967434, 0.25747463, -0.37045795, 0.71077937, 0.11423116, -0.035504956, -0.116262436, 0
1086, 2695420068, -0.53954285, 0.25802732, -0.37103727, 0.71037656, 0.02306623, -0.0039232983, 0.13206482, 0
1087, 2695436735, -0.53936446, 0.2586344, -0.3714893, 0.71005476, -0.03979869, -0.029161878, 0.18247318, 0
1088, 2695453402, -0.53917694, 0.25907055, -0.37173247, 0.7099108, -0.0041419743, -0.03234851, 0.17243671, 0
1089, 2695470069, -0.53903437, 0.25926176, -0.37187463, 0.70987487, 0.03211993, -0.042179577, 0.16960144, 0
1090, 2695486736, -0.5389795, 0.25932384, -0.37171745, 0.7099763, -0.01730186, 0.09637764, 0.19489288, 0
1091, 2695503403, -0.53899884, 0.259048, -0.37113634, 0.7103662, 0.0060755853, 0.14268593, 0.16407299, 0
1092, 2695520070, -0.5389017, 0.25858185, -0.37067458, 0.71085066, 0.06451933, -0.17448647, 0.04907608, 0
1093, 2695536737, -0.5385732, 0.25841883, -0.37091988, 0.711031, 0.028165007, -0.33520254, -0.084692, 0
1094, 2695553404, -0.53805816, 0.25862822, -0.37181854, 0.71087533, 0.060887612, -0.24727277, 0.020503998, 0
1095, 2695570071, -0.53744555, 0.2589783, -0.37274292, 0.71072716, -0.03807244, 0.04122693, 0.100198746, 0
1096, 2695586738, -0.53690875, 0.25894955, -0.37316778, 0.7109204, -0.10387091, 0.20814082, 0.16126251, 0
1097, 2695603405, -0.53641, 0.25839248, -0.37318018, 0.7114929, 0.009611225, -0.08454429, 0.23884869, 0
1098, 2695620072, -0.53583676, 0.25784543, -0.37316376, 0.7121317, 0.08074931, -0.21751691, 0.18844223, 0
1099, 2695636739, -0.53522146, 0.25740266, -0.37309185, 0.7127918, 0.083688475, -0.12025162, 0.1605177, 0
1100, 2695653406, -0.5347004, 0.25692725, -0.37269104, 0.71356374, 0.05877206, 0.0055540437, 0.07822418, 0
1101, 2695670073, -0.5340987, 0.25639698, -0.3725134, 0.71429753, 0.024655543, -0.011177853, -0.159976, 0
1102, 2695686740, -0.53332204, 0.2561259, -0.37298355, 0.7147297, 0.03946761, -0.07791212, -0.12398434, 0
1103, 2695703407, -0.5325254, 0.2561685, -0.37376446, 0.7149003, 0.11144783, 0.054019954, -0.09177494, 0
1104, 2695720074, -0.5318362, 0.25634634, -0.37441692, 0.7150084, 0.047646396, 0.22743943, -0.017140388, 0
1105, 2695736741, -0.5312325, 0.25641376, -0.37503326, 0.7151098, 0.030035391, 0.13784213, 0.14832306, 0
1106, 2695753408, -0.53062874, 0.25644982, -0.37566373, 0.7152141, 0.066598006, 0.0041636117, 0.3506136, 0
1107, 2695770075, -0.53017545, 0.25653657, -0.37588397, 0.7154035, 0.072597034, 0.047930684, 0.38063526, 0
1108, 2695786742, -0.5299076, 0.25650787, -0.3754834, 0.71582246, 0.10057706, 0.11712754, 0.2857132, 0
1109, 2695803409, -0.5297597, 0.2563685, -0.3746804, 0.7164023, 0.06312065, -0.00867448, 0.061228752, 0
1110, 2695820076, -0.5296971, 0.25613773, -0.37395868, 0.7169081, -0.0030372897, -0.024371453, -0.06308174, 0
1111, 2695836743, -0.52965975, 0.25608844, -0.3736079, 0.71713614, -0.0048503987, 0.072839856, 0.10862446, 0
1112, 2695853410, -0.529313, 0.25655314, -0.3733825, 0.71734345, 0.054407496, 0.4046603, 0.47092915, 0
1113, 2695870077, -0.5289439, 0.2569392, -0.3722205, 0.7180812, 0.073973455, 0.31247267, 0.3817463, 0
1114, 2695886744, -0.5291781, 0.25627273, -0.36947513, 0.719563, -0.05974708, 0.14456812, -0.22357178, 0
1115, 2695903411, -0.52994937, 0.25483096, -0.3657791, 0.7213933, -0.16271129, 0.26998857, -0.2672243, 0
1116, 2695920078, -0.5309515, 0.25306305, -0.36179203, 0.7232868, -0.16846126, 0.18116237, -0.120601654, 0
1117, 2695936745, -0.53184605, 0.25140536, -0.35821298, 0.7249874, -0.08759568, 0.07309587, 0.07082558, 0
1118, 2695953412, -0.5323251, 0.25021458, -0.3551718, 0.7265423, 0.038760785, -0.17856026, 0.08578777, 0
1119, 2695970079, -0.5325881, 0.24958688, -0.3523783, 0.7279242, 0.016428147, -0.14083917, -0.12890911, 0
1120, 2695986746, -0.53284, 0.24906725, -0.34966454, 0.7292254, -0.05506739, 0.06633548, -0.1631012, 0
1121, 2696003413, -0.53305393, 0.24870723, -0.34739217, 0.7302771, 0.0150266085, 0.06983918, -0.14080048, 0
1122, 2696020080, -0.53334063, 0.24888104, -0.3452662, 0.7310165, 0.10204017, 0.6062677, -0.21211243, 0
1123, 2696036747, -0.53373975, 0.24904889, -0.34291095, 0.7317763, 0.04091547, 0.8075272, -0.25997066, 0
1124, 2696053414, -0.5342066, 0.24888617, -0.3402859, 0.7327157, -0.121420085, 0.56396234, -0.13853073, 0
1125, 2696070081, -0.53465796, 0.24829805, -0.3374403, 0.7339009, -0.09139585, 0.35951525, -0.015761375, 0
1126, 2696086748, -0.5350025, 0.24755669, -0.33418837, 0.735387, 0.07264727, 0.16737945, 0.08855152, 0
1127, 2696103415, -0.5350894, 0.24713223, -0.33152175, 0.7366725, 0.19498184, -0.09064255, 0.19013214, 0
1128, 2696120082, -0.53499675, 0.2467531, -0.32897705, 0.73800635, 0.22707179, -0.2290943, -0.026168823, 0
1129, 2696136749, -0.5350158, 0.24583082, -0.32647717, 0.73940915, -0.10371172, -0.18376383, 0.123518944, 0
1130, 2696153416, -0.5347223, 0.24436985, -0.32440555, 0.7410157, -0.18654653, -0.5812275, 0.29195023, 0
1131, 2696170083, -0.5336987, 0.24293709, -0.32216877, 0.7431976, 0.0024145267, -0.87994707, -0.14973736, 0
1132, 2696186750, -0.5322081, 0.2411579, -0.31914344, 0.74614525, 0.009889778, -0.623598, -0.30238724, 0
1133, 2696203417, -0.5308632, 0.23897843, -0.31602648, 0.7491253, 0.06861512, -0.05286219, 0.09833813, 0
1134, 2696220084, -0.52981484, 0.23602434, -0.3123555, 0.75233686, 0.16507958, 0.113880455, 0.084609985, 0
1135, 2696236751, -0.5289904, 0.2321964, -0.3079098, 0.7559323, 0.034327038, -0.06412642, -0.03822708, 0
1136, 2696253418, -0.52810967, 0.22791573, -0.3035218, 0.75961626, -0.12135017, -0.31736758, -0.1985054, 0
1137, 2696270085, -0.5270652, 0.22382475, -0.29964352, 0.7630901, -0.12452315, -0.30050945, -0.14662743, 0
1138, 2696286752, -0.52571815, 0.22012636, -0.29642287, 0.7663458, -0.046912994, -0.40762156, -0.0069875717, 0
1139, 2696303419, -0.52385956, 0.21712491, -0.29358402, 0.76956123, -0.01475877, -0.3164065, -0.2124815, 0
1140, 2696320086, -0.52176076, 0.21444881, -0.29050478, 0.77289855, -0.018091334, -0.014529601, -0.35238647, 0
1141, 2696336753, -0.5197372, 0.21164267, -0.28726336, 0.7762398, -1.3757222E-4, 0.13011019, -0.32101727, 0
