sep=									
DeviceTag:	Xsens_2								
FirmwareVersion:	2.4.0								
AppVersion:	2022.0.1								
SyncStatus:	Synced								
OutputRate:	60Hz								
FilterProfile:	General								
Measurement Mode:	Sensor fusion Mode - Extended (Quaternion)								
StartTime:	2020-11-25 11:18:32.882 +0100								
© Xsens Technologies B. V. 2005-2020									
PacketCounter	SampleTimeFine	Quat_W	Quat_X	Quat_Y	Quat_Z	FreeAcc_X	FreeAcc_Y	FreeAcc_Z	Status
1	2677336373	9.81E-18	7.50E-17	0.707106781	0.707106781	-0.16053835	0.35979939	0.8328446	0
2	2677353040	0.000994247	0.001962215	0.706407485	0.707801968	0.116815785	0.003475746	0.321156061	0
3	2677369707	0.002543963	0.004040098	0.705136788	0.709055228	0.217280763	-0.017200768	0.11922079	0
4	2677386374	0.003656968	0.006317719	0.703476409	0.71068112	0.082238783	0.145517307	-0.339433605	0
5	2677403041	0.004251012	0.008282434	0.701540259	0.71256901	0.038860603	0.169073718	-0.593127519	0
6	2677419708	0.004828324	0.010020952	0.699488969	0.714556821	-0.139008171	0.074799815	-0.384225984	0
7	2677436375	0.005324829	0.011705526	0.697488729	0.716480356	-0.286407348	-0.110857527	-0.334932943	0
8	2677453042	0.006032623	0.0132327	0.695756926	0.718130074	-0.085570852	-0.067946547	-0.167042273	0
9	2677469709	0.006670174	0.014469484	0.694369602	0.719442144	0.209533331	0.168233044	-0.391681696	0
10	2677486376	0.006556327	0.014999157	0.692888768	0.720858651	0.22583751	-0.007298789	-1.01330874	0
11	2677503043	0.005994829	0.014642155	0.691645932	0.722063415	0.396286543	-0.128562536	-1.40148157	0
12	2677519710	0.004964147	0.012989615	0.689825455	0.723842158	0.67440071	-0.276539094	-1.757259648	0
13	2677536377	0.003545856	0.010169336	0.686516038	0.727034896	0.75354902	-0.730748537	-1.335513287	0
14	2677553044	0.001873	0.007138476	0.681507376	0.73177403	0.685207709	-0.76123853	-0.777973313	0
15	2677569711	0.000659035	0.004299422	0.675697718	0.737165975	0.412370152	-0.536275273	-0.103894004	0
16	2677586378	0.00020483	0.001307562	0.670447551	0.741955746	0.229167504	-0.233826258	-0.143102503	0
17	2677603045	0.000489447	0.002718779	-0.665969696	-0.745973681	0.455246031	-0.20357138	-0.529023031	0
18	2677619712	0.001303245	0.007515423	-0.662077335	-0.749396706	0.70051814	-0.898980469	-0.726620556	0
19	2677636379	0.001562063	0.01202005	-0.658575694	-0.752416861	0.360624757	-1.211647815	-0.391506536	0
20	2677653046	0.001088554	0.015550857	-0.656670588	-0.754016396	-0.594094955	-0.674226909	-0.311470689	0
21	2677669713	0.001125664	0.019679798	-0.655531884	-0.754910185	-0.59576975	0.006662267	-0.793510003	0
22	2677686380	0.001855017	0.025061851	-0.654507932	-0.755637366	0.038660453	-0.358103071	-0.903604795	0
23	2677703047	0.002609442	0.029704017	-0.653857657	-0.756029779	-0.533491761	-0.662750111	-0.474637748	0
24	2677719714	0.003832708	0.032852381	-0.653718589	-0.756014575	-1.493552225	-0.288989207	0.33668683	0
25	2677736381	0.005319325	0.035284354	-0.654881181	-0.754888971	-1.310835871	0.453332066	0.825399349	0
26	2677753048	0.006198511	0.037824591	-0.656816911	-0.753075311	-0.742416367	0.360404558	0.640995489	0
27	2677769715	0.006305218	0.040146622	-0.659764353	-0.750372902	-0.378106222	0.203063174	0.111436957	0
28	2677786382	0.006028384	0.042274041	-0.663423892	-0.747024299	-0.215452149	-0.243071619	-0.153521758	0
29	2677803049	0.00586386	0.044267434	-0.668627753	-0.742255305	-0.184128887	-0.521280967	-0.209340356	0
30	2677819716	0.005156807	0.04559072	-0.675765103	-0.735687718	-0.870180045	0.047926956	-0.237808212	0
31	2677836383	0.004082137	0.047276248	-0.68423986	-0.727711554	-1.237445284	0.24273112	-0.373997327	0
32	2677853050	0.003325486	0.049742409	-0.693794551	-0.718445374	-0.908312991	-0.019157865	-0.567316524	0
33	2677869717	0.003855437	0.052334675	-0.704218304	-0.708041522	-0.979830431	-0.111671905	-1.138159512	0
34	2677886384	0.006507818	0.055316362	-0.713463002	-0.698475692	-0.951015291	-0.687264331	-2.032658863	0
35	2677903051	0.010512598	0.059274472	-0.720283719	-0.691062505	-0.210157643	-1.593094574	-2.068962258	0
36	2677919718	0.014957188	0.063628708	-0.725917526	-0.684668837	0.316405321	-1.892153834	-1.180972042	0
37	2677936385	0.020225049	0.06764375	-0.730607718	-0.679137418	-0.096784865	-1.706764329	-0.864774168	0
38	2677953052	0.027076343	0.07257866	-0.734190444	-0.674509898	-0.121072396	-1.048645865	-1.475845467	0
39	2677969719	0.034988801	0.079207708	-0.737160844	-0.670146113	0.894257177	-0.045197996	-2.390135536	0
40	2677986386	0.042996047	0.087768587	-0.73871687	-0.666892346	2.114377375	0.444836115	-2.076512694	0
41	2678003053	0.050569853	0.09617198	-0.739370607	-0.664473284	1.638242044	0.784891756	-0.90207455	0
42	2678019720	0.057724317	0.104045585	-0.740038777	-0.661955458	-0.108765866	0.728385135	-0.083899054	0
43	2678036387	0.064203789	0.112564135	-0.741807062	-0.657973762	-1.500802962	0.813528102	0.2684192	0
44	2678053054	0.070180642	0.122688633	-0.744548033	-0.652434214	-1.462313755	1.478510704	0.123168123	0
45	2678069721	0.076448624	0.13311198	-0.746854268	-0.647028215	-0.797396863	3.221539853	-0.18680106	0
46	2678086388	0.082570729	0.141981097	-0.748300096	-0.642705538	-0.602667558	3.129324717	0.736379416	0
47	2678103055	0.088371423	0.14814465	-0.748458867	-0.640353792	-0.768446752	2.263398874	2.152879085	0
48	2678119722	0.094529051	0.152650706	-0.746654759	-0.640522202	-0.626206544	1.435943917	2.638268432	0
49	2678136389	0.101143983	0.156584763	-0.742750787	-0.64309593	-0.091137385	0.618609798	2.46644161	0
50	2678153056	0.107499496	0.160223983	-0.738244413	-0.646349225	0.263460722	0.037772569	1.94806246	0
51	2678169723	0.112997985	0.163768902	-0.734058587	-0.6492836	0.526549309	-0.486518308	1.239245458	0
52	2678186390	0.117546376	0.16681158	-0.730151256	-0.652101135	0.674753058	-0.906145538	0.841756464	0
53	2678203057	0.12129857	0.169184332	-0.726076448	-0.655344421	0.727593621	-0.733131842	0.823107979	0
54	2678219724	0.124190359	0.171188127	-0.721697142	-0.659108956	0.82615402	-0.252070643	0.866960191	0
55	2678236391	0.126034738	0.172945613	-0.717426395	-0.662951301	0.642721636	0.127207875	0.779901315	0
56	2678253058	0.126947264	0.174418261	-0.713438776	-0.666684165	-0.293241848	0.247383511	0.625930244	0
57	2678269725	0.128219762	0.175521858	-0.708666491	-0.671225428	-0.348509353	0.341049059	0.460061085	0
58	2678286392	0.129306697	0.176524771	-0.701797776	-0.677937066	0.864041406	0.459936514	0.695663692	0
59	2678303059	0.130103022	0.177141363	-0.69266251	-0.686959088	1.666205237	0.907141708	1.424522937	0
60	2678319726	0.131181736	0.177160064	-0.681558972	-0.697770042	1.420919814	0.993779698	1.859063919	0
61	2678336393	0.132521561	0.176570633	-0.669714651	-0.709043816	0.103833002	0.357012066	1.836248582	0
62	2678353060	0.132978472	0.175567535	-0.658533851	-0.719601232	-0.721807267	0.128590253	1.95325659	0
63	2678369727	0.131582515	0.175156517	-0.649238458	-0.728351331	-1.323581202	0.10412997	1.777235279	0
64	2678386394	0.128227418	0.175963727	-0.642516642	-0.734688275	-0.847847023	-0.145730025	1.102197305	0
65	2678403061	0.123041758	0.177248114	-0.638437187	-0.738811065	-0.155835217	-0.176761354	0.596596655	0
66	2678419728	0.11671924	0.178861705	-0.636517488	-0.741100935	0.167794287	-0.141799765	0.099017051	0
67	2678436395	0.109526214	0.180904768	-0.636263104	-0.741920977	0.255584751	-0.031674278	-0.518729127	0
68	2678453062	0.101772654	0.183440604	-0.637558505	-0.741290108	0.193513813	-0.040848122	-1.141994301	0
69	2678469729	0.093961685	0.186416969	-0.639931669	-0.739531862	0.264946859	0.025748647	-1.519096208	0
70	2678486396	0.086765601	0.190042247	-0.642449705	-0.737301873	0.447253851	0.297398451	-1.786894466	0
71	2678503063	0.080792672	0.194246105	-0.644200399	-0.735354908	0.604658119	0.419492921	-1.873868587	0
72	2678519730	0.076170432	0.198967862	-0.644543873	-0.73428404	0.747001395	0.544629289	-1.76799303	0
73	2678536397	0.072540174	0.204522647	-0.644081019	-0.73353122	0.360818893	0.521738464	-2.064008253	0
74	2678553064	0.070581455	0.209030714	-0.644611041	-0.731984307	-2.164175112	-0.389707235	-2.292124892	0
75	2678569731	0.070346328	0.211551783	-0.647377837	-0.72883412	-3.871885927	-1.01562217	-1.520418148	0
76	2678586398	0.071401976	0.213267651	-0.651410974	-0.724625703	-3.010977801	-0.127908516	-0.331830767	0
77	2678603065	0.074087607	0.214360953	-0.654337187	-0.721389807	-1.14824014	0.501401691	0.904402087	0
78	2678619732	0.07857957	0.214192375	-0.654086442	-0.721191933	-0.273341129	0.481586162	1.35263155	0
79	2678636399	0.084063274	0.21278176	-0.651406908	-0.723412972	-0.274386642	0.224373665	1.165365474	0
80	2678653066	0.08945966	0.210834879	-0.648000101	-0.726389353	-0.258284342	0.256528754	0.911536092	0
81	2678669733	0.094413874	0.209038691	-0.644566108	-0.729330774	0.147445302	0.458705845	0.551341287	0
82	2678686400	0.098744413	0.207637031	-0.641303842	-0.732028542	0.591232229	0.582587818	0.214941327	0
83	2678703067	0.102371173	0.206687914	-0.638590927	-0.734167472	0.758267528	0.419392303	-0.111029159	0
84	2678719734	0.105061439	0.206276315	-0.636711129	-0.735534577	0.780405281	0.216010874	-0.324561611	0
85	2678736401	0.106713505	0.206657076	-0.635946662	-0.735851156	0.761317852	0.185447059	-0.470336427	0
86	2678753068	0.107445118	0.207973798	-0.636433221	-0.734952516	0.853443848	0.121286963	-0.540969749	0
87	2678769735	0.10751839	0.210126845	-0.637919316	-0.733038505	0.903240152	0.07686286	-0.598483517	0
88	2678786402	0.107179186	0.212967238	-0.639881953	-0.730553669	0.836067128	0.13397907	-0.49860725	0
89	2678803069	0.106678262	0.216131084	-0.641836287	-0.727978904	0.629563309	0.263903014	-0.354784566	0
90	2678819736	0.106283038	0.219122487	-0.643422195	-0.725739024	0.258093871	0.313339475	-0.192630632	0
91	2678836403	0.106195715	0.221636029	-0.64458535	-0.723954189	-0.257928129	0.171964474	0.018253544	0
92	2678853070	0.106375451	0.223609726	-0.645437121	-0.722560639	-0.568582257	-0.07260509	0.22210443	0
93	2678869737	0.106801208	0.224868852	-0.645975687	-0.721625189	-0.654511444	-0.155450769	0.533037063	0
94	2678886404	0.107479971	0.225362103	-0.64609613	-0.721262621	-0.595694984	-0.145817808	0.754352866	0
95	2678903071	0.108275993	0.225096372	-0.64576204	-0.721525689	-0.504177243	-0.159439154	0.845932121	0
96	2678919738	0.109002416	0.224230407	-0.645133851	-0.722247542	-0.426025217	-0.022290269	0.790543241	0
97	2678936405	0.109375002	0.223000473	-0.644637307	-0.723014966	-0.312112082	0.087115512	0.598490371	0
98	2678953072	0.10919378	0.221580074	-0.644556265	-0.723551111	-0.175283313	0.190458223	0.402677874	0
99	2678969739	0.108449593	0.220135675	-0.644962014	-0.723742338	0.00645894	0.33291174	0.221881008	0
100	2678986406	0.107191984	0.218806023	-0.645815858	-0.723571476	0.079800645	0.390265671	0.089583985	0
101	2679003073	0.105650281	0.217852784	-0.646911915	-0.723106601	0.246827059	0.412800708	-0.001447523	0
102	2679019740	0.103886912	0.21721597	-0.647904045	-0.722665262	0.417471236	0.292105819	-0.009452712	0
103	2679036407	0.10201233	0.216777286	-0.648679395	-0.722368421	0.337914588	0.118002504	-0.108437206	0
104	2679053074	0.09994467	0.216349968	-0.649477868	-0.72206804	0.176269458	0.049334657	-0.291198856	0
105	2679069741	0.097639738	0.2158776	-0.650225884	-0.721851539	0.093778599	0.053422965	-0.50078856	0
106	2679086408	0.09533091	0.215328748	-0.650890784	-0.721724833	-0.106862539	0.478046569	-0.69379208	0
107	2679103075	0.094473028	0.215474129	-0.651060672	-0.721641011	0.33268734	0.661733911	-0.976223556	0
108	2679119742	0.094933802	0.216394427	-0.649568163	-0.72264945	0.376801082	0.636972235	-1.173474154	0
109	2679136409	0.095771617	0.217289752	-0.647641217	-0.723998491	0.302502733	0.078787168	-1.062406358	0
110	2679153076	0.09655938	0.21772727	-0.645588746	-0.725593752	-0.15882776	-0.241374932	-0.361929333	0
111	2679169743	0.097284379	0.218011966	-0.643759093	-0.727035599	-0.425489475	-0.270736304	0.530004827	0
112	2679186410	0.097992154	0.21834349	-0.642536203	-0.727922308	-0.615005851	-0.352541588	0.755190742	0
113	2679203077	0.098369801	0.2186616	-0.641932229	-0.728308658	-0.63326383	-0.212025168	0.627362931	0
114	2679219744	0.098248213	0.218925431	-0.641966608	-0.728215503	-0.431954275	0.055810905	0.33692623	0
115	2679236411	0.097559157	0.218883643	-0.642893365	-0.727502772	-0.321694388	-0.064661341	0.134474051	0
116	2679253078	0.096373446	0.218449481	-0.64441095	-0.726447872	-0.354265469	-0.127697515	0.059076292	0
117	2679269745	0.094905865	0.217946682	-0.646289806	-0.725121788	-0.228710281	-0.057421804	0.071546074	0
118	2679286412	0.093431078	0.217432839	-0.648084099	-0.723865039	-0.068192192	-0.017430928	0.139093095	0
119	2679303079	0.092019588	0.216907878	-0.649601267	-0.722842695	-0.034277844	0.011151216	0.049543414	0
120	2679319746	0.090621497	0.216335689	-0.651033695	-0.721901477	-0.136439041	-0.058207691	-0.097462528	0
121	2679336413	0.089182484	0.21574305	-0.652722542	-0.720732061	-0.307453835	-0.01269237	-0.254158737	0
122	2679353080	0.087773093	0.215309602	-0.654680438	-0.719257383	-0.33197948	0.028421623	-0.355816505	0
123	2679369747	0.086525925	0.21501488	-0.656763092	-0.717596061	-0.264599714	-0.036902068	-0.422401688	0
124	2679386414	0.085525566	0.214715942	-0.658833302	-0.715905805	-0.21073454	-0.023795901	-0.480129339	0
125	2679403081	0.084786595	0.214383879	-0.660848211	-0.714234155	-0.216097315	-0.056187592	-0.502747296	0
126	2679419748	0.084187639	0.214006619	-0.662794711	-0.712612644	-0.19134749	-0.083348202	-0.484507796	0
127	2679436415	0.083783218	0.213607984	-0.664628189	-0.711070581	-0.175095668	0.011470565	-0.488609377	0
128	2679453082	0.083575071	0.213437692	-0.666227039	-0.70964857	0.056915384	0.187175916	-0.451800326	0
129	2679469749	0.083508631	0.213459721	-0.667301192	-0.708639807	0.253965377	0.3329973	-0.293023759	0
130	2679486416	0.083715481	0.213581191	-0.66759888	-0.708298333	0.246774028	0.442723765	-0.201573787	0
131	2679503083	0.084428954	0.213661745	-0.66717036	-0.708593058	0.005198148	0.517458085	-0.175695258	0
132	2679519750	0.085426585	0.213935194	-0.666133493	-0.709366055	0.000505031	0.462467481	-0.132747615	0
133	2679536417	0.086324701	0.214380842	-0.664371021	-0.710774259	0.156881507	0.360882524	0.192514663	0
134	2679553084	0.087274391	0.21474873	-0.66211869	-0.712646479	0.094216627	0.091356375	0.350532085	0
135	2679569751	0.088181247	0.214787845	-0.660028245	-0.714459911	-0.273764738	-0.207700555	0.327144473	0
136	2679586418	0.088648908	0.214693446	-0.658638614	-0.715711724	-0.464528042	-0.187172699	0.176732181	0
137	2679603085	0.088498739	0.214707359	-0.658232518	-0.716099627	-0.481383558	-0.167786989	0.010994452	0
138	2679619752	0.08788493	0.214684753	-0.658724909	-0.715729132	-0.252361509	-0.111771285	-0.00950516	0
139	2679636419	0.087100978	0.21453964	-0.659420384	-0.71522788	0.087136894	0.050562277	0.071832689	0
140	2679653086	0.086531506	0.214271289	-0.659671868	-0.715145538	0.262349643	0.128634256	0.01934973	0
141	2679669753	0.086300705	0.213795915	-0.659493458	-0.71548017	0.182104873	0.131115315	-0.093442512	0
142	2679686420	0.086191182	0.213129071	-0.65912049	-0.716035794	0.052721582	0.144168238	-0.16930315	0
143	2679703087	0.085928909	0.212405949	-0.658902125	-0.716483025	-0.150420419	0.243157668	-0.252173318	0
144	2679719754	0.08538192	0.211875347	-0.659039565	-0.716579107	-0.361316253	0.273167333	-0.175363887	0
145	2679736421	0.084657515	0.211620984	-0.659837175	-0.716005982	-0.204213962	0.181048018	-0.167785999	0
146	2679753088	0.083404071	0.211329438	-0.661507707	-0.714696567	-0.273237485	-0.271237869	-0.175055733	0
147	2679769755	0.080881098	0.210937152	-0.663870406	-0.712909426	-0.269015354	-0.497994836	0.334041063	0
148	2679786422	0.077077503	0.210482501	-0.667704532	-0.709878041	-0.237477956	-0.341605715	0.677579308	0
149	2679803089	0.072558943	0.210010408	-0.672929113	-0.705547473	-0.334723285	-0.218821563	0.683251437	0
150	2679819756	0.067623659	0.20954292	-0.679173902	-0.700172561	-0.479392771	0.052477793	0.475175383	0
151	2679836423	0.062724294	0.208873287	-0.686137632	-0.694012077	-0.733450994	0.391107242	0.167222743	0
152	2679853090	0.058107482	0.207937554	-0.693848905	-0.686992861	-1.093374912	0.56451882	-0.050553198	0
153	2679869757	0.054137372	0.206963527	-0.702113083	-0.679170422	-1.083651927	0.372825874	-0.367581342	0
154	2679886424	0.051116232	0.206133368	-0.710447395	-0.670940135	-0.84082998	0.064197772	-0.534407818	0
155	2679903091	0.048949038	0.205472716	-0.718399871	-0.662786979	-0.284695916	-0.052196718	-0.540870438	0
156	2679919758	0.04732647	0.205029103	-0.725823989	-0.654906718	0.271738969	-0.053169848	-0.382015584	0
157	2679936425	0.046166163	0.204664123	-0.732681284	-0.647425222	0.497129959	-0.079269225	-0.280988214	0
158	2679953092	0.045634375	0.204328929	-0.739013282	-0.640333164	0.451072197	-0.089225815	-0.400890258	0
159	2679969759	0.045761691	0.204394125	-0.744885995	-0.63346173	0.461966871	-0.047303063	-0.810065023	0
160	2679986426	0.046389688	0.205170303	-0.750243518	-0.626807631	0.4813422	-0.028422964	-0.930862876	0
161	2680003093	0.046879074	0.206571542	-0.755293677	-0.620211264	0.465062576	0.127575719	-0.756071061	0
162	2680019760	0.046640115	0.208503916	-0.760729096	-0.612896451	0.162724985	0.158766712	-0.513608841	0
163	2680036427	0.045978833	0.210811032	-0.766836155	-0.604489013	-0.156978562	0.083960616	-0.398567696	0
164	2680053094	0.044959479	0.213814613	-0.773186192	-0.595352895	0.042932308	0.05247781	-0.358667016	0
165	2680069761	0.042982856	0.217767875	-0.779566183	-0.585667306	0.342987333	-0.022898925	-0.17710827	0
166	2680086428	0.041018953	0.22150436	-0.785900835	-0.575858612	0.225517686	0.043381618	-0.074423549	0
167	2680103095	0.039947559	0.224642975	-0.791379124	-0.567149723	0.072781927	0.015456773	-0.329931161	0
168	2680119762	0.039413076	0.227951989	-0.795130633	-0.560581641	0.457345056	0.011036898	-0.221087037	0
169	2680136429	0.039167144	0.231361135	-0.797173914	-0.55628384	0.766672737	0.282415307	0.070103024	0
170	2680153096	0.039377741	0.234220428	-0.797958139	-0.553943132	0.537938084	0.363502746	0.307036765	0
171	2680169763	0.039706035	0.236466597	-0.797812141	-0.553175169	0.208248398	0.244914466	0.562135618	0
172	2680186430	0.039555855	0.23833441	-0.797102271	-0.553407637	0.026920291	0.185196613	0.594874084	0
173	2680203097	0.038683845	0.240321465	-0.796325702	-0.553727848	0.000852517	0.246094315	0.515229659	0
174	2680219764	0.037247804	0.242250104	-0.795679271	-0.553915144	-0.05923678	0.146751059	0.439397813	0
175	2680236431	0.03547173	0.243879367	-0.795184673	-0.554027027	-0.267547448	-0.125553298	0.353665813	0
176	2680253098	0.033264089	0.245177871	-0.794769572	-0.554186466	-0.281589641	-0.289147758	0.312345769	0
177	2680269765	0.030609166	0.246299129	-0.79442162	-0.554341147	-0.084666229	-0.242125575	0.327495647	0
178	2680286432	0.028099468	0.247142695	-0.794071479	-0.554600212	-0.1435253	-0.194893072	0.12579803	0
179	2680303099	0.026008716	0.247679882	-0.793408625	-0.555410638	-0.248037341	-0.000875051	-0.077263523	0
180	2680319766	0.024315875	0.247935112	-0.792246365	-0.557030175	-0.170111029	0.217598028	-0.115704861	0
181	2680336433	0.023080031	0.248116765	-0.790459626	-0.559534595	-0.090908533	0.219571392	-0.132660349	0
182	2680353100	0.022226062	0.248291116	-0.788165159	-0.562719474	-0.14098072	0.158895816	-0.201759216	0
183	2680369767	0.021319684	0.248620252	-0.78583121	-0.565864604	-0.28435545	-0.016473058	-0.131863761	0
184	2680386434	0.02028405	0.248937238	-0.784019533	-0.568271221	-0.521710343	-0.154073586	-0.139261462	0
185	2680403101	0.019132478	0.249372966	-0.782933016	-0.569616506	-0.553679317	-0.052529518	-0.406754827	0
186	2680419768	0.01800385	0.250016046	-0.782439299	-0.570049631	-0.474396516	-0.081631314	-0.596967861	0
187	2680436435	0.017170061	0.250667617	-0.782213586	-0.570098975	-0.452199106	-0.028716671	-0.587786995	0
188	2680453102	0.016972494	0.251504697	-0.781843356	-0.57024406	-0.357793217	-0.056349345	-0.450271658	0
189	2680469769	0.017250768	0.252399498	-0.781318324	-0.570559884	-0.320800226	-0.1005193	-0.181482309	0
190	2680486436	0.017824828	0.253066549	-0.780846523	-0.57089255	-0.517388817	-0.078196397	0.107472229	0
191	2680503103	0.018563056	0.253485473	-0.780623882	-0.570987638	-0.686571285	-0.039503254	0.190778225	0
192	2680519770	0.019329764	0.253800647	-0.780767181	-0.570626147	-0.619608715	0.11815972	0.115597459	0
193	2680536437	0.020001692	0.253874038	-0.781267821	-0.569884635	-0.396016825	0.179991941	0.032552616	0
194	2680553104	0.020391366	0.25344193	-0.781889159	-0.569210615	-0.430377284	0.257651759	0.005575418	0
195	2680569771	0.020568871	0.252575866	-0.782219453	-0.56913538	-0.302160008	0.794726631	0.206658869	0
196	2680586438	0.020687525	0.25210491	-0.781499584	-0.570327573	0.22177021	1.112189161	0.419817552	0
197	2680603105	0.020637187	0.252330675	-0.779692426	-0.572698051	0.391090538	0.763840499	0.397705049	0
198	2680619772	0.02011148	0.252842455	-0.777555994	-0.575389344	0.177184153	0.354113054	0.285530297	0
199	2680636439	0.018799369	0.253527102	-0.775679909	-0.577660169	-0.002624456	-0.033063946	0.177893574	0
200	2680653106	0.016939572	0.25430693	-0.774186894	-0.579375259	0.057493704	-0.09102242	-0.234273696	0
201	2680669773	0.015050101	0.255247746	-0.772584741	-0.581149637	0.226119514	-0.189535599	-0.383921738	0
202	2680686440	0.013178023	0.256253939	-0.770510717	-0.583501066	0.401235789	-0.11224957	-0.26793096	0
203	2680703107	0.011522028	0.257210858	-0.767788026	-0.586695291	0.170814473	-0.24802018	0.053905699	0
204	2680719774	0.009919297	0.258160721	-0.764792003	-0.590209998	-0.0097915	-0.347465095	0.432984531	0
205	2680736441	0.008542641	0.258901094	-0.761838361	-0.593716733	-0.418773228	-0.370377752	0.500752336	0
206	2680753108	0.007898883	0.259237645	-0.759120547	-0.597050623	-0.83381097	-0.372012424	0.195128864	0
207	2680769775	0.008125398	0.259092575	-0.756612308	-0.600285625	-0.886417743	-0.179343407	0.086782966	0
208	2680786442	0.008349945	0.258991549	-0.754742669	-0.602675003	-0.736122627	0.033835858	0.011326091	0
209	2680803109	0.008414845	0.258751729	-0.753943448	-0.603776457	-0.859888611	0.076983401	-0.303926002	0
210	2680819776	0.008361094	0.258407134	-0.753968634	-0.603893322	-0.708770195	0.106947904	-0.565148055	0
211	2680836443	0.008404084	0.258118308	-0.754281017	-0.603626092	-0.286465992	0.232818863	-0.533432134	0
212	2680853110	0.008806487	0.257851897	-0.754404044	-0.60358047	0.010580217	0.205105069	-0.553185197	0
213	2680869777	0.009555276	0.257645376	-0.753953537	-0.604219845	0.072587422	0.078414338	-0.399274504	0
214	2680886444	0.010517492	0.257418867	-0.753072639	-0.605397811	0.006897123	0.028359198	-0.244917059	0
215	2680903111	0.011612946	0.257303016	-0.751973956	-0.606791124	0.102969797	0.021330705	-0.312452316	0
216	2680919778	0.012802744	0.257430572	-0.750575214	-0.608442634	0.255231921	0.029546068	-0.45089612	0
217	2680936445	0.014098004	0.257717022	-0.748791353	-0.610487259	0.092010262	-0.103224481	-0.328427209	0
218	2680953112	0.015273613	0.257916349	-0.746991884	-0.612575709	-0.190861927	-0.130861128	-0.032031686	0
219	2680969779	0.016301702	0.257848206	-0.745555692	-0.61432505	-0.4504192	-0.099857761	-0.008174705	0
220	2680986446	0.017222511	0.257645903	-0.744483567	-0.615683516	-0.470425911	-0.041489613	-0.004519332	0
221	2681003113	0.017951437	0.257368131	-0.743721096	-0.61669954	-0.357222466	-0.03272742	-0.043086796	0
222	2681019780	0.018601206	0.257027471	-0.743251938	-0.617387585	-0.203457715	-0.059333358	-0.158464975	0
223	2681036447	0.019271128	0.256590439	-0.743040333	-0.617803394	0.025465943	0.040828282	-0.357680173	0
224	2681053114	0.020153189	0.256141468	-0.742818631	-0.618228015	0.02306444	0.113130916	-0.450342306	0
225	2681069781	0.021241897	0.255793949	-0.742402495	-0.618835013	0.009818426	0.138305469	-0.42534291	0
226	2681086448	0.022423278	0.255693366	-0.741740864	-0.619627783	0.026246572	0.10413835	-0.357231152	0
227	2681103115	0.023497969	0.255662961	-0.741000739	-0.620485456	-0.037593548	0.011107343	-0.136725468	0
228	2681119782	0.024423987	0.255613747	-0.740346116	-0.621250923	-0.195586825	0.028904821	-0.014891432	0
229	2681136449	0.025248477	0.255547414	-0.739782847	-0.621915889	-0.239395999	-0.002140129	0.030731291	0
230	2681153116	0.025946307	0.255520177	-0.739312411	-0.622457538	-0.150818004	0.090531393	0.011299982	0
231	2681169783	0.026593322	0.255553113	-0.73889901	-0.62290742	-0.065007014	0.105100617	-0.042436008	0
232	2681186450	0.027111624	0.255613757	-0.738516657	-0.623313496	-0.121022392	0.044223892	0.053900652	0
233	2681203117	0.027558757	0.255642297	-0.738293471	-0.623546536	-0.232103205	0.044290359	0.061715059	0
234	2681219784	0.028005364	0.255712084	-0.738227881	-0.623575677	-0.139094122	0.101642352	0.035508302	0
235	2681236451	0.028236109	0.255837621	-0.738312206	-0.623413924	-0.097437137	0.077327797	-0.102162159	0
236	2681253118	0.02826493	0.255983595	-0.738531437	-0.623092938	-0.200484255	0.006129961	-0.255929762	0
237	2681269785	0.02820395	0.256032632	-0.738825078	-0.622727334	-0.277216739	-0.025244754	-0.167050808	0
238	2681286452	0.028112116	0.255929643	-0.739185443	-0.622346051	-0.203398425	0.020901033	-0.017653046	0
239	2681303119	0.028084906	0.255849731	-0.739503403	-0.622002308	-0.085049374	0.015402074	-0.113834899	0
240	2681319786	0.028106859	0.255977619	-0.739658811	-0.621763867	0.091037139	-0.014187822	-0.231927873	0
241	2681336453	0.028120743	0.256142051	-0.739694077	-0.621653557	0.013800284	-0.047528237	-0.186917865	0
242	2681353120	0.028042903	0.256256025	-0.739809455	-0.621472779	-0.192870283	-0.077010442	-0.17280049	0
243	2681369787	0.027968327	0.256366891	-0.740090067	-0.621096195	-0.220660571	-0.062323105	-0.249363119	0
244	2681386454	0.028003475	0.256607219	-0.740311413	-0.620731466	-0.144499052	-0.090030683	-0.245278365	0
245	2681403121	0.028116217	0.256864659	-0.740413715	-0.62049783	-0.092043326	-0.04046955	-0.131359667	0
246	2681419788	0.028180927	0.257150983	-0.740487921	-0.620287712	-0.09212191	-0.01101724	-0.122427292	0
247	2681436455	0.028182224	0.257432205	-0.74051836	-0.620134647	-0.117025003	0.016998255	-0.099050453	0
248	2681453122	0.02814841	0.257695733	-0.740582949	-0.619949572	-0.176224562	0.006104719	-0.113623519	0
249	2681469789	0.028126455	0.258005535	-0.740703134	-0.619678072	-0.191117579	0.056934315	-0.199308507	0
250	2681486456	0.028132022	0.258417756	-0.740811131	-0.619376882	-0.142498978	0.03226299	-0.245960064	0
251	2681503123	0.02818497	0.25885441	-0.740809395	-0.619194188	-0.125518849	0.043552482	-0.160379827	0
252	2681519790	0.028349352	0.259229626	-0.740695816	-0.619165587	-0.147503495	0.112476246	-0.007849742	0
253	2681536457	0.028506856	0.259448196	-0.74068466	-0.619080147	-0.155810919	0.181950066	0.067488261	0
254	2681553124	0.028459695	0.259589069	-0.740824242	-0.618856206	-0.237187811	0.121161468	-0.007921179	0
255	2681569791	0.028199773	0.259788095	-0.741095654	-0.618459497	-0.266419343	0.080435211	-0.107146519	0
256	2681586458	0.0278691	0.260041549	-0.74144591	-0.61794795	-0.220984722	0.053239028	-0.157537404	0
257	2681603125	0.027568915	0.260282378	-0.741783185	-0.617455055	-0.159210129	0.037189403	-0.15481221	0
258	2681619792	0.027337492	0.260503285	-0.741975836	-0.617140631	-0.010772554	0.108024973	-0.151527096	0
259	2681636459	0.027031115	0.260708144	-0.742036952	-0.61699412	-0.065110328	0.067179626	-0.054120934	0
260	2681653126	0.026663028	0.260848789	-0.74213668	-0.616830723	-0.243450103	-0.015937994	-0.01168782	0
261	2681669793	0.026301112	0.260870147	-0.742454626	-0.616454497	-0.284034158	-0.068815596	-0.012891398	0
262	2681686460	0.025889489	0.26088344	-0.742858415	-0.615979659	-0.110402925	-0.018343886	-0.105035244	0
263	2681703127	0.02503182	0.26115428	-0.743418151	-0.615224596	0.017057229	0.194154423	-0.034720458	0
264	2681719794	0.023502997	0.261485837	-0.744513374	-0.613818053	-0.213761419	0.190712523	-0.048377913	0
265	2681736461	0.021553757	0.261576561	-0.746246721	-0.611742568	-0.567572985	0.058551262	-0.118294006	0
266	2681753128	0.019430114	0.261424467	-0.748216384	-0.609468589	-0.48432968	-0.127036372	-0.154936001	0
267	2681769795	0.017491726	0.260944224	-0.750022554	-0.607509935	-0.279677951	-0.062314904	-0.222333208	0
268	2681786462	0.015981073	0.260189232	-0.751884734	-0.605570406	-0.203611478	-0.216932679	-0.012297185	0
269	2681803129	0.014316906	0.259286318	-0.753983628	-0.603385714	-0.283947467	-0.475510345	0.306905755	0
270	2681819796	0.011926626	0.258132066	-0.756889501	-0.600286494	-0.592585483	-0.555856226	0.40198601	0
271	2681836463	0.009162011	0.256747016	-0.76085151	-0.595904361	-0.680780814	-0.458161133	0.157437118	0
272	2681853130	0.006357703	0.255062423	-0.765505058	-0.590681595	-0.412595519	-0.200236912	-0.131702186	0
273	2681869797	0.003739483	0.252765438	-0.77027554	-0.585466688	-0.285876586	0.174661275	-0.357028072	0
274	2681886464	0.00153471	0.250277202	-0.774528876	-0.580916506	-0.277074392	0.623495607	-0.361959467	0
275	2681903131	0.000419586	-0.24774717	0.77858747	0.576561112	-0.506026308	0.536542312	-0.368926715	0
276	2681919798	0.002140476	-0.244978228	0.782747377	0.572090578	-0.749418145	0.415978898	-0.428124951	0
277	2681936465	0.003622598	-0.242271465	0.786669337	0.567840443	-0.620550349	0.352084422	-0.226745567	0
278	2681953132	0.005135982	-0.239765467	0.79026992	0.563879061	-0.2103296	0.385274232	-0.165128503	0
279	2681969799	0.006364113	-0.237294368	0.793347544	0.560580552	0.105708338	0.156927677	-0.234481506	0
280	2681986466	0.007473044	-0.235119344	0.795664299	0.558194743	0.384800341	-0.015785223	-0.147251512	0
281	2682003133	0.009367608	-0.233389715	0.798113862	0.55538793	0.273208743	-0.087803655	0.029567138	0
282	2682019800	0.011755827	-0.231859791	0.801394373	0.551243954	0.036300263	0.054697342	-0.19364263	0
283	2682036467	0.014303444	-0.230806124	0.80505272	0.546272883	0.034135746	-0.022005131	-0.412670397	0
284	2682053134	0.016731608	-0.230269186	0.808285122	0.541637625	0.359701351	-0.072966285	-0.242702947	0
285	2682069801	0.018770289	-0.230174741	0.810410378	0.538425747	0.970908878	0.223469989	-0.238512025	0
286	2682086468	0.020707364	-0.230682202	0.811542631	0.536428452	0.984110776	0.303499873	-0.11021745	0
287	2682103135	0.022778198	-0.231579286	0.812258671	0.534871985	0.687594176	0.370497478	-0.145084562	0
288	2682119802	0.024953176	-0.233218752	0.812543515	0.533628513	0.46015567	0.101342704	-0.285846478	0
289	2682136469	0.027237974	-0.235895833	0.812346476	0.532639138	0.599945209	-0.048775784	-0.409235116	0
290	2682153136	0.029540261	-0.239452281	0.811662091	0.531972394	0.833874334	-0.039608802	-0.548482581	0
291	2682169803	0.031787814	-0.243251966	0.810590211	0.531753257	0.700608259	-0.041682191	-0.400809144	0
292	2682186470	0.034025504	-0.246965212	0.809130022	0.532126917	0.320683502	-0.032836776	-0.256417969	0
293	2682203137	0.036148665	-0.250656143	0.807125681	0.533303767	-0.099821074	-0.012721742	-0.076017936	0
294	2682219804	0.037830344	-0.254293475	0.804318412	0.535701022	-0.377026374	0.045300792	0.035785017	0
295	2682236471	0.039357765	-0.257938726	0.801052347	0.538733439	-0.533095509	0.008756741	0.196112942	0
296	2682253138	0.040962037	-0.261164577	0.798089428	0.541450312	-1.330555536	0.014711975	0.176072032	0
297	2682269805	0.042422561	-0.26346693	0.795932527	0.543393887	-1.969350723	0.103211788	0.141382073	0
298	2682286472	0.043094991	-0.264842751	0.794479677	0.544796459	-1.572312081	0.094900324	-0.258561793	0
299	2682303139	0.042255944	-0.265255969	0.792951917	0.546882953	-1.262126799	-0.03312777	-0.599195816	0
300	2682319806	0.03963961	-0.264896068	0.790862585	0.55026825	-0.757193802	-0.122249736	-0.80608009	0
301	2682336473	0.036115812	-0.264385507	0.788077519	0.554733968	-0.268783835	-0.200152278	-0.300759408	0
302	2682353140	0.033138815	-0.263393409	0.785789628	0.558623659	-0.50904811	-0.369201124	0.329726219	0
303	2682369807	0.030836387	-0.261878265	0.784859116	0.560771843	-0.808939452	-0.384474913	-0.009353302	0
304	2682386474	0.028583206	-0.260513296	0.784773181	0.561646577	-0.334561624	-0.342643029	-0.62847936	0
305	2682403141	0.02625286	-0.259455257	0.784454361	0.56269451	0.266764187	-0.003226535	-0.548813515	0
306	2682419808	0.02437394	-0.258403758	0.783923702	0.56400092	0.144739909	0.125138123	-0.123055357	0
307	2682436475	0.022960558	-0.257651102	0.783441836	0.565073103	-0.048639677	0.211973186	0.000345868	0
308	2682453142	0.021920946	-0.257361382	0.783204979	0.565574532	0.047538577	0.06422242	0.036889575	0
309	2682469809	0.021302309	-0.257139237	0.783000983	0.565981524	0.28957117	-0.041053001	0.123544963	0
310	2682486476	0.021071746	-0.256937211	0.782443817	0.566851766	0.311822007	-0.100989549	0.105511591	0
311	2682503143	0.020790118	-0.257005868	0.781346091	0.568343242	0.101156611	-0.180557386	0.026438231	0
312	2682519810	0.020398363	-0.257309065	0.780075317	0.569963553	-0.118488734	-0.25424159	0.088277194	0
313	2682536477	0.020163925	-0.25753647	0.779084817	0.571222576	-0.352478179	-0.299064838	0.061952304	0
314	2682553144	0.020094539	-0.257741098	0.778432893	0.57202095	-0.430024476	-0.159153987	0.023237467	0
315	2682569811	0.020002005	-0.258053323	0.778048684	0.572406016	-0.314804869	0.015465216	-0.063058842	0
316	2682586478	0.019705289	-0.258260941	0.77771065	0.572781924	-0.265878314	-0.031361579	-0.124902706	0
317	2682603145	0.019222308	-0.258346309	0.777225742	0.573417677	-0.20406914	0.000397479	-0.062769015	0
318	2682619812	0.018759133	-0.258154855	0.776792273	0.574106201	-0.310573845	0.07574015	0.025259843	0
319	2682636479	0.018130023	-0.257712556	0.77644441	0.574795284	-0.347635859	0.149083801	-0.066070862	0
320	2682653146	0.017188205	-0.257421565	0.77599858	0.575556173	-0.171966681	0.290203868	-0.36935851	0
321	2682669813	0.016098288	-0.257213814	0.77516582	0.576801396	-0.249592892	0.14064579	-0.405439248	0
322	2682686480	0.015196219	-0.256725994	0.774059958	0.57852573	-0.416981611	0.175469017	-0.019823535	0
323	2682703147	0.014682116	-0.255914198	0.773228761	0.580008312	-0.453706997	0.14307282	0.087527511	0
324	2682719814	0.0143358	-0.254981311	0.772583173	0.581286726	-0.479942137	-0.010061921	-0.072220363	0
325	2682736481	0.013537442	-0.254203469	0.771658865	0.582872139	0.159799399	0.090400334	-0.347021459	0
326	2682753148	0.012961472	-0.254103841	0.770250957	0.58478774	0.661223171	0.216659143	-0.323719899	0
327	2682769815	0.012780899	-0.25420577	0.768803626	0.586649009	0.324441112	0.127051557	-0.074645935	0
328	2682786482	0.012582921	-0.254236456	0.767499652	0.588344949	-0.23599943	-0.03833906	-0.10171616	0
329	2682803149	0.012291954	-0.2544038	0.7663832	0.589732487	-0.468243997	-0.162655629	-0.066549755	0
330	2682819816	0.011680928	-0.254720962	0.765352782	0.590944926	-0.331589278	-0.184778968	-0.042064218	0
331	2682836483	0.011053614	-0.254909536	0.764513476	0.591961225	-0.199242627	-0.122462624	0.045236634	0
332	2682853150	0.010431999	-0.254833056	0.763924921	0.59276471	-0.303302503	0.020988133	-0.017565731	0
333	2682869817	0.009613008	-0.254713339	0.763408624	0.593494716	-0.300878339	0.068259	-0.096913152	0
334	2682886484	0.008601583	-0.25461958	0.762772874	0.594367248	-0.079055467	0.079220179	-0.096651027	0
335	2682903151	0.007470735	-0.254584482	0.761974575	0.595420589	0.02213659	0.154686194	-0.127725962	0
336	2682919818	0.006683459	-0.254668994	0.761187106	0.596400222	-0.087293848	0.166967349	0.134888074	0
337	2682936485	0.006472927	-0.254594618	0.760843836	0.596872129	-0.301625988	0.188177045	0.316368082	0
338	2682953152	0.006681361	-0.254575308	0.760898301	0.596808636	-0.289363916	0.094201134	0.142533122	0
339	2682969819	0.007082756	-0.254758497	0.760987371	0.596612239	-0.047356427	0.085078688	-0.00866855	0
340	2682986486	0.007413341	-0.254959003	0.760910888	0.596620121	0.098469589	0.087923128	-0.152404934	0
341	2683003153	0.007567212	-0.255112376	0.760473773	0.597109749	-0.032924243	-0.014760096	-0.254374922	0
342	2683019820	0.007387143	-0.255330855	0.759643574	0.598074598	-0.199234431	0.047195847	-0.159647354	0
343	2683036487	0.006975682	-0.255606075	0.758698981	0.599160021	-0.168762012	0.055487631	-0.057265358	0
344	2683053154	0.006507274	-0.255809982	0.757770435	0.600252344	-0.165552756	0.020535004	0.028650462	0
345	2683069821	0.006082943	-0.255803469	0.756940479	0.601305824	-0.24075518	0.077991355	-0.030164738	0
346	2683086488	0.005586226	-0.255760005	0.756214921	0.60224132	-0.311583927	0.106637138	-0.129672598	0
347	2683103155	0.004911131	-0.25581447	0.755490335	0.603132814	-0.229346613	0.14259243	-0.168933775	0
348	2683119822	0.00398214	-0.255956208	0.75464216	0.604140524	-0.101542563	0.151405197	-0.15471143	0
349	2683136489	0.002961814	-0.256070192	0.753646683	0.605339543	-0.052654445	0.144730233	0.031981768	0
350	2683153156	0.002016107	-0.256158489	0.752695489	0.606488471	-0.110245027	0.152458025	0.081302138	0
351	2683169823	0.001152579	-0.256368285	0.751927694	0.607353865	-0.163295414	0.145394499	-0.00406242	0
352	2683186490	0.000462632	-0.25668527	0.751335334	0.607953677	-0.124763227	0.105709878	-0.052115338	0
353	2683203157	0.000169483	0.256930592	-0.750886844	-0.608404133	-0.121135222	0.069261694	-0.06567592	0
354	2683219824	0.000767783	0.257131313	-0.75047465	-0.608827314	-0.179001048	-0.014709767	-0.034316872	0
355	2683236491	0.001402152	0.25732433	-0.750031388	-0.609290687	-0.199903256	-0.009168952	0.095432979	0
356	2683253158	0.002104948	0.257427718	-0.749544788	-0.609843546	-0.217136347	0.008628359	0.124554654	0
357	2683269825	0.002857161	0.257497835	-0.749087372	-0.610372681	-0.134671946	0.011790787	-0.058726391	0
358	2683286492	0.003615977	0.257587133	-0.748560845	-0.610976641	-0.030525483	0.053000965	-0.11753227	0
359	2683303159	0.004197706	0.257654122	-0.748033418	-0.611590336	-0.065129966	0.011459176	-0.038421167	0
360	2683319826	0.004606005	0.257647975	-0.747632204	-0.612080381	-0.125069882	-0.037552917	-0.065777345	0
361	2683336493	0.00503317	0.25754694	-0.747292409	-0.612534322	-0.108310958	0.023707552	-0.025510362	0
362	2683353160	0.005564862	0.257381782	-0.746900603	-0.613076782	-0.094071899	0.075809691	-0.051390415	0
363	2683369827	0.00612633	0.25719036	-0.746408755	-0.613750403	-0.099545504	0.052095709	-0.098133683	0
364	2683386494	0.006601356	0.257023432	-0.74585074	-0.614493329	-0.083196944	0.020444826	-0.077994655	0
365	2683403161	0.007020845	0.25685895	-0.745257176	-0.615277116	-0.050354001	0.130328912	-0.039736991	0
366	2683419828	0.007454098	0.256645289	-0.74462227	-0.616129294	-0.075399476	0.180627208	0.00666187	0
367	2683436495	0.007810889	0.256439016	-0.744028983	-0.616926976	-0.231925878	0.194294448	0.003022874	0
368	2683453162	0.008210341	0.256281549	-0.743523187	-0.617596655	-0.243521703	0.156014367	-0.124266993	0
369	2683469829	0.00865629	0.25612406	-0.742967614	-0.618324072	-0.209572564	0.070836437	-0.123766365	0
370	2683486496	0.009086633	0.255911987	-0.742334823	-0.619165163	-0.173400737	0.050864464	-0.043819853	0
371	2683503163	0.009626697	0.255690233	-0.741611855	-0.620114254	-0.125725241	0.027278303	-0.030486988	0
372	2683519830	0.010354459	0.255489804	-0.740786156	-0.621171165	-0.096480344	0.033927232	-0.105010154	0
373	2683536497	0.011304009	0.25528469	-0.739843148	-0.622361681	-0.107407223	0.049231914	-0.166224892	0
374	2683553164	0.012386251	0.255095533	-0.738807847	-0.623647187	-0.081875428	0.0737227	-0.180988636	0
375	2683569831	0.01346024	0.254995884	-0.737752548	-0.624913673	-0.032959742	0.103838846	-0.17753304	0
376	2683586498	0.014487389	0.254904741	-0.736737791	-0.626123882	-0.088874518	0.057699887	-0.141666896	0
377	2683603165	0.015363638	0.254778976	-0.73584069	-0.627208188	-0.180708978	0.076035546	0.012470846	0
378	2683619832	0.016007952	0.254661973	-0.735166993	-0.628029074	-0.160282729	0.160099637	0.098341846	0
379	2683636499	0.016559455	0.254540006	-0.7345927	-0.628735823	-0.127871162	0.141209133	0.071764374	0
380	2683653166	0.016999695	0.254367255	-0.734042335	-0.629436383	-0.148007594	0.086875686	0.03352641	0
381	2683669833	0.017289117	0.254168671	-0.733622575	-0.62999785	-0.21940062	0.103411391	-0.062847948	0
382	2683686500	0.017448901	0.254002513	-0.733359551	-0.630366582	-0.257542306	0.162515078	-0.076501098	0
383	2683703167	0.017552938	0.253816598	-0.73320164	-0.630622219	-0.204453426	0.155686226	-0.010231113	0
384	2683719834	0.017656106	0.253610214	-0.733082357	-0.630841009	-0.098100806	0.199140503	0.007438933	0
385	2683736501	0.017788267	0.253434121	-0.732929116	-0.631086076	-0.066770749	0.101848991	-0.063291188	0
386	2683753168	0.017864516	0.253285293	-0.732750019	-0.631351589	-0.18182902	-0.027940007	-0.035930391	0
387	2683769835	0.017919763	0.253154932	-0.732638831	-0.631531319	-0.180785884	-0.026618534	-0.036603303	0
388	2683786502	0.018035879	0.253089857	-0.732566981	-0.631637436	-0.076398111	0.02381677	-0.107314133	0
389	2683803169	0.018253707	0.253081769	-0.732403465	-0.631824014	-0.02878563	0.031037916	-0.122656797	0
390	2683819836	0.018500664	0.253122348	-0.732195645	-0.632041407	-0.081118955	-0.001217644	-0.125747935	0
391	2683836503	0.018761645	0.253168482	-0.731988874	-0.632254702	-0.117616192	0.012036904	-0.076630569	0
392	2683853170	0.019020319	0.253144499	-0.731802135	-0.632472708	-0.125744908	0.020356919	-0.04004688	0
393	2683869837	0.019270999	0.253020414	-0.731630399	-0.63271341	-0.203743746	0.035775963	0.022952909	0
394	2683886504	0.019508931	0.252850273	-0.731500396	-0.632924413	-0.15326641	0.103139341	-0.015625709	0
395	2683903171	0.019650939	0.252620429	-0.731489947	-0.633023867	-0.163489698	0.094790259	-0.056152767	0
396	2683919838	0.019556533	0.252380425	-0.731667241	-0.632917618	-0.222393775	0.065426769	-0.092547788	0
397	2683936505	0.01924382	0.252229079	-0.732128836	-0.632453582	-0.237699521	0.078552832	-0.156285245	0
398	2683953172	0.018909794	0.252063487	-0.732770936	-0.631785702	-0.149426254	0.109192267	-0.203211136	0
399	2683969839	0.018704437	0.251816269	-0.733363745	-0.631202289	-0.067925666	0.170505956	-0.20454507	0
400	2683986506	0.018708448	0.251505034	-0.733712973	-0.630920347	-0.018050893	0.187955781	-0.19315931	0
401	2684003173	0.018873458	0.251296191	-0.733774904	-0.630926626	0.004148452	0.099125314	-0.148257503	0
402	2684019840	0.01904347	0.2511243	-0.733691301	-0.631087163	-0.075240732	0.002837879	-0.003712312	0
403	2684036507	0.019124898	0.250922451	-0.733683438	-0.631174124	-0.149888237	-0.013327608	0.100908193	0
404	2684053174	0.019094658	0.250767983	-0.733832394	-0.631063254	-0.145589738	0.027139897	0.028856805	0
405	2684069841	0.019010708	0.250669698	-0.734039794	-0.630863595	-0.076320115	0.069702204	-0.039555211	0
406	2684086508	0.01884144	0.250544297	-0.734252951	-0.630670404	-0.011176259	0.066446021	-0.060923018	0
407	2684103175	0.0186125	0.250380595	-0.734417285	-0.630550858	-0.063974932	0.001704451	-0.078640538	0
408	2684119842	0.018384194	0.250270118	-0.734546564	-0.630450819	-0.146802002	-0.051642549	-0.011270823	0
409	2684136509	0.018199257	0.250234854	-0.734737695	-0.630247431	-0.14417286	-0.074671407	-0.022943824	0
410	2684153176	0.018054985	0.250343034	-0.734992821	-0.629911054	-0.093201914	0.003506503	-0.11978263	0
411	2684169843	0.017951276	0.250532448	-0.735230383	-0.629561378	-0.046590583	0.022225018	-0.19463815	0
412	2684186510	0.017843129	0.250730717	-0.735424189	-0.629259082	-0.067538006	0.027979586	-0.147705866	0
413	2684203177	0.017732857	0.250845716	-0.735648435	-0.628954174	-0.142734759	-0.012055333	-0.105221871	0
414	2684219844	0.017779788	0.250914949	-0.735883081	-0.628650665	-0.270126813	0.00672774	-0.057243486	0
415	2684236511	0.017964395	0.250932916	-0.736126303	-0.628353418	-0.268812193	0.020186385	-0.063096661	0
416	2684253178	0.01815876	0.250989516	-0.736343872	-0.628070239	-0.219835013	0.015001858	-0.087314497	0
417	2684269845	0.018296113	0.251024516	-0.736533276	-0.627830134	-0.063807467	0.053050933	-0.153309268	0
418	2684286512	0.018360884	0.251020662	-0.736700459	-0.627633603	-0.031852632	0.120165467	-0.235363484	0
419	2684303179	0.018460222	0.25108239	-0.736700915	-0.627605461	-0.102442186	0.136176976	-0.225113569	0
420	2684319846	0.018664386	0.251179633	-0.736501048	-0.627795061	-0.125890336	0.059784525	-0.113916573	0
421	2684336513	0.018876723	0.251210095	-0.736268691	-0.628049021	-0.149863897	0.007754542	0.029348458	0
422	2684353180	0.018991711	0.251160055	-0.736161801	-0.62819085	-0.18600415	-0.034573745	-0.008362842	0
423	2684369847	0.019027801	0.251149226	-0.736112483	-0.628251878	-0.177913432	-0.028895794	-0.076320268	0
424	2684386514	0.019046147	0.251188875	-0.736099591	-0.628250576	-0.062625675	0.037484236	-0.112654658	0
425	2684403181	0.019051775	0.251277172	-0.736149043	-0.628157145	-0.056095789	0.035729172	-0.154151965	0
426	2684419848	0.019080387	0.251325212	-0.736241963	-0.628028143	-0.129334313	0.030614737	-0.17742495	0
427	2684436515	0.019196026	0.251413717	-0.736305696	-0.627914467	-0.162658841	0.006954631	-0.194651743	0
428	2684453182	0.019400358	0.251537023	-0.736302957	-0.627862014	-0.090581419	0.096736599	-0.176022525	0
429	2684469849	0.019624218	0.251570027	-0.736208683	-0.627952376	-0.095397371	0.114518262	-0.159379004	0
430	2684486516	0.01986701	0.251532068	-0.735971604	-0.628237789	-0.191706107	0.079647657	-0.128092515	0
431	2684503183	0.02007788	0.251495463	-0.735713261	-0.628548254	-0.233176901	0.067941052	-0.08543581	0
432	2684519850	0.0203722	0.251463972	-0.735512764	-0.628785987	-0.200452569	0.027535889	-0.159134078	0
433	2684536517	0.020749191	0.251372462	-0.735272849	-0.629090767	-0.109678845	0.066116917	-0.147667353	0
434	2684553184	0.021153045	0.251285	-0.734961563	-0.629475892	-0.073847863	0.111203753	-0.14656872	0
435	2684569851	0.021576706	0.251216836	-0.734613605	-0.629894752	-0.099525035	0.060514932	-0.144574057	0
436	2684586518	0.022018734	0.251143652	-0.734241231	-0.63034265	-0.146403413	0.027473107	-0.11880981	0
437	2684603185	0.022403379	0.25104441	-0.733916132	-0.6307471	-0.180372675	-0.000871667	-0.038680177	0
438	2684619852	0.022743243	0.250950182	-0.733664102	-0.631065556	-0.168448054	-0.002914663	-0.012095746	0
439	2684636519	0.023036515	0.250852041	-0.733464407	-0.631326014	-0.112850331	0.056696388	-0.019883308	0
440	2684653186	0.023241531	0.250745993	-0.733276088	-0.631579335	-0.078471575	0.093057811	-0.031197404	0
441	2684669853	0.023341025	0.250643813	-0.733154616	-0.63175722	-0.084404483	0.100491186	-0.086093098	0
442	2684686520	0.023350585	0.25054982	-0.733132729	-0.631819546	-0.155680144	0.049189134	-0.126962844	0
443	2684703187	0.023312501	0.250509106	-0.73316789	-0.631796296	-0.135658491	0.016205089	-0.133805101	0
444	2684719854	0.023242781	0.250444702	-0.733216335	-0.631768178	-0.131604774	-0.007687227	-0.067857853	0
445	2684736521	0.02317167	0.250388206	-0.733252475	-0.631751239	-0.082955735	0.039239421	-0.090576471	0
446	2684753188	0.023153296	0.250322551	-0.733247607	-0.63178358	-0.091510577	0.055487563	-0.096289424	0
447	2684769855	0.023178352	0.250209511	-0.733230119	-0.631847733	-0.1315717	0.081343682	-0.090275917	0
448	2684786522	0.023231112	0.250114074	-0.733207141	-0.631910242	-0.133780885	0.086769368	-0.089179922	0
449	2684803189	0.02325833	0.250025268	-0.733146892	-0.63201428	-0.171547667	0.032941965	-0.099632282	0
450	2684819856	0.023356017	0.249928875	-0.733050372	-0.632160743	-0.16213269	0.031364932	-0.065406252	0
451	2684836523	0.023496638	0.249806899	-0.732948671	-0.632321648	-0.131771764	0.068577821	-0.07437603	0
452	2684853190	0.023679363	0.249703785	-0.732847348	-0.632472981	-0.094307482	0.085658926	-0.066313094	0
453	2684869857	0.023736431	0.249562192	-0.732836452	-0.632539349	-0.128268223	0.077098274	-0.115757352	0
454	2684886524	0.023727922	0.249469298	-0.732945437	-0.63245003	-0.158254222	0.09106784	-0.153425149	0
455	2684903191	0.023823498	0.249465222	-0.733036919	-0.632342011	-0.1150629	0.066178631	-0.123949591	0
456	2684919858	0.024075918	0.249462039	-0.732967023	-0.632414725	-0.095454387	0.012321475	-0.070444571	0
457	2684936525	0.024351746	0.249404697	-0.732808024	-0.63261101	-0.04880378	0.0167797	0.015828221	0
458	2684953192	0.024606577	0.249303687	-0.732617783	-0.632861258	-0.084170954	0.058847154	0.013413276	0
459	2684969859	0.024740476	0.249225552	-0.732490075	-0.633034614	-0.13590806	0.042617984	-0.059531313	0
460	2684986526	0.024825527	0.249202554	-0.732435139	-0.6331039	-0.121435925	0.05349149	-0.111857768	0
461	2685003193	0.024917535	0.249233245	-0.732436112	-0.633087078	-0.132813279	0.052451086	-0.112965149	0
462	2685019860	0.024987478	0.249254302	-0.732465915	-0.633041549	-0.147210521	0.025750266	-0.050395146	0
463	2685036527	0.025089377	0.249286512	-0.732478367	-0.633010427	-0.085725182	0.07398865	-0.08345317	0
464	2685053194	0.025234817	0.249339657	-0.732439403	-0.633028799	-0.024775575	0.083282612	-0.085175514	0
465	2685069861	0.025359058	0.249377993	-0.732354917	-0.633106476	-0.090754597	0.048949857	-0.10197129	0
466	2685086528	0.025504825	0.249402127	-0.732243773	-0.633219662	-0.115322149	0.051830634	-0.061350518	0
467	2685103195	0.025631783	0.249440546	-0.732141996	-0.63331708	-0.114620535	0.052680871	-0.063309165	0
468	2685119862	0.025761259	0.24945781	-0.732039594	-0.63342339	-0.113040824	0.065239003	-0.098399994	0
469	2685136529	0.025877285	0.24943038	-0.731929345	-0.633556853	-0.124376144	0.08506159	-0.035947867	0
470	2685153196	0.025910428	0.249374705	-0.731894512	-0.633617652	-0.140782829	0.136258191	-0.049510697	0
471	2685169863	0.025939878	0.249343617	-0.731910796	-0.633609872	-0.109644852	0.122893618	-0.075277892	0
472	2685186530	0.025980851	0.249339654	-0.731923473	-0.633595109	-0.081624551	0.110168478	-0.107502117	0
473	2685203197	0.026060298	0.249364678	-0.731921342	-0.63358446	-0.077135321	0.120430699	-0.124395882	0
474	2685219864	0.026167093	0.249383503	-0.731884421	-0.633615298	-0.075714287	0.069650544	-0.047021291	0
475	2685236531	0.026239289	0.249368765	-0.731868138	-0.633636921	-0.126947424	0.045275801	0.000701338	0
476	2685253198	0.026287652	0.2493345	-0.731898344	-0.63361351	-0.140130379	0.094368462	0.05593993	0
477	2685269865	0.02628681	0.24927269	-0.732017582	-0.63350011	-0.132764778	0.071108423	0.028718789	0
478	2685286532	0.026293814	0.249237183	-0.732151967	-0.633358476	-0.10540383	0.052370149	-0.065063808	0
479	2685303199	0.026317631	0.249223886	-0.73223267	-0.633269417	-0.031791523	0.059775513	-0.095894988	0
480	2685319866	0.026358184	0.249224209	-0.732256215	-0.633240377	-0.000982676	0.070439385	-0.098249146	0
481	2685336533	0.026390329	0.249222891	-0.732193184	-0.633312437	-0.066038994	0.042066225	-0.061539629	0
482	2685353200	0.026421819	0.249206479	-0.732106101	-0.633418247	-0.161304193	0.040802245	-0.043001447	0
483	2685369867	0.026504853	0.249217281	-0.732025143	-0.633504088	-0.151737661	0.037427247	-0.046695119	0
484	2685386534	0.026555596	0.249217536	-0.732016221	-0.633512173	-0.090557437	0.079505733	-0.046899984	0
485	2685403201	0.026583039	0.249163745	-0.73204277	-0.633501502	-0.112314621	0.078173158	-0.048883907	0
486	2685419868	0.026648926	0.249165614	-0.732045782	-0.633494518	-0.107365715	0.08849523	-0.070328372	0
487	2685436535	0.026795943	0.24921544	-0.731993296	-0.633529365	-0.064039016	0.056481104	-0.118019019	0
488	2685453202	0.02702811	0.249256842	-0.731827684	-0.633694524	-0.025459994	0.061843541	-0.051358996	0
489	2685469869	0.027216186	0.249249693	-0.731677478	-0.633862712	-0.084993585	0.021397905	-0.053633318	0
490	2685486536	0.027313465	0.249266619	-0.731588009	-0.633955134	-0.14503385	0.082807971	-0.123322475	0
491	2685503203	0.027420493	0.249309482	-0.731547312	-0.633980622	-0.150707753	0.054134889	-0.098387754	0
492	2685519870	0.027592384	0.249344539	-0.731424328	-0.634101265	-0.062206075	0.093922434	-0.048285801	0
493	2685536537	0.027930325	0.249322731	-0.731108763	-0.634458863	0.024068328	0.058651179	-0.036979459	0
494	2685553204	0.028262597	0.249262442	-0.730633467	-0.635015116	-0.0781627	0.027571753	-0.016314772	0
495	2685569871	0.02848152	0.249212859	-0.730183929	-0.635541645	-0.145032049	0.047019801	-0.030678914	0
496	2685586538	0.028657241	0.249213111	-0.729866237	-0.63589847	-0.115621669	0.086884785	-0.067602372	0
497	2685603205	0.028801707	0.249204227	-0.729677664	-0.636111799	-0.129539581	0.083813902	-0.064306171	0
498	2685619872	0.02885128	0.249159579	-0.729621947	-0.636190948	-0.151201914	0.151016903	-0.029981462	0
499	2685636539	0.028882707	0.249145391	-0.729593499	-0.636227703	-0.128158388	0.123534526	-0.026277125	0
500	2685653206	0.028903202	0.249162506	-0.729537199	-0.636284626	-0.101632602	0.055958639	-0.062421262	0
501	2685669873	0.028956547	0.249179474	-0.729427222	-0.636401631	-0.066234428	0.057533661	0.002523815	0
502	2685686540	0.029053819	0.249186658	-0.729297164	-0.636543424	-0.067792903	0.063910222	-0.012815133	0
503	2685703207	0.029157706	0.2492319	-0.729156182	-0.636682456	-0.109108948	0.089465833	-0.022660857	0
504	2685719874	0.029293176	0.2492876	-0.729029736	-0.63679922	-0.090282966	0.078952487	-0.073538408	0
505	2685736541	0.029477108	0.249314319	-0.728889202	-0.636941129	-0.148596675	0.082957484	-0.082292449	0
506	2685753208	0.029654556	0.249330434	-0.728767971	-0.637065292	-0.151935826	0.044123629	-0.095525509	0
507	2685769875	0.029859541	0.249367236	-0.728645514	-0.637181375	-0.062961097	0.097340026	-0.033538236	0
508	2685786542	0.030079947	0.249408198	-0.728487995	-0.637335068	-0.03675958	0.074903764	-0.01543562	0
509	2685803209	0.030266152	0.249440346	-0.728326105	-0.637498674	-0.064941926	0.067136045	-0.01521771	0
510	2685819876	0.030420295	0.249466915	-0.728183931	-0.637643338	-0.112094712	0.079249899	0.018438625	0
511	2685836543	0.030523233	0.24949734	-0.728114107	-0.637706247	-0.125470543	0.067870868	0.017847049	0
512	2685853210	0.030548475	0.249531138	-0.728100421	-0.63770744	-0.123198471	0.06243556	-0.018740251	0
513	2685869877	0.030574009	0.249561621	-0.728067992	-0.637731312	-0.081769514	0.067403745	-0.031228763	0
514	2685886544	0.030596045	0.249570527	-0.728049088	-0.637748352	-0.102385453	0.093139794	-0.032300522	0
515	2685903211	0.030554357	0.249598519	-0.728074928	-0.637709895	-0.138377451	0.104823875	-0.029069447	0
516	2685919878	0.030461529	0.24970123	-0.728133807	-0.637606893	-0.147676986	0.094135081	-0.016623397	0
517	2685936545	0.03032839	0.24980886	-0.728270105	-0.637415387	-0.146101101	0.068618554	-0.025692444	0
518	2685953212	0.030213815	0.249876944	-0.728428817	-0.637212757	-0.148115733	0.067838128	-0.069541905	0
519	2685969879	0.030212642	0.249955616	-0.7285461	-0.637047853	-0.130934441	0.090532178	-0.07843233	0
520	2685986546	0.030282493	0.250045482	-0.728558146	-0.636995491	-0.116869031	0.090997478	-0.082252985	0
521	2686003213	0.03035808	0.250143415	-0.728498993	-0.637021095	-0.114127277	0.070103782	-0.050704198	0
522	2686019880	0.030453115	0.250194074	-0.728448337	-0.637054593	-0.172783483	0.05391267	-0.05235869	0
523	2686036547	0.030598353	0.250223934	-0.728399096	-0.637092207	-0.189032093	0.077342077	-0.066753456	0
524	2686053214	0.030772518	0.250302211	-0.728329262	-0.637132907	-0.159377658	0.069731552	-0.043833885	0
525	2686069881	0.030868545	0.250372626	-0.728287258	-0.63714861	-0.133663751	0.047355758	0.013787616	0
526	2686086548	0.030888643	0.250438732	-0.728339735	-0.637061663	-0.108674752	0.032758597	-0.035973855	0
527	2686103215	0.030838288	0.250473818	-0.728466718	-0.636905101	-0.096975315	0.03788303	-0.110203079	0
528	2686119882	0.030756484	0.250486426	-0.728585528	-0.636768182	-0.138782756	0.070974749	-0.058006178	0
529	2686136549	0.030679379	0.250508458	-0.728681167	-0.636653788	-0.138887933	0.073070787	-0.007628858	0
530	2686153216	0.030602709	0.250506265	-0.728775516	-0.636550337	-0.120910732	0.063169492	0.015186399	0
531	2686169883	0.03045724	0.250489643	-0.728856469	-0.636471164	-0.098954924	0.076915218	-0.060312782	0
532	2686186550	0.030279712	0.250521892	-0.728890662	-0.636427783	-0.105164643	0.095131286	-0.138471246	0
533	2686203217	0.030154158	0.250586615	-0.728922229	-0.636372107	-0.121558391	0.098890408	-0.150067453	0
534	2686219884	0.030048422	0.250672395	-0.728988405	-0.636267513	-0.126770433	0.066291644	-0.089778094	0
535	2686236551	0.029965115	0.250761414	-0.729077883	-0.636133826	-0.14368531	0.075648569	-0.040448158	0
536	2686253218	0.029903886	0.250778295	-0.729210327	-0.635978225	-0.167648964	0.077021277	0.010444462	0
537	2686269885	0.029849056	0.250812872	-0.729360302	-0.635795161	-0.112046907	0.121574398	-0.041570065	0
538	2686286552	0.029755618	0.250845022	-0.729491098	-0.63563678	-0.127460922	0.093721944	-0.065030041	0
539	2686303219	0.029659905	0.250878677	-0.729613796	-0.635487127	-0.162366345	0.058703536	-0.108698815	0
540	2686319886	0.029574045	0.250958352	-0.729734484	-0.635321072	-0.101687577	0.081464548	-0.121604835	0
541	2686336553	0.029524428	0.251050267	-0.729762033	-0.635255418	-0.058002311	0.046130868	-0.107233233	0
542	2686353220	0.029450064	0.251088892	-0.729702421	-0.63531208	-0.089683346	0.055059103	-0.062706801	0
543	2686369887	0.029336398	0.25109086	-0.729652463	-0.635373936	-0.114984016	0.062593721	-0.062125161	0
544	2686386554	0.02918596	0.251068334	-0.729620769	-0.63542616	-0.125306509	0.04376684	-0.082318205	0
545	2686403221	0.02904114	0.251001515	-0.729567875	-0.635519919	-0.114591057	0.049363916	-0.023206139	0
546	2686419888	0.028926871	0.250913518	-0.729470375	-0.635671783	-0.126832145	0.040051291	0.004476462	0
547	2686436555	0.028886363	0.250809858	-0.729349707	-0.635852969	-0.119916314	0.046302257	-0.02141894	0
548	2686453222	0.028864081	0.250755075	-0.729205144	-0.636041363	-0.092028643	0.030286362	-0.107860055	0
549	2686469889	0.028810189	0.250691315	-0.729101697	-0.636187514	-0.080202715	0.080193986	-0.052742014	0
550	2686486556	0.028740357	0.25061535	-0.729083922	-0.636240971	-0.10996013	0.089751938	-0.066053757	0
551	2686503223	0.028676211	0.250586314	-0.729078266	-0.636261783	-0.134451136	0.086303991	-0.087311926	0
552	2686519890	0.028574906	0.250574459	-0.729096777	-0.636249798	-0.119440247	0.104745769	-0.050609021	0
553	2686536557	0.028481848	0.250537925	-0.729178836	-0.636174314	-0.150764837	0.09764964	-0.022519463	0
554	2686553224	0.028365848	0.250502467	-0.729313339	-0.636039265	-0.158073931	0.086133767	-0.053176463	0
555	2686569891	0.02823688	0.250485106	-0.72949331	-0.635845422	-0.136135683	0.061649576	-0.074752217	0
556	2686586558	0.028092235	0.250453808	-0.729700966	-0.635625846	-0.102116201	0.069956268	-0.065462065	0
557	2686603225	0.027984117	0.250408219	-0.729895503	-0.635425186	-0.126275668	0.062186155	-0.104026869	0
558	2686619892	0.027940106	0.250352283	-0.73004091	-0.635282106	-0.108946305	0.03611581	-0.110880166	0
559	2686636559	0.02794064	0.250260246	-0.730110085	-0.635238847	-0.127174217	-0.018066663	-0.098837959	0
560	2686653226	0.028028731	0.250165429	-0.730076005	-0.635311479	-0.101654167	0.025118817	-0.081010556	0
561	2686669893	0.028169828	0.250088512	-0.729952468	-0.635477451	-0.067453148	0.09727902	-0.075747328	0
562	2686686560	0.02834112	0.250029971	-0.729741885	-0.635734674	-0.133376261	0.039055163	-0.076842371	0
563	2686703227	0.028443577	0.249888141	-0.729619118	-0.635926743	-0.13260619	0.023164804	-0.077889586	0
564	2686719894	0.028418804	0.249697259	-0.72969207	-0.635919124	-0.200506967	0.016426724	-0.19305674	0
565	2686736561	0.028362765	0.249607141	-0.72977222	-0.635865029	-0.172580011	0.108602901	-0.151965427	0
566	2686753228	0.028419392	0.249587611	-0.729693964	-0.635959969	-0.06109858	0.118269368	-0.074965378	0
567	2686769895	0.028564643	0.249488722	-0.729509904	-0.636203378	-0.049392233	0.101683112	-0.036395089	0
568	2686786562	0.028684351	0.249275332	-0.729332338	-0.636485159	-0.107911677	0.046681673	-0.030893489	0
569	2686803229	0.028765534	0.249071138	-0.7291685	-0.636749096	-0.110448949	-0.014546486	-0.074299678	0
570	2686819896	0.028815349	0.248978841	-0.729069611	-0.636896156	-0.089179299	-0.023476889	-0.075642815	0
571	2686836563	0.028861202	0.248929387	-0.729096889	-0.636882185	-0.035713384	0.008911571	-0.104371593	0
572	2686853230	0.028897641	0.248866942	-0.729141974	-0.636853322	-0.042393219	0.036581529	-0.082227219	0
573	2686869897	0.028956363	0.248782654	-0.729164685	-0.636857583	-0.080806759	0.084848326	-0.085316537	0
574	2686886564	0.029022382	0.248737577	-0.729124538	-0.636918148	-0.073640456	0.069086358	-0.071817106	0
575	2686903231	0.029040649	0.248725242	-0.729076531	-0.636977085	-0.076100233	0.040722195	-0.077211854	0
576	2686919898	0.029038009	0.248719663	-0.729044657	-0.637015865	-0.061423955	0.042977976	-0.054617645	0
577	2686936565	0.029027522	0.248755471	-0.729035111	-0.637013286	-0.045310898	0.08417096	-0.074748005	0
578	2686953232	0.029026234	0.248799623	-0.72900387	-0.637031853	-0.10724819	0.001432779	-0.088230336	0
579	2686969899	0.029049963	0.2488233	-0.728922837	-0.637114247	-0.110110798	0.031280972	-0.06198955	0
580	2686986566	0.029106109	0.248863247	-0.728838872	-0.637192135	-0.063967651	0.064312198	-0.102097251	0
581	2687003233	0.02918047	0.248921104	-0.728683351	-0.637343988	-0.091181654	0.068661779	-0.07726999	0
582	2687019900	0.029277861	0.248974249	-0.728482718	-0.637548085	-0.086199549	0.084223683	-0.064381039	0
583	2687036567	0.029394369	0.248992066	-0.728269545	-0.637779265	-0.129709588	0.065027463	-0.038859361	0
584	2687053234	0.029493407	0.248964359	-0.728132011	-0.637942522	-0.178076795	0.056732525	-0.003008103	0
585	2687069901	0.029558079	0.24895692	-0.728081855	-0.637999675	-0.125294388	0.071208903	-0.049332367	0
586	2687086568	0.029625748	0.249013979	-0.728068583	-0.637989414	-0.082864895	0.078832674	-0.098840058	0
587	2687103235	0.029670291	0.249074092	-0.728039324	-0.637997267	-0.052399436	0.059141238	-0.066549417	0
588	2687119902	0.029679567	0.249103046	-0.728018398	-0.638009411	-0.053645782	0.077548766	-0.065047761	0
589	2687136569	0.029674265	0.249172978	-0.728009202	-0.637992842	-0.062889789	0.084210425	-0.057916758	0
590	2687153236	0.029641081	0.249302096	-0.72801089	-0.637942016	-0.051098878	0.089085431	-0.058651868	0
591	2687169903	0.029557327	0.249433815	-0.728033417	-0.637868701	-0.090180302	0.080293682	-0.055347791	0
592	2687186570	0.029410024	0.249501613	-0.728104849	-0.637767453	-0.128043344	0.03235662	-0.04728621	0
593	2687203237	0.029244278	0.249565324	-0.728198483	-0.637643232	-0.119432762	0.051163895	-0.079412362	0
594	2687219904	0.029118925	0.249692237	-0.728264688	-0.637523662	-0.026709712	0.101776312	-0.094775367	0
595	2687236571	0.029036888	0.249821852	-0.728252514	-0.637490531	0.005574297	0.065844084	-0.113644394	0
596	2687253238	0.028989991	0.249931353	-0.72812225	-0.637598533	-0.082899296	0.082507853	-0.066360183	0
597	2687269905	0.029076403	0.250057414	-0.727942252	-0.637750681	-0.083568542	0.134221585	-0.052528846	0
598	2687286572	0.029228703	0.250198188	-0.727734199	-0.637925924	-0.133826343	0.063998972	-0.053467229	0
599	2687303239	0.029303193	0.250305423	-0.727614477	-0.638016999	-0.12054433	0.061043377	0.000955343	0
600	2687319906	0.029246436	0.250342446	-0.727713638	-0.637891971	-0.142352822	0.043084629	-0.062946233	0
601	2687336573	0.029188834	0.250441067	-0.727893825	-0.637650267	-0.156586372	0.085321721	-0.092491358	0
602	2687353240	0.029247264	0.250601407	-0.728008559	-0.637453583	-0.078809759	0.108411086	-0.017569262	0
603	2687369907	0.029424388	0.250711555	-0.728023949	-0.637384539	-0.042626335	0.081068798	0.01305361	0
604	2687386574	0.029632762	0.250791439	-0.727979953	-0.63739371	-0.028668944	0.102151245	-0.01413253	0
605	2687403241	0.029774282	0.250840805	-0.72793382	-0.637420377	-0.064863637	0.053878858	-0.081082901	0
606	2687419908	0.029822925	0.250904784	-0.727919209	-0.637409608	-0.123151076	0.092636567	-0.046653606	0
607	2687436575	0.029873817	0.251034603	-0.727998678	-0.637265335	-0.095794843	0.111198991	-0.051788323	0
608	2687453242	0.029968728	0.25117242	-0.728124287	-0.637063038	-0.089254438	0.101684933	-0.065025775	0
609	2687469909	0.030060292	0.251297234	-0.72823102	-0.636887479	-0.086435045	0.087929052	-0.022498263	0
610	2687486576	0.030124562	0.251449095	-0.728318517	-0.636724431	-0.054526191	0.136353026	-0.019379083	0
611	2687503243	0.030131693	0.251567992	-0.728436617	-0.636542003	-0.098139808	0.09694615	-0.025158945	0
612	2687519910	0.030040851	0.251624534	-0.728617743	-0.636316608	-0.159735048	0.091527371	0.021169471	0
613	2687536577	0.029902006	0.251648276	-0.728899282	-0.635991236	-0.182250997	0.098441242	-0.00089754	0
614	2687553244	0.029688077	0.251702201	-0.729235878	-0.635593938	-0.143792646	0.047489299	-0.018995289	0
615	2687569911	0.029462288	0.25176361	-0.729541865	-0.635228877	-0.079016472	0.01469972	-0.042664208	0
616	2687586578	0.029269197	0.251845507	-0.729819952	-0.634885811	-0.031660138	0.04286582	-0.052668082	0
617	2687603245	0.029055406	0.251914314	-0.730083781	-0.634564918	-0.044926381	0.021274186	-0.066557013	0
618	2687619912	0.02884987	0.251999693	-0.730340486	-0.634244916	-0.041132118	0.058086938	-0.087889953	0
619	2687636579	0.028660396	0.252127684	-0.730599483	-0.633904258	-0.059908033	0.081015071	-0.109745273	0
620	2687653246	0.02853759	0.252177233	-0.73088406	-0.633561947	-0.119083481	0.143109122	-0.108963922	0
621	2687669913	0.02848609	0.252234701	-0.731253809	-0.633114575	-0.141027584	0.10401704	-0.040185113	0
622	2687686580	0.0284952	0.252330317	-0.731654214	-0.632613267	-0.208002238	0.078341213	-0.0430672	0
623	2687703247	0.028539207	0.252426473	-0.732083893	-0.632075599	-0.246266043	0.01053665	0.004714027	0
624	2687719914	0.028562564	0.252400578	-0.732724357	-0.631342336	-0.276940529	-0.020845684	0.063524777	0
625	2687736581	0.028601184	0.252205761	-0.733559178	-0.63044838	-0.277433428	-0.051529429	0.079944841	0
626	2687753248	0.028665772	0.251813029	-0.734548829	-0.629449354	-0.241470825	-0.055999666	0.146880403	0
627	2687769915	0.028778806	0.251124798	-0.735584523	-0.62850897	-0.215148735	-0.061809627	0.073928338	0
628	2687786582	0.028937499	0.250241242	-0.736534267	-0.627741361	-0.212724144	-0.015061944	0.014120011	0
629	2687803249	0.029137384	0.249332794	-0.737464074	-0.627001523	-0.116807989	0.224679182	-0.12719809	0
630	2687819916	0.029298397	0.248705449	-0.738382446	-0.626161774	0.072697256	0.375958211	-0.346238147	0
631	2687836583	0.029340132	0.24831734	-0.739198391	-0.625350617	0.146716473	0.262570059	-0.351337625	0
632	2687853250	0.029339348	0.248005378	-0.739855508	-0.624697016	0.057613253	0.144156913	-0.373323807	0
633	2687869917	0.029602815	0.247914131	-0.740173402	-0.62434413	0.026179075	0.082534324	-0.414573035	0
634	2687886584	0.029998449	0.247902951	-0.740161107	-0.62434426	0.038434291	0.004587105	-0.150052828	0
635	2687903251	0.030285778	0.247863971	-0.740097265	-0.624421541	-0.038420176	0.007526798	0.092810287	0
636	2687919918	0.030335938	0.247646307	-0.740255362	-0.624318057	-0.202615289	-0.044141581	0.139570901	0
637	2687936585	0.030057749	0.247195945	-0.74083195	-0.623825872	-0.388495959	-0.037118319	0.221632146	0
638	2687953252	0.029559928	0.246657418	-0.741768053	-0.622949825	-0.41457053	-0.031361579	0.186936151	0
639	2687969919	0.02902149	0.246077862	-0.742810422	-0.621961507	-0.329127454	-0.057932197	0.16439919	0
640	2687986586	0.028747635	0.24544542	-0.743910647	-0.620908261	-0.146708808	-0.072695959	-0.019965987	0
641	2688003253	0.028688646	0.244683672	-0.745080067	-0.619808483	-0.208285329	-0.120886925	-0.205687237	0
642	2688019920	0.028773686	0.243787506	-0.746300511	-0.61868835	-0.244912608	-0.018494038	-0.251707372	0
643	2688036587	0.029049787	0.242883517	-0.747520684	-0.617556907	-0.166867233	0.05314578	-0.307745564	0
644	2688053254	0.029616456	0.241854117	-0.748733933	-0.616463258	-0.208010428	0.096103138	-0.366794797	0
645	2688069921	0.030437921	0.240590117	-0.749947685	-0.615441629	-0.376950522	0.082062828	-0.219448143	0
646	2688086588	0.031376719	0.238985306	-0.751516049	-0.614105164	-0.608953113	0.24405763	-0.15299026	0
647	2688103255	0.032520379	0.237208905	-0.753515152	-0.612282023	-0.686053197	0.358304064	-0.036481163	0
648	2688119922	0.033793365	0.235252582	-0.75594475	-0.60996866	-0.767927508	0.290241061	0.066643592	0
649	2688136589	0.035138115	0.233040147	-0.758853488	-0.607123534	-0.904718842	0.104075521	0.142953923	0
650	2688153256	0.036450201	0.230536348	-0.762407401	-0.603539004	-1.078188376	0.151836371	0.118193901	0
651	2688169923	0.03797958	0.227747926	-0.766663899	-0.599095067	-1.103043922	0.306896423	0.041101199	0
652	2688186590	0.039658343	0.224812763	-0.771461557	-0.593913717	-0.972464198	0.237903277	0.012453062	0
653	2688203257	0.041698531	0.221429027	-0.776570578	-0.588360906	-0.886874644	0.296981181	-0.150047335	0
654	2688219924	0.044214317	0.217493057	-0.781759845	-0.582746436	-0.867411499	0.315246223	-0.173730113	0
655	2688236591	0.047336734	0.213029441	-0.787037657	-0.577017693	-0.995295771	0.294193035	-0.142344791	0
656	2688253258	0.051108335	0.208048914	-0.792438401	-0.571091033	-1.253918238	0.117558622	-0.049229439	0
657	2688269925	0.055474195	0.202580171	-0.798018333	-0.564845668	-1.404754916	0.026197618	-0.08981385	0
658	2688286592	0.060391747	0.196709811	-0.80380337	-0.558174013	-1.389423266	0.254646905	-0.214865412	0
659	2688303259	0.065907983	0.190335291	-0.809605942	-0.551331872	-1.338438164	0.406607927	-0.2246033	0
660	2688319926	0.072058823	0.183300501	-0.815415765	-0.544339584	-1.360957818	0.523097783	-0.342858166	0
661	2688336593	0.078821116	0.175953025	-0.821224267	-0.537046057	-1.473083912	0.489151503	-0.327818894	0
662	2688353260	0.085853325	0.168492137	-0.827198817	-0.529132993	-1.440317314	0.569124526	-0.443981323	0
663	2688369927	0.093037471	0.161124425	-0.83338419	-0.520436106	-1.239403966	0.484170542	-0.562384179	0
664	2688386594	0.100312572	0.153747678	-0.839618345	-0.511214314	-1.03134049	0.255242444	-0.512911334	0
665	2688403261	0.107561521	0.146257626	-0.845795694	-0.501666094	-0.878646221	0.166422753	-0.379976247	0
666	2688419928	0.115011398	0.138515918	-0.851989762	-0.491629091	-0.771667443	0.271951295	-0.381338846	0
667	2688436595	0.122545834	0.130679784	-0.858147686	-0.481131855	-0.689213574	0.426973993	-0.38109981	0
668	2688453262	0.12993512	0.123015942	-0.864287026	-0.470097735	-0.545818091	0.587685017	-0.448623827	0
669	2688469929	0.137037144	0.115812468	-0.870472973	-0.458350409	-0.304614933	0.674447324	-0.598426001	0
670	2688486596	0.143464651	0.10937494	-0.8770037	-0.445330805	-0.230881781	0.683431971	-0.41557551	0
671	2688503263	0.149789369	0.103260962	-0.883920974	-0.43079465	-0.371366596	0.882358663	-0.488850319	0
672	2688519930	0.156421097	0.097346145	-0.890906027	-0.415141686	-0.336975247	0.970138891	-0.424533318	0
673	2688536597	0.163298313	0.091421823	-0.897616743	-0.399073795	-0.143838533	0.854068436	-0.38400326	0
674	2688553264	0.170764959	0.085323773	-0.903463919	-0.383812623	0.133718812	0.574480055	-0.65618366	0
675	2688569931	0.178970916	0.079011763	-0.908067847	-0.370323289	0.269959148	0.471467049	-1.026783038	0
676	2688586598	0.188001644	0.072355107	-0.911324312	-0.359037769	0.174935763	0.495611726	-1.226460366	0
677	2688603265	0.197760897	0.065287268	-0.91330372	-0.350006451	0.163717701	0.433919629	-1.205642143	0
678	2688619932	0.207892607	0.058176416	-0.914264806	-0.342806115	0.131146753	0.193071225	-0.946547742	0
679	2688636599	0.218063424	0.051065114	-0.914601736	-0.336666544	0.073255752	0.194081098	-0.833506316	0
680	2688653266	0.228642975	0.043739935	-0.914376119	-0.331248428	0.05719971	0.148885399	-0.744099723	0
681	2688669933	0.23939913	0.036465979	-0.913758928	-0.326194589	0.080712521	0.082193469	-0.499566719	0
682	2688686600	0.249674334	0.029545528	-0.913145093	-0.320867307	0.269135561	0.087816005	-0.357607371	0
683	2688703267	0.259470819	0.02285034	-0.912743866	-0.314724308	0.243549477	0.381470239	-0.347615622	0
684	2688719934	0.269156582	0.016294143	-0.912533614	-0.307525022	0.185018358	0.628476643	-0.235372638	0
685	2688736601	0.278653321	0.010165714	-0.912498837	-0.299324001	0.162478963	0.510098476	-0.143023923	0
686	2688753268	0.287963362	0.004681091	-0.912497485	-0.290522855	0.319529762	0.134702156	-0.29850833	0
687	2688769935	0.296763271	-9.95E-05	-0.912459464	-0.28169004	0.660312929	-0.294464387	-0.414082271	0
688	2688786602	0.305240698	-0.00466642	-0.912283609	-0.273029224	0.845289194	-0.372836456	-0.395059291	0
689	2688803269	0.313619856	-0.00894876	-0.911984377	-0.264285834	0.73079014	-0.208194234	-0.385395534	0
690	2688819936	0.321936258	-0.012698302	-0.91167593	-0.255034895	0.46498428	0.046957055	-0.441985448	0
691	2688836603	0.33008597	-0.015800337	-0.911373502	-0.245340462	0.348163006	0.15604224	-0.474354181	0
692	2688853270	0.337956533	-0.018259036	-0.911029853	-0.235534705	0.320457661	-0.143252888	-0.305696179	0
693	2688869937	0.345441419	-0.020407933	-0.910478712	-0.226455863	0.414854859	-0.542079375	-0.064905936	0
694	2688886604	0.352531853	-0.022375719	-0.909762082	-0.218067819	0.546399233	-0.534471512	-0.006006279	0
695	2688903271	0.359335571	-0.024517198	-0.909019902	-0.209665619	0.663242173	-0.068331205	-0.078531149	0
696	2688919938	0.366201178	-0.026534882	-0.908179722	-0.201002959	0.451368233	0.079653883	-0.080373905	0
697	2688936605	0.373052526	-0.027963388	-0.907143329	-0.192719595	0.121010723	-0.058926844	-0.009001607	0
698	2688953272	0.379498545	-0.028634815	-0.906164427	-0.184463906	0.275096162	0.026898216	0.037055075	0
699	2688969939	0.385412478	-0.028962307	-0.905417229	-0.175607651	0.4881849	0.163098247	0.075255004	0
700	2688986606	0.391200819	-0.029251286	-0.904612643	-0.166680078	0.594172882	0.058674547	0.190380802	0
701	2689003273	0.39695071	-0.029770181	-0.903543635	-0.158596248	0.503499451	-0.227465896	0.297664299	0
702	2689019940	0.402650293	-0.030622278	-0.902160667	-0.151793108	0.55902861	-0.340676206	0.359379781	0
703	2689036607	0.408073601	-0.031857323	-0.900602684	-0.146204831	0.706305348	-0.168960731	0.500762022	0
704	2689053274	0.412984574	-0.033282354	-0.899106914	-0.141218921	0.848842484	0.100147923	0.603836811	0
705	2689069941	0.417677712	-0.034859822	-0.897601238	-0.136536218	0.758701858	0.131548286	0.578933848	0
706	2689086608	0.42234888	-0.036778585	-0.895929381	-0.132586967	0.603837095	-0.087797943	0.429127345	0
707	2689103275	0.426719439	-0.039196188	-0.894135983	-0.129980852	0.440302276	-0.243777251	0.488431389	0
708	2689119942	0.430726401	-0.042034688	-0.892268301	-0.128705599	0.487758641	-0.34178224	0.599279254	0
709	2689136609	0.434657643	-0.045291242	-0.890233783	-0.128472754	0.360773591	-0.352451352	0.367129252	0
710	2689153276	0.438654666	-0.049082446	-0.887984584	-0.129059585	0.245722257	-0.246450013	0.466390915	0
711	2689169943	0.442466695	-0.052925568	-0.885688923	-0.130296737	0.225803976	-0.087408714	0.512559238	0
712	2689186610	0.445892641	-0.056237606	-0.883630167	-0.131205231	0.21073998	0.151200321	0.319737223	0
713	2689203277	0.449040821	-0.058828122	-0.881925299	-0.130802748	0.129730079	0.366583413	0.026014696	0
714	2689219944	0.45221291	-0.060689786	-0.880398389	-0.129301631	-0.115291805	0.257376213	0.087473073	0
715	2689236611	0.455195328	-0.062102418	-0.879019951	-0.127532072	-0.19193549	-0.044257131	0.185532929	0
716	2689253278	0.457645496	-0.063431407	-0.877913892	-0.125714975	0.095620708	-0.023092818	0.165038584	0
717	2689269945	0.459878023	-0.064806479	-0.876857023	-0.124233997	0.268563325	-0.113057284	0.431298448	0
718	2689286612	0.461915896	-0.06647281	-0.875739231	-0.123676468	0.460734335	-0.259702728	0.527771983	0
719	2689303279	0.463710292	-0.06860657	-0.874590537	-0.123924559	0.524442152	-0.127360951	0.350896628	0
720	2689319946	0.465414363	-0.07110718	-0.873330517	-0.12500819	0.333105028	-0.143661653	0.080981425	0
721	2689336613	0.466966277	-0.073658871	-0.872054853	-0.126638072	0.035491785	-0.070339176	0.061911981	0
722	2689353280	0.46815867	-0.075936502	-0.871038887	-0.127876367	0.027745562	0.187188144	0.069772168	0
723	2689369947	0.469098281	-0.077610298	-0.87034567	-0.128147802	-0.005272601	0.536863351	0.038283649	0
724	2689386614	0.469997768	-0.07844026	-0.869883031	-0.12748622	-0.179931162	0.415470272	0.146584972	0
725	2689403281	0.470730021	-0.079029237	-0.869559907	-0.126622252	-0.112542298	0.079597129	0.292027999	0
726	2689419948	0.471096054	-0.079907123	-0.869370244	-0.126010863	0.084604951	0.031089058	0.439225505	0
727	2689436615	0.471200473	-0.081322946	-0.869153355	-0.126210686	0.269030457	0.133925085	0.375185066	0
728	2689453282	0.471362248	-0.082988156	-0.868806788	-0.126906905	0.274286875	0.185350839	0.233076875	0
729	2689469949	0.471719326	-0.084829769	-0.868271802	-0.128019007	0.194772685	0.102627823	0.196012069	0
730	2689486616	0.471933661	-0.086823051	-0.867739205	-0.129495362	0.199261362	0.101653273	0.18740109	0
731	2689503283	0.472349832	-0.088966262	-0.866948418	-0.131799396	0.044423256	-0.218445324	0.029616036	0
732	2689519950	0.472821394	-0.09115564	-0.8660855	-0.134262749	0.100661757	0.025996623	0.161598758	0
733	2689536617	0.473092354	-0.09285343	-0.865524228	-0.13575594	0.279386514	0.277374521	0.110847025	0
734	2689553284	0.473360389	-0.093983154	-0.865132035	-0.136541829	0.322721321	-0.00306648	0.182022267	0
735	2689569951	0.473489	-0.09477337	-0.86487529	-0.137174736	0.342284207	-0.263134083	0.18458992	0
736	2689586618	0.473411539	-0.095454368	-0.864700908	-0.138066358	0.252269374	-0.438345239	0.248216533	0
737	2689603285	0.473301111	-0.095782013	-0.864641127	-0.138591438	-0.173006887	-0.279338155	0.107674073	0
738	2689619952	0.473119123	-0.095735111	-0.864712731	-0.138798335	-0.20278376	-0.187538394	0.305584278	0
739	2689636619	0.472761085	-0.09581431	-0.86484851	-0.139117324	0.156830415	0.037335305	0.404444048	0
740	2689653286	0.472433822	-0.096216873	-0.864927334	-0.139460761	0.050476279	0.19616263	0.395906876	0
741	2689669953	0.471908701	-0.096621411	-0.865143583	-0.139617557	-0.067842141	0.213088469	0.046018379	0
742	2689686620	0.471227088	-0.096929257	-0.865469401	-0.139687033	-0.184094395	0.159664214	0.032023214	0
743	2689703287	0.470209303	-0.097291376	-0.865939606	-0.139950696	-0.087428533	0.007577234	0.270743599	0
744	2689719954	0.469034126	-0.097718826	-0.866505481	-0.140093794	-0.108220534	-0.003921363	0.197028506	0
745	2689736621	0.467737867	-0.098045781	-0.867245841	-0.139617206	-0.109359623	0.246238058	0.170360386	0
746	2689753288	0.466432981	-0.098352005	-0.868008406	-0.139027204	-0.057266281	0.240526006	0.070660964	0
747	2689769955	0.465139458	-0.098829747	-0.868670977	-0.138883764	-0.027044502	0.081082267	-0.010255651	0
748	2689786622	0.463794204	-0.099337132	-0.86935574	-0.138735967	-0.233209803	0.317045841	-0.034918667	0
749	2689803289	0.462352453	-0.099585531	-0.870238787	-0.137831003	-0.16039801	0.369560358	-0.019420488	0
750	2689819956	0.460872622	-0.09978001	-0.8711983	-0.136579272	0.078246484	0.26168931	0.006152634	0
751	2689836623	0.459414616	-0.099926514	-0.872124641	-0.135467756	0.055065256	-0.035884016	-0.043210858	0
752	2689853290	0.458038565	-0.099954915	-0.873005005	-0.134431954	-0.073078951	-0.144279242	-0.129162218	0
753	2689869957	0.456963051	-0.099914509	-0.87372584	-0.13343544	-0.220042452	-0.179018393	-0.014210865	0
754	2689886624	0.456184296	-0.100077624	-0.8742086	-0.132814461	-0.337055601	-0.139455466	-0.085034747	0
755	2689903291	0.455573793	-0.10017857	-0.874648874	-0.131932257	-0.445749272	0.129190503	-0.175084874	0
756	2689919958	0.455315428	-0.100071001	-0.87499419	-0.130609428	-0.387956029	-0.069675317	-0.228441955	0
757	2689936625	0.455450087	-0.100403697	-0.874973103	-0.130024556	-0.22223628	-0.358091995	-0.127679033	0
758	2689953292	0.455808997	-0.101338107	-0.874603557	-0.130527253	-0.33026927	-0.318948843	-0.018758208	0
759	2689969959	0.45607136	-0.102364261	-0.874261462	-0.131100607	-0.437010937	-0.108424289	0.093064584	0
760	2689986626	0.456232902	-0.102908534	-0.87414973	-0.130857258	-0.530938145	-0.029568038	-0.102131887	0
761	2690003293	0.456407003	-0.102710842	-0.874256465	-0.129687181	-0.686035341	-0.083605043	-0.256239733	0
762	2690019960	0.45657115	-0.102217343	-0.874434387	-0.128292254	-0.437618735	-0.168676694	-0.147780818	0
763	2690036627	0.456859811	-0.101919251	-0.874493177	-0.127095489	-0.04305012	-0.11524963	-0.138836211	0
764	2690053294	0.457480522	-0.102040462	-0.874267312	-0.126316992	-0.121738116	0.000504805	-0.097323478	0
765	2690069961	0.45818927	-0.102028466	-0.87402748	-0.125414313	-0.412495736	0.144470374	-0.033441557	0
766	2690086628	0.458908947	-0.10156009	-0.87388222	-0.124169206	-0.598221925	-0.088407082	0.061538538	0
767	2690103295	0.459512011	-0.101097017	-0.873779835	-0.123032131	-0.138282366	-0.300342083	0.230008759	0
768	2690119962	0.46012933	-0.101221809	-0.873485683	-0.12271066	0.248364734	-0.336951961	0.389926842	0
769	2690136629	0.460937968	-0.102021698	-0.872892278	-0.123234872	0.052168919	-0.023284987	0.352273394	0
770	2690153296	0.461717021	-0.102873517	-0.872313491	-0.123707745	-0.176875696	0.381417867	0.088710748	0
771	2690169963	0.462488427	-0.103198287	-0.871908078	-0.123413419	-0.326740166	0.351792679	-0.095500517	0
772	2690186630	0.46313743	-0.103285024	-0.871648876	-0.122736146	-0.324378794	0.073952462	0.061195204	0
773	2690203297	0.463726802	-0.103603924	-0.871366236	-0.12224796	-0.171477827	-0.098892881	0.202121642	0
774	2690219964	0.464324328	-0.104292379	-0.870982991	-0.122125541	-0.182178282	-0.01169188	0.251543351	0
775	2690236631	0.464886702	-0.104857672	-0.87064682	-0.121898883	-0.211058621	0.095903637	0.02918816	0
776	2690253298	0.465454771	-0.104998813	-0.870401655	-0.121359233	-0.234408386	-0.002367133	-0.045774751	0
777	2690269965	0.465794278	-0.104840881	-0.870321272	-0.120768226	-0.105742126	-0.084168287	0.189314772	0
778	2690286632	0.466071001	-0.104684405	-0.870251055	-0.120341591	-0.079826995	-0.261080379	0.330592523	0
779	2690303299	0.466358659	-0.104687604	-0.870137105	-0.120048013	-0.044036233	-0.132058553	0.225197242	0
780	2690319966	0.466739922	-0.104819013	-0.869895909	-0.120199528	-0.024892742	-0.010479502	0.237798246	0
781	2690336633	0.467258753	-0.105006291	-0.869510098	-0.120810292	-0.037741511	-0.138763063	0.204290265	0
782	2690353300	0.46784548	-0.105260378	-0.869050511	-0.121622646	0.016807645	-0.165215603	0.102440803	0
783	2690369967	0.46842793	-0.105257982	-0.86866876	-0.122109041	-0.124991312	-0.023720789	-0.024486301	0
784	2690386634	0.469050833	-0.104935914	-0.868339872	-0.122334121	-0.247828475	-0.061990761	-0.064831825	0
785	2690403301	0.469624678	-0.10442155	-0.868061952	-0.122544884	-0.111681195	-0.048924034	-0.084126045	0
786	2690419968	0.470171081	-0.103854996	-0.867799272	-0.122791356	-0.056867699	0.029291982	0.007722709	0
787	2690436635	0.470754017	-0.103272201	-0.867523901	-0.122995076	-0.144669314	0.067279752	-0.033829096	0
788	2690453302	0.471353518	-0.102673121	-0.867250499	-0.123128644	-0.121423184	0.116932606	-0.014243684	0
789	2690469969	0.471947886	-0.101986436	-0.867005893	-0.1231452	-0.136307107	0.117158285	0.025335272	0
790	2690486636	0.472588843	-0.101353303	-0.866747667	-0.123027537	-0.264001044	0.004677051	0.068818239	0
791	2690503303	0.473305994	-0.100775318	-0.866438035	-0.122926411	-0.277451732	0.06058656	-0.00358493	0
792	2690519970	0.474018325	-0.100131413	-0.866163783	-0.122640241	-0.308976296	0.174964613	-0.012830004	0
793	2690536637	0.474644439	-0.099587848	-0.865938404	-0.122252191	-0.07182515	0.272497136	0.116908052	0
794	2690553304	0.47525176	-0.099073487	-0.865744506	-0.121682617	0.039127175	0.215846098	0.119512913	0
795	2690569971	0.475954949	-0.098467025	-0.865536912	-0.120900724	-0.054308454	0.08175252	-0.036188564	0
796	2690586638	0.47673438	-0.097726751	-0.865282163	-0.120252203	-0.313529831	-0.181118111	0.015111413	0
797	2690603305	0.477435328	-0.097255332	-0.864940941	-0.120308257	-0.292236268	-0.322168493	0.128253637	0
798	2690619972	0.477993129	-0.097420668	-0.864485251	-0.121231319	0.041669384	-0.042314931	0.213927018	0
799	2690636639	0.478501813	-0.09788091	-0.863992447	-0.122361734	0.056774812	0.19407212	0.177584782	0
800	2690653306	0.479016671	-0.098207045	-0.863534327	-0.123316146	-0.097211164	0.243500814	0.035154667	0
801	2690669973	0.479660797	-0.098335916	-0.863033299	-0.124213895	-0.201204867	-0.035836683	-0.039477567	0
802	2690686640	0.480291675	-0.098439368	-0.862539639	-0.125119819	-0.268628255	-0.002563171	-0.04186636	0
803	2690703307	0.480855247	-0.098567197	-0.862108353	-0.125824985	-0.251925458	0.266410882	0.032120223	0
804	2690719974	0.481362958	-0.098561738	-0.861777691	-0.126152677	-0.186033292	0.225479204	0.110377278	0
805	2690736641	0.481937812	-0.098617026	-0.861413139	-0.12640424	-0.060331846	0.050841196	-0.001760629	0
806	2690753308	0.482550828	-0.098900015	-0.860966199	-0.126888497	-0.122602325	0.050726477	-0.058142251	0
807	2690769975	0.483109858	-0.099169229	-0.86054486	-0.127408294	-0.211110403	0.168871135	0.021311636	0
808	2690786642	0.483555788	-0.09917677	-0.860273329	-0.127544376	-0.140625179	0.23227649	-0.020320187	0
809	2690803309	0.483940849	-0.099070749	-0.860096889	-0.127356129	-0.01492449	0.186964648	-0.006331821	0
810	2690819976	0.484414694	-0.099095251	-0.859842416	-0.1272539	-0.103937408	0.039802585	0.04935014	0
811	2690836643	0.484935415	-0.099468668	-0.85946637	-0.12751936	-0.135629652	0.031121203	0.096848209	0
812	2690853310	0.485407965	-0.099982226	-0.859077879	-0.127936939	-0.110246842	0.076113323	0.086453434	0
813	2690869977	0.485711216	-0.100695754	-0.85872949	-0.128563767	0.00207262	0.140220191	0.141533094	0
814	2690886644	0.485931983	-0.101605077	-0.858390067	-0.129278803	-0.12054263	0.032562761	0.121484107	0
815	2690903311	0.48614935	-0.10263099	-0.858031767	-0.130027598	-0.17231796	0.125784515	0.070529113	0
816	2690919978	0.486369272	-0.10359855	-0.857687626	-0.130706575	-0.190434635	0.242311495	-0.022108496	0
817	2690936645	0.486466509	-0.104514442	-0.857438796	-0.13124701	-0.078260283	0.173132372	-0.012134491	0
818	2690953312	0.486474657	-0.105398666	-0.857256013	-0.131702913	0.141822216	0.140712648	0.111574273	0
819	2690969979	0.486534246	-0.106159679	-0.857071054	-0.13207482	0.114446388	0.012253787	0.047511018	0
820	2690986646	0.486545311	-0.106675374	-0.856966262	-0.132298339	0.021725363	0.099903869	0.011346039	0
821	2691003313	0.4865269	-0.106765467	-0.856962688	-0.132316523	-0.072785435	-0.027591625	0.123490399	0
822	2691019980	0.486507301	-0.106820412	-0.856948238	-0.132437773	0.035956278	-0.219711506	0.240668163	0
823	2691036647	0.486440765	-0.107094963	-0.856888406	-0.13284694	0.160614871	-0.058074604	0.305183773	0
824	2691053314	0.486376437	-0.107272671	-0.856850631	-0.133182326	0.083418944	0.09553739	0.166872509	0
825	2691069981	0.486320932	-0.106955205	-0.856938945	-0.133072085	-0.061547916	0.174591917	0.073245169	0
826	2691086648	0.48621437	-0.106301375	-0.857115589	-0.132847547	-0.038203942	0.004827847	0.194191736	0
827	2691103315	0.486097335	-0.105816111	-0.857224964	-0.132957483	-0.034979807	-0.205408432	0.3055611	0
828	2691119982	0.485884743	-0.105755065	-0.857268399	-0.133501969	-0.004058079	0.033536575	0.168528836	0
829	2691136649	0.4856041	-0.105741489	-0.857331708	-0.13412583	-0.152039076	0.228715539	0.078168986	0
830	2691153316	0.4853239	-0.105493297	-0.857456337	-0.134538123	-0.163775353	0.252311585	0.049817007	0
831	2691169983	0.485164927	-0.105125188	-0.857563272	-0.134717941	-0.17198099	0.152953688	-0.06342421	0
832	2691186650	0.484961189	-0.104718029	-0.85771087	-0.134828939	-0.186941984	0.116179769	-0.163578718	0
833	2691203317	0.48468838	-0.104139481	-0.857953882	-0.134711836	-0.188527725	0.171966932	-0.094446815	0
834	2691219984	0.484517207	-0.103664094	-0.858114286	-0.13467258	-0.132574449	0.054980049	-0.031907571	0
835	2691236651	0.484614705	-0.103658899	-0.857987799	-0.135130886	-0.143798776	0.086538666	-0.038504104	0
836	2691253318	0.484720561	-0.103973706	-0.857806083	-0.135661969	-0.258305243	0.355162801	-0.158867704	0
837	2691269985	0.484765491	-0.104035801	-0.857774795	-0.135651658	-0.338116861	0.439996051	-0.221922921	0
838	2691286652	0.484796683	-0.103763106	-0.857874816	-0.135115485	-0.33048465	0.248704866	-0.209580742	0
839	2691303319	0.484860212	-0.103552661	-0.857965748	-0.13447006	-0.172298872	0.094788435	-0.056228493	0
840	2691319986	0.485117018	-0.103778577	-0.857861242	-0.134035727	-0.191514112	0.064335446	-0.124437926	0
841	2691336653	0.485363133	-0.104309002	-0.857704247	-0.133737376	-0.245893407	0.343782636	-0.199959782	0
842	2691353320	0.485548811	-0.104727065	-0.857621151	-0.133268737	-0.255986576	0.377993055	-0.109788894	0
843	2691369987	0.485748924	-0.105031348	-0.857596349	-0.13245717	-0.173480548	0.18104811	-0.02331392	0
844	2691386654	0.486104323	-0.105406036	-0.857476147	-0.131631348	-0.142774192	-0.039396642	-0.056452724	0
845	2691403321	0.486563482	-0.105968003	-0.857241442	-0.131010955	-0.265715829	-0.014066196	-0.072941071	0
846	2691419988	0.486908372	-0.10650836	-0.857072032	-0.130398382	-0.132582905	0.222932539	-0.013635289	0
847	2691436655	0.487356618	-0.107093108	-0.856847177	-0.129720885	-0.072862135	0.147470833	-0.088071905	0
848	2691453322	0.487905191	-0.107813812	-0.856514783	-0.129256075	-0.159827815	0.032974429	-0.110521444	0
849	2691469989	0.488418001	-0.108534265	-0.856186007	-0.128894106	-0.322588813	0.023545803	0.005501525	0
850	2691486656	0.488863897	-0.109306976	-0.855856932	-0.12873611	-0.251476795	-0.113238064	0.098676817	0
851	2691503323	0.48929817	-0.110237579	-0.855480029	-0.12879789	0.02203744	-0.025143719	0.083866609	0
852	2691519990	0.489883108	-0.111215347	-0.855014619	-0.128824256	-0.150136114	0.04252178	0.106367877	0
853	2691536657	0.490370134	-0.111930362	-0.85467546	-0.128602426	-0.164870741	0.22853058	0.17547125	0
854	2691553324	0.490813596	-0.112361085	-0.854451116	-0.128024568	0.031295107	0.150078396	0.325307782	0
855	2691569991	0.491406981	-0.112859998	-0.854160531	-0.127246167	0.135508023	-0.150053881	0.166688227	0
856	2691586658	0.492125258	-0.113618902	-0.853667766	-0.127101614	-0.016110507	-0.256806503	0.138530029	0
857	2691603325	0.492655445	-0.114412027	-0.853187058	-0.1275631	-0.079482707	-0.073246531	0.286025412	0
858	2691619992	0.493091926	-0.115024017	-0.852818043	-0.127793638	0.168834192	0.070067436	0.329011738	0
859	2691636659	0.493588165	-0.115445251	-0.852502348	-0.127604327	0.206922319	-0.031022551	-0.031889848	0
860	2691653326	0.494043896	-0.115742398	-0.852178564	-0.127734185	-0.129643619	-0.097123236	-0.017036446	0
861	2691669993	0.494284087	-0.115963812	-0.851937844	-0.128208994	-0.17288693	-0.034860939	0.19423338	0
862	2691686660	0.494434951	-0.115942326	-0.851826028	-0.128389541	0.005293629	0.016033592	0.204808554	0
863	2691703327	0.494600039	-0.115785922	-0.851750936	-0.128393009	0.077313776	-0.090497014	0.1585268	0
864	2691719994	0.494740598	-0.115782492	-0.851612975	-0.128769155	0.043627916	-0.223517759	0.219097099	0
865	2691736661	0.494766692	-0.115965023	-0.851455388	-0.129544419	0.00692583	-0.099578414	0.235969016	0
866	2691753328	0.494724312	-0.115992991	-0.85138637	-0.130133512	0.079094469	0.087164934	0.205407799	0
867	2691769995	0.494767422	-0.115704321	-0.851365398	-0.130363595	0.084342944	0.078342465	0.149112851	0
868	2691786662	0.494731653	-0.115379934	-0.851383569	-0.130667825	0.005876028	0.041600678	0.122753672	0
869	2691803329	0.494538331	-0.115155114	-0.851452371	-0.131148765	-0.056738497	0.008172666	0.15601705	0
870	2691819996	0.494282074	-0.114815744	-0.85157153	-0.131637778	-0.240524675	-0.120385468	0.070947399	0
871	2691836663	0.493992469	-0.114349986	-0.851735103	-0.132071325	-0.146469302	-0.074501105	0.090646647	0
872	2691853330	0.493678354	-0.113895212	-0.851906685	-0.132531369	-0.061236656	-0.06550573	0.090641161	0
873	2691869997	0.493387425	-0.113568027	-0.85201739	-0.133182278	0.027096606	0.070294434	-0.019277091	0
874	2691886664	0.493133672	-0.113143778	-0.852147709	-0.133648603	-0.035878475	0.358781592	-0.066240455	0
875	2691903331	0.492914662	-0.112223677	-0.852411634	-0.133549201	-0.197395672	0.225646697	-0.126610383	0
876	2691919998	0.492776687	-0.111163364	-0.852645913	-0.133449579	-0.141523363	-0.10843546	-0.021029292	0
877	2691936665	0.492812427	-0.110515008	-0.852658543	-0.133775009	-0.175203712	-0.243998591	-0.051771967	0
878	2691953332	0.492892521	-0.110063877	-0.852576892	-0.13437094	-0.344548323	0.032081281	-0.041706192	0
879	2691969999	0.492907267	-0.109409727	-0.852606607	-0.134662212	-0.159332266	0.329227814	-0.112523137	0
880	2691986666	0.493081427	-0.108628346	-0.852616429	-0.134594997	-0.090989927	0.180866349	-0.180089715	0
881	2692003333	0.493428035	-0.107950045	-0.852503987	-0.134582742	-0.169084509	0.046368754	-0.171046853	0
882	2692020000	0.493858251	-0.107371591	-0.852314938	-0.134664827	-0.264445346	0.102300255	-0.079872899	0
883	2692036667	0.49425897	-0.106738462	-0.852165264	-0.134645214	-0.307457319	0.148314275	-0.077258067	0
884	2692053334	0.494726494	-0.105956145	-0.852033243	-0.134381338	-0.27245339	0.094775694	-0.007989071	0
885	2692070001	0.495422781	-0.10551564	-0.851655444	-0.134557502	-0.210881601	-0.226692791	0.071541274	0
886	2692086668	0.496157993	-0.105790073	-0.851025423	-0.135615025	-0.142132305	-0.094881582	0.122174268	0
887	2692103335	0.496905859	-0.106290925	-0.850343453	-0.136758249	-0.251117793	0.255902715	0.061511481	0
888	2692120002	0.497612054	-0.106315102	-0.849857487	-0.137191816	-0.20402821	0.396348054	-0.137677366	0
889	2692136669	0.498355477	-0.105590872	-0.849615993	-0.136546881	-0.278884415	0.25433565	-0.158664374	0
890	2692153336	0.499137098	-0.104513041	-0.849471852	-0.135413271	-0.34715595	0.03044854	0.111457752	0
891	2692170003	0.499912196	-0.103608587	-0.849261234	-0.134567501	-0.163929016	-0.229377794	0.196501485	0
892	2692186670	0.500622385	-0.103072673	-0.848937529	-0.134381259	-0.015706854	-0.312335331	0.20703722	0
893	2692203337	0.501260881	-0.102807303	-0.848551561	-0.134641879	0.020830318	-0.160359397	0.109130524	0
894	2692220004	0.501864727	-0.102282012	-0.848222247	-0.134867365	-0.0304843	0.058592289	-0.063345911	0
895	2692236671	0.502535863	-0.101353291	-0.847932537	-0.134891176	-0.013288912	0.06660306	0.053285751	0
896	2692253338	0.503238331	-0.100539664	-0.847571687	-0.13514878	0.110183517	-0.031796248	0.325126131	0
897	2692270005	0.50386896	-0.10021694	-0.847101919	-0.135981523	0.128748451	-0.204235342	0.308121283	0
898	2692286672	0.504396189	-0.100058059	-0.846636657	-0.137037369	0.029729581	-0.010359531	0.11760016	0
899	2692303339	0.504813568	-0.099513755	-0.846339943	-0.137727902	0.00080076	0.214835838	-0.044821272	0
900	2692320006	0.505220543	-0.098533885	-0.846182594	-0.137906827	-0.04416854	0.252113717	-0.093101655	0
901	2692336673	0.50569069	-0.097283692	-0.846071821	-0.137750798	-0.054009047	0.07997132	-0.01805167	0
902	2692353340	0.506201697	-0.096037177	-0.845933417	-0.137598534	-0.091187453	-0.126410775	0.083087352	0
903	2692370007	0.506633367	-0.095152533	-0.845711685	-0.13798686	-0.125979099	-0.166442196	0.084525613	0
904	2692386674	0.506909556	-0.094468465	-0.84551757	-0.138630623	-0.095027735	0.090057522	-0.064061947	0
905	2692403341	0.507231089	-0.093585549	-0.845365948	-0.138977627	-0.08455396	0.287223344	-0.037774126	0
906	2692420008	0.50772991	-0.092737734	-0.845108069	-0.139292508	-0.00888832	0.159867475	0.084032802	0
907	2692436675	0.508258911	-0.092360846	-0.84472768	-0.139919624	-0.083092855	0.094438733	0.097698906	0
908	2692453342	0.508645904	-0.092322617	-0.844357865	-0.140768161	-0.272562878	0.144095483	0.022314429	0
909	2692470009	0.508917268	-0.092067706	-0.844117622	-0.141393751	-0.328475144	0.216797166	-0.001254318	0
910	2692486676	0.50918329	-0.091577837	-0.843978136	-0.141586662	-0.226070149	0.253381903	-0.068734772	0
911	2692503343	0.509536684	-0.091013877	-0.843858873	-0.14138969	-0.184264756	0.284514971	-0.13642733	0
912	2692520010	0.509841624	-0.090269654	-0.843850311	-0.140817476	-0.161343902	0.396220357	-0.089953836	0
913	2692536677	0.510136149	-0.089398995	-0.843909319	-0.139949957	-0.138118898	0.267921818	-0.04840995	0
914	2692553344	0.510366807	-0.088766243	-0.843921343	-0.139438311	-0.05346675	-0.026360858	0.085267202	0
915	2692570011	0.510559362	-0.088531005	-0.843827828	-0.139448898	-0.023789464	-0.155679743	0.091122343	0
916	2692586678	0.510664913	-0.088502514	-0.843748345	-0.139561393	-0.033341672	0.06263684	-0.057883903	0
917	2692603345	0.510846815	-0.08836464	-0.843638858	-0.139644907	0.010593107	0.133848057	-0.115052259	0
918	2692620012	0.511168415	-0.088547163	-0.843329237	-0.140221433	0.062969778	0.042849134	0.037848944	0
919	2692636679	0.511499307	-0.089220453	-0.842874878	-0.141315639	-0.022700425	0.097863332	0.084078334	0
920	2692653346	0.511770067	-0.089940965	-0.84246854	-0.142298212	-0.051767804	0.25205655	-0.121451556	0
921	2692670013	0.511972995	-0.090137868	-0.842255491	-0.142704256	-0.177522324	0.298000008	-0.182966372	0
922	2692686680	0.512124493	-0.089853294	-0.842218712	-0.142557113	-0.205745107	0.130948387	-0.094222905	0
923	2692703347	0.512322907	-0.089688169	-0.842150983	-0.142348139	-0.13386241	-0.003754519	0.004843895	0
924	2692720014	0.512518541	-0.089695982	-0.84206335	-0.142157273	-0.117228967	0.221352614	-0.056206503	0
925	2692736681	0.512749264	-0.089543477	-0.842028077	-0.141629357	-0.127569605	0.323446781	-0.03312057	0
926	2692753348	0.513020102	-0.08948186	-0.841928834	-0.141277066	-0.103396107	-0.055625625	0.14292899	0
927	2692770015	0.513317391	-0.09021939	-0.841557917	-0.141936566	0.04323442	-0.424636654	0.273111717	0
928	2692786682	0.513492175	-0.091814326	-0.841007074	-0.143537511	0.10936102	-0.174716568	0.169733858	0
929	2692803349	0.513625884	-0.093584777	-0.840429726	-0.145286673	0.001040276	0.251937233	-0.012406913	0
930	2692820016	0.513791591	-0.094806572	-0.840000599	-0.146386164	-0.164088075	0.459117481	-0.224184664	0
931	2692836683	0.513905582	-0.09516169	-0.839893386	-0.146370786	-0.289188818	0.407321444	-0.295010478	0
932	2692853350	0.513924375	-0.094836217	-0.840063661	-0.145536508	-0.20818037	0.141973679	-0.111919176	0
933	2692870017	0.513946473	-0.094382979	-0.840252488	-0.144660405	0.007471831	-0.189247474	0.082267994	0
934	2692886684	0.513953371	-0.094078442	-0.840385363	-0.144061173	0.155497388	-0.215288883	0.17987544	0
935	2692903351	0.513995382	-0.093812203	-0.840454024	-0.143683858	0.133435376	-0.095842482	0.145507336	0
936	2692920018	0.514062954	-0.093569781	-0.840460086	-0.143564686	0.097201436	-0.019190078	0.170862872	0
937	2692936685	0.514123738	-0.093426747	-0.840422135	-0.143662314	0.068576154	0.013633673	0.161176144	0
938	2692953352	0.514172491	-0.093419118	-0.840338764	-0.143980135	0.048473679	-0.017131197	0.18132117	0
939	2692970019	0.514129181	-0.093369327	-0.840330688	-0.14421404	-0.040993241	0.107895263	0.125918642	0
940	2692986686	0.514045673	-0.093046201	-0.840445455	-0.144051686	-0.139316893	0.105985417	-0.051990953	0
941	2693003353	0.514046926	-0.092610643	-0.840529923	-0.143834887	-0.187126814	-0.022077754	0.013990553	0
942	2693020020	0.514136492	-0.092639907	-0.840406249	-0.144218074	-0.163154344	-0.126222757	0.107522392	0
943	2693036687	0.514171526	-0.093073579	-0.840204776	-0.14498581	-0.122705678	0.048005012	0.096500228	0
944	2693053354	0.514102434	-0.093403958	-0.840122027	-0.145496969	-0.163585926	0.236780474	0.002913243	0
945	2693070021	0.514022025	-0.09332619	-0.840190387	-0.145436215	-0.208285821	0.243842795	-0.095502088	0
946	2693086688	0.513958449	-0.092864362	-0.840360225	-0.144974531	-0.214801043	0.164577313	-0.090157472	0
947	2693103355	0.513986589	-0.092286414	-0.840515014	-0.144345128	-0.200714866	0.017316815	0.025326851	0
948	2693120022	0.514041732	-0.092039981	-0.840541059	-0.144154322	-0.025757324	-0.124171027	0.083752314	0
949	2693136689	0.514109774	-0.092151973	-0.840459544	-0.144315313	0.077797296	0.009050108	0.0826527	0
950	2693153356	0.514161259	-0.092201794	-0.840414328	-0.144363384	-0.04684551	0.156082943	0.015844775	0
951	2693170023	0.514306955	-0.091986008	-0.840382799	-0.144165468	-0.245900485	0.117266772	-0.062269626	0
952	2693186690	0.514606707	-0.091743201	-0.84022956	-0.144143711	-0.290194051	-0.150353331	-0.061014759	0
953	2693203357	0.514913633	-0.091910269	-0.839929744	-0.144687518	-0.223801988	-0.248552917	-0.005209905	0
954	2693220024	0.515063099	-0.092438206	-0.839665522	-0.145351276	-0.143837147	0.100530804	0.06112723	0
955	2693236691	0.515193235	-0.092773918	-0.839511324	-0.145566713	-0.091829206	0.324905842	-0.014337151	0
956	2693253358	0.515437824	-0.092504348	-0.839493067	-0.144976502	-0.041694864	0.28045554	-0.167099362	0
957	2693270025	0.515776582	-0.091872872	-0.839540565	-0.143894173	-0.150481676	0.053068027	-0.12948354	0
958	2693286692	0.516022271	-0.091198374	-0.839626357	-0.142938633	-0.195266577	-0.162350014	0.056816759	0
959	2693303359	0.516210591	-0.090828304	-0.839625387	-0.142499316	-0.078319231	-0.213264828	0.121718876	0
960	2693320026	0.516423368	-0.090778427	-0.839511778	-0.14242948	-0.03020177	-0.153114891	0.048740852	0
961	2693336693	0.516671191	-0.091172166	-0.839216897	-0.143015794	-0.039845844	-0.090154968	0.062926333	0
962	2693353360	0.516882999	-0.091796327	-0.838867829	-0.143896371	-0.084029776	0.07634797	0.08216369	0
963	2693370027	0.516981863	-0.092157911	-0.838691287	-0.144338481	-0.072778385	0.269640376	0.038423953	0
964	2693386694	0.516993694	-0.091988264	-0.838750732	-0.144058629	-0.038567867	0.304129275	0.05343969	0
965	2693403361	0.517075116	-0.091558581	-0.838856641	-0.143422055	-0.10935607	0.019174783	0.049516112	0
966	2693420028	0.517160949	-0.091349006	-0.838891628	-0.143041073	-0.118570543	-0.120094977	-0.047653574	0
967	2693436695	0.517155105	-0.091372868	-0.838905991	-0.142962703	-0.142864063	0.011604854	-0.002479082	0
968	2693453362	0.51701267	-0.091317275	-0.839013457	-0.142882728	-0.056979421	0.096846089	0.052043049	0
969	2693470029	0.516976342	-0.091164232	-0.839077145	-0.142737834	0.081472995	-0.013205371	0.074887874	0
970	2693486696	0.517010977	-0.091094796	-0.8390618	-0.142746921	0.039246042	-0.03150131	0.103412979	0
971	2693503363	0.517029705	-0.091204651	-0.839004705	-0.142944396	-0.0525581	0.042338299	0.059094847	0
972	2693520030	0.516889021	-0.091205563	-0.839082498	-0.142995969	-0.100714312	0.173789163	-0.022157652	0
973	2693536697	0.516778428	-0.09090577	-0.839227649	-0.142734548	-0.124156347	0.059395617	-0.05348049	0
974	2693553364	0.516734909	-0.090604724	-0.839320743	-0.14253599	-0.139739727	-0.117017211	0.057346747	0
975	2693570031	0.516769726	-0.0906768	-0.839235055	-0.142868087	-0.145550913	-0.210275982	0.05604394	0
976	2693586698	0.516694471	-0.090987082	-0.839137653	-0.14351367	-0.088036622	-0.028075138	0.063716055	0
977	2693603365	0.516538192	-0.091144078	-0.839136747	-0.143981153	-0.040656848	0.180395609	0.018191672	0
978	2693620032	0.516377583	-0.090893175	-0.839272795	-0.143922893	-0.07152688	0.165379609	-0.084229304	0
979	2693636699	0.516335936	-0.090354902	-0.839428634	-0.143501781	-0.177575599	-0.00335096	-0.116888566	0
980	2693653366	0.516319108	-0.089747842	-0.83958608	-0.14302139	-0.188149832	-0.006435217	-0.109429185	0
981	2693670033	0.516302042	-0.08911309	-0.839739862	-0.142576374	-0.106512522	0.01412123	-0.054018319	0
982	2693686700	0.516287085	-0.088394308	-0.839891192	-0.142186065	0.015606488	-0.042379536	-0.038764382	0
983	2693703367	0.516283891	-0.087504139	-0.840065281	-0.141719065	0.116730353	-0.017540353	-0.0198535	0
984	2693720034	0.516416067	-0.086519875	-0.840180787	-0.141155949	0.01567771	-0.01871475	0.019643959	0
985	2693736701	0.516713322	-0.085697807	-0.84013134	-0.140863623	-0.020039832	-0.097914598	0.042515225	0
986	2693753368	0.51705186	-0.085226308	-0.839948094	-0.141000178	-0.194217597	-0.072273668	-0.034432586	0
987	2693770035	0.517291948	-0.084906946	-0.839780899	-0.141307793	-0.339956452	0.106275893	0.017068231	0
988	2693786702	0.517353433	-0.084351522	-0.839801735	-0.141291515	-0.259926437	0.225760089	0.008130571	0
989	2693803369	0.517483321	-0.083612035	-0.839871863	-0.140837832	-0.21824038	0.075089212	-0.002907618	0
990	2693820036	0.517729468	-0.083165579	-0.839804863	-0.140596858	-0.167611393	-0.083034244	0.081319202	0
991	2693836703	0.517952446	-0.083248877	-0.839632126	-0.140757883	-0.174665456	0.049427429	0.084002997	0
992	2693853370	0.518037009	-0.083603497	-0.839502586	-0.141008938	-0.196051847	0.262019037	-0.011982725	0
993	2693870037	0.518112895	-0.083842455	-0.839424829	-0.141051152	-0.230831216	0.278766137	-0.07285961	0
994	2693886704	0.518280438	-0.083929638	-0.839332746	-0.140931705	-0.230082774	0.059411818	-0.100271344	0
995	2693903371	0.518491896	-0.084074881	-0.839199501	-0.140860798	-0.09270419	-0.023858312	-0.048918649	0
996	2693920038	0.518641375	-0.084214687	-0.839125042	-0.140670449	-0.093190711	-0.00979749	0.089966861	0
997	2693936705	0.518691095	-0.084189345	-0.839167	-0.140251376	-0.157565589	0.155725132	0.052835345	0
998	2693953372	0.518822472	-0.083944009	-0.839204984	-0.139684074	-0.097549121	0.055811342	0.02312061	0
999	2693970039	0.51896496	-0.083792005	-0.839185796	-0.139360938	0.018163639	-0.139830517	0.096111962	0
1000	2693986706	0.519075847	-0.083945892	-0.839089416	-0.139435667	-0.042945662	-0.184554529	0.116165774	0
1001	2694003373	0.519000961	-0.084063085	-0.839098481	-0.139589178	-0.004052098	0.000428466	0.154538069	0
1002	2694020040	0.518927015	-0.083986014	-0.839149763	-0.139602211	0.109366833	-0.13727169	0.177467461	0
1003	2694036707	0.518924722	-0.084148177	-0.839086846	-0.139890964	0.132315157	-0.186488622	0.124496977	0
1004	2694053374	0.518825143	-0.08462548	-0.838973265	-0.140651555	0.022966522	-0.097971691	0.108591721	0
1005	2694070041	0.518569491	-0.085090627	-0.838922486	-0.141613313	-0.111990215	-0.052192973	0.132990723	0
1006	2694086708	0.518192744	-0.08531805	-0.838983564	-0.142491017	-0.032134515	-0.067260734	0.072395476	0
1007	2694103375	0.517872437	-0.085390698	-0.839044195	-0.143252947	0.096138976	-0.181263216	0.047990746	0
1008	2694120042	0.51755085	-0.085438468	-0.839090965	-0.144110161	-0.017097749	-0.198382856	0.059350991	0
1009	2694136709	0.517112367	-0.085316	-0.839232008	-0.144933143	-0.070637236	0.026050639	0.046569882	0
1010	2694153376	0.516691506	-0.084832065	-0.839461587	-0.145387936	-0.121039881	0.15469991	0.0133791	0
1011	2694170043	0.516354709	-0.08409571	-0.839713409	-0.14555795	-0.077774464	0.060173948	0.018258913	0
1012	2694186710	0.516097485	-0.083450265	-0.839896135	-0.145787247	-0.045188479	-0.076645503	0.042172622	0
1013	2694203377	0.515890059	-0.083084361	-0.839940743	-0.146471785	-0.107897447	-0.206084481	-0.035274899	0
1014	2694220044	0.515608124	-0.082860552	-0.839967803	-0.147432971	-0.069585733	-0.003633008	-0.064004758	0
1015	2694236711	0.515369705	-0.082575602	-0.840002526	-0.148226494	-0.090661273	0.188477906	-0.051010157	0
1016	2694253378	0.515328303	-0.082163639	-0.839987483	-0.148683908	-0.178613307	0.227552761	-0.09578076	0
1017	2694270045	0.515410861	-0.081700192	-0.839923791	-0.149012577	-0.276441354	0.139780834	-0.174621808	0
1018	2694286712	0.515496577	-0.081147309	-0.839896205	-0.149173583	-0.229395288	0.151701659	-0.191904943	0
1019	2694303379	0.515448642	-0.080341489	-0.840051581	-0.148900246	-0.212471765	0.244766584	-0.184666898	0
1020	2694320046	0.515498838	-0.079158623	-0.840254427	-0.148213891	-0.064854973	0.21766897	-0.064663187	0
1021	2694336713	0.515790568	-0.078154881	-0.840239547	-0.147815457	-0.057897177	-0.082551907	0.157157091	0
1022	2694353380	0.516118742	-0.078024249	-0.839952011	-0.148372098	-0.087991163	-0.184521946	0.151503439	0
1023	2694370047	0.516296355	-0.078621654	-0.839571808	-0.149585725	-0.10402502	0.070185301	0.095318965	0
1024	2694386714	0.516344219	-0.079194306	-0.839297004	-0.150656728	-0.187303774	0.362844568	0.000876319	0
1025	2694403381	0.516394119	-0.079222032	-0.83920234	-0.150998068	-0.297056477	0.376913373	-0.086730564	0
1026	2694420048	0.516498652	-0.078763791	-0.839241817	-0.150660477	-0.379039878	0.227168789	-0.141263035	0
1027	2694436715	0.516667471	-0.078284108	-0.839277899	-0.150129714	-0.339493169	0.066947209	-0.090939599	0
1028	2694453382	0.516761653	-0.078014051	-0.839317857	-0.149722202	-0.223640371	0.120674643	0.068980015	0
1029	2694470049	0.516753198	-0.07792758	-0.839419439	-0.149226107	-0.100050173	0.248177816	0.060162259	0
1030	2694486716	0.516801491	-0.077858791	-0.839537081	-0.148430851	-0.131327024	0.251064961	0.00984275	0
1031	2694503383	0.516941611	-0.078089247	-0.83950095	-0.148025659	-0.129835759	0.03476326	0.081481685	0
1032	2694520050	0.517053055	-0.0790043	-0.839275877	-0.148426617	0.016082441	0.056332486	0.086945178	0
1033	2694536717	0.517097816	-0.080478704	-0.838980652	-0.149145875	-0.062640941	0.225371743	0.016643566	0
1034	2694553384	0.517032364	-0.08183007	-0.838798095	-0.149663394	-0.122525783	0.332269708	-0.064347957	0
1035	2694570051	0.51693901	-0.082702708	-0.838810759	-0.149435044	-0.180718625	0.321517674	-0.217552041	0
1036	2694586718	0.516903806	-0.083248322	-0.838915097	-0.148666178	-0.155992222	0.120228479	-0.188705034	0
1037	2694603385	0.516764291	-0.083826697	-0.839079995	-0.14789359	-0.048198145	0.153074721	-0.089401598	0
1038	2694620052	0.516475735	-0.084362192	-0.839351533	-0.147053865	0.03506303	0.25732321	0.051025416	0
1039	2694636719	0.516030237	-0.084690968	-0.839783753	-0.145957127	0.096811327	0.152775334	0.045336212	0
1040	2694653386	0.515588731	-0.084844521	-0.840242817	-0.144781475	0.144753696	-0.033259296	0.062912667	0
1041	2694670053	0.515141046	-0.08503206	-0.840670246	-0.143780351	0.110509046	-0.123828766	0.084546146	0
1042	2694686720	0.514566282	-0.08524826	-0.841139985	-0.142960839	0.135248111	-0.055032996	0.017615802	0
1043	2694703387	0.51400036	-0.085567723	-0.841543381	-0.142430799	0.157063711	-0.086694455	0.161643723	0
1044	2694720054	0.51344177	-0.086294896	-0.841776781	-0.142627453	0.162325899	-0.093979507	0.211816524	0
1045	2694736721	0.512852436	-0.087384871	-0.841922686	-0.143221697	0.111388639	0.005856897	0.178981528	0
1046	2694753388	0.512129149	-0.088163136	-0.842237507	-0.143481633	0.06326611	0.217788488	0.042861987	0
1047	2694770055	0.511443148	-0.088225687	-0.842727672	-0.143011203	-0.040693025	0.065874261	-0.010819088	0
1048	2694786722	0.510793817	-0.088000481	-0.843259169	-0.142336102	-0.113667194	-0.148569121	-0.053767915	0
1049	2694803389	0.510160726	-0.087903782	-0.843731348	-0.141867446	-0.099732319	-0.150559894	-0.087239093	0
1050	2694820056	0.509393477	-0.087878971	-0.844243262	-0.141594091	-0.062653979	-0.00272555	-0.092872792	0
1051	2694836723	0.508483068	-0.087659972	-0.844875129	-0.141232839	-0.000432083	0.124006531	-0.058761439	0
1052	2694853390	0.50752838	-0.087090674	-0.845603028	-0.14066157	0.118380885	0.04040534	0.108857645	0
1053	2694870057	0.506679484	-0.086445995	-0.846278421	-0.140056502	0.177507829	-0.145321536	0.14739512	0
1054	2694886724	0.505946303	-0.086147487	-0.846778495	-0.139868256	0.012943961	-0.214266029	0.109217151	0
1055	2694903391	0.505205708	-0.086141421	-0.847187624	-0.140071328	-0.136769789	0.015076929	-0.003220511	0
1056	2694920058	0.504334668	-0.085935693	-0.8477291	-0.140060604	-0.248198814	0.233147149	-0.062054765	0
1057	2694936725	0.503495654	-0.085721072	-0.848248236	-0.14006768	0.014553387	0.125503648	-0.03981911	0
1058	2694953392	0.502763435	-0.085645988	-0.84867492	-0.140159103	0.080579322	0.041345886	-0.013496815	0
1059	2694970059	0.502093811	-0.085705867	-0.849044019	-0.140287433	-0.093312214	0.097144911	0.00727645	0
1060	2694986726	0.501435347	-0.08571157	-0.84943201	-0.140290337	-0.306486358	0.195806079	-0.030789036	0
1061	2695003393	0.500799563	-0.085633028	-0.849833339	-0.140178733	-0.326771348	0.073409896	-0.145785954	0
1062	2695020060	0.500294089	-0.08554661	-0.850167878	-0.140007794	-0.278696366	-0.019929442	-0.223429311	0
1063	2695036727	0.499881724	-0.085425172	-0.850465656	-0.139746089	-0.380501729	-0.026038115	-0.154793039	0
1064	2695053394	0.499404729	-0.085088119	-0.85084957	-0.139319553	-0.439628347	-0.028295418	-0.114079664	0
1065	2695070061	0.498980095	-0.084758389	-0.851178834	-0.139030477	-0.302898815	-0.156402882	-0.144283369	0
1066	2695086728	0.498872621	-0.08473086	-0.851226322	-0.139142154	-0.151693662	-0.114289152	-0.123879633	0
1067	2695103395	0.498968259	-0.08492055	-0.851112173	-0.139381653	-0.228912712	0.105498398	0.022883708	0
1068	2695120062	0.499078984	-0.084944628	-0.851048963	-0.139356524	-0.186703876	0.17003558	-0.033066784	0
1069	2695136729	0.499349487	-0.084711182	-0.850968079	-0.139023143	-0.107889083	-0.062618972	-0.100168851	0
1070	2695153396	0.499748886	-0.084372677	-0.85083713	-0.138594665	-0.125540541	-0.208081189	-0.085938709	0
1071	2695170063	0.50014101	-0.084202948	-0.850636088	-0.138517434	-0.326638356	-0.212292407	-0.021212504	0
1072	2695186730	0.500388178	-0.084340057	-0.85040037	-0.138987899	-0.275271559	-0.056410305	-0.050727721	0
1073	2695203397	0.500728429	-0.084519978	-0.850091365	-0.139542413	-0.150279737	0.079394871	-0.086716715	0
1074	2695220064	0.501214364	-0.084603833	-0.849749637	-0.139828132	-0.076937992	0.123539959	-0.032862831	0
1075	2695236731	0.501693797	-0.084477585	-0.849480638	-0.139819589	-0.106302002	0.123954914	0.007088153	0
1076	2695253398	0.502074615	-0.084065344	-0.849333207	-0.139596572	-0.14250561	-0.009328462	0.094045281	0
1077	2695270065	0.50223217	-0.083597693	-0.849327381	-0.139345877	0.014554504	-0.004102189	0.056121759	0
1078	2695286732	0.502453907	-0.0833993	-0.849232583	-0.139243123	-0.003755631	-0.03783182	0.090799769	0
1079	2695303399	0.502679021	-0.083565928	-0.849031711	-0.139555338	-0.100744433	-0.033412306	0.100053994	0
1080	2695320066	0.502905145	-0.083947608	-0.848754781	-0.140194634	-0.16645861	-0.018065849	0.026706976	0
1081	2695336733	0.503008645	-0.084152722	-0.848605627	-0.140602675	-0.164119172	0.209443043	-0.044628702	0
1082	2695353400	0.502956897	-0.083787617	-0.8487404	-0.140191756	-0.123656815	0.25818252	-0.032689826	0
1083	2695370067	0.502909866	-0.083179897	-0.848948115	-0.139462789	0.01060316	-0.018820814	0.061487878	0
1084	2695386734	0.50288613	-0.082978317	-0.849021674	-0.139220458	0.073597815	-0.184685389	0.146358411	0
1085	2695403401	0.502827665	-0.083303814	-0.848959407	-0.139616401	0.031666525	-0.070810268	0.147680232	0
1086	2695420068	0.502647819	-0.083829763	-0.848896652	-0.140328951	-0.121794223	0.038909249	-0.040506757	0
1087	2695436735	0.502397381	-0.084215206	-0.84888993	-0.141033886	-0.140466336	0.031494258	-0.122507684	0
1088	2695453402	0.502208526	-0.084360698	-0.848904315	-0.141532092	-0.150149245	0.025450165	-0.087209485	0
1089	2695470069	0.502157546	-0.084392043	-0.848885817	-0.141804976	-0.168048253	0.01535199	-0.055673658	0
1090	2695486736	0.502074093	-0.08421899	-0.848954721	-0.141790861	-0.125649585	0.15452635	-0.088910221	0
1091	2695503403	0.502079264	-0.083657575	-0.849087693	-0.141307865	-0.098422754	0.188146372	-0.047223274	0
1092	2695520070	0.502308396	-0.08301963	-0.849091858	-0.140844	-0.121074929	-0.149360628	0.006999872	0
1093	2695536737	0.502624151	-0.082837882	-0.848884998	-0.14107129	-0.037934503	-0.344630168	0.010852002	0
1094	2695553404	0.502940248	-0.083134562	-0.848517889	-0.141975857	-0.116458395	-0.227336595	0.005201262	0
1095	2695570071	0.503188439	-0.083395482	-0.848167199	-0.14303493	-0.053106977	0.071782131	-0.072221423	0
1096	2695586738	0.503529836	-0.083192708	-0.847895783	-0.143559809	-0.024629766	0.249813047	-0.130782951	0
1097	2695603405	0.504121019	-0.082515862	-0.847615584	-0.143530321	-0.227119084	-0.001968813	-0.112702506	0
1098	2695620072	0.504718039	-0.081740782	-0.847334498	-0.143535342	-0.256935657	-0.144775161	-0.048669828	0
1099	2695636739	0.505229224	-0.080907077	-0.847099305	-0.143597505	-0.20746711	-0.06221578	-0.017797187	0
1100	2695653406	0.505621388	-0.079880318	-0.846994476	-0.143410265	-0.091622631	0.030006502	0.01757635	0
1101	2695670073	0.50615697	-0.078945605	-0.846771345	-0.143356205	0.118678602	-0.062484619	0.091302917	0
1102	2695686740	0.506773153	-0.078462814	-0.846354923	-0.143902405	0.063135338	-0.114301215	0.077131502	0
1103	2695703407	0.50726289	-0.078320613	-0.845919602	-0.144811152	0.039048413	0.019708892	0.147811349	0
1104	2695720074	0.507570634	-0.078220739	-0.845596962	-0.145668618	0.055529029	0.208677692	0.087537501	0
1105	2695736741	0.50792217	-0.07814608	-0.845267973	-0.146390961	-0.099428063	0.178233326	-0.015787637	0
1106	2695753408	0.508301883	-0.078074659	-0.844922781	-0.147102134	-0.323306743	0.117743875	-0.094824344	0
1107	2695770075	0.508454672	-0.077822121	-0.84477826	-0.147537303	-0.338936914	0.168921685	-0.095068995	0
1108	2695786742	0.508424136	-0.077193893	-0.844866768	-0.147465746	-0.253491741	0.202295214	-0.01688852	0
1109	2695803409	0.508301607	-0.076311708	-0.845094022	-0.147044527	-0.08341306	0.010474804	0.027220635	0
1110	2695820076	0.508248938	-0.075560296	-0.84527705	-0.146561822	0.04749348	-0.043456549	0.020937918	0
1111	2695836743	0.508177481	-0.075207066	-0.845384993	-0.146368571	-0.068551544	0.104184498	-0.039682747	0
1112	2695853410	0.507855577	-0.074796651	-0.845552352	-0.146728984	-0.308354761	0.534112609	-0.090141338	0
1113	2695870077	0.507276897	-0.073540069	-0.846039268	-0.146559081	-0.269201194	0.417026278	-0.049611283	0
1114	2695886744	0.506757622	-0.071242392	-0.846889054	-0.144568894	0.254375632	0.067713772	0.071846215	0
1115	2695903411	0.50631711	-0.068469308	-0.847932972	-0.141296186	0.372021886	0.178504515	0.022659929	0
1116	2695920078	0.505933404	-0.065608722	-0.849005571	-0.137537001	0.227593877	0.141254493	-0.063181917	0
1117	2695936745	0.505629235	-0.063031964	-0.849927954	-0.134121296	0.000179165	0.093042366	-0.096826433	0
1118	2695953412	0.505283221	-0.060630716	-0.850715781	-0.131512138	-0.133218833	-0.147771638	-0.034088001	0
1119	2695970079	0.504661088	-0.058388957	-0.851550836	-0.129495522	0.068484956	-0.171696084	0.050530981	0
1120	2695986746	0.503982965	-0.056241745	-0.85238403	-0.127591155	0.179427853	0.020835422	0.037501273	0
1121	2696003413	0.503352473	-0.054474837	-0.853102007	-0.126038666	0.127018739	0.02869548	0.089279867	0
1122	2696020080	0.502347867	-0.053062649	-0.853959218	-0.12483841	0.260195487	0.523872528	0.284289088	0
1123	2696036747	0.501223814	-0.051579618	-0.854912541	-0.123445448	0.370492893	0.708850144	0.285701747	0
1124	2696053414	0.500221565	-0.049854643	-0.855855735	-0.121671124	0.293761949	0.513118844	0.048990723	0
1125	2696070081	0.49945454	-0.047817933	-0.856720626	-0.119533994	0.131071452	0.347040994	-0.015351234	0
1126	2696086748	0.498674048	-0.04530549	-0.857640666	-0.117149877	-0.078457991	0.181050772	0.046902446	0
1127	2696103415	0.497949755	-0.043106309	-0.858409326	-0.115418009	-0.275341189	-0.050035792	0.063779853	0
1128	2696120082	0.497287183	-0.040842959	-0.859108815	-0.113883071	-0.133916114	-0.238355275	0.173158427	0
1129	2696136749	0.497007654	-0.038582217	-0.859624786	-0.11198228	-0.084955886	-0.14542535	-0.177246045	0
1130	2696153416	0.497385657	-0.036202408	-0.859743429	-0.11017318	-0.253485864	-0.490939939	-0.390618541	0
1131	2696170083	0.497894035	-0.03296297	-0.859764465	-0.108719997	-0.019229764	-0.890265349	-0.061577405	0
1132	2696186750	0.4984812	-0.0285354	-0.85980965	-0.106909263	0.155336082	-0.67309069	0.056832564	0
1133	2696203417	0.499268314	-0.024091099	-0.859758068	-0.10472265	-0.125972921	-0.035900447	0.003848971	0
1134	2696220084	0.500299339	-0.019317674	-0.859654019	-0.101599047	-0.139405075	0.116560378	0.119828122	0
1135	2696236751	0.501569163	-0.013954038	-0.859503723	-0.097401285	0.008009463	-0.072350887	0.0381189	0
1136	2696253418	0.503175982	-0.008498857	-0.859124079	-0.092992027	0.196859882	-0.335664315	-0.05854992	0
1137	2696270085	0.504866661	-0.003366386	-0.858583863	-0.089062177	0.159308531	-0.308179721	-0.083412225	0
1138	2696286752	0.506602572	0.001423267	-0.857889147	-0.085895404	-0.005571599	-0.398427378	-0.098130388	0
1139	2696303419	0.508116639	0.006222838	-0.857194111	-0.083648153	0.168931581	-0.339669452	0.039573563	0
1140	2696320086	0.509342105	0.01133774	-0.856611364	-0.081602989	0.315924537	-0.057672218	0.146902118	0
1141	2696336753	0.510548852	0.01650843	-0.856020879	-0.079344797	0.288365884	0.090219861	0.169370192	0
1142	2696353420	0.511609997	0.021796242	-0.855517393	-0.076616743	0.257543543	0.061533905	0.081352866	0
1143	2696370087	0.512357606	0.026556571	-0.855154344	-0.074131502	-0.341121036	0.255624836	-0.151447204	0
1144	2696386754	0.513066196	0.031455007	-0.854723218	-0.072262588	-0.46987042	0.233237511	0.158077075	0
1145	2696403421	0.513311561	0.037229454	-0.854565917	-0.069586658	0.176090205	-0.123306428	0.382916817	0
1146	2696420088	0.513985178	0.042800018	-0.854184589	-0.06600063	0.366014379	-0.329774253	0.083102057	0
