sep=,
DeviceTag:,Xsens_1,,,,,,,,,,,,,,,,,
FirmwareVersion:,2.4.0,,,,,,,,,,,,,,,,,
AppVersion:,2022.0.1,,,,,,,,,,,,,,,,,
SyncStatus:,Synced,,,,,,,,,,,,,,,,,
OutputRate:,60Hz,,,,,,,,,,,,,,,,,
FilterProfile:,General,,,,,,,,,,,,,,,,,
Measurement Mode:,Sensor fusion Mode - Extended (Quaternion),,,,,,,,,,,,,,,,,
StartTime:,2020-11-25 10:46:50.653 +0100,,,,,,,,,,,,,,,,,
© Xsens Technologies B. V. 2005-2020,,,,,,,,,,,,,,,,,,,

PacketCounter,SampleTimeFine,Quat_W,Quat_X,Quat_Y,Quat_Z,FreeAcc_X,FreeAcc_Y,FreeAcc_Z,Status
1, 775131663, -0.95359164, -0.004659954, -0.011739046, 0.3008455, 0.044227723, -0.3556822, 0.13157749, 0
2, 775148330, -0.9535979, -0.004666611, -0.011730217, 0.30082563, 0.047143806, -0.3657262, 0.13335419, 0
3, 775164997, -0.95360124, -0.004673831, -0.011723497, 0.30081522, 0.04927637, -0.37503782, 0.1243515, 0
4, 775181664, -0.9536052, -0.004668152, -0.011721395, 0.30080295, 0.059900794, -0.36810404, 0.104418755, 0
5, 775198331, -0.9536105, -0.0046691974, -0.0117214145, 0.30078632, 0.038604032, -0.3805096, 0.12266064, 0
6, 775214998, -0.9536124, -0.0046717785, -0.011736346, 0.30077985, 0.046069372, -0.3712621, 0.13621902, 0
7, 775231665, -0.9536166, -0.004670415, -0.01173878, 0.30076638, 0.053986836, -0.37612182, 0.13986683, 0
8, 775248332, -0.9536228, -0.0046858173, -0.011743391, 0.3007467, 0.04457384, -0.36680368, 0.13401222, 0
9, 775264999, -0.95362836, -0.0046984027, -0.011735946, 0.30072862, 0.046438247, -0.36452034, 0.120661736, 0
10, 775281666, -0.953635, -0.0047052726, -0.011747018, 0.300707, 0.05157414, -0.3700372, 0.122522354, 0
11, 775298333, -0.9536392, -0.004715962, -0.011752569, 0.30069357, 0.043956533, -0.37332296, 0.1295414, 0
12, 775315000, -0.95364857, -0.0047106976, -0.011749599, 0.3006637, 0.048691507, -0.36550447, 0.1363802, 0
13, 775331667, -0.9536478, -0.0047232825, -0.011735786, 0.3006664, 0.039212868, -0.35870504, 0.1364727, 0
14, 775348334, -0.95365274, -0.004727288, -0.011731902, 0.3006512, 0.044438567, -0.38002312, 0.13882256, 0
15, 775365001, -0.95365685, -0.0047281007, -0.01173821, 0.30063778, 0.04973708, -0.37426442, 0.13708305, 0
16, 775381668, -0.9536663, -0.004740701, -0.011746734, 0.30060706, 0.052714657, -0.37257236, 0.115091324, 0
17, 775398335, -0.95367163, -0.004750957, -0.011740415, 0.30059034, 0.045028314, -0.35967454, 0.12895393, 0
19, 775431669, -0.9536828, -0.0047699674, -0.011744987, 0.3005545, 0.056615204, -0.37263697, 0.13328362, 0
22, 775481670, -0.95370317, -0.0048042512, -0.011747107, 0.3004892, 0.039397616, -0.3618948, 0.13076496, 0
24, 775515004, -0.9537125, -0.0048132055, -0.011746071, 0.3004594, 0.051664613, -0.3837932, 0.14137936, 0
27, 775565005, -0.95372444, -0.004818122, -0.011770202, 0.30042082, 0.059956092, -0.3749141, 0.12839317, 0
30, 775615006, -0.95374364, -0.0048554633, -0.011771278, 0.30035916, 0.05604678, -0.38580078, 0.14126492, 0
34, 775681674, -0.95374954, -0.0048858826, -0.011779462, 0.30033952, 0.041825548, -0.37629798, 0.13549423, 0
36, 775715008, -0.95376337, -0.0048944135, -0.011785185, 0.30029523, 0.04976106, -0.37133867, 0.11800003, 0
39, 775765009, -0.9537768, -0.004926185, -0.011802062, 0.30025148, 0.052688662, -0.37307972, 0.14184666, 0
42, 775815010, -0.95380557, -0.0049612485, -0.011805629, 0.300159, 0.05149183, -0.38176584, 0.12904358, 0
45, 775865011, -0.95382494, -0.0049880347, -0.011801561, 0.30009758, 0.041281726, -0.38490635, 0.14258862, 0
47, 775898345, -0.9538342, -0.0050118263, -0.011811035, 0.3000676, 0.044544246, -0.39626205, 0.10327721, 0
50, 775948346, -0.9538503, -0.005028571, -0.011802652, 0.30001616, 0.042943284, -0.38492897, 0.11201382, 0
53, 775998347, -0.953865, -0.005044654, -0.011814919, 0.29996842, 0.05375363, -0.37390932, 0.13889408, 0
55, 776031681, -0.9538741, -0.00505766, -0.011810786, 0.2999394, 0.040724766, -0.38196793, 0.12287903, 0
58, 776081682, -0.9538842, -0.0050692144, -0.011818475, 0.299907, 0.054418184, -0.382479, 0.12675762, 0
61, 776131683, -0.9538971, -0.0050795157, -0.011820773, 0.29986566, 0.043922853, -0.36851442, 0.13131714, 0
63, 776165017, -0.9539082, -0.005093994, -0.011827116, 0.29982966, 0.057214063, -0.37738162, 0.12276268, 0
66, 776215018, -0.953923, -0.0051157554, -0.011826731, 0.29978263, 0.03781933, -0.3740598, 0.12465477, 0
69, 776265019, -0.95393926, -0.0051291706, -0.011834109, 0.29973012, 0.039502047, -0.37643752, 0.12717533, 0
72, 776315020, -0.95395887, -0.0051519955, -0.011862519, 0.29966623, 0.054431774, -0.38004592, 0.13339424, 0
74, 776348354, -0.95397145, -0.005157919, -0.011870393, 0.2996261, 0.061495755, -0.38759172, 0.14247513, 0
77, 776398355, -0.9539895, -0.0051766946, -0.011865314, 0.29956812, 0.053815506, -0.3782517, 0.113432884, 0
80, 776448356, -0.9540035, -0.005206576, -0.011871104, 0.2995227, 0.0469633, -0.3786442, 0.12877178, 0
82, 776481690, -0.9540185, -0.0052339165, -0.011887838, 0.29947403, 0.049046222, -0.37876317, 0.14940643, 0
86, 776548358, -0.9540362, -0.005259461, -0.011905905, 0.29941642, 0.042669274, -0.38139904, 0.104019165, 0
89, 776598359, -0.954052, -0.005275258, -0.011908914, 0.29936552, 0.06746507, -0.38076702, 0.11047077, 0
92, 776648360, -0.95406497, -0.005310592, -0.011924653, 0.2993228, 0.050843723, -0.3945286, 0.1217432, 0
94, 776681694, -0.95407474, -0.0053180875, -0.011943841, 0.29929096, 0.04920324, -0.38506287, 0.12325001, 0
97, 776731695, -0.9540895, -0.005343195, -0.011945967, 0.29924333, 0.058742866, -0.39073274, 0.12734413, 0
100, 776781696, -0.9541057, -0.005368166, -0.011958783, 0.29919064, 0.05913095, -0.37557602, 0.12517548, 0
103, 776831697, -0.9541146, -0.0053870217, -0.011964298, 0.29916155, 0.06151803, -0.38385522, 0.12876701, 0
105, 776865031, -0.9541288, -0.005404497, -0.011965114, 0.29911634, 0.046166014, -0.3948697, 0.1440382, 0
108, 776915032, -0.9541462, -0.0054326616, -0.0119841425, 0.29905954, 0.05662753, -0.38657162, 0.13100815, 0
111, 776965033, -0.95415837, -0.0054514287, -0.011992479, 0.29901966, 0.041829318, -0.38839695, 0.13574123, 0
115, 777031701, -0.9541792, -0.005483892, -0.011998024, 0.29895267, 0.052137986, -0.39523703, 0.1289177, 0
117, 777065035, -0.95418847, -0.005506053, -0.012012622, 0.29892194, 0.055930562, -0.38428423, 0.13837814, 0
120, 777115036, -0.95420724, -0.0055152597, -0.012015516, 0.298862, 0.058699448, -0.39650607, 0.1298008, 0
123, 777165037, -0.9542174, -0.0055474225, -0.012017839, 0.2988284, 0.04705582, -0.39524746, 0.104320526, 0
126, 777215038, -0.95423144, -0.005559705, -0.012034908, 0.29878324, 0.056436002, -0.39055687, 0.12975883, 0
128, 777248372, -0.9542427, -0.0055856146, -0.012027329, 0.29874724, 0.057472587, -0.39410192, 0.110131264, 0
131, 777298373, -0.9542582, -0.0056015556, -0.012022771, 0.298697, 0.06662672, -0.38602138, 0.14498997, 0
134, 777348374, -0.9542754, -0.00562432, -0.012007742, 0.29864237, 0.072363995, -0.39663765, 0.12893295, 0
136, 777381708, -0.9542817, -0.005628268, -0.012014818, 0.2986217, 0.056623545, -0.40740988, 0.12624359, 0
139, 777431709, -0.9542983, -0.005639166, -0.012014351, 0.29856887, 0.0723813, -0.38683224, 0.131073, 0
143, 777498377, -0.95432353, -0.005687108, -0.012031306, 0.2984862, 0.06645891, -0.39540517, 0.15363503, 0
146, 777548378, -0.95433724, -0.0057060444, -0.01203133, 0.29844224, 0.059762, -0.39122853, 0.12281704, 0
148, 777581712, -0.95434606, -0.0057181004, -0.01203851, 0.29841322, 0.059619956, -0.394721, 0.12681007, 0
151, 777631713, -0.9543631, -0.005742631, -0.012035556, 0.2983584, 0.048331898, -0.4016646, 0.12259579, 0
154, 777681714, -0.95437324, -0.0057552736, -0.012054355, 0.29832503, 0.06438417, -0.38908133, 0.12359524, 0
157, 777731715, -0.9543929, -0.005771432, -0.012058773, 0.29826137, 0.060462475, -0.3876371, 0.13526821, 0
159, 777765049, -0.954408, -0.0057763997, -0.012053081, 0.29821342, 0.04646485, -0.39400646, 0.13198853, 0
162, 777815050, -0.95442826, -0.0057829074, -0.012057039, 0.29814845, 0.052689854, -0.39107254, 0.14208126, 0
165, 777865051, -0.954443, -0.0058097765, -0.012070594, 0.29810038, 0.059565622, -0.39652583, 0.11587334, 0
167, 777898385, -0.954453, -0.005823358, -0.012068625, 0.29806775, 0.051397495, -0.3940986, 0.11280632, 0
170, 777948386, -0.9544644, -0.005845023, -0.012087235, 0.2980307, 0.051423974, -0.39221, 0.12630558, 0
173, 777998387, -0.9544766, -0.005861227, -0.012091234, 0.2979908, 0.055438597, -0.4003834, 0.13585472, 0
176, 778048388, -0.95449257, -0.005875621, -0.012116959, 0.29793864, 0.057558134, -0.39289254, 0.14873886, 0
178, 778081722, -0.95450866, -0.0058769817, -0.012115364, 0.2978868, 0.06221138, -0.39381072, 0.12974358, 0
181, 778131723, -0.9545209, -0.0058692605, -0.012119224, 0.29784763, 0.05841877, -0.3944651, 0.1309061, 0
184, 778181724, -0.95453966, -0.0059028105, -0.012126418, 0.29778636, 0.045777522, -0.4029658, 0.1153698, 0
186, 778215058, -0.95455104, -0.0059292614, -0.012128498, 0.29774958, 0.05235928, -0.39632663, 0.13284874, 0
189, 778265059, -0.9545619, -0.005959685, -0.012125641, 0.297714, 0.049460575, -0.3987877, 0.12195587, 0
192, 778315060, -0.95458215, -0.0059933257, -0.012107221, 0.2976492, 0.050859913, -0.4007313, 0.11517334, 0
194, 778348394, -0.9545961, -0.005995691, -0.01209806, 0.2976045, 0.05295054, -0.3925923, 0.12784672, 0
197, 778398395, -0.95461774, -0.0060066315, -0.012109955, 0.29753494, 0.06116103, -0.39114398, 0.122989655, 0
200, 778448396, -0.9546337, -0.0060106246, -0.012113283, 0.29748306, 0.06970619, -0.40237814, 0.114317894, 0
203, 778498397, -0.9546451, -0.006023441, -0.012132312, 0.29744577, 0.049166586, -0.39465544, 0.13672638, 0
207, 778565065, -0.9546677, -0.0060476195, -0.012166729, 0.29737124, 0.038311806, -0.4004729, 0.13731575, 0
209, 778598399, -0.95468146, -0.0060691005, -0.012163793, 0.29732668, 0.062306598, -0.42675832, 0.13914204, 0
212, 778648400, -0.95469475, -0.0061084316, -0.012171665, 0.29728305, 0.06367609, -0.41021392, 0.13169575, 0
215, 778698401, -0.95470643, -0.0061329403, -0.012181388, 0.2972443, 0.07503163, -0.3921329, 0.13611984, 0
217, 778731735, -0.9547119, -0.006146129, -0.012183672, 0.29722634, 0.054768763, -0.41314778, 0.1126852, 0
220, 778781736, -0.9547199, -0.006159093, -0.01218751, 0.29720038, 0.059451472, -0.40431374, 0.14568424, 0
224, 778848404, -0.9547499, -0.0061788475, -0.012190224, 0.29710382, 0.051890202, -0.41436872, 0.11741829, 0
227, 778898405, -0.9547655, -0.006202241, -0.012197002, 0.29705238, 0.040830355, -0.40888348, 0.15836525, 0
229, 778931739, -0.9547838, -0.006214468, -0.012204343, 0.2969931, 0.06180827, -0.40484494, 0.1503725, 0
232, 778981740, -0.9548003, -0.00622225, -0.012211472, 0.29693958, 0.047658753, -0.40389058, 0.13922215, 0
235, 779031741, -0.95482147, -0.0062477137, -0.012228357, 0.2968707, 0.05613317, -0.40583855, 0.1327982, 0
238, 779081742, -0.95483714, -0.006240041, -0.012218359, 0.29682046, 0.05598326, -0.4084957, 0.126091, 0
240, 779115076, -0.9548535, -0.006248165, -0.0122266915, 0.29676783, 0.060502805, -0.4089013, 0.11410236, 0
243, 779165077, -0.95487076, -0.006257593, -0.012244874, 0.29671082, 0.059550628, -0.40041852, 0.12626648, 0
246, 779215078, -0.9548846, -0.006263926, -0.01224273, 0.29666638, 0.061680328, -0.40246123, 0.13706589, 0
248, 779248412, -0.9548985, -0.0062722317, -0.012237677, 0.29662138, 0.055617526, -0.396464, 0.11860657, 0
252, 779315080, -0.954922, -0.0062876735, -0.012254824, 0.2965448, 0.05392292, -0.40297243, 0.12922287, 0
255, 779365081, -0.9549358, -0.0063148243, -0.012282354, 0.29649872, 0.051582675, -0.40651736, 0.1252613, 0
258, 779415082, -0.95495456, -0.0063307406, -0.012293646, 0.2964378, 0.06267465, -0.40192688, 0.13821411, 0
261, 779465083, -0.95497537, -0.0063510817, -0.012294983, 0.29637015, 0.05078117, -0.38723403, 0.1319437, 0
263, 779498417, -0.95498157, -0.006367736, -0.012307836, 0.29634953, 0.04452484, -0.3877959, 0.11528206, 0
266, 779548418, -0.95500124, -0.0063737202, -0.012317145, 0.29628515, 0.049344845, -0.40252814, 0.12968731, 0
269, 779598419, -0.95501804, -0.006373282, -0.012328867, 0.29623088, 0.0681797, -0.40276983, 0.1210289, 0
271, 779631753, -0.955028, -0.0063770534, -0.01232749, 0.29619843, 0.057744257, -0.39890948, 0.118904114, 0
274, 779681754, -0.9550512, -0.006396143, -0.012349831, 0.29612207, 0.06952219, -0.41514608, 0.12374401, 0
277, 779731755, -0.95506567, -0.006411967, -0.012356984, 0.29607475, 0.0646308, -0.40726358, 0.11928749, 0
281, 779798423, -0.9550879, -0.0064361594, -0.012379899, 0.29600203, 0.06494723, -0.41347423, 0.132061, 0
283, 779831757, -0.95509785, -0.0064541698, -0.012386548, 0.29596913, 0.058474824, -0.40777043, 0.12325001, 0
286, 779881758, -0.95511425, -0.00647269, -0.01238035, 0.2959162, 0.059745222, -0.4088808, 0.1561718, 0
289, 779931759, -0.95512646, -0.0064806216, -0.012397145, 0.29587525, 0.061519887, -0.39779192, 0.12863159, 0
292, 779981760, -0.95514137, -0.006500179, -0.012424239, 0.29582575, 0.060163256, -0.40682116, 0.12690163, 0
294, 780015094, -0.9551572, -0.006501064, -0.012422516, 0.29577458, 0.0696641, -0.40592805, 0.1354351, 0
297, 780065095, -0.9551766, -0.0065339687, -0.012438207, 0.29571104, 0.067495905, -0.40054333, 0.12351608, 0
300, 780115096, -0.95519, -0.006542681, -0.012435863, 0.29566753, 0.06294907, -0.4096564, 0.1162529, 0
302, 780148430, -0.9551997, -0.0065450086, -0.012439662, 0.29563618, 0.057593457, -0.40837693, 0.1356144, 0
305, 780198431, -0.9552152, -0.0065677203, -0.0124491425, 0.2955849, 0.05246296, -0.41127807, 0.1341505, 0
308, 780248432, -0.9552333, -0.0065926793, -0.0124490345, 0.2955259, 0.067990676, -0.40771845, 0.12575626, 0
310, 780281766, -0.95524204, -0.006599312, -0.012468066, 0.29549673, 0.058893736, -0.41323128, 0.116968155, 0
313, 780331767, -0.95526457, -0.0066048913, -0.012469851, 0.29542363, 0.049755465, -0.40772444, 0.13531303, 0
316, 780381768, -0.95528615, -0.0066092266, -0.012452182, 0.29535457, 0.05521388, -0.41040716, 0.12904644, 0
319, 780431769, -0.95531166, -0.006629383, -0.0124715315, 0.2952705, 0.06188118, -0.41558743, 0.11849594, 0
321, 780465103, -0.9553199, -0.00664872, -0.012478085, 0.29524326, 0.0622475, -0.4014704, 0.1325779, 0
324, 780515104, -0.95534, -0.0066728336, -0.012487574, 0.29517755, 0.052972276, -0.40434757, 0.11611843, 0
327, 780565105, -0.9553466, -0.006691916, -0.012495361, 0.29515535, 0.068771735, -0.42239264, 0.12142086, 0
329, 780598439, -0.95535743, -0.006704303, -0.012507144, 0.29511923, 0.0550325, -0.40872014, 0.13051987, 0
332, 780648440, -0.95536697, -0.0067078667, -0.012503289, 0.29508892, 0.05784243, -0.40955302, 0.12260628, 0
335, 780698441, -0.95538855, -0.0067162155, -0.01250841, 0.29501832, 0.06583434, -0.41776288, 0.1199913, 0
338, 780748442, -0.9554074, -0.006747868, -0.0125323245, 0.2949555, 0.06727865, -0.42342848, 0.1283884, 0
340, 780781776, -0.9554132, -0.006751087, -0.012535139, 0.2949363, 0.07616379, -0.4100381, 0.1256895, 0
343, 780831777, -0.95541966, -0.006755306, -0.012522203, 0.29491585, 0.06119938, -0.40594622, 0.10594654, 0
346, 780881778, -0.9554387, -0.006768619, -0.012521717, 0.2948538, 0.06578171, -0.40674675, 0.14183044, 0
348, 780915112, -0.95544994, -0.00676941, -0.012518408, 0.2948177, 0.06027109, -0.4145167, 0.12310219, 0
351, 780965113, -0.9554666, -0.006789591, -0.012531583, 0.29476267, 0.079383194, -0.43504822, 0.12997437, 0
354, 781015114, -0.95548064, -0.006800993, -0.0125543345, 0.29471588, 0.06024477, -0.4137456, 0.1155386, 0
356, 781048448, -0.9554916, -0.006805366, -0.012549624, 0.29468066, 0.056846604, -0.42393035, 0.123719215, 0
360, 781115116, -0.9555129, -0.006848929, -0.012545528, 0.29461062, 0.05355897, -0.41911212, 0.1172657, 0
363, 781165117, -0.95553076, -0.0068536755, -0.012573212, 0.2945513, 0.057455745, -0.42159864, 0.11868191, 0
366, 781215118, -0.9555406, -0.006878636, -0.012573027, 0.29451913, 0.06864172, -0.4203179, 0.12155247, 0
369, 781265119, -0.9555563, -0.006902929, -0.01257605, 0.29446712, 0.057645157, -0.40924183, 0.12511063, 0
371, 781298453, -0.9555692, -0.0069174543, -0.012577509, 0.29442507, 0.064420395, -0.41917548, 0.13523388, 0
374, 781348454, -0.9555917, -0.0069405586, -0.012583594, 0.2943515, 0.061120134, -0.40934592, 0.11822605, 0
377, 781398455, -0.95561206, -0.006940445, -0.012604838, 0.29428416, 0.052387387, -0.41186276, 0.11490917, 0
379, 781431789, -0.95562714, -0.0069575375, -0.012617327, 0.29423422, 0.070338525, -0.40639442, 0.14284801, 0
382, 781481790, -0.9556438, -0.006978176, -0.012636839, 0.29417884, 0.048822228, -0.41137868, 0.13533783, 0
385, 781531791, -0.95564944, -0.006991734, -0.012656365, 0.29415923, 0.05187446, -0.41907805, 0.12934971, 0
389, 781598459, -0.9556682, -0.0069962842, -0.012679812, 0.29409704, 0.06327622, -0.42134127, 0.12504196, 0
392, 781648460, -0.95567966, -0.007000315, -0.012695552, 0.29405966, 0.05622759, -0.41912568, 0.12203884, 0
394, 781681794, -0.9556925, -0.0070105097, -0.012697256, 0.29401714, 0.06212924, -0.4215135, 0.12806511, 0
397, 781731795, -0.95570576, -0.0070099644, -0.012708908, 0.2939737, 0.06066401, -0.42306995, 0.115553856, 0
400, 781781796, -0.95571524, -0.0070200874, -0.012714133, 0.29394233, 0.0727847, -0.42316365, 0.15709114, 0
402, 781815130, -0.9557274, -0.007045326, -0.012711849, 0.2939022, 0.06074425, -0.41694927, 0.12319183, 0
405, 781865131, -0.9557489, -0.007052495, -0.012716449, 0.29383194, 0.06533887, -0.40993258, 0.13923168, 0
408, 781915132, -0.9557587, -0.007082323, -0.0127162095, 0.29379937, 0.06911745, -0.41967997, 0.12014961, 0
410, 781948466, -0.95577544, -0.0070815464, -0.012718623, 0.29374516, 0.053597987, -0.42590567, 0.12954617, 0
413, 781998467, -0.9557942, -0.0070961746, -0.012730805, 0.293683, 0.054609906, -0.42662907, 0.13236618, 0
417, 782065135, -0.95581186, -0.0071026455, -0.012739186, 0.2936247, 0.0655187, -0.42418483, 0.12313175, 0
420, 782115136, -0.95583117, -0.0071235835, -0.012748058, 0.29356104, 0.067861624, -0.42603004, 0.13505268, 0
423, 782165137, -0.9558416, -0.007136437, -0.012767589, 0.29352623, 0.059926674, -0.4310078, 0.13249207, 0
425, 782198471, -0.95585066, -0.007153573, -0.012782835, 0.2934956, 0.06715975, -0.42485774, 0.11681557, 0
428, 782248472, -0.95587134, -0.007146751, -0.012762993, 0.2934293, 0.06921073, -0.4187227, 0.116565704, 0
431, 782298473, -0.95587957, -0.007166537, -0.012775022, 0.29340154, 0.06556099, -0.42905736, 0.12532043, 0
433, 782331807, -0.95589465, -0.0071635884, -0.012789353, 0.2933514, 0.06980202, -0.43188593, 0.121813774, 0
436, 782381808, -0.95591855, -0.0071939523, -0.012801252, 0.29327238, 0.0676985, -0.42603257, 0.11721897, 0
439, 782431809, -0.9559355, -0.0072028064, -0.012820017, 0.293216, 0.069090344, -0.4144299, 0.11330795, 0
441, 782465143, -0.955948, -0.0072092805, -0.012829412, 0.29317498, 0.06492439, -0.4157585, 0.11772537, 0
444, 782515144, -0.9559794, -0.0072248443, -0.01284273, 0.2930718, 0.055691153, -0.42431802, 0.11232853, 0
447, 782565145, -0.9559974, -0.0072154566, -0.012872496, 0.29301167, 0.070345774, -0.42055082, 0.11613083, 0
450, 782615146, -0.95600903, -0.0072140107, -0.012877021, 0.29297334, 0.06946387, -0.43362045, 0.13006115, 0
452, 782648480, -0.9560192, -0.0072360393, -0.01287257, 0.29293993, 0.067265555, -0.4357216, 0.12534046, 0
455, 782698481, -0.95604044, -0.0072541237, -0.012859948, 0.29287094, 0.06498882, -0.4277843, 0.12504196, 0
458, 782748482, -0.95605594, -0.0072604646, -0.012859265, 0.2928199, 0.067277975, -0.42320883, 0.12398434, 0
460, 782781816, -0.9560681, -0.0072741117, -0.012871236, 0.29277954, 0.09203758, -0.41363126, 0.12439537, 0
463, 782831817, -0.95607716, -0.007284578, -0.012851828, 0.29275054, 0.059000485, -0.4246869, 0.11532211, 0
466, 782881818, -0.95609856, -0.007305602, -0.0128598, 0.29267976, 0.07566663, -0.4195392, 0.13939857, 0
468, 782915152, -0.9561133, -0.0073015415, -0.012857432, 0.29263195, 0.07483437, -0.43371803, 0.12616253, 0
471, 782965153, -0.9561325, -0.007322302, -0.012881183, 0.2925676, 0.064617984, -0.4205716, 0.13058567, 0
474, 783015154, -0.9561412, -0.007322837, -0.012886863, 0.29253906, 0.057456832, -0.43385375, 0.13376236, 0
477, 783065155, -0.9561595, -0.0073444885, -0.012912612, 0.29247734, 0.058067955, -0.41744927, 0.11133194, 0
479, 783098489, -0.95617425, -0.0073346533, -0.012926114, 0.29242888, 0.06907735, -0.427162, 0.10727692, 0
482, 783148490, -0.95618796, -0.00734564, -0.01294551, 0.2923824, 0.069171086, -0.42487726, 0.10769558, 0
485, 783198491, -0.95618814, -0.007353213, -0.012939241, 0.29238266, 0.08246323, -0.4231877, 0.13642502, 0
487, 783231825, -0.95620126, -0.0073705125, -0.012960159, 0.29233804, 0.06478647, -0.4387282, 0.11501312, 0
490, 783281826, -0.95621455, -0.0073685804, -0.0129648205, 0.29229417, 0.06802983, -0.43110535, 0.13162518, 0
493, 783331827, -0.95623213, -0.007389544, -0.012969669, 0.29223606, 0.075695485, -0.43518892, 0.11992359, 0
497, 783398495, -0.956255, -0.007407434, -0.012968895, 0.29216093, 0.068324685, -0.421881, 0.12001896, 0
499, 783431829, -0.9562683, -0.0074096425, -0.012969165, 0.2921171, 0.07518353, -0.42951584, 0.11874676, 0
502, 783481830, -0.95628256, -0.0074141943, -0.012967489, 0.29207054, 0.067040026, -0.4270644, 0.12969017, 0
505, 783531831, -0.95629394, -0.0073996503, -0.0129728485, 0.2920337, 0.08071218, -0.42986977, 0.13862896, 0
508, 783581832, -0.9563074, -0.0074161766, -0.012977053, 0.29198855, 0.06786438, -0.43443516, 0.11715317, 0
510, 783615166, -0.95631677, -0.0074317167, -0.012978887, 0.29195768, 0.06708936, -0.4164742, 0.12631512, 0
513, 783665167, -0.9563303, -0.0074470937, -0.0129685, 0.29191315, 0.07279525, -0.44212845, 0.11144543, 0
516, 783715168, -0.9563523, -0.007462035, -0.012967624, 0.29184067, 0.079257905, -0.4324085, 0.10471916, 0
518, 783748502, -0.9563668, -0.007474515, -0.012952257, 0.2917939, 0.07706291, -0.42585012, 0.121831894, 0
521, 783798503, -0.9563795, -0.007497901, -0.012954556, 0.29175156, 0.076942205, -0.42829442, 0.13389874, 0
525, 783865171, -0.95640576, -0.0075043095, -0.012964421, 0.2916646, 0.07125185, -0.43820205, 0.120162964, 0
528, 783915172, -0.9564117, -0.0074975304, -0.012968308, 0.29164508, 0.076572984, -0.4288823, 0.1200304, 0
531, 783965173, -0.95642716, -0.0075117312, -0.012969656, 0.29159403, 0.07643154, -0.43643776, 0.11440563, 0
533, 783998507, -0.9564381, -0.0075219222, -0.012977352, 0.29155743, 0.07690412, -0.43879238, 0.13097954, 0
536, 784048508, -0.95645016, -0.0075258496, -0.012998836, 0.29151723, 0.07326286, -0.44188708, 0.1203804, 0
539, 784098509, -0.9564668, -0.007546843, -0.012999675, 0.2914618, 0.0807667, -0.4324116, 0.12053585, 0
541, 784131843, -0.9564753, -0.0075657857, -0.012997001, 0.2914331, 0.06867309, -0.42102963, 0.10548878, 0
544, 784181844, -0.95649403, -0.0075752996, -0.013004445, 0.2913718, 0.07506518, -0.44802433, 0.11752319, 0
547, 784231845, -0.95650405, -0.0075965305, -0.013019755, 0.29133737, 0.07634718, -0.44012913, 0.11755085, 0
549, 784265179, -0.9565148, -0.007607173, -0.01302957, 0.2913015, 0.07421144, -0.42288902, 0.12417126, 0
553, 784331847, -0.9565217, -0.007617306, -0.013029645, 0.29127815, 0.061714694, -0.42869195, 0.13904095, 0
556, 784381848, -0.9565355, -0.0076351305, -0.013049597, 0.29123154, 0.078608565, -0.43480852, 0.11898136, 0
559, 784431849, -0.95654833, -0.0076325713, -0.013053673, 0.29118967, 0.051964268, -0.44240507, 0.11164856, 0
562, 784481850, -0.95656514, -0.007632962, -0.013063748, 0.29113388, 0.07434608, -0.4238438, 0.13262844, 0
564, 784515184, -0.95657533, -0.0076410957, -0.013081194, 0.29109898, 0.06723989, -0.4284357, 0.09245396, 0
567, 784565185, -0.9565907, -0.0076656085, -0.0130996965, 0.29104748, 0.07060842, -0.43531555, 0.12852573, 0
570, 784615186, -0.9566131, -0.0076646935, -0.013098566, 0.29097337, 0.090482876, -0.44015244, 0.12189484, 0
572, 784648520, -0.9566225, -0.0076738955, -0.013100734, 0.29094255, 0.07667949, -0.43744537, 0.13615799, 0
575, 784698521, -0.9566362, -0.0077039027, -0.013112086, 0.29089624, 0.08602633, -0.4354155, 0.122205734, 0
578, 784748522, -0.9566562, -0.0077200537, -0.01311764, 0.29082987, 0.071467616, -0.4316747, 0.13263702, 0
580, 784781856, -0.9566699, -0.007721989, -0.013137752, 0.2907834, 0.08146743, -0.43146667, 0.12056732, 0
583, 784831857, -0.9566745, -0.007722577, -0.013138341, 0.29076856, 0.062005114, -0.43546194, 0.099577904, 0
586, 784881858, -0.956685, -0.007711159, -0.013122428, 0.2907348, 0.07419853, -0.4358452, 0.12913322, 0
589, 784931859, -0.95670444, -0.0077262525, -0.013128608, 0.29067042, 0.07898735, -0.4365361, 0.10426617, 0
591, 784965193, -0.9567139, -0.007731721, -0.013127666, 0.2906389, 0.077168055, -0.44615808, 0.1127491, 0
594, 785015194, -0.9567305, -0.007731391, -0.013112381, 0.2905853, 0.06858517, -0.43486375, 0.13573074, 0
597, 785065195, -0.9567564, -0.007742441, -0.013131078, 0.2904983, 0.08231055, -0.4191575, 0.104748726, 0
599, 785098529, -0.9567667, -0.0077492585, -0.013137412, 0.29046407, 0.0731236, -0.4378711, 0.10955429, 0
602, 785148530, -0.95678675, -0.007769164, -0.013163054, 0.2903965, 0.0828906, -0.42320263, 0.10242653, 0
605, 785198531, -0.95680386, -0.007814899, -0.013175461, 0.29033804, 0.07329931, -0.42326036, 0.15279293, 0
608, 785248532, -0.95682454, -0.007828083, -0.013152365, 0.29027095, 0.079205625, -0.45827007, 0.13577938, 0
610, 785281866, -0.95684147, -0.007823245, -0.013154108, 0.29021534, 0.07811431, -0.44329563, 0.115345955, 0
613, 785331867, -0.95685863, -0.0078102606, -0.013148314, 0.29015896, 0.06655842, -0.4353521, 0.11366749, 0
616, 785381868, -0.95687246, -0.0078031435, -0.013142676, 0.29011405, 0.086867884, -0.44433588, 0.1346426, 0
618, 785415202, -0.9568839, -0.007794166, -0.013133872, 0.29007667, 0.0726897, -0.43164352, 0.10999489, 0
621, 785465203, -0.95689654, -0.007792296, -0.013137727, 0.29003477, 0.07077622, -0.44293457, 0.10455227, 0
624, 785515204, -0.9569188, -0.007799098, -0.013145593, 0.28996134, 0.07853732, -0.4411441, 0.13463783, 0
626, 785548538, -0.9569335, -0.007806544, -0.013155505, 0.28991184, 0.070659004, -0.44667763, 0.1375637, 0
629, 785598539, -0.9569458, -0.007822005, -0.013174264, 0.28987008, 0.07838651, -0.4409573, 0.12966633, 0
633, 785665207, -0.95696515, -0.007850689, -0.013175653, 0.2898056, 0.08862191, -0.43537393, 0.12384415, 0
636, 785715208, -0.9569819, -0.00785997, -0.013174604, 0.2897497, 0.09437562, -0.4536537, 0.112449646, 0
639, 785765209, -0.95699596, -0.007866829, -0.013176791, 0.28970325, 0.077568166, -0.43675518, 0.12612152, 0
641, 785798543, -0.9570158, -0.007877841, -0.013196671, 0.2896364, 0.0759724, -0.43725583, 0.12035847, 0
644, 785848544, -0.95703226, -0.007890667, -0.013209656, 0.28958067, 0.08237576, -0.44474754, 0.1251154, 0
647, 785898545, -0.9570403, -0.007898881, -0.01321403, 0.28955412, 0.07820445, -0.4459448, 0.12679482, 0
649, 785931879, -0.9570447, -0.007899443, -0.013226579, 0.28953895, 0.06808587, -0.44385684, 0.12732983, 0
652, 785981880, -0.9570607, -0.007924661, -0.013244428, 0.28948462, 0.07057141, -0.42922932, 0.12340927, 0
655, 786031881, -0.95707405, -0.007926019, -0.013241155, 0.2894406, 0.08162429, -0.42295253, 0.12103748, 0
657, 786065215, -0.95708746, -0.0079317335, -0.013233246, 0.28939667, 0.07352081, -0.437609, 0.12106228, 0
661, 786131883, -0.95711243, -0.007955366, -0.013242672, 0.28931257, 0.06336774, -0.42937496, 0.13722229, 0
664, 786181884, -0.95711863, -0.007966201, -0.013235891, 0.2892923, 0.08330957, -0.43779215, 0.12898254, 0
667, 786231885, -0.9571331, -0.007983449, -0.01324193, 0.28924322, 0.070107654, -0.44709852, 0.13013268, 0
670, 786281886, -0.957145, -0.00800151, -0.013268246, 0.28920257, 0.08571071, -0.43598053, 0.126297, 0
672, 786315220, -0.9571553, -0.008013124, -0.013261215, 0.28916827, 0.08276162, -0.44055533, 0.12696552, 0
675, 786365221, -0.9571763, -0.00801604, -0.013284157, 0.2890976, 0.07463219, -0.43610907, 0.09660053, 0
678, 786415222, -0.957189, -0.008033972, -0.0132957585, 0.28905436, 0.074363336, -0.43651375, 0.12066555, 0
680, 786448556, -0.9571959, -0.008040259, -0.013311334, 0.28903085, 0.082348056, -0.4458908, 0.12721443, 0
683, 786498557, -0.9572124, -0.00805594, -0.01331079, 0.28897554, 0.08575421, -0.452484, 0.116713524, 0
686, 786548558, -0.9572262, -0.008057145, -0.013318739, 0.2889292, 0.08234908, -0.4388908, 0.12008762, 0
690, 786615226, -0.9572451, -0.008073652, -0.013330333, 0.2888658, 0.08579375, -0.4407062, 0.12296677, 0
693, 786665227, -0.9572546, -0.008065768, -0.013323958, 0.28883538, 0.06816902, -0.44870204, 0.13757324, 0
695, 786698561, -0.95726013, -0.008062352, -0.013326977, 0.28881672, 0.057639718, -0.44774616, 0.12374115, 0
698, 786748562, -0.95727134, -0.008073897, -0.013329216, 0.28877887, 0.070916936, -0.45054993, 0.12576866, 0
701, 786798563, -0.95728934, -0.008082561, -0.013323257, 0.28871965, 0.07749207, -0.44409797, 0.12717247, 0
703, 786831897, -0.95729464, -0.008099043, -0.013315461, 0.28870198, 0.07235074, -0.44636402, 0.12208557, 0
706, 786881898, -0.95731467, -0.0081249615, -0.013338313, 0.2886337, 0.08871173, -0.44621342, 0.13358307, 0
709, 786931899, -0.9573321, -0.008138566, -0.013347554, 0.2885749, 0.08025212, -0.43811956, 0.11143494, 0
711, 786965233, -0.9573379, -0.008140256, -0.013355992, 0.28855523, 0.07073224, -0.45481655, 0.11879635, 0
714, 787015234, -0.957354, -0.008157938, -0.013371022, 0.28850067, 0.08196674, -0.45450562, 0.12800598, 0
717, 787065235, -0.9573739, -0.008179557, -0.013367625, 0.28843412, 0.075390145, -0.45422813, 0.11841488, 0
720, 787115236, -0.9573841, -0.008193875, -0.01336602, 0.2883997, 0.07801279, -0.44131643, 0.11887932, 0
722, 787148570, -0.9574022, -0.008206452, -0.013368957, 0.28833896, 0.07353921, -0.45250043, 0.13006783, 0
725, 787198571, -0.9574178, -0.008224495, -0.013379943, 0.28828704, 0.07767126, -0.4581318, 0.110069275, 0
728, 787248572, -0.9574378, -0.008239518, -0.013387241, 0.28821915, 0.07307577, -0.44200236, 0.109454155, 0
730, 787281906, -0.9574482, -0.008238584, -0.013377666, 0.28818524, 0.07285839, -0.44907734, 0.12586212, 0
733, 787331907, -0.9574559, -0.008251024, -0.013403212, 0.28815845, 0.08767216, -0.4520928, 0.13525295, 0
736, 787381908, -0.95747614, -0.008276982, -0.013391344, 0.28809065, 0.07353233, -0.4438324, 0.11621857, 0
738, 787415242, -0.9574882, -0.008278961, -0.013396865, 0.28805047, 0.1027341, -0.4547816, 0.13232327, 0
741, 787465243, -0.9575072, -0.008282331, -0.013386415, 0.28798747, 0.08418367, -0.43844178, 0.1250248, 0
744, 787515244, -0.9575226, -0.008291062, -0.01338218, 0.2879361, 0.07601466, -0.44985867, 0.118528366, 0
747, 787565245, -0.9575377, -0.008315295, -0.013391329, 0.28788495, 0.0731569, -0.45903456, 0.11640072, 0
749, 787598579, -0.95754814, -0.008323191, -0.013397624, 0.2878497, 0.07852753, -0.43394268, 0.15867329, 0
752, 787648580, -0.95756155, -0.008331301, -0.013403325, 0.28780448, 0.09003129, -0.44970605, 0.118481636, 0
755, 787698581, -0.95757926, -0.00830921, -0.013377158, 0.28774762, 0.07388419, -0.45210972, 0.11891937, 0
757, 787731915, -0.95758724, -0.008319368, -0.013387466, 0.2877201, 0.07320894, -0.43734178, 0.12510681, 0
760, 787781916, -0.9576013, -0.008320129, -0.01337855, 0.28767338, 0.07932715, -0.43935418, 0.14193344, 0
763, 787831917, -0.9576129, -0.008318645, -0.01339234, 0.28763425, 0.07321135, -0.4446126, 0.13508224, 0
765, 787865251, -0.95761245, -0.008320449, -0.013402532, 0.28763533, 0.088886164, -0.44680938, 0.124129295, 0
769, 787931919, -0.95763206, -0.0083281025, -0.013407143, 0.2875697, 0.09392009, -0.45748743, 0.12891006, 0
772, 787981920, -0.9576477, -0.008329838, -0.013410609, 0.2875173, 0.08132825, -0.44602606, 0.120809555, 0
775, 788031921, -0.95766884, -0.0083316425, -0.013409886, 0.28744692, 0.09508132, -0.4357408, 0.12948608, 0
778, 788081922, -0.9576923, -0.00835353, -0.013418392, 0.2873678, 0.08491229, -0.45307764, 0.11211872, 0
780, 788115256, -0.95769817, -0.00836394, -0.013420139, 0.2873477, 0.09648942, -0.45508915, 0.12876701, 0
783, 788165257, -0.9577126, -0.008369967, -0.013431853, 0.2872992, 0.086551204, -0.45312634, 0.12874603, 0
786, 788215258, -0.9577245, -0.008378407, -0.013419689, 0.28725916, 0.0840311, -0.45033395, 0.118528366, 0
788, 788248592, -0.95773876, -0.008367609, -0.013428746, 0.28721216, 0.07960972, -0.4501801, 0.10873318, 0
791, 788298593, -0.95775616, -0.008388006, -0.013440914, 0.28715286, 0.07091001, -0.4456713, 0.1211977, 0
794, 788348594, -0.95777124, -0.008397937, -0.013448727, 0.28710198, 0.07997225, -0.4582108, 0.097210884, 0
798, 788415262, -0.95779127, -0.008412431, -0.013454379, 0.2870343, 0.08352632, -0.44706288, 0.1312418, 0
801, 788465263, -0.9578091, -0.008428616, -0.013437407, 0.2869749, 0.08548666, -0.4392455, 0.11673164, 0
803, 788498597, -0.95780975, -0.008426855, -0.013427918, 0.28697342, 0.07843956, -0.44543764, 0.12540436, 0
806, 788548598, -0.95783013, -0.0084391935, -0.013430505, 0.2869049, 0.072428286, -0.45070824, 0.1295042, 0
809, 788598599, -0.95783734, -0.008451201, -0.013437382, 0.2868801, 0.09664006, -0.4533155, 0.11265659, 0
811, 788631933, -0.957848, -0.008453389, -0.013429776, 0.28684515, 0.08902067, -0.44582865, 0.124676704, 0
814, 788681934, -0.9578683, -0.008456717, -0.0134364655, 0.28677702, 0.095488206, -0.4348833, 0.1121788, 0
817, 788731935, -0.9578812, -0.008464503, -0.013447089, 0.2867328, 0.0805545, -0.45474187, 0.118463516, 0
819, 788765269, -0.95789546, -0.0084744245, -0.013457531, 0.2866845, 0.086596005, -0.44561687, 0.115460396, 0
822, 788815270, -0.9579164, -0.0084874835, -0.013453585, 0.2866146, 0.077325486, -0.45137495, 0.13687325, 0
826, 788881938, -0.9579476, -0.00849563, -0.013470746, 0.2865087, 0.07618119, -0.469328, 0.11247158, 0
829, 788931939, -0.95796585, -0.008514051, -0.013461918, 0.28644776, 0.083509155, -0.45720553, 0.12129021, 0
832, 788981940, -0.95798475, -0.008512564, -0.01345725, 0.28638434, 0.075199984, -0.4564583, 0.12794304, 0
834, 789015274, -0.95798874, -0.008530762, -0.013475288, 0.28637007, 0.09109141, -0.44352716, 0.123708725, 0
837, 789065275, -0.95800865, -0.00855821, -0.013488789, 0.2863021, 0.08740288, -0.45852894, 0.117471695, 0
840, 789115276, -0.95801806, -0.008574924, -0.013489888, 0.2862703, 0.071502276, -0.45128623, 0.12006855, 0
842, 789148610, -0.9580352, -0.008584264, -0.013514601, 0.28621116, 0.08880573, -0.45999336, 0.13269043, 0
845, 789198611, -0.9580537, -0.008591972, -0.013507969, 0.28614908, 0.070752256, -0.46594492, 0.114665985, 0
848, 789248612, -0.9580667, -0.008588985, -0.013511984, 0.28610587, 0.0754897, -0.4647779, 0.13847446, 0
850, 789281946, -0.95808154, -0.008587519, -0.013521406, 0.28605568, 0.078563504, -0.4559063, 0.117744446, 0
853, 789331947, -0.9580916, -0.008601273, -0.013509107, 0.2860219, 0.088034905, -0.45706517, 0.12586784, 0
856, 789381948, -0.95811033, -0.008602632, -0.013516596, 0.28595918, 0.0729524, -0.46810547, 0.12337017, 0
859, 789431949, -0.9581283, -0.008596517, -0.013529243, 0.2858983, 0.089622565, -0.4481978, 0.12826824, 0
861, 789465283, -0.95813787, -0.008596332, -0.013534458, 0.28586638, 0.08399061, -0.45515385, 0.12463951, 0
864, 789515284, -0.9581564, -0.008629097, -0.01352304, 0.28580344, 0.09193449, -0.44465566, 0.13098812, 0
867, 789565285, -0.9581748, -0.008624964, -0.013530801, 0.28574157, 0.088616066, -0.44159317, 0.13345814, 0
869, 789598619, -0.95818436, -0.008633162, -0.013546777, 0.28570867, 0.08228631, -0.44551098, 0.11570072, 0
872, 789648620, -0.9581968, -0.008648552, -0.013543574, 0.28566626, 0.08678598, -0.44852614, 0.13111782, 0
875, 789698621, -0.95821047, -0.008663759, -0.013539532, 0.28562015, 0.08314738, -0.44906464, 0.095516205, 0
877, 789731955, -0.95823044, -0.008665788, -0.013533503, 0.28555325, 0.08716397, -0.45816496, 0.12727642, 0
880, 789781956, -0.9582404, -0.008662359, -0.013534205, 0.2855202, 0.08738446, -0.46248052, 0.11605358, 0
883, 789831957, -0.9582499, -0.008656672, -0.013511, 0.2854895, 0.09325289, -0.458273, 0.1221323, 0
886, 789881958, -0.9582616, -0.008660311, -0.01351017, 0.28545013, 0.084517136, -0.468555, 0.120612144, 0
888, 789915292, -0.9582667, -0.008658376, -0.013522317, 0.28543252, 0.0753215, -0.45821315, 0.12693977, 0
891, 789965293, -0.95828134, -0.008660387, -0.013528744, 0.28538316, 0.093214236, -0.4621473, 0.111953735, 0
894, 790015294, -0.95829964, -0.00866144, -0.013513427, 0.28532243, 0.08420965, -0.45723027, 0.12322521, 0
896, 790048628, -0.9583106, -0.008676501, -0.013502719, 0.2852854, 0.06462494, -0.46824574, 0.14048004, 0
899, 790098629, -0.9583247, -0.008685531, -0.013500893, 0.285238, 0.08611842, -0.4612282, 0.12023449, 0
902, 790148630, -0.95834166, -0.00868429, -0.01351071, 0.2851804, 0.08915335, -0.45531285, 0.12827778, 0
906, 790215298, -0.95836335, -0.008695466, -0.013556286, 0.28510538, 0.07757546, -0.46509495, 0.11363411, 0
909, 790265299, -0.958379, -0.008702545, -0.013571102, 0.28505147, 0.065229945, -0.45278215, 0.100857735, 0
911, 790298633, -0.9583902, -0.008701578, -0.01357592, 0.28501374, 0.08648619, -0.46021977, 0.136899, 0
914, 790348634, -0.9584077, -0.008701285, -0.0135869, 0.28495425, 0.080209434, -0.44501564, 0.124816895, 0
917, 790398635, -0.95842, -0.008702433, -0.013576932, 0.28491354, 0.092685595, -0.44634995, 0.12911224, 0
919, 790431969, -0.9584284, -0.008702539, -0.013562719, 0.284886, 0.07524293, -0.44890153, 0.12900352, 0
922, 790481970, -0.95844084, -0.008700619, -0.013564084, 0.28484392, 0.08851101, -0.46567392, 0.11732674, 0
925, 790531971, -0.958453, -0.008700174, -0.013563157, 0.28480297, 0.08264507, -0.45295697, 0.104870796, 0
927, 790565305, -0.95845664, -0.008679709, -0.013578703, 0.2847907, 0.084322944, -0.4612503, 0.1284504, 0
930, 790615306, -0.95846885, -0.008689739, -0.013576688, 0.28474927, 0.07675877, -0.45732382, 0.1207695, 0
934, 790681974, -0.95850104, -0.008701154, -0.013570506, 0.28464124, 0.09235226, -0.46370986, 0.13012218, 0
937, 790731975, -0.95848656, -0.008670841, -0.0136284735, 0.28468817, 0.17510727, -0.48160192, 0.08017826, 0
940, 790781976, -0.9584953, -0.008696363, -0.013595085, 0.28465968, 0.010906245, -0.44515714, 0.13562012, 0
942, 790815310, -0.9584977, -0.00871005, -0.013582016, 0.2846513, 0.08617172, -0.45632264, 0.12763882, 0
945, 790865311, -0.95735896, -0.008755559, -0.013646131, 0.28845394, -0.03925723, -0.23324454, 0.12729454, 0
948, 790915312, -0.9553426, -0.00885882, -0.013819121, 0.29505205, 0.47827476, -0.7951115, 0.1389513, 0
950, 790948646, -0.95484155, -0.008876753, -0.013831696, 0.29666853, 0.08755154, -0.48476824, 0.10412598, 0
953, 790998647, -0.9532697, -0.008919903, -0.013891272, 0.30167693, -0.2846575, -0.17838056, 0.13949013, 0
956, 791048648, -0.9496249, -0.009042808, -0.014211168, 0.3129434, 0.50985676, -0.7845481, 0.06682396, 0
959, 791098649, -0.94666743, -0.009120917, -0.014350248, 0.32177067, -0.35078776, -0.23264092, 0.096138, 0
963, 791165317, -0.9399971, -0.009317424, -0.014833509, 0.3407396, -0.19947651, -0.20937829, 0.148139, 0
965, 791198651, -0.9355572, -0.009447915, -0.015157953, 0.35273013, 0.039964236, -0.4601983, 0.15626717, 0
968, 791248652, -0.92692316, -0.009630521, -0.015541831, 0.3748117, 0.12537822, -0.5771953, 0.07856846, 0
971, 791298653, -0.913756, -0.009837373, -0.015931394, 0.40583736, 0.32778522, -0.72942877, 0.17992306, 0
973, 791331987, -0.9034059, -0.009976569, -0.016259683, 0.42836738, 0.34077108, -0.6688518, 0.25397873, 0
976, 791381988, -0.88442004, -0.010273747, -0.016889362, 0.4662779, -0.19255379, -0.52034897, -0.04620838, 0
979, 791431989, -0.8597395, -0.01038689, -0.017276878, 0.5103395, 0.4608411, -0.77580786, 0.1934557, 0
981, 791465323, -0.8409516, -0.010517675, -0.017779399, 0.54072005, -0.045757126, -0.3508922, 0.040956497, 0
984, 791515324, -0.81163883, -0.010579373, -0.018328922, 0.58377993, 0.1866776, -0.39825398, 0.26181507, 0
987, 791565325, -0.7778274, -0.010960591, -0.018955356, 0.62810004, 0.19523132, -1.0991886, 0.10345173, 0
990, 791615326, -0.74266213, -0.011260323, -0.019912666, 0.6692789, -0.038305707, -0.09447433, -0.030729294, 0
992, 791648660, -0.7179784, -0.011338133, -0.020383885, 0.69567776, 0.37924823, -0.397099, -0.046035767, 0
995, 791698661, -0.6887164, -0.011338495, -0.020843968, 0.72464573, -0.36353913, 0.06210645, 0.23998356, 0
998, 791748662, -0.66216564, -0.011551963, -0.021334147, 0.7489679, -0.12351251, 0.12981063, -0.05949211, 0
1000, 791781996, -0.64346856, -0.011851577, -0.021713693, 0.7650758, -0.5052734, 0.35893008, 0.1871252, 0
1003, 791831997, -0.6146792, -0.0124494955, -0.02243443, 0.7883627, 0.6002881, -0.69545704, 0.031692505, 0
1006, 791881998, -0.5928842, -0.012797453, -0.022718428, 0.80486834, -0.06590228, 0.026098797, 0.18717861, 0
1008, 791915332, -0.57908237, -0.013092025, -0.023012338, 0.81484187, 0.8105956, -1.2247397, 0.15365219, 0
1011, 791965333, -0.5635058, -0.013368923, -0.023233198, 0.8256799, -0.08420267, -1.5064744, 0.07887745, 0
1014, 792015334, -0.55058885, -0.013409302, -0.023397753, 0.8343436, -0.611607, -0.44646516, 0.23434353, 0
1017, 792065335, -0.5365597, -0.013484178, -0.023395432, 0.843433, -0.328808, -1.0798473, 0.13611603, 0
1019, 792098669, -0.52843803, -0.013582876, -0.02347929, 0.84854126, -0.26930213, -0.13156137, 0.14216042, 0
1022, 792148670, -0.5150304, -0.01359506, -0.02348355, 0.85674506, -0.17614491, 0.041322894, 0.19236279, 0
1025, 792198671, -0.50416183, -0.013687599, -0.023512075, 0.8631834, -0.119865626, -0.84439003, 0.01317215, 0
1027, 792232005, -0.4996453, -0.013760966, -0.023564, 0.86580294, -0.31242537, -0.23908818, 0.26667213, 0
1030, 792282006, -0.49459296, -0.013799012, -0.023474645, 0.8687008, -0.14955702, -0.75056964, 0.17477512, 0
1033, 792332007, -0.49201864, -0.013813086, -0.023382494, 0.8701636, -0.04632291, -0.48859358, 0.08442879, 0
1035, 792365341, -0.49017957, -0.013864587, -0.023349997, 0.87120104, -0.2012715, -0.6599543, 0.07984257, 0
1038, 792415342, -0.48973307, -0.013896507, -0.023321632, 0.8714523, -0.09790272, -0.35744262, 0.15834904, 0
1042, 792482010, -0.48981985, -0.013953307, -0.023283415, 0.8714036, -0.1017114, -0.37176004, 0.13304138, 0
1045, 792532011, -0.48988053, -0.014013931, -0.023293678, 0.87136835, -0.11232265, -0.35300276, 0.12331581, 0
1048, 792582012, -0.4899261, -0.014140818, -0.023296501, 0.8713406, -0.15174413, -0.29290164, -0.017418861, 0
1050, 792615346, -0.48996714, -0.014135969, -0.02324676, 0.8713189, -0.13669278, -0.32072327, 0.021968842, 0
1053, 792665347, -0.49000826, -0.014160427, -0.023164028, 0.8712975, -0.110019, -0.3404164, 0.12131882, 0
1056, 792715348, -0.4900676, -0.014169335, -0.02307458, 0.8712664, -0.104950845, -0.34277812, 0.117780685, 0
1058, 792748682, -0.49009585, -0.014165852, -0.023017595, 0.8712521, -0.1103573, -0.3483588, 0.122629166, 0
1061, 792798683, -0.49014917, -0.01417486, -0.022938186, 0.8712239, -0.11404612, -0.3479092, 0.11848354, 0
1064, 792848684, -0.49019438, -0.014186185, -0.022857696, 0.8712006, -0.109971896, -0.3475199, 0.12211418, 0
1066, 792882018, -0.4902377, -0.01420041, -0.022796795, 0.8711776, -0.11087587, -0.34138575, 0.1483326, 0
1071, 792965353, -0.49031997, -0.014218681, -0.022679975, 0.87113404, -0.111968525, -0.33655185, 0.119137764, 0
1073, 792998687, -0.4903542, -0.014218262, -0.022626648, 0.8711161, -0.12786917, -0.34377047, 0.10898495, 0
1076, 793048688, -0.49040958, -0.014221938, -0.022549877, 0.87108684, -0.100582704, -0.34272045, 0.13506985, 0
1079, 793098689, -0.49045417, -0.014216439, -0.02247223, 0.87106395, -0.118954696, -0.341819, 0.12949848, 0
1081, 793132023, -0.49049264, -0.014230312, -0.022412842, 0.87104344, -0.115858585, -0.34191704, 0.12711716, 0
1084, 793182024, -0.49054578, -0.014231286, -0.022342026, 0.8710155, -0.12023889, -0.34706217, 0.13231277, 0
1087, 793232025, -0.49058637, -0.014244526, -0.02226805, 0.87099415, -0.124635726, -0.3386451, 0.11886597, 0
1089, 793265359, -0.49062943, -0.014269359, -0.022227682, 0.8709705, -0.110456064, -0.3412503, 0.13289547, 0
1092, 793315360, -0.49068242, -0.014272972, -0.022141835, 0.87094283, -0.12663421, -0.34420565, 0.12328529, 0
1095, 793365361, -0.4907366, -0.014283849, -0.02206077, 0.8709142, -0.11684123, -0.3330998, 0.14108658, 0
1099, 793432029, -0.49080533, -0.014292412, -0.021927632, 0.87087876, -0.12669018, -0.33690485, 0.103281975, 0
1102, 793482030, -0.490846, -0.014289194, -0.021843651, 0.87085783, -0.13161406, -0.35057172, 0.1380701, 0
1104, 793515364, -0.49087867, -0.014299702, -0.021768184, 0.87084126, -0.12348093, -0.32977918, 0.14096928, 0
1107, 793565365, -0.49092484, -0.014291907, -0.021698173, 0.8708171, -0.118515134, -0.33548954, 0.13291168, 0
1110, 793615366, -0.49096796, -0.014273617, -0.021604948, 0.87079537, -0.13143988, -0.32436976, 0.1356411, 0
1112, 793648700, -0.49101064, -0.014274557, -0.021524843, 0.87077326, -0.13078715, -0.3193072, 0.1256342, 0
1115, 793698701, -0.4910606, -0.014265267, -0.021420956, 0.87074786, -0.1342691, -0.32613805, 0.12469292, 0
1118, 793748702, -0.4911076, -0.014275741, -0.021324802, 0.8707235, -0.123317726, -0.33401078, 0.12710094, 0
1120, 793782036, -0.49114725, -0.01426609, -0.021261247, 0.87070286, -0.13063002, -0.32341978, 0.14643192, 0
1123, 793832037, -0.4911923, -0.014236063, -0.021167647, 0.8706803, -0.13744691, -0.32069513, 0.114536285, 0
1126, 793882038, -0.491258, -0.014203134, -0.02107113, 0.870646, -0.12867638, -0.32309338, 0.11298847, 0
1129, 793932039, -0.49130228, -0.014195246, -0.020979403, 0.8706233, -0.12683156, -0.31065413, 0.1382637, 0
1131, 793965373, -0.4913446, -0.01419796, -0.020911444, 0.8706011, -0.13789919, -0.31392458, 0.12330055, 0
1134, 794015374, -0.49138972, -0.014174918, -0.02081684, 0.8705783, -0.14165774, -0.31961167, 0.14138222, 0
1137, 794065375, -0.49142998, -0.01417838, -0.020715918, 0.87055784, -0.13691896, -0.31956676, 0.13460064, 0
1139, 794098709, -0.4914642, -0.0141764255, -0.02065129, 0.8705401, -0.1326285, -0.30520874, 0.13116837, 0
1142, 794148710, -0.4915076, -0.014173605, -0.020553688, 0.87051797, -0.14435092, -0.3210222, 0.13261223, 0
1145, 794198711, -0.491542, -0.014146884, -0.02044695, 0.8705015, -0.14715037, -0.3200244, 0.1387291, 0
1147, 794232045, -0.49157122, -0.01413991, -0.020380218, 0.87048674, -0.12861234, -0.30817184, 0.117661476, 0
1150, 794282046, -0.49162114, -0.014107892, -0.020252945, 0.870462, -0.14672902, -0.31374738, 0.14429855, 0
1153, 794332047, -0.49165976, -0.01409444, -0.020130685, 0.8704432, -0.13100225, -0.30606866, 0.113657, 0
1156, 794382048, -0.4917085, -0.014081689, -0.02003173, 0.87041825, -0.14311375, -0.30898485, 0.12194729, 0
1158, 794415382, -0.4917397, -0.014062468, -0.019946653, 0.8704028, -0.1407406, -0.30557853, 0.122125626, 0
1161, 794465383, -0.49179584, -0.014049478, -0.019849187, 0.8703736, -0.13939461, -0.28461066, 0.119885445, 0
1164, 794515384, -0.49184793, -0.014037648, -0.019741533, 0.8703467, -0.13562702, -0.29782563, 0.11262035, 0
1166, 794548718, -0.491871, -0.013997988, -0.019673904, 0.8703358, -0.15764025, -0.2981958, 0.124712944, 0
1169, 794598719, -0.4919235, -0.013977336, -0.019565685, 0.8703091, -0.16503008, -0.30309302, 0.12935543, 0
1172, 794648720, -0.49197105, -0.013944814, -0.019461298, 0.87028503, -0.14332682, -0.30009606, 0.12957573, 0
1174, 794682054, -0.49200642, -0.013926199, -0.019375972, 0.87026715, -0.1431624, -0.2849851, 0.12982845, 0
1179, 794765389, -0.4921014, -0.013861402, -0.019189127, 0.87021863, -0.15843944, -0.28943732, 0.108145714, 0
1181, 794798723, -0.49212602, -0.013836036, -0.019118138, 0.87020665, -0.14843431, -0.27478594, 0.14363003, 0
1184, 794848724, -0.492187, -0.013800675, -0.019013539, 0.87017506, -0.14324751, -0.3007909, 0.12188721, 0
1187, 794898725, -0.4922296, -0.013784562, -0.018895512, 0.8701538, -0.15181029, -0.28368098, 0.13653278, 0
1189, 794932059, -0.49225488, -0.013770543, -0.018815862, 0.87014145, -0.15397668, -0.2806641, 0.13563156, 0
1192, 794982060, -0.4922963, -0.013748268, -0.018697836, 0.8701209, -0.15447891, -0.2638018, 0.13622761, 0
1195, 795032061, -0.49235123, -0.013734734, -0.01860993, 0.87009203, -0.15606022, -0.26826152, 0.11885452, 0
1197, 795065395, -0.49238625, -0.013709677, -0.01852787, 0.8700742, -0.17144154, -0.28211895, 0.14603901, 0
1200, 795115396, -0.49244082, -0.013661512, -0.018421168, 0.8700463, -0.15271436, -0.27605614, 0.13683987, 0
1203, 795165397, -0.49249843, -0.013650033, -0.018307572, 0.87001634, -0.160041, -0.2767087, 0.13554001, 0
1207, 795232065, -0.49256682, -0.013605595, -0.018149165, 0.8699815, -0.16091363, -0.26037177, 0.11903763, 0
1210, 795282066, -0.49260598, -0.01356158, -0.018042035, 0.86996233, -0.16132678, -0.26643816, 0.124690056, 0
1212, 795315400, -0.49264625, -0.013543377, -0.01796589, 0.86994135, -0.14667374, -0.27504864, 0.12950897, 0
1215, 795365401, -0.49269658, -0.013487339, -0.017868038, 0.8699157, -0.17705947, -0.2499766, 0.13301277, 0
1218, 795415402, -0.49275133, -0.013438158, -0.01774534, 0.869888, -0.16274597, -0.25910777, 0.127779, 0
1220, 795448736, -0.4927714, -0.013408107, -0.017664667, 0.8698789, -0.15624632, -0.2678862, 0.12690544, 0
1223, 795498737, -0.49282724, -0.013365034, -0.017542355, 0.86985034, -0.16782391, -0.25959134, 0.13321018, 0
1226, 795548738, -0.49287197, -0.013317374, -0.017423298, 0.869828, -0.17967522, -0.24814017, 0.13064384, 0
1228, 795582072, -0.49289852, -0.013274495, -0.017350612, 0.8698152, -0.1646457, -0.25582394, 0.12503242, 0
1231, 795632073, -0.49294072, -0.013268479, -0.01725844, 0.8697931, -0.17051119, -0.2545608, 0.13409805, 0
1235, 795698741, -0.49301317, -0.01317657, -0.017086394, 0.86975694, -0.16999619, -0.24236913, 0.11935997, 0
1238, 795748742, -0.49305984, -0.013128787, -0.016962934, 0.8697335, -0.17667566, -0.23540728, 0.14162922, 0
1241, 795798743, -0.49312004, -0.013090331, -0.016879741, 0.8697016, -0.17040509, -0.24136648, 0.13647366, 0
1243, 795832077, -0.49314654, -0.0130255, -0.016766412, 0.8696898, -0.15825415, -0.26909772, 0.16445255, 0
1246, 795882078, -0.49331972, -0.013077776, -0.016746983, 0.8695912, -0.29714838, -0.7692791, 0.1113987, 0
1249, 795932079, -0.49578142, -0.01517533, -0.018642835, 0.86811733, -0.026921479, 0.49942294, 0.14030075, 0
1251, 795965413, -0.49592865, -0.013968204, -0.017509371, 0.868077, -0.13020994, -0.028671382, 0.090491295, 0
1254, 796015414, -0.49599734, -0.012679378, -0.016276682, 0.86808145, -0.17758264, -0.22377506, 0.0901289, 0
1257, 796065415, -0.49605763, -0.012624822, -0.016166406, 0.86805004, -0.15168071, -0.22656348, 0.14378738, 0
1260, 796115416, -0.49610043, -0.012615625, -0.016097173, 0.868027, -0.16884455, -0.23205231, 0.11349678, 0
1262, 796148750, -0.4961331, -0.012601784, -0.016037216, 0.86800957, -0.16361056, -0.22318031, 0.13606739, 0
1265, 796198751, -0.49615353, -0.012713548, -0.015952928, 0.8679979, -0.17406698, -0.22876294, 0.122525215, 0
1268, 796248752, -0.49614745, -0.013147312, -0.016162436, 0.8679908, -0.1735314, -0.19286868, 0.12891006, 0
1270, 796282086, -0.49617106, -0.013134185, -0.016087616, 0.86797893, -0.1672187, -0.21193035, 0.13700676, 0
1273, 796332087, -0.4946812, -0.013462663, -0.016280234, 0.86882025, -0.07796962, 0.23968157, 0.13829136, 0
1276, 796382088, -0.4908723, -0.01418296, -0.016782805, 0.8709571, -0.15154116, -0.10908692, 0.13492775, 0
1278, 796415422, -0.48777422, -0.015155333, -0.017560018, 0.87266445, -0.2315912, -0.45541805, 0.072732925, 0
1281, 796465423, -0.48355204, -0.014295095, -0.016628427, 0.8750435, -0.08510801, 0.14042436, 0.16940784, 0
1284, 796515424, -0.4770247, -0.016989809, -0.018816601, 0.87852687, -0.21826981, -0.47166488, 0.1462202, 0
1286, 796548758, -0.47213495, -0.018820986, -0.020251183, 0.88109523, -0.32879007, -0.024126545, 0.20784187, 0
1289, 796598759, -0.4534405, -0.018993251, -0.019983748, 0.8908626, -0.15987806, -0.020940566, 0.12238312, 0
1292, 796648760, -0.4163449, -0.019866977, -0.019973837, 0.90877277, -0.17153402, -0.18712765, 0.16663742, 0
1295, 796698761, -0.36343879, -0.019670345, -0.01874935, 0.93122417, -0.17922464, 0.027536893, 0.35250854, 0
1297, 796732095, -0.32730627, -0.018223675, -0.017192487, 0.9445885, 0.050927594, 0.4127853, 0.110466, 0
1300, 796782096, -0.2742383, -0.015698262, -0.014931786, 0.96142006, 0.19024584, -0.48771733, 0.07102871, 0
1303, 796832097, -0.23259643, -0.016963605, -0.014964445, 0.97231275, -0.038389347, 0.09729346, 0.13554573, 0
1305, 796865431, -0.21110496, -0.019521747, -0.01585944, 0.9771422, 0.16145995, 0.13189499, 0.049048424, 0
1308, 796915432, -0.18116584, -0.022263147, -0.016440667, 0.9830655, 0.095547095, -0.05675327, -0.013141632, 0
1311, 796965433, -0.14441085, -0.022538751, -0.015782416, 0.9891376, -0.3370558, -0.025685769, 0.2314663, 0
1315, 797032101, -0.08481658, -0.02366501, -0.0148015665, 0.996008, -0.49272537, -0.7191322, 0.16947365, 0
1318, 797082102, -0.04683441, -0.024562888, -0.014206167, 0.998502, 0.68949324, -0.37978944, 0.045680046, 0
1320, 797115436, -0.02660352, -0.024807302, -0.013758232, 0.9992458, -0.2647682, -0.54604006, 0.0850687, 0
1323, 797165437, -0.008658908, -0.025498327, -0.013495437, 0.99954873, 0.47966456, -0.22458836, 0.09607601, 0
1326, 797215438, 0.0049917027, -0.02524809, -0.013009319, 0.9995864, -0.23474248, -0.47198063, 0.19475746, 0
1328, 797248772, 0.015049007, -0.02555319, -0.0128280055, 0.99948025, -0.081903905, -0.23919713, 0.09110832, 0
1331, 797298773, 0.031188387, -0.025621375, -0.012345528, 0.99911124, -0.6403265, 0.18026641, 0.17319489, 0
1334, 797348774, 0.049983986, -0.02575496, -0.011872167, 0.99834967, -0.12734036, 0.07462542, 0.12342453, 0
1336, 797382108, 0.06553651, -0.025638962, -0.011421742, 0.99745774, -0.24183182, 0.066125974, 0.119148254, 0
1339, 797432109, 0.09212064, -0.024791505, -0.010687379, 0.99538416, -0.3015648, -0.07292718, 0.09109688, 0
1343, 797498777, 0.12924892, -0.017870842, -0.0094139865, 0.99140877, 0.19239827, -0.1388691, 0.2691307, 0
1346, 797548778, 0.1470133, -0.017908715, -0.009094528, 0.9889329, -0.8175946, 0.101510085, 0.13339138, 0
1349, 797598779, 0.1470702, -0.016718253, -0.009112191, 0.9889452, -0.11893577, -0.004017929, 0.16047192, 0
1351, 797632113, 0.14703709, -0.016730249, -0.009018789, 0.9889507, -0.12151829, 0.020329803, 0.12907791, 0
1354, 797682114, 0.14697818, -0.016654372, -0.008861161, 0.9889622, -0.12647727, 0.022537345, 0.12707615, 0
1357, 797732115, 0.14691658, -0.0165479, -0.008719239, 0.9889743, -0.13027997, 0.025677169, 0.12531662, 0
1359, 797765449, 0.14687055, -0.01649739, -0.0086255735, 0.9889829, -0.13816306, 0.019299371, 0.13483715, 0
1362, 797815450, 0.14682788, -0.01642583, -0.008478937, 0.98899174, -0.11356262, 0.029688241, 0.121614456, 0
1365, 797865451, 0.14675312, -0.016412966, -0.008335267, 0.98900425, -0.11675846, 0.018544162, 0.12876797, 0
1368, 797915452, 0.14668979, -0.016576894, -0.008188402, 0.98901194, -0.114144005, 0.028387217, 0.11938286, 0
1372, 797982120, 0.14662227, -0.016862003, -0.007959662, 0.9890191, -0.14434382, 0.021954421, 0.14204788, 0
1374, 798015454, 0.14733225, -0.019767456, -0.007980219, 0.9888596, -0.13023078, 0.04508713, 0.1530714, 0
1377, 798065455, 0.15006056, -0.024989426, -0.00802708, 0.9883307, -0.4898843, 0.021245768, 0.10623932, 0
1380, 798115456, 0.15673256, -0.023781786, -0.00772016, 0.98732686, -0.11404462, 0.049908545, 0.20987129, 0
1382, 798148790, 0.16108593, -0.026712012, -0.0077042477, 0.9865511, 0.14039372, -0.08922379, 0.04464531, 0
1385, 798198791, 0.16547658, -0.026700381, -0.0073993886, 0.9858269, 0.14847122, -0.082046054, 0.13690281, 0
1388, 798248792, 0.17406714, -0.026449693, -0.0070848507, 0.9843555, -0.02544901, 0.1012286, 0.12303066, 0
1390, 798282126, 0.18510568, -0.026680619, -0.0067274533, 0.9823356, -0.3638648, 0.16522028, 0.121938705, 0
1393, 798332127, 0.20046425, -0.024548601, -0.0062845466, 0.9793756, -0.5792676, 0.067223385, 0.20670795, 0
1396, 798382128, 0.20814297, -0.02243679, -0.0060659014, 0.9778246, 0.2263003, 0.013067432, 0.18237019, 0
1399, 798432129, 0.2098729, -0.026603311, -0.0058286902, 0.9773516, -0.38780198, 0.09496303, 0.098929405, 0
1401, 798465463, 0.20983452, -0.02600342, -0.005753313, 0.9773766, -0.050266095, 0.06999987, 0.1174202, 0
1404, 798515464, 0.20977293, -0.02715789, -0.005623597, 0.97735906, 0.029467134, 0.014553009, 0.25172138, 0
1407, 798565465, 0.21055362, -0.027166117, -0.005466968, 0.9771919, -0.0873822, 0.081001796, 0.13067627, 0
1409, 798598799, 0.21054891, -0.025589516, -0.005419718, 0.97723573, 0.103048906, 0.052213427, 0.07022858, 0
1412, 798648800, 0.2105568, -0.016715802, -0.0055435635, 0.97742546, -0.41089526, 0.08343371, 0.24347496, 0
1415, 798698801, 0.21049078, -0.01716281, -0.005405769, 0.9774326, -0.2822274, 0.09623464, 0.17353535, 0
1417, 798732135, 0.21044691, -0.016867192, -0.0053214347, 0.9774476, -0.053342085, 0.084754795, 0.091178894, 0
1420, 798782136, 0.2103934, -0.01686928, -0.005176846, 0.9774599, -0.11288341, 0.08672966, 0.123384476, 0
1423, 798832137, 0.21034497, -0.016858697, -0.0050247144, 0.9774713, -0.11617348, 0.097289406, 0.15480328, 0
1426, 798882138, 0.21027908, -0.016858546, -0.0049047093, 0.9774861, -0.10072078, 0.10224073, 0.1285448, 0
1428, 798915472, 0.2102471, -0.016859991, -0.004815669, 0.9774934, -0.09913476, 0.0908441, 0.14042854, 0
1431, 798965473, 0.21017748, -0.01685702, -0.0046913177, 0.9775091, -0.11545628, 0.09265802, 0.1319027, 0
1434, 799015474, 0.21012637, -0.0168439, -0.004541862, 0.977521, -0.097589225, 0.101782635, 0.13912392, 0
1436, 799048808, 0.21008927, -0.016835554, -0.004460021, 0.97752947, -0.10909215, 0.100364305, 0.1446886, 0
1439, 799098809, 0.21004009, -0.01682618, -0.0043299096, 0.97754073, -0.092997886, 0.10251896, 0.16858006, 0
1442, 799148810, 0.20998728, -0.01680851, -0.0042063906, 0.9775529, -0.10824406, 0.11621769, 0.12574387, 0
1444, 799182144, 0.20996162, -0.01679308, -0.004118668, 0.97755903, -0.106163286, 0.107478514, 0.121910095, 0
1447, 799232145, 0.20991391, -0.016786331, -0.004006903, 0.9775698, -0.10128052, 0.12007181, 0.116586685, 0
1451, 799298813, 0.20983426, -0.016782042, -0.0038295581, 0.9775879, -0.08826897, 0.1154869, 0.12870121, 0
1454, 799348814, 0.20979504, -0.01676847, -0.0036948575, 0.9775969, -0.10926207, 0.11040781, 0.1567297, 0
1457, 799398815, 0.20973852, -0.016772153, -0.0035859477, 0.97760946, -0.09959858, 0.11335105, 0.111987114, 0
1459, 799432149, 0.20970602, -0.01677693, -0.003516359, 0.9776167, -0.1098035, 0.12195853, 0.120863914, 0
1462, 799482150, 0.20965844, -0.016764536, -0.003386119, 0.9776275, -0.10027316, 0.12215922, 0.14056396, 0
1465, 799532151, 0.20960471, -0.016752709, -0.0032771577, 0.97763956, -0.08073353, 0.12817922, 0.09679508, 0
1467, 799565485, 0.20956719, -0.016749358, -0.0032068286, 0.97764784, -0.112628035, 0.12345575, 0.1313219, 0
1470, 799615486, 0.20951518, -0.016746802, -0.0031155343, 0.97765934, -0.099262275, 0.13668628, 0.13114929, 0
1473, 799665487, 0.20946321, -0.016761728, -0.0029827452, 0.9776707, -0.09674506, 0.13600555, 0.14609528, 0
1476, 799715488, 0.20941254, -0.016735626, -0.0028613098, 0.9776823, -0.08632065, 0.12435491, 0.17182255, 0
1480, 799782156, 0.20933579, -0.016707353, -0.00273823, 0.9776996, -0.10719029, 0.13144301, 0.14879704, 0
1482, 799815490, 0.20929231, -0.016693974, -0.0026596324, 0.9777095, -0.09114337, 0.14336093, 0.14995193, 0
1485, 799865491, 0.20924467, -0.01668168, -0.0025362242, 0.9777201, -0.08748238, 0.1343329, 0.15180588, 0
1488, 799915492, 0.20918757, -0.016688796, -0.002406694, 0.97773254, -0.09781435, 0.13942638, 0.14257812, 0
1490, 799948826, 0.20914564, -0.016679237, -0.0023274948, 0.97774184, -0.09676691, 0.15291417, 0.1192112, 0
1493, 799998827, 0.20908469, -0.016662747, -0.002218459, 0.97775537, -0.10627721, 0.14693613, 0.12710094, 0
1496, 800048828, 0.20901877, -0.016654512, -0.0021030004, 0.97777, -0.093489654, 0.14459188, 0.124513626, 0
1498, 800082162, 0.20899133, -0.01664345, -0.0020318315, 0.9777761, -0.10842463, 0.14902775, 0.13562489, 0
1501, 800132163, 0.20895018, -0.016621739, -0.0019251762, 0.9777855, -0.09697584, 0.14756915, 0.11984825, 0
1504, 800182164, 0.20890442, -0.016607355, -0.0018136929, 0.9777958, -0.09503817, 0.16092849, 0.1339817, 0
1509, 800265499, 0.208807, -0.016567977, -0.0016400502, 0.9778175, -0.101037465, 0.15178825, 0.1399107, 0
1512, 800315500, 0.2087684, -0.016527735, -0.0015377075, 0.9778266, -0.09771792, 0.14959402, 0.12771225, 0
1515, 800365501, 0.20870537, -0.016502162, -0.0014550241, 0.97784066, -0.096535176, 0.16470353, 0.13086128, 0
1517, 800398835, 0.20867872, -0.016509088, -0.0013779403, 0.97784626, -0.10679168, 0.15137379, 0.13565445, 0
1520, 800448836, 0.20863917, -0.016503038, -0.0012727675, 0.97785497, -0.09549746, 0.1621815, 0.1383133, 0
1523, 800498837, 0.20859414, -0.016479304, -0.0011695165, 0.97786504, -0.097552784, 0.17514998, 0.12426376, 0
1525, 800532171, 0.2085487, -0.016461693, -0.0011193849, 0.9778751, -0.08464467, 0.17870896, 0.13070202, 0
1528, 800582172, 0.20851421, -0.016448772, -0.00101777, 0.9778829, -0.0823313, 0.17806682, 0.12958908, 0
1531, 800632173, 0.20845789, -0.016439373, -9.182971E-4, 0.9778952, -0.09186319, 0.16324855, 0.124471664, 0
1534, 800682174, 0.20839703, -0.016416093, -8.347981E-4, 0.97790855, -0.07107254, 0.15783675, 0.15745544, 0
1536, 800715508, 0.20836005, -0.016421331, -7.7640207E-4, 0.9779163, -0.107162066, 0.17713073, 0.12724495, 0
1539, 800765509, 0.20830376, -0.01641996, -6.842199E-4, 0.97792846, -0.09569241, 0.17629929, 0.11984062, 0
1542, 800815510, 0.20826554, -0.01636953, -5.9909606E-4, 0.9779376, -0.083523385, 0.18114893, 0.13703346, 0
1544, 800848844, 0.20821384, -0.016360125, -5.332661E-4, 0.9779488, -0.083988056, 0.18564466, 0.15410995, 0
1547, 800898845, 0.20816448, -0.016348572, -4.444609E-4, 0.9779594, -0.094215296, 0.18122047, 0.16915798, 0
1550, 800948846, 0.20811227, -0.016374525, -3.5814347E-4, 0.97797024, -0.07629292, 0.17861483, 0.12790489, 0
1552, 800982180, 0.2080537, -0.01841995, -2.4034583E-4, 0.97794634, -0.3042281, 0.21000908, 0.15491486, 0
1555, 801032181, 0.20789918, -0.024769794, -1.0126969E-5, 0.97783893, -0.049012426, 0.17065643, 0.14734077, 0
1558, 801082182, 0.20783128, -0.026401917, 1.3585761E-4, 0.9778107, -0.072251566, 0.18422958, 0.085905075, 0
1561, 801132183, 0.20776793, -0.026380258, 1.972221E-4, 0.9778247, -0.06262096, 0.18422118, 0.14104843, 0
1563, 801165517, 0.20772631, -0.026402097, 2.3690809E-4, 0.977833, -0.065672114, 0.19259155, 0.11479759, 0
1566, 801215518, 0.20767748, -0.02637874, 3.2473018E-4, 0.9778439, -0.0739525, 0.19278012, 0.12405014, 0
1569, 801265519, 0.20763165, -0.026341217, 4.0762627E-4, 0.97785467, -0.08201457, 0.19835436, 0.124575615, 0
1571, 801298853, 0.20769352, -0.019937767, 3.2676174E-4, 0.9779931, 0.47618845, 0.1442781, 0.0501194, 0
1574, 801348854, 0.20767203, -0.016516458, 2.5172607E-4, 0.9780614, -0.28563714, 0.24062273, 0.11988735, 0
1577, 801398855, 0.20764157, -0.016290797, 3.51833E-4, 0.97807163, -0.0940673, 0.18905655, 0.16053486, 0
1579, 801432189, 0.20761003, -0.01625615, 3.847183E-4, 0.97807896, -0.0986656, 0.1899191, 0.14365578, 0
1582, 801482190, 0.20755813, -0.016254496, 4.371233E-4, 0.97808987, -0.09055839, 0.21204296, 0.13335323, 0
1585, 801532191, 0.20749594, -0.017371278, 5.410309E-4, 0.9780839, -0.10826749, 0.1973013, 0.10892105, 0
1589, 801598859, 0.20741361, -0.019538673, 7.162947E-4, 0.97806036, -0.07746158, 0.20019187, 0.1234684, 0
1592, 801648860, 0.20734406, -0.021182679, 8.757138E-4, 0.9780407, -0.07204035, 0.21368922, 0.14802647, 0
1594, 801682194, 0.20735542, -0.022420593, 9.4610866E-4, 0.9780108, -0.07755746, 0.1752305, 0.119981766, 0
1597, 801732195, 0.2101864, -0.023407057, 0.0011351226, 0.9773828, -0.16746143, 0.20989583, 0.1768055, 0
1600, 801782196, 0.21430382, -0.02479559, 0.0013181291, 0.9764538, 0.020395676, 0.20596154, 0.09814358, 0
1602, 801815530, 0.21767932, -0.023660822, 0.0014152315, 0.9757348, -0.08852398, 0.18717285, 0.13658237, 0
1605, 801865531, 0.22589952, -0.02553195, 0.0017213112, 0.9738168, -0.29715466, 0.22222702, 0.19333935, 0
1608, 801915532, 0.2370403, -0.026379531, 0.0020844853, 0.9711418, -0.1633352, 0.17238122, 0.16836071, 0
1611, 801965533, 0.2519146, -0.026642915, 0.0025479407, 0.9673817, -0.08449453, 0.123694696, 0.18833447, 0
1615, 802032201, 0.28078705, -0.02726377, 0.0032577966, 0.95937973, -0.06374419, 0.25860795, 0.107712746, 0
1619, 802098869, 0.31592354, -0.027856365, 0.0040325983, 0.9483696, 0.09954045, 0.2503233, -0.012337685, 0
1621, 802132203, 0.3351387, -0.028553074, 0.0045465473, 0.9417275, -0.10676956, 0.32511804, 0.029472351, 0
1624, 802182204, 0.36879605, -0.029540947, 0.005425347, 0.92902756, 0.40351596, 0.35867354, -0.31375122, 0
1627, 802232205, 0.39965817, -0.027020657, 0.005568008, 0.91625166, -0.76366943, -0.23336178, 0.048181534, 0
1629, 802265539, 0.4237126, -0.026925595, 0.00589395, 0.9053798, -0.15200166, -0.26317242, 0.22472572, 0
1632, 802315540, 0.45969263, -0.028367177, 0.007000049, 0.88759995, 0.48993146, -0.822771, -0.25689602, 0
1635, 802365541, 0.4918424, -0.028436696, 0.0076653836, 0.8701887, -0.3415468, 0.3482714, 0.398345, 0
1637, 802398875, 0.5089665, -0.02852259, 0.00814978, 0.8602778, 0.025476422, -0.6769973, 0.202178, 0
1640, 802448876, 0.5358597, -0.027793769, 0.008484291, 0.8438096, 0.9276735, 0.04021606, 0.18045807, 0
1643, 802498877, 0.5686756, -0.027487764, 0.00900658, 0.822056, 0.66145384, -0.9785407, 0.0028152466, 0
1647, 802565545, 0.6256405, -0.026851587, 0.010042621, 0.77958757, -1.0247458, 1.0025201, 0.41659927, 0
1650, 802615546, 0.6598474, -0.026910042, 0.010923657, 0.7508413, -1.1147494, 2.4263117, 0.031788826, 0
1652, 802648880, 0.6743081, -0.027022125, 0.011476104, 0.7378695, 0.050179526, 1.6480098, 0.34264374, 0
1655, 802698881, 0.6977194, -0.027019586, 0.012061329, 0.71576303, 0.74525785, 0.1475662, 0.08342457, 0
1658, 802748882, 0.72328454, -0.027225815, 0.013017347, 0.6898937, -0.46936804, 0.21090196, -0.18949795, 0
1660, 802782216, 0.7408464, -0.024914827, 0.011912612, 0.67111015, 0.45807222, 0.23232625, 0.15144157, 0
1663, 802832217, 0.7676979, -0.021465924, 0.009843425, 0.6403804, -0.4025651, 0.22264914, 0.24199867, 0
1666, 802882218, 0.78846955, -0.020804144, 0.009729205, 0.6146486, 0.036353737, 0.13667794, 0.1557846, 0
1669, 802932219, 0.8080173, -0.019215537, 0.008626858, 0.58878624, 0.13811214, 0.17120968, 0.25899792, 0
1671, 802965553, 0.8208947, -0.01906084, 0.008755822, 0.57069814, 0.10112003, 0.019389916, 0.18802547, 0
1674, 803015554, 0.8352733, -0.022653343, 0.0129534295, 0.54921955, 0.6927397, 0.8018784, 0.29940605, 0
1677, 803065555, 0.8496422, -0.02445344, 0.015570364, 0.5265667, -0.7021034, 0.17669518, -0.06043434, 0
1679, 803098889, 0.8577374, -0.024522081, 0.01599134, 0.51325816, 0.71131116, 0.10473563, 0.2613697, 0
1682, 803148890, 0.86343133, -0.02309826, 0.014756069, 0.5037258, -0.01955781, 0.35175598, -0.053887367, 0
1685, 803198891, 0.8637146, -0.024494365, 0.016348174, 0.5031248, -0.36288285, -0.019725105, 0.41426945, 0
1687, 803232225, 0.8636937, -0.024478605, 0.016356675, 0.5031611, 0.15097973, 0.1905911, 0.07685089, 0
1690, 803282226, 0.86366785, -0.024479156, 0.016405342, 0.50320387, 0.12269729, 0.15941675, 0.13351822, 0
1693, 803332227, 0.8627863, -0.024474053, 0.016459914, 0.5047123, 0.13262814, 0.24180886, 0.19563484, 0
1696, 803382228, 0.8624884, -0.024491813, 0.016527403, 0.50521827, 0.1271758, 0.15541957, 0.1528101, 0
1698, 803415562, 0.8619081, -0.02446874, 0.016540218, 0.50620836, 0.06923034, 0.133113, 0.18668842, 0
1701, 803465563, 0.86026865, -0.024389863, 0.016429197, 0.50899684, 0.13872181, 0.17608358, 0.10805035, 0
1704, 803515564, 0.85981613, -0.024351982, 0.016494986, 0.5097603, 0.1599722, 0.09077688, 0.13471985, 0
1706, 803548898, 0.8594352, -0.024334734, 0.016538186, 0.51040196, 0.13315053, 0.19308627, 0.12298393, 0
1709, 803598899, 0.8593108, -0.024307722, 0.016593335, 0.51061076, 0.14775091, 0.18005666, 0.11908817, 0
1712, 803648900, 0.8592784, -0.024261288, 0.016617095, 0.5106667, 0.1463729, 0.15283126, 0.13482189, 0
1714, 803682234, 0.85925174, -0.0242466, 0.016666044, 0.5107107, 0.1588149, 0.14910565, 0.107154846, 0
1717, 803732235, 0.85922, -0.024202487, 0.01669378, 0.51076496, 0.1377904, 0.15405408, 0.13462353, 0
1721, 803798903, 0.85917836, -0.024169337, 0.01676032, 0.5108347, 0.14875016, 0.15966994, 0.13914394, 0
1724, 803848904, 0.8591522, -0.024101622, 0.016741015, 0.5108825, 0.13690837, 0.14450826, 0.13932705, 0
1728, 803915572, 0.85918057, -0.02221065, 0.014747604, 0.51098204, 0.14678398, 0.108538024, 0.11889839, 0
1731, 803965573, 0.85916513, -0.02192134, 0.01450268, 0.51102734, 0.16806445, 0.26679796, 0.15678215, 0
1733, 803998907, 0.85907143, -0.023594595, 0.016411083, 0.51105285, 0.13823928, 0.1113103, 0.10602951, 0
1736, 804048908, 0.8590329, -0.023654584, 0.016575528, 0.5111094, 0.16270322, 0.17208266, 0.13869381, 0
1739, 804098909, 0.85902137, -0.023102945, 0.01605425, 0.51117086, 0.13844438, 0.048104554, 0.10215473, 0
1741, 804132243, 0.8589947, -0.019915817, 0.012566143, 0.51144725, 0.1843783, 0.26452836, 0.1961298, 0
1744, 804182244, 0.8568656, -0.019353405, 0.012005883, 0.5150413, 0.17834567, 0.5411709, 0.2080965, 0
1747, 804232245, 0.8568366, -0.019484611, 0.012259289, 0.51507837, 0.16989484, 0.23400296, 0.1537075, 0
1750, 804282246, 0.85684574, -0.018152988, 0.010791637, 0.51514477, 0.05389135, -0.539222, 0.043474197, 0
1752, 804315580, 0.8567489, -0.017611569, 0.009787844, 0.5153446, 0.16662984, 0.1922776, 0.20406532, 0
1756, 804382248, 0.85671335, -0.017574739, 0.009942795, 0.5154021, 0.14775254, 0.13320151, 0.13247299, 0
1759, 804432249, 0.85668117, -0.017538518, 0.009973499, 0.515456, 0.1628635, 0.16739157, 0.152771, 0
1762, 804482250, 0.85665625, -0.01752008, 0.010013231, 0.5154974, 0.15708537, 0.1705283, 0.12205505, 0
1764, 804515584, 0.8566368, -0.017502954, 0.010029223, 0.51553005, 0.1703618, 0.16641283, 0.12123585, 0
1767, 804565585, 0.8566144, -0.017498145, 0.010083402, 0.5155664, 0.16076158, 0.15744422, 0.14205551, 0
1770, 804615586, 0.8565838, -0.017493432, 0.010131171, 0.5156163, 0.16209261, 0.17488916, 0.12924862, 0
1772, 804648920, 0.8565583, -0.017460482, 0.010142901, 0.5156596, 0.17197889, 0.16743827, 0.13728046, 0
1775, 804698921, 0.85652673, -0.017430134, 0.010155464, 0.51571286, 0.16476765, 0.16318636, 0.13455582, 0
1778, 804748922, 0.8565027, -0.017398529, 0.010169166, 0.5157535, 0.16977915, 0.1725437, 0.13389206, 0
1781, 804798923, 0.8564724, -0.017361183, 0.0101992935, 0.51580465, 0.1594347, 0.15348014, 0.11811066, 0
1785, 804865591, 0.85642964, -0.017292546, 0.010233168, 0.51587707, 0.16780649, 0.15543674, 0.13098335, 0
1787, 804898925, 0.8564095, -0.017264057, 0.010242136, 0.51591116, 0.16420543, 0.16392541, 0.15489101, 0
1790, 804948926, 0.8563734, -0.017228914, 0.010267247, 0.5159718, 0.1795693, 0.15528841, 0.14211845, 0
1793, 804998927, 0.8563459, -0.017200842, 0.010282214, 0.5160181, 0.15599886, 0.16619842, 0.11930847, 0
1795, 805032261, 0.856326, -0.01717406, 0.010284362, 0.516052, 0.16939166, 0.1527113, 0.12290001, 0
1798, 805082262, 0.85629606, -0.017158655, 0.0103161335, 0.5161015, 0.16501984, 0.15344642, 0.114899635, 0
1801, 805132263, 0.8562757, -0.017120091, 0.010331755, 0.5161366, 0.16347514, 0.15766317, 0.121305466, 0
1804, 805182264, 0.8562537, -0.017083634, 0.010342775, 0.51617384, 0.17731327, 0.16658339, 0.13687229, 0
1806, 805215598, 0.85623723, -0.01706798, 0.010351513, 0.5162015, 0.1734398, 0.17160645, 0.12292576, 0
1809, 805265599, 0.85620874, -0.017030854, 0.010372532, 0.51624954, 0.1715794, 0.16470812, 0.1403904, 0
1812, 805315600, 0.85618263, -0.016998105, 0.010386237, 0.5162937, 0.17536369, 0.1515188, 0.12241936, 0
1814, 805348934, 0.8561531, -0.016985748, 0.010398611, 0.51634276, 0.17881683, 0.16731451, 0.13971901, 0
1817, 805398935, 0.856123, -0.016977977, 0.010413782, 0.51639277, 0.18640316, 0.15261093, 0.14237213, 0
1820, 805448936, 0.8560958, -0.016952017, 0.010443375, 0.5164381, 0.17437412, 0.15394258, 0.12698841, 0
1822, 805482270, 0.85607475, -0.016946184, 0.0104396185, 0.5164732, 0.18095227, 0.1707277, 0.13036919, 0
1825, 805532271, 0.85604125, -0.016895518, 0.010459468, 0.51653, 0.1767203, 0.15686081, 0.1315279, 0
1828, 805582272, 0.8560095, -0.016845237, 0.010463098, 0.5165841, 0.17827743, 0.16408505, 0.13943195, 0
1831, 805632273, 0.8559793, -0.016806753, 0.0104659805, 0.5166354, 0.17530118, 0.15974844, 0.13809013, 0
1833, 805665607, 0.8559609, -0.016799472, 0.010480475, 0.51666564, 0.18530722, 0.16201371, 0.114943504, 0
1836, 805715608, 0.8559315, -0.016750377, 0.0104762465, 0.5167161, 0.1662042, 0.14838788, 0.1330719, 0
1839, 805765609, 0.85591495, -0.016710341, 0.010468091, 0.516745, 0.1766224, 0.15407668, 0.120622635, 0
1841, 805798943, 0.8558944, -0.01667883, 0.010484868, 0.51677984, 0.1803843, 0.16609757, 0.12984943, 0
1844, 805848944, 0.85586864, -0.016642181, 0.010516672, 0.5168231, 0.17391646, 0.1660051, 0.13403225, 0
1847, 805898945, 0.8558483, -0.0166182, 0.010512327, 0.5168575, 0.1751211, 0.14643018, 0.113144875, 0
1849, 805932279, 0.8558297, -0.01660134, 0.010501493, 0.51688915, 0.18217802, 0.15746471, 0.13219929, 0
1852, 805982280, 0.8557963, -0.016579108, 0.010509618, 0.5169448, 0.17653953, 0.15558343, 0.13385582, 0
1855, 806032281, 0.8557727, -0.016538179, 0.010519691, 0.51698524, 0.17213655, 0.1514556, 0.119158745, 0
1858, 806082282, 0.8557485, -0.016526902, 0.010523188, 0.5170257, 0.1852638, 0.1644202, 0.14188671, 0
1860, 806115616, 0.8557287, -0.016519347, 0.0105170235, 0.5170587, 0.17284223, 0.15764073, 0.10753536, 0
1864, 806182284, 0.8556944, -0.016469419, 0.010544795, 0.51711637, 0.18289292, 0.14509366, 0.11484718, 0
1867, 806232285, 0.8556617, -0.016455805, 0.010554679, 0.51717055, 0.18904082, 0.15108189, 0.14188194, 0
1870, 806282286, 0.8556341, -0.016430976, 0.010585672, 0.5172164, 0.19008265, 0.15174031, 0.1294012, 0
1872, 806315620, 0.8556187, -0.016410012, 0.01059017, 0.51724243, 0.18870458, 0.17086555, 0.13515091, 0
1875, 806365621, 0.855585, -0.016369529, 0.010576166, 0.5172999, 0.19201079, 0.14285445, 0.13957405, 0
1878, 806415622, 0.8555583, -0.01635676, 0.010576124, 0.5173444, 0.19044022, 0.16014935, 0.13906097, 0
1881, 806465623, 0.8555262, -0.016323062, 0.010566518, 0.51739866, 0.19957307, 0.15732026, 0.13538551, 0
1883, 806498957, 0.85550547, -0.016305631, 0.010556702, 0.517434, 0.19544229, 0.1543963, 0.12631893, 0
1886, 806548958, 0.85547364, -0.01626975, 0.010555836, 0.5174875, 0.18923567, 0.15746145, 0.145051, 0
1889, 806598959, 0.8554453, -0.01624665, 0.010565833, 0.51753503, 0.20231415, 0.15433349, 0.14221191, 0
1893, 806665627, 0.8554114, -0.016224133, 0.010561526, 0.5175916, 0.17765841, 0.1572744, 0.14103031, 0
1895, 806698961, 0.8553884, -0.016208882, 0.0105713075, 0.51763004, 0.17178631, 0.16211244, 0.14120483, 0
1898, 806748962, 0.8553631, -0.0161639, 0.010558967, 0.5176736, 0.20409739, 0.15151574, 0.13476086, 0
1901, 806798963, 0.8553325, -0.016135711, 0.010543143, 0.51772517, 0.19204678, 0.14723176, 0.14104271, 0
1903, 806832297, 0.8553129, -0.016115317, 0.010523759, 0.5177587, 0.18040943, 0.15060535, 0.12204361, 0
1906, 806882298, 0.8552843, -0.016089078, 0.010528979, 0.51780665, 0.1842678, 0.13673356, 0.12908173, 0
1909, 806932299, 0.85526013, -0.016057396, 0.010523549, 0.5178479, 0.18633224, 0.16292027, 0.12179947, 0
1912, 806982300, 0.8552291, -0.016027035, 0.010516089, 0.51790005, 0.19674544, 0.14486296, 0.16957474, 0
1914, 807015634, 0.85520816, -0.016015247, 0.010522223, 0.5179348, 0.18268484, 0.15007988, 0.15567398, 0
1917, 807065635, 0.85517746, -0.015989225, 0.010529112, 0.5179862, 0.19808307, 0.15820806, 0.15554714, 0
1921, 807132303, 0.855127, -0.01569701, 0.010269156, 0.5180836, 0.18697746, 0.19324106, 0.15598774, 0
1924, 807182304, 0.8551374, -0.016286118, 0.011088033, 0.5180314, 0.18932827, 0.22158056, 0.1783657, 0
1926, 807215638, 0.85515124, -0.017214922, 0.012385905, 0.5179492, 0.20323631, 0.15239842, 0.13174438, 0
1929, 807265639, 0.8596217, -0.01761647, 0.01301179, 0.51046586, 0.24465407, -0.32187867, 0.09162521, 0
1932, 807315640, 0.8739819, -0.01634727, 0.011938435, 0.48554173, 0.07772194, -0.16133545, 0.17148209, 0
1934, 807348974, 0.8900721, -0.015690755, 0.011614084, 0.45540676, 0.27143767, 0.37983984, 0.03610897, 0
1937, 807398975, 0.92194146, -0.017098587, 0.014898728, 0.38667068, 0.2966727, 0.21930191, 0.13654804, 0
1940, 807448976, 0.95106554, -0.019192854, 0.020787118, 0.30769855, 0.14524043, 0.21010542, -0.07722187, 0
1943, 807498977, 0.97255844, -0.019354839, 0.023886122, 0.23062865, 0.34173566, 0.06121608, -0.123230934, 0
1945, 807532311, 0.98244625, -0.018578507, 0.024679841, 0.1839833, 0.49466836, 0.26326433, -0.01933384, 0
1948, 807582312, 0.99186206, -0.01752682, 0.024820888, 0.123657346, 0.3880181, 0.45295575, 0.013087273, 0
1951, 807632313, 0.9973421, -0.01645798, 0.025269413, 0.066362195, 0.26987842, -0.09646964, 0.4662552, 0
1953, 807665647, 0.9991651, -0.015869556, 0.026049484, 0.027265921, 0.5427736, 0.2767242, 0.35229588, 0
1956, 807715648, 0.99920917, -0.014757616, 0.025624458, -0.02667322, 0.019015085, -0.3694776, 0.06620121, 0
1959, 807765649, 0.9970084, -0.013631437, 0.023666557, -0.07234187, 0.16552639, 0.015052857, 0.31708717, 0
1962, 807815650, 0.9938729, -0.01311642, 0.025544168, -0.10675593, -0.033864673, -0.07901704, 0.15225601, 0
1964, 807848984, 0.9920624, -0.012530596, 0.023219379, -0.122966096, -0.42016077, -0.4253908, 0.1573925, 0
1967, 807898985, 0.98913354, -0.011884852, 0.020021487, -0.14518043, -0.048617586, -0.082983516, 0.20824528, 0
1970, 807948986, 0.98532355, -0.011393585, 0.021126663, -0.16901475, -0.71652204, 0.16975601, 0.12127781, 0
1972, 807982320, 0.9822243, -0.011100957, 0.02228472, -0.18606488, -0.50204945, -0.5257158, 0.11812019, 0
1975, 808032321, 0.97681934, -0.010643459, 0.01871379, -0.21299075, 0.36199713, 0.26779485, 0.1838255, 0
1978, 808082322, 0.97079813, -0.009965062, 0.024021756, -0.23849387, 0.08789785, -0.11223569, 0.042954445, 0
1980, 808115656, 0.9683315, -0.009589872, 0.025197504, -0.24821699, 0.3699841, 0.08075375, 0.063560486, 0
1983, 808165657, 0.9675744, -0.009668133, 0.02253372, -0.25140193, 0.20257078, -0.083616115, 0.1714592, 0
1986, 808215658, 0.96761674, -0.009729135, 0.021566112, -0.25132185, 0.1036564, -0.06480805, 0.12964535, 0
1988, 808248992, 0.96767306, -0.009838254, 0.01895543, -0.2513107, -0.15965332, -0.015010662, 0.07109165, 0
1991, 808298993, 0.9678004, -0.0102502005, 0.0116987685, -0.25124717, -0.56293327, 0.011656801, -0.1574421, 0
1994, 808348994, 0.96782607, -0.01030474, 0.011131512, -0.25117156, 0.007483521, -0.042333424, 0.13336658, 0
1997, 808398995, 0.96784717, -0.010304405, 0.010991339, -0.251096, 0.08914783, -0.06980792, 0.093839645, 0
2001, 808465663, 0.96786386, -0.010236922, 0.011380347, -0.25101775, 0.31540182, -0.07567573, 0.25692463, 0
2003, 808498997, 0.9685745, -0.010211443, 0.01179881, -0.2482431, 1.8012755, -0.3941617, 0.09710026, 0
2006, 808548998, 0.970748, -0.0102619, 0.011671831, -0.23960721, -1.4584875, 0.22945207, 0.14060497, 0
2009, 808598999, 0.9709544, -0.010217352, 0.011175711, -0.23879457, 0.14171244, -0.0883012, 0.06770325, 0
2011, 808632333, 0.97096604, -0.010168964, 0.011206591, -0.23874809, 0.09340486, -0.052672666, 0.14588737, 0
2014, 808682334, 0.97097725, -0.010063421, 0.011190996, -0.23870727, 0.10036099, -0.06706558, 0.13346767, 0
2017, 808732335, 0.97099227, -0.010001093, 0.011155566, -0.23865063, 0.10476597, -0.06695078, 0.11886692, 0
2020, 808782336, 0.9710044, -0.00993342, 0.011144399, -0.23860419, 0.12576343, -0.09182019, 0.1237545, 0
2022, 808815670, 0.9710112, -0.009884374, 0.011132806, -0.23857859, 0.1057815, -0.07453366, 0.143569, 0
2025, 808865671, 0.97102594, -0.009828667, 0.011122648, -0.23852184, 0.109674364, -0.077162825, 0.11848545, 0
2029, 808932339, 0.97104657, -0.009744164, 0.011111869, -0.23844144, 0.10144571, -0.07911728, 0.14575386, 0
2032, 808982340, 0.9710625, -0.0096842935, 0.011106441, -0.23837945, 0.10762857, -0.07643842, 0.13935375, 0
2034, 809015674, 0.97107005, -0.009639551, 0.011097633, -0.238351, 0.09966313, -0.07987037, 0.14607048, 0
2037, 809065675, 0.9710889, -0.009601409, 0.011066829, -0.23827705, 0.1065354, -0.092404895, 0.11750412, 0
2040, 809115676, 0.97110665, -0.009548157, 0.011042462, -0.23820764, 0.11080553, -0.09287436, 0.11886692, 0
2043, 809165677, 0.9711148, -0.009492494, 0.011015928, -0.23817801, 0.106529325, -0.07170605, 0.1359663, 0
2045, 809199011, 0.9711243, -0.009451624, 0.011014473, -0.23814093, 0.11635447, -0.078187734, 0.14337158, 0
2048, 809249012, 0.97113967, -0.009395089, 0.010984316, -0.23808213, 0.111603715, -0.0777758, 0.13800049, 0
2051, 809299013, 0.97115093, -0.009328616, 0.010973117, -0.23803958, 0.103084385, -0.08478599, 0.15322304, 0
2053, 809332347, 0.9711622, -0.009290144, 0.010957832, -0.23799515, 0.11140012, -0.077150255, 0.14469147, 0
2057, 809399015, 0.97118115, -0.00923931, 0.010926013, -0.23792198, 0.105863765, -0.07445636, 0.13622856, 0
2060, 809449016, 0.97119534, -0.009178679, 0.010917585, -0.2378669, 0.10977273, -0.086522505, 0.15303421, 0
2063, 809499017, 0.9712131, -0.009138816, 0.010899523, -0.23779678, 0.08383252, -0.078393854, 0.127738, 0
2065, 809532351, 0.97122663, -0.0091273375, 0.01087195, -0.23774351, 0.09450239, -0.08735975, 0.13335419, 0
2068, 809582352, 0.97123474, -0.009043559, 0.0108604, -0.237714, 0.10181954, -0.093946286, 0.1267271, 0
2071, 809632353, 0.971249, -0.00897849, 0.010843783, -0.23765892, 0.10633025, -0.08846696, 0.13527012, 0
2074, 809682354, 0.9712651, -0.008916461, 0.010812953, -0.23759678, 0.084705144, -0.107344136, 0.13341618, 0
2076, 809715688, 0.9712699, -0.008876815, 0.010808944, -0.23757826, 0.08219748, -0.10951589, 0.11235523, 0
2079, 809765689, 0.97128004, -0.008843599, 0.010781326, -0.23753989, 0.09867106, -0.06922571, 0.14471245, 0
2082, 809815690, 0.97129774, -0.008805281, 0.010752965, -0.23746972, 0.09798073, -0.11151974, 0.12958717, 0
2084, 809849024, 0.9713054, -0.008784203, 0.0107464455, -0.2374396, 0.110082954, -0.082868904, 0.14292717, 0
2087, 809899025, 0.9713199, -0.008761355, 0.0107123, -0.23738277, 0.06441251, -0.102666676, 0.07014179, 0
2090, 809949026, 0.97132933, -0.008721146, 0.0106788585, -0.23734689, 0.07813598, -0.103349745, 0.12659645, 0
2092, 809982360, 0.9713227, -0.008715307, 0.010654677, -0.2373747, 0.1199525, -0.10739621, 0.13468933, 0
2095, 810032361, 0.9713401, -0.008698685, 0.010632163, -0.23730549, 0.09236737, -0.102518216, 0.1159668, 0
2098, 810082362, 0.9713541, -0.008683333, 0.010627031, -0.23724914, 0.08564535, -0.10729528, 0.12210369, 0
2101, 810132363, 0.97136617, -0.008634612, 0.010585324, -0.23720306, 0.0912419, -0.086688295, 0.15766048, 0
2103, 810165697, 0.97137487, -0.008594107, 0.010562607, -0.23716982, 0.08422649, -0.08409401, 0.1464529, 0
2106, 810215698, 0.9713914, -0.008549658, 0.010551696, -0.2371043, 0.09232896, -0.09556514, 0.15823364, 0
2109, 810265699, 0.9714073, -0.008491621, 0.010538386, -0.23704195, 0.089856066, -0.10482304, 0.13934231, 0
2111, 810299033, 0.9714157, -0.008448593, 0.010523511, -0.2370094, 0.1026423, -0.088115945, 0.14410496, 0
2114, 810349034, 0.9714326, -0.00840333, 0.010505209, -0.23694251, 0.08823288, -0.1074429, 0.13327122, 0
2117, 810399035, 0.97144425, -0.008362407, 0.010480572, -0.23689714, 0.0978883, -0.11737576, 0.12369728, 0
2119, 810432369, 0.9714507, -0.0083386, 0.010479402, -0.23687223, 0.08651463, -0.09740855, 0.12857056, 0
2122, 810482370, 0.9714636, -0.008299925, 0.010459122, -0.2368213, 0.092860736, -0.1090911, 0.1307478, 0
2125, 810532371, 0.97147727, -0.008251341, 0.010427949, -0.23676804, 0.08782121, -0.102114335, 0.15648842, 0
2128, 810582372, 0.97149444, -0.008205657, 0.010412985, -0.23669925, 0.096641794, -0.111143515, 0.13611507, 0
2130, 810615706, 0.97150314, -0.008170886, 0.010392529, -0.236666, 0.079852626, -0.11578424, 0.13283539, 0
2133, 810665707, 0.9715162, -0.008117921, 0.010354461, -0.23661569, 0.08038941, -0.11127232, 0.14418125, 0
2137, 810732375, 0.9714665, -0.008084552, 0.010527278, -0.23681328, -0.661663, 0.40349978, 0.14605427, 0
2140, 810782376, 0.9711932, -0.008051466, 0.010292231, -0.23794219, 0.1465244, -0.32291943, 0.06577206, 0
2142, 810815710, 0.9711976, -0.008008749, 0.0103144795, -0.23792501, 0.04798362, -0.11206791, 0.09342861, 0
2145, 810865711, 0.97120625, -0.00793138, 0.010190656, -0.237898, 0.028180834, -0.113537505, 0.06436443, 0
2148, 810915712, 0.9712217, -0.007900425, 0.01011803, -0.23783933, 0.055797845, -0.105993345, 0.13192654, 0
2150, 810949046, 0.97123146, -0.007864038, 0.010096, -0.23780149, 0.080966145, -0.10156636, 0.14104652, 0
2153, 810999047, 0.97124434, -0.007818523, 0.010079144, -0.23775078, 0.06529004, -0.12650467, 0.1475544, 0
2156, 811049048, 0.97125995, -0.0077857296, 0.009965543, -0.23769279, 0.0728299, -0.10826214, 0.14035225, 0
2159, 811099049, 0.97127706, -0.0077496665, 0.009896042, -0.23762703, 0.08481253, -0.12105742, 0.13134289, 0
2161, 811132383, 0.97127205, -0.007745337, 0.01002173, -0.23764268, 0.21387596, -0.1431852, 0.048742294, 0
2165, 811199051, 0.97128224, -0.0076738233, 0.009831097, -0.23761152, 0.11910645, -0.14262816, 0.1191988, 0
2168, 811249052, 0.9708114, -0.007975964, 0.008236361, -0.23957849, 0.17458467, -0.42888832, -0.06382275, 0
2171, 811299053, 0.9666759, -0.00778459, 0.008449264, -0.2557536, 0.2833854, -0.56244034, 0.11552334, 0
2173, 811332387, 0.9615878, -0.007318298, 0.009660422, -0.2742375, 0.2693177, -0.39772248, 0.02352333, 0
2176, 811382388, 0.9510218, -0.006894104, 0.010133421, -0.30888724, 0.10729098, -0.2946178, -0.002790451, 0
2179, 811432389, 0.9366296, -0.0063880626, 0.010409819, -0.35011426, 0.16781323, -0.23443252, 0.24380016, 0
2182, 811482390, 0.91855884, -0.0058162273, 0.010773366, -0.39510003, 0.30293182, -0.085668154, 0.03735447, 0
2184, 811515724, 0.9052119, -0.00557578, 0.0108396225, -0.42479032, 0.04706381, -0.22839057, 0.20344067, 0
2187, 811565725, 0.8806782, -0.0049355123, 0.011140824, -0.47356257, -0.19084275, -0.59670806, -0.05449581, 0
2190, 811615726, 0.8519862, -0.0040699947, 0.011655716, -0.5234225, -0.8392119, 0.003191084, 0.4596176, 0
2194, 811682394, 0.80846757, -0.0031778053, 0.011766656, -0.58841777, -0.08576726, 0.23339885, 0.30073833, 0
2196, 811715728, 0.7823582, -0.0026181648, 0.011801928, -0.62271446, -0.9503011, -0.32105494, -0.04797268, 0
2199, 811765729, 0.7340464, -0.0015280419, 0.012002398, -0.6789944, 0.83896255, -1.2335055, 0.28631115, 0
2202, 811815730, 0.68657887, 6.563597E-4, 0.013379937, -0.7269346, 1.0185266, -0.66305226, 0.25731754, 0
2204, 811849064, 0.6600203, 0.0021909252, 0.014581516, -0.75110567, -0.7407538, 0.27308443, 0.123654366, 0
2207, 811899065, 0.6283667, 0.0012111914, 0.012250192, -0.77782255, -0.031694688, 0.17028204, 0.51891994, 0
2210, 811949066, 0.5961688, 8.580677E-4, 0.011402965, -0.80278033, -0.963311, -0.010200945, 0.18878937, 0
2213, 811999067, 0.5623612, 0.0015292156, 0.011349245, -0.826815, -0.41153026, 0.8695176, 0.41630077, 0
2215, 812032401, 0.53894436, 0.0024903703, 0.0115451915, -0.8422609, -0.40780511, -0.0699847, -0.07513809, 0
2218, 812082402, 0.50655675, 0.0036925212, 0.011578865, -0.86212325, -0.2408239, -0.14036943, 0.12933064, 0
2221, 812132403, 0.48657963, 0.004107034, 0.011326728, -0.8735555, 0.52362597, -6.608789E-4, 0.08926201, 0
2223, 812165737, 0.4849668, 0.004155499, 0.011334291, -0.8744515, -0.065161444, 0.020994034, 0.08845043, 0
2226, 812215738, 0.48502597, 0.004296009, 0.011367506, -0.87441754, -0.1623839, -0.017159577, 0.117619514, 0
2229, 812265739, 0.48509032, 0.0043807803, 0.011394167, -0.8743811, -0.12428491, -0.0409195, 0.15286732, 0
2232, 812315740, 0.48515585, 0.004458428, 0.011382588, -0.8743446, -0.13565987, -0.029690826, 0.13138866, 0
2234, 812349074, 0.4851965, 0.0044659, 0.011340911, -0.8743224, -0.13468157, -0.047836892, 0.14725113, 0
2237, 812399075, 0.48524857, 0.004529917, 0.011306179, -0.87429374, -0.14563063, -0.05583549, 0.1405077, 0
2240, 812449076, 0.485285, 0.0045756577, 0.011266801, -0.8742738, -0.11586057, -0.046740346, 0.104709625, 0
2242, 812482410, 0.48530063, 0.0046142694, 0.011237957, -0.87426525, -0.121107675, -0.044084813, 0.13646412, 0
2245, 812532411, 0.4853542, 0.004645534, 0.011214897, -0.87423575, -0.1287744, -0.046531975, 0.12720203, 0
2248, 812582412, 0.4854038, 0.0046815164, 0.0111755915, -0.8742084, -0.12228743, -0.044973336, 0.1461153, 0
2250, 812615746, 0.4854427, 0.004702743, 0.011165333, -0.87418675, -0.118972875, -0.044580728, 0.13420677, 0
2253, 812665747, 0.4854812, 0.0047334367, 0.01114124, -0.8741655, -0.12292257, -0.030455785, 0.14268017, 0
2256, 812715748, 0.4855242, 0.004781616, 0.011122299, -0.87414163, -0.1373565, -0.044507228, 0.14664078, 0
2258, 812749082, 0.48555806, 0.0048166765, 0.011101384, -0.874123, -0.13019943, -0.03802139, 0.15597439, 0
2261, 812799083, 0.48559898, 0.004862882, 0.011074483, -0.87410027, -0.12305841, -0.044734105, 0.14286709, 0
2264, 812849084, 0.4856503, 0.004894469, 0.011057388, -0.87407184, -0.13627113, -0.037223086, 0.13736248, 0
2267, 812899085, 0.48570096, 0.0049288836, 0.011027921, -0.8740438, -0.1319858, -0.04256794, 0.12847519, 0
2269, 812932419, 0.48572868, 0.0049633947, 0.01101398, -0.8740284, -0.12872508, -0.0483144, 0.1389246, 0
2273, 812999087, 0.48580068, 0.0050280755, 0.010939112, -0.873989, -0.1435258, -0.03602645, 0.12759876, 0
2276, 813049088, 0.4858443, 0.0050598187, 0.010893831, -0.873965, -0.1465775, -0.037714403, 0.12501717, 0
2279, 813099089, 0.48589835, 0.0050892583, 0.010846081, -0.87393546, -0.13329734, -0.034499776, 0.13842678, 0
2281, 813132423, 0.48594162, 0.0051164124, 0.010821455, -0.8739115, -0.1303265, -0.032278378, 0.1251545, 0
2284, 813182424, 0.48598796, 0.005159767, 0.010785081, -0.873886, -0.1327826, -0.045959327, 0.124025345, 0
2287, 813232425, 0.48603278, 0.005202018, 0.010727303, -0.8738616, -0.13252139, -0.036489327, 0.12919044, 0
2290, 813282426, 0.48606902, 0.005242298, 0.0106893955, -0.8738416, -0.1339587, -0.03331458, 0.15646839, 0
2292, 813315760, 0.4860947, 0.005264646, 0.01066938, -0.8738273, -0.13768421, -0.052634753, 0.12376118, 0
2295, 813365761, 0.48615792, 0.0053001125, 0.010645951, -0.87379235, -0.14578654, -0.04516547, 0.13812923, 0
2298, 813415762, 0.4861876, 0.0053226342, 0.010601178, -0.8737762, -0.13766725, -0.036330417, 0.13799858, 0
2302, 813482430, 0.48625994, 0.005363738, 0.010561758, -0.87373614, -0.13238166, -0.047150094, 0.14238358, 0
2304, 813515764, 0.48629802, 0.00538187, 0.010546683, -0.873715, -0.12717432, -0.026407037, 0.1213274, 0
2307, 813565765, 0.48634356, 0.005385481, 0.010507405, -0.87369007, -0.14470646, -0.039388612, 0.1200552, 0
2310, 813615766, 0.48639587, 0.005414553, 0.010464966, -0.8736613, -0.15487573, -0.044196934, 0.12034893, 0
2313, 813665767, 0.48644668, 0.0054428545, 0.01041792, -0.87363344, -0.14637102, -0.036758423, 0.12380409, 0
2315, 813699101, 0.4864733, 0.0054552294, 0.010410363, -0.87361854, -0.13818657, -0.029229997, 0.14305782, 0
2318, 813749102, 0.48653167, 0.0054910234, 0.010375186, -0.8735863, -0.1499306, -0.040584393, 0.13399982, 0
2321, 813799103, 0.4865667, 0.0055218823, 0.010333149, -0.87356704, -0.14311163, -0.031249102, 0.13082027, 0
2323, 813832437, 0.48658848, 0.0055609546, 0.010311182, -0.873555, -0.14380111, -0.04210782, 0.14172363, 0
2326, 813882438, 0.48663127, 0.0055777775, 0.010277871, -0.8735316, -0.16197406, -0.02670015, 0.14157772, 0
2330, 813949106, 0.48669738, 0.0056364834, 0.010232945, -0.87349474, -0.14071205, -0.022958571, 0.10976887, 0
2333, 813999107, 0.4867445, 0.0056617637, 0.010209703, -0.8734686, -0.14214127, -0.03340516, 0.13241959, 0
2335, 814032441, 0.4867686, 0.005670794, 0.010187041, -0.87345546, -0.14550722, -0.017229853, 0.12449169, 0
2338, 814082442, 0.48681945, 0.0057051755, 0.010162504, -0.87342703, -0.15230116, -0.03607001, 0.13728046, 0
2341, 814132443, 0.4868731, 0.005604838, 0.010051463, -0.87339914, -0.14309092, -0.014833921, 0.13595295, 0
2344, 814182444, 0.4869411, 0.005575159, 0.0099753905, -0.8733624, -0.15788217, -0.030841686, 0.11016941, 0
2346, 814215778, 0.48698676, 0.0055503673, 0.0099284835, -0.8733376, -0.1644912, -0.044011813, 0.09069061, 0
2349, 814265779, 0.4870254, 0.005668042, 0.009997534, -0.87331456, -0.1758509, -0.10824766, 0.14978409, 0
2352, 814315780, 0.48706844, 0.0057852278, 0.010058409, -0.873289, -0.15486719, -0.03653906, 0.14147854, 0
2354, 814349114, 0.48709446, 0.0059326217, 0.010132003, -0.87327254, -0.15013747, -0.04293637, 0.1347475, 0
2357, 814399115, 0.48713356, 0.0062822704, 0.010340046, -0.87324595, -0.14577222, 0.06534043, 0.06438255, 0
2360, 814449116, 0.48716486, 0.009579612, 0.013027129, -0.87316257, -0.1798395, -0.0859259, 0.13591385, 0
2362, 814482450, 0.48718926, 0.0126134595, 0.015537692, -0.87306947, -0.1420253, 0.09508867, 0.10434532, 0
2365, 814532451, 0.48722547, 0.01336753, 0.01613128, -0.8730273, -0.18533373, -0.09633845, 0.14270306, 0
2368, 814582452, 0.48725536, 0.013864825, 0.016527211, -0.8729953, -0.155739, -0.01694377, 0.13058281, 0
2371, 814632453, 0.48727754, 0.013795329, 0.01639976, -0.8729863, -0.15779135, -0.011414894, 0.12529755, 0
2373, 814665787, 0.48728627, 0.01292124, 0.015573731, -0.87301, -0.14106937, 0.0717993, 0.09283829, 0
2376, 814715788, 0.48306692, 0.014320335, 0.016465623, -0.8753137, 0.38307083, 1.8204126, 0.15926933, 0
2379, 814765789, 0.45525876, 0.014810281, 0.015648365, -0.8901007, -0.60563064, 0.13112715, 0.24038982, 0
2381, 814799123, 0.42826658, 0.015548312, 0.015192882, -0.90339315, -0.07424816, 1.013153, -0.019014359, 0
2384, 814849124, 0.37947053, 0.016889682, 0.014500751, -0.9249381, -0.07366476, 0.17605677, 0.36792946, 0
2387, 814899125, 0.32483852, 0.017948996, 0.013534887, -0.94550437, -0.5751148, -0.51378244, 0.20125294, 0
2389, 814932459, 0.28412876, 0.018452363, 0.0126156015, -0.95852757, 0.5916347, 0.22755554, 0.032669067, 0
2392, 814982460, 0.20914823, 0.018682074, 0.010706754, -0.977649, 0.7596653, -0.293861, 0.39595985, 0
2395, 815032461, 0.13193846, 0.019286728, 0.009137409, -0.9910302, 0.19501807, -0.65900344, 0.4323244, 0
2398, 815082462, 0.057494346, 0.020320423, 0.007592512, -0.9981121, 0.5473078, -0.40335044, 0.17825508, 0
2400, 815115796, 0.0053966194, 0.021810677, 0.0066622775, -0.99972737, -0.20780605, -1.1936574, 0.75644684, 0
2403, 815165797, -0.07121965, 0.018831097, 0.0046099545, -0.9972742, -1.6260599, -0.024082571, 0.12948418, 0
2406, 815215798, -0.13097268, 0.016761262, 0.0036573084, -0.99123967, -0.01964072, -0.7428445, 0.14849567, 0
2410, 815282466, -0.1834508, 0.016254507, 0.0030983079, -0.9828917, -0.070731334, 0.5292731, 0.09284592, 0
2412, 815315800, -0.185495, 0.016394636, 0.0030123729, -0.9825059, -0.23655982, -0.29261905, 0.08241463, 0
2415, 815365801, -0.18471453, 0.016364658, 0.0029235517, -0.9826537, -0.72647727, 0.69375515, 0.123784065, 0
2418, 815415802, -0.1806261, 0.016417075, 0.0028685862, -0.9834127, 0.41820943, -0.67601174, 0.1365509, 0
2420, 815449136, -0.17900528, 0.016435698, 0.0028217277, -0.9837089, 0.035273626, 0.34520903, 0.21393108, 0
2423, 815499137, -0.17577001, 0.016361024, 0.0028025662, -0.9842934, 0.0081098415, 0.22860776, 0.14489079, 0
2426, 815549138, -0.17407563, 0.016148843, 0.0027805832, -0.984598, -0.11336893, 0.18123585, 0.14013386, 0
2429, 815599139, -0.17383063, 0.016175708, 0.0027457052, -0.98464096, -0.11107957, 0.12883843, 0.23887348, 0
2431, 815632473, -0.17380145, 0.01622818, 0.0027311812, -0.9846452, -0.121670574, 0.14105068, 0.11718464, 0
2434, 815682474, -0.17374246, 0.01620886, 0.0026830058, -0.9846561, -0.085350424, 0.13147835, 0.15392685, 0
2438, 815749142, -0.1736759, 0.016202038, 0.0026220884, -0.9846681, -0.10292571, 0.13029352, 0.12848282, 0
2441, 815799143, -0.17361376, 0.016188364, 0.0025773842, -0.98467946, -0.10384027, 0.14150083, 0.12190056, 0
2443, 815832477, -0.17356986, 0.016177408, 0.0025640968, -0.9846874, -0.10763703, 0.14943436, 0.13450527, 0
2446, 815882478, -0.17351064, 0.016164966, 0.0025278565, -0.9846981, -0.087607756, 0.14492303, 0.12063217, 0
2449, 815932479, -0.17346036, 0.016179146, 0.002477649, -0.9847069, -0.098706126, 0.14993511, 0.13906765, 0
2452, 815982480, -0.17341624, 0.016189633, 0.0024584644, -0.9847145, -0.09201886, 0.15571658, 0.15246487, 0
2454, 816015814, -0.17338946, 0.016185213, 0.0024276208, -0.9847194, -0.08837641, 0.15724607, 0.12399006, 0
2457, 816065815, -0.17332363, 0.01616186, 0.0024115364, -0.9847313, -0.095068306, 0.1398991, 0.1286192, 0
2460, 816115816, -0.17326504, 0.016169833, 0.002380631, -0.9847415, -0.099313974, 0.15789507, 0.14225674, 0
2462, 816149150, -0.17322916, 0.016144741, 0.0023580063, -0.9847483, -0.08902043, 0.15327553, 0.14949322, 0
2466, 816215818, -0.17316046, 0.01612612, 0.0023055815, -0.984761, -0.10681635, 0.1562372, 0.11814499, 0
2469, 816265819, -0.17312539, 0.01610437, 0.0022673702, -0.98476756, -0.096114814, 0.16308326, 0.12224674, 0
2472, 816315820, -0.17305923, 0.016093954, 0.0022313162, -0.9847795, -0.09592771, 0.15498927, 0.13505077, 0
2474, 816349154, -0.17302947, 0.01608527, 0.0022155056, -0.9847848, -0.08817137, 0.14996395, 0.13151646, 0
2477, 816399155, -0.17296454, 0.016080763, 0.002192793, -0.9847962, -0.0973255, 0.15995626, 0.14213848, 0
2480, 816449156, -0.17290655, 0.016079312, 0.0021620179, -0.98480666, -0.11358294, 0.15638241, 0.13687038, 0
2483, 816499157, -0.1728338, 0.016068893, 0.0021339771, -0.98481953, -0.093379796, 0.15924744, 0.1230793, 0
2485, 816532491, -0.1727853, 0.01607253, 0.0021097017, -0.9848282, -0.09030165, 0.14961831, 0.12182331, 0
2488, 816582492, -0.17271662, 0.016034588, 0.0020873477, -0.98484087, -0.0821906, 0.16321638, 0.13289261, 0
2491, 816632493, -0.17264536, 0.016026897, 0.0020549046, -0.9848535, -0.10340024, 0.15083857, 0.14290333, 0
2493, 816665827, -0.17262803, 0.015999155, 0.0020390414, -0.98485696, -0.11117718, 0.16881344, 0.13081264, 0
2496, 816715828, -0.17257477, 0.015978351, 0.0020154803, -0.9848668, -0.096727975, 0.15509395, 0.13137436, 0
2499, 816765829, -0.1725292, 0.015964447, 0.0019929213, -0.984875, -0.08219419, 0.16345693, 0.13182831, 0
2501, 816799163, -0.17251012, 0.015953941, 0.001962251, -0.98487866, -0.10755792, 0.16344361, 0.123085976, 0
2504, 816849164, -0.17245375, 0.01594543, 0.0019549013, -0.9848887, -0.08982267, 0.16286245, 0.14228916, 0
2507, 816899165, -0.17238763, 0.015860733, 0.0019385946, -0.9849016, -0.08266987, 0.15781896, 0.11380577, 0
2510, 816949166, -0.17231953, 0.015848637, 0.0018968523, -0.9849138, -0.09089494, 0.15676221, 0.13100338, 0
2512, 816982500, -0.17227572, 0.01584132, 0.0018825502, -0.98492146, -0.10480636, 0.17053083, 0.12577438, 0
2515, 817032501, -0.17222188, 0.015826387, 0.0018554676, -0.9849313, -0.09147555, 0.15956281, 0.12745762, 0
2518, 817082502, -0.17216721, 0.015791392, 0.0018319004, -0.98494154, -0.08996441, 0.16155067, 0.14540482, 0
2520, 817115836, -0.17212342, 0.015764965, 0.0018138521, -0.9849496, -0.08126117, 0.17233737, 0.150033, 0
2523, 817165837, -0.1720688, 0.015761135, 0.0017715242, -0.98495936, -0.10546857, 0.15199694, 0.14357567, 0
2526, 817215838, -0.17200834, 0.015819343, 0.0017345934, -0.98496884, -0.074776515, 0.16231292, 0.14667702, 0
2530, 817282506, -0.1719564, 0.016241616, 0.0016932768, -0.9849712, -0.12089867, 0.16634946, 0.15245438, 0
2533, 817332507, -0.17188755, 0.01796367, 0.0016824919, -0.98495334, -0.1015439, 0.16546172, 0.114590645, 0
2535, 817365841, -0.17516088, 0.019395834, 0.0016420614, -0.98434937, -0.3725599, 0.11616847, 0.16638565, 0
2538, 817415842, -0.19035776, 0.016723124, 0.0014048317, -0.9815734, -0.12955053, 0.2382985, 0.14578056, 0
2541, 817465843, -0.20407361, 0.016406516, 0.0012495492, -0.9788193, 0.007819925, 0.16475776, 0.14475346, 0
2543, 817499177, -0.2107254, 0.01687466, 0.0011469637, -0.977401, -0.23308286, 0.12988818, 0.15459633, 0
2547, 817565845, -0.23894168, 0.022577643, 4.8504444E-4, -0.9707734, 0.061077163, 0.172853, 0.04078293, 0
2550, 817615846, -0.2661736, 0.016917596, 5.019562E-4, -0.9637787, 0.40465006, -0.023345701, 0.17205524, 0
2554, 817682514, -0.32046622, 0.018294116, -1.8856023E-4, -0.9470854, 1.0413103, -0.06213518, 0.19998264, 0
2557, 817732515, -0.3881586, 0.01787559, -6.600199E-4, -0.9214212, -0.5439584, -0.02138134, 0.20688057, 0
2560, 817782516, -0.46192497, 0.0193904, -0.0017174825, -0.88670766, -0.978122, -0.065829806, 0.22282887, 0
2562, 817815850, -0.51618147, 0.018694574, -0.0017281967, -0.85627586, -0.78999406, 1.2512984, -0.035518646, 0
2565, 817865851, -0.5980979, 0.01860433, -0.0024290325, -0.80120593, -0.25918296, -0.4688381, 0.18534184, 0
2568, 817915852, -0.6805351, 0.018449659, -0.0032669422, -0.73247856, -1.1507523, 0.8411158, 0.13697052, 0
2570, 817949186, -0.72752994, 0.018111063, -0.003821509, -0.685829, 0.40720123, 2.9117196, 0.21563625, 0
2573, 817999187, -0.7812005, 0.017681196, -0.0043563456, -0.6240176, -0.80291915, -0.35381278, 0.22875404, 0
2577, 818065855, -0.8356528, 0.01712832, -0.0054978887, -0.5489671, 0.35721114, 0.7704945, 0.013770103, 0
2580, 818115856, -0.8589529, 0.016845724, -0.006148129, -0.51174426, -0.097099535, -0.020383809, 0.061701775, 0
2582, 818149190, -0.8676686, 0.016627904, -0.006290342, -0.49682912, 0.46936017, -0.28699532, 0.07673359, 0
2585, 818199191, -0.8712633, 0.016587425, -0.00662845, -0.49049497, 0.3622747, -0.22324626, 0.13350964, 0
2588, 818249192, -0.87085366, 0.01844889, -0.008919941, -0.49111918, -1.1652215, 0.64374673, 0.13159943, 0
2591, 818299193, -0.86810714, 0.022833662, -0.014095749, -0.49565512, 0.07354384, 0.12514089, 0.0299263, 0
2593, 818332527, -0.8640421, 0.022869283, -0.014014922, -0.5027083, 0.1803773, 0.31214467, 0.15719986, 0
2596, 818382528, -0.8584937, 0.022966966, -0.013905622, -0.51212466, 0.46158308, -0.38275242, 0.12735271, 0
2599, 818432529, -0.854675, 0.019438367, -0.009935069, -0.5187081, -0.03265643, 0.3954118, 0.20516777, 0
2601, 818465863, -0.85121596, 0.020474842, -0.010927625, -0.52430606, 0.5914972, -0.049065508, 0.087926865, 0
2605, 818532531, -0.84224606, 0.023486514, -0.013756427, -0.5384094, -0.0078818565, -0.06063409, -0.04561329, 0
2608, 818582532, -0.8369211, 0.023316784, -0.013515701, -0.5466632, 0.18027331, 0.14356054, 0.13950539, 0
2611, 818632533, -0.83484966, 0.02315257, -0.0132831, -0.5498342, 0.042116206, 0.20950367, 0.09000301, 0
2614, 818682534, -0.8347995, 0.023209251, -0.013397603, -0.5499049, 0.1238214, 0.09208609, 0.12962055, 0
2616, 818715868, -0.8347789, 0.02312511, -0.013364369, -0.5499406, 0.12942429, 0.12511604, 0.13760567, 0
2619, 818765869, -0.8346581, 0.02310193, -0.013414353, -0.550124, 0.20780183, 0.42509577, 0.14664459, 0
2622, 818815870, -0.8340413, 0.02301211, -0.013278597, -0.5510654, 0.1262921, 0.016864458, 0.20992851, 0
2624, 818849204, -0.8333016, 0.023420267, -0.013106678, -0.55217046, 0.18813449, -0.5057804, -0.13720608, 0
2627, 818899205, -0.8328689, 0.022429476, -0.012654238, -0.5528745, 0.18521427, -0.24601182, 0.05556965, 0
2630, 818949206, -0.83042055, 0.022242272, -0.012516945, -0.55655575, 0.13760802, 0.13356723, 0.20060253, 0
2632, 818982540, -0.82888335, 0.022784982, -0.013013801, -0.5588093, 0.12642172, 0.022479076, 0.032949448, 0
2635, 819032541, -0.82740515, 0.021404278, -0.011740273, -0.5610783, 0.26756665, 0.114867784, 0.10459328, 0
2638, 819082542, -0.82651347, 0.022407876, -0.012740936, -0.56233007, -0.043433186, 0.23778336, 0.117014885, 0
2641, 819132543, -0.82642454, 0.022736987, -0.013068656, -0.56244016, 0.16511725, 0.106854044, 0.09654045, 0
2643, 819165877, -0.8266167, 0.022686403, -0.013000769, -0.5621611, -0.04552634, -0.2301926, 0.09388065, 0
2646, 819215878, -0.8266734, 0.016303293, -0.0068107876, -0.5624082, 0.18906254, -0.67788035, -0.36403942, 0
2649, 819265879, -0.8265908, 0.015928732, -0.006120719, -0.5625483, 0.09794482, 0.011359927, 0.17579746, 0
2651, 819299213, -0.8265834, 0.01596021, -0.0062724752, -0.5625565, 0.13390791, 0.102567695, 0.11227894, 0
2654, 819349214, -0.82654834, 0.015888674, -0.0062733274, -0.56261003, 0.14215931, 0.09156426, 0.14315224, 0
2657, 819399215, -0.8265217, 0.015818158, -0.0062813507, -0.5626511, 0.12588577, 0.1014191, 0.13671112, 0
2659, 819432549, -0.82650036, 0.01579344, -0.0062870774, -0.5626831, 0.146713, 0.083991855, 0.1325512, 0
2662, 819482550, -0.82647026, 0.015762413, -0.006294795, -0.5627279, 0.13677666, 0.10145087, 0.13309193, 0
2665, 819532551, -0.8264398, 0.015721621, -0.00631796, -0.5627736, 0.14227402, 0.09287274, 0.13242912, 0
2668, 819582552, -0.82641006, 0.015675439, -0.0063115656, -0.5628186, 0.13715054, 0.0977075, 0.158535, 0
2670, 819615886, -0.82638294, 0.015653377, -0.006327081, -0.56285906, 0.13610229, 0.090545684, 0.11774731, 0
2673, 819665887, -0.8263591, 0.015607017, -0.0063342853, -0.5628953, 0.13693337, 0.09475793, 0.14561367, 0
2676, 819715888, -0.826326, 0.015571582, -0.006332539, -0.5629446, 0.14964655, 0.10419226, 0.14020061, 0
2678, 819749222, -0.826307, 0.015535499, -0.0063375887, -0.56297344, 0.13976397, 0.09834229, 0.13243103, 0
2681, 819799223, -0.82628644, 0.015273515, -0.006425253, -0.56300986, 0.15379356, 0.10463471, 0.12843037, 0
2685, 819865891, -0.82621926, 0.015380391, -0.0063972967, -0.5631057, 0.15622558, 0.092266805, 0.11455917, 0
2688, 819915892, -0.8261903, 0.015360566, -0.0063888533, -0.56314886, 0.14583261, 0.09908857, 0.13820076, 0
2690, 819949226, -0.8261704, 0.015341101, -0.006380972, -0.5631788, 0.16129732, 0.086511955, 0.13043213, 0
2693, 819999227, -0.82613814, 0.015261733, -0.006388722, -0.5632282, 0.14941522, 0.10857338, 0.1054678, 0
2696, 820049228, -0.82611275, 0.015209149, -0.006403918, -0.56326663, 0.15026869, 0.100093864, 0.11920452, 0
2699, 820099229, -0.82618856, 0.015449672, -0.0070905183, -0.56314063, 0.1760851, 0.09313457, 0.036307335, 0
2701, 820132563, -0.82617867, 0.015266307, -0.0068932986, -0.56316257, 0.15708692, 0.057903107, 0.11469364, 0
2704, 820182564, -0.8263649, 0.015074718, -0.0065250476, -0.5628989, 0.14668638, 0.17040172, 0.059189796, 0
2707, 820232565, -0.8321755, 0.015072059, -0.0066840644, -0.5542709, 0.19973251, 0.049315695, 0.14306831, 0
2711, 820299233, -0.8528907, 0.01473799, -0.0071021183, -0.5218369, 0.020819018, 0.47676966, 0.22960472, 0
2715, 820365901, -0.8838285, 0.014409697, -0.007492051, -0.46753323, 0.5602069, -0.34674308, 0.118385315, 0
2717, 820399235, -0.9012286, 0.015370749, -0.009585842, -0.43297, 0.09519446, 0.5590615, 0.08438587, 0
2720, 820449236, -0.925533, 0.019219398, -0.017285382, -0.37778893, 0.26375774, 0.10184687, -0.18464279, 0
2723, 820499237, -0.9471477, 0.019333448, -0.019552093, -0.31962323, 0.25033256, 0.24926066, 0.23841572, 0
2727, 820565905, -0.97096, 0.017931128, -0.020891499, -0.23766112, 0.70080835, -0.33891582, 0.14548492, 0
2730, 820615906, -0.9858937, 0.016839929, -0.022668283, -0.1649853, -0.08690497, 0.44428855, 0.08991051, 0
2732, 820649240, -0.99320245, 0.0159667, -0.023549499, -0.11288776, -0.24486081, -0.40008125, 0.007733345, 0
2735, 820699241, -0.998968, 0.0141543895, -0.022830645, -0.036683585, 0.47054455, -0.51733345, 0.2180376, 0
2738, 820749242, -0.99930805, 0.012815897, -0.023504626, 0.025901187, -0.24293841, -0.27930325, 0.24533463, 0
2740, 820782576, -0.99762464, 0.011925738, -0.024057368, 0.063469164, -0.07475057, -0.16726671, 0.32143688, 0
2744, 820849244, -0.99128056, 0.010367957, -0.024254842, 0.12911728, -0.119863436, -0.30676702, 0.20116997, 0
2747, 820899245, -0.9846232, 0.009457408, -0.024893703, 0.17266224, 0.010597588, -0.1692955, 0.14636612, 0
2750, 820949246, -0.9785689, 0.008540529, -0.025172578, 0.20420629, 0.18372336, 0.019389309, 0.066617966, 0
2753, 820999247, -0.9760533, 0.008060937, -0.025308102, 0.21591309, 0.3918303, 0.36534035, 0.16534615, 0
2755, 821032581, -0.97602963, 0.008010554, -0.02531675, 0.21602157, 0.0862571, -0.25014985, 0.1296854, 0
2758, 821082582, -0.976231, 0.007838521, -0.025182141, 0.21513209, 0.032485165, -0.34711134, 0.11353779, 0
2761, 821132583, -0.97658116, 0.008228726, -0.009090058, 0.21480998, 1.020533, -0.29488525, 0.32357788, 0
2763, 821165917, -0.9766192, 0.007925165, -0.009700947, 0.21462148, 0.26217026, -0.14563705, 0.0185318, 0
2766, 821215918, -0.9766213, 0.007758288, -0.01020275, 0.21459438, 0.07671947, -0.1398263, 0.0443182, 0
2769, 821265919, -0.9766347, 0.0076968544, -0.010179103, 0.21453688, 0.08560418, -0.122347124, 0.09173393, 0
2771, 821299253, -0.976643, 0.0076606954, -0.010198718, 0.21449889, 0.070991196, -0.10632594, 0.1214056, 0
2774, 821349254, -0.97665477, 0.0075917663, -0.010169564, 0.21444903, 0.08975868, -0.11548641, 0.13886452, 0
2777, 821399255, -0.97666866, 0.0075302264, -0.010173382, 0.21438842, 0.08979901, -0.12522087, 0.10428715, 0
2780, 821449256, -0.97668076, 0.007482564, -0.010172664, 0.21433425, 0.08027726, -0.12419061, 0.12590599, 0
2782, 821482590, -0.97668755, 0.007446945, -0.010184653, 0.2143041, 0.081544444, -0.13737817, 0.13162613, 0
2785, 821532591, -0.97670287, 0.007391817, -0.010174731, 0.21423712, 0.07886057, -0.1241712, 0.12764263, 0
2788, 821582592, -0.97671705, 0.007336364, -0.01014806, 0.21417558, 0.088321395, -0.12342964, 0.1347456, 0
2790, 821615926, -0.97672325, 0.00730184, -0.010152016, 0.21414793, 0.08337567, -0.122103564, 0.12695312, 0
2793, 821665927, -0.976736, 0.007245371, -0.010136166, 0.21409257, 0.09608488, -0.12973511, 0.13255024, 0
2796, 821715928, -0.97674745, 0.007182748, -0.0101383645, 0.21404211, 0.078149624, -0.13085692, 0.14624977, 0
2798, 821749262, -0.97675335, 0.0071514887, -0.0101386905, 0.21401677, 0.092824, -0.12556824, 0.10676861, 0
2801, 821799263, -0.9767603, 0.0071034287, -0.01011815, 0.21398742, 0.08066867, -0.1324718, 0.12846756, 0
2804, 821849264, -0.9767738, 0.007055339, -0.010104729, 0.21392816, 0.080141604, -0.13493106, 0.14071274, 0
2807, 821899265, -0.97678655, 0.007002046, -0.010116147, 0.21387063, 0.08309759, -0.13832617, 0.13021183, 0
2809, 821932599, -0.9767951, 0.006958424, -0.01011696, 0.21383291, 0.09287225, -0.12446246, 0.10962391, 0
2812, 821982600, -0.9768074, 0.0069125104, -0.01010255, 0.21377955, 0.08357438, -0.13138402, 0.13048172, 0
2815, 822032601, -0.97682077, 0.00686518, -0.010081813, 0.21372099, 0.0998158, -0.13785344, 0.1494255, 0
2817, 822065935, -0.9768204, 0.0068374644, -0.010042123, 0.21372557, 0.01383233, -0.108067706, 0.14356136, 0
2820, 822115936, -0.9764409, 0.006755516, -0.010048788, 0.21545485, -0.6307696, 0.04552065, 0.1703701, 0
2824, 822182604, -0.9759521, 0.006643761, -0.010106421, 0.21765888, 0.07156998, -0.19035093, 0.13263321, 0
2827, 822232605, -0.9745635, 0.0065591233, -0.010033797, 0.22380033, 0.14283328, -0.4756938, 0.15055275, 0
2830, 822282606, -0.9693387, 0.006302491, -0.010201701, 0.24544409, 0.2326241, -0.28591883, 0.21298218, 0
2832, 822315940, -0.963538, 0.0061248327, -0.010439266, 0.2673053, 0.17706178, 0.14227146, 0.21802711, 0
2835, 822365941, -0.9527523, 0.0057697264, -0.010795457, 0.30350858, 0.089926146, -0.29845312, 0.18645096, 0
2838, 822415942, -0.9398008, 0.0053641447, -0.010932889, 0.34151208, 0.0772545, -0.21084693, 0.27217674, 0
2840, 822449276, -0.9275179, 0.0050772335, -0.010998606, 0.37358862, -0.12851465, -0.17815788, -0.045578957, 0
2843, 822499277, -0.90008533, 0.00429812, -0.011441215, 0.43554708, -0.024123669, -0.10370177, 0.20897102, 0
2846, 822549278, -0.86228716, 0.0032333464, -0.011923034, 0.50627315, 0.7761303, -0.09914965, 0.08440781, 0
2848, 822582612, -0.834539, 0.0026747186, -0.0121332, 0.5508124, -1.0086347, -0.32111555, 0.013742447, 0
2852, 822649280, -0.77158225, 0.0012030599, -0.012628183, 0.6360063, -0.7381169, -0.3852712, 0.32780075, 0
2855, 822699281, -0.7176699, 1.5167182E-4, -0.012798798, 0.6962689, -0.54787815, -0.11008805, 0.024404526, 0
2858, 822749282, -0.6617137, -0.001350551, -0.013105907, 0.7496436, 1.0132324, -0.7931564, 0.9421358, 0
2861, 822799283, -0.61489874, -0.0020846669, -0.012948769, 0.7884996, -0.4574334, 0.8321798, 0.19436455, 0
2863, 822832617, -0.58396566, -0.0029360224, -0.012965552, 0.8116722, 0.686716, -0.1565716, 0.077067375, 0
2866, 822882618, -0.5450828, -0.0039478363, -0.012954534, 0.8382754, -0.16177371, -0.12032776, -0.1776247, 0
2869, 822932619, -0.517248, -0.0045342557, -0.012734827, 0.85573125, -0.5202692, 0.5840403, 0.25351143, 0
2871, 822965953, -0.50265115, -0.0048960503, -0.012628905, 0.86438566, -0.03310648, 0.17432831, 0.13561726, 0
2874, 823015954, -0.4841962, -0.00547899, -0.012510248, 0.8748553, 0.1071786, -0.2653253, 0.16724873, 0
2877, 823065955, -0.4800255, -0.0054815933, -0.0123869525, 0.8771524, -0.369432, -0.29173353, 0.06497002, 0
2881, 823132623, -0.48011038, -0.0055933394, -0.012392966, 0.87710506, -0.11540769, -0.073140986, 0.11075878, 0
2884, 823182624, -0.47952285, -0.0057333983, -0.012455002, 0.87742454, -0.12931696, -0.05227655, 0.13785458, 0
2886, 823215958, -0.47955838, -0.005747392, -0.01241009, 0.8774058, -0.11784706, -0.055736803, 0.13561249, 0
2889, 823265959, -0.47924772, -0.005806027, -0.012367559, 0.8775756, -0.13752037, -0.050868943, 0.14078331, 0
2892, 823315960, -0.47874314, -0.0058584167, -0.012322963, 0.8778513, -0.12819858, -0.05829738, 0.13823986, 0
2894, 823349294, -0.47819358, -0.005881841, -0.012288276, 0.8781511, -0.12866592, -0.0593031, 0.130373, 0
2897, 823399295, -0.47771978, -0.0059305467, -0.0122559, 0.87840915, -0.1251991, -0.05197189, 0.14193535, 0
2900, 823449296, -0.47777125, -0.005986327, -0.012207632, 0.8783814, -0.118248045, -0.05414346, 0.1381712, 0
2902, 823482630, -0.4773631, -0.006006007, -0.012174972, 0.8786037, -0.14039704, -0.05731246, 0.122431755, 0
2905, 823532631, -0.47684246, -0.0060637775, -0.0121339215, 0.87888646, -0.14598417, -0.07240171, 0.11380482, 0
2908, 823582632, -0.47633553, -0.006108297, -0.0121014435, 0.8791615, -0.13045228, -0.04724019, 0.1259594, 0
2910, 823615966, -0.4760296, -0.0061414917, -0.012075109, 0.8793272, -0.1340176, -0.050957177, 0.119651794, 0
2913, 823665967, -0.47588962, -0.006153747, -0.012022128, 0.8794036, -0.14895467, -0.055181634, 0.13643646, 0
2916, 823715968, -0.47564018, -0.006193546, -0.011963657, 0.8795391, -0.13416599, -0.061154243, 0.14921951, 0
2919, 823765969, -0.47554585, -0.0062346063, -0.011931444, 0.87959015, -0.14279954, -0.059138495, 0.14102173, 0
2921, 823799303, -0.47532186, -0.006259311, -0.011907236, 0.8797115, -0.13261546, -0.051365536, 0.13931274, 0
2924, 823849304, -0.47523674, -0.00628857, -0.0118589075, 0.879758, -0.12873358, -0.054734312, 0.15784359, 0
2927, 823899305, -0.47502887, -0.0063147056, -0.011812808, 0.87987053, -0.14408606, -0.055317774, 0.12510872, 0
2929, 823932639, -0.47495022, -0.0063426583, -0.011798127, 0.879913, -0.14733477, -0.056858253, 0.12676239, 0
2932, 823982640, -0.47486877, -0.006366189, -0.011765335, 0.87995726, -0.1292185, -0.04480692, 0.13235474, 0
2935, 824032641, -0.47469634, -0.0063969214, -0.011752717, 0.8800503, -0.1453894, -0.0516345, 0.11775017, 0
2938, 824082642, -0.47475243, -0.00641897, -0.0117128, 0.8800203, -0.1476955, -0.054642692, 0.11510944, 0
2940, 824115976, -0.47455424, -0.0064364756, -0.01168789, 0.8801275, -0.15360871, -0.06338668, 0.11903286, 0
2943, 824165977, -0.4742766, -0.006451985, -0.011665385, 0.8802773, -0.14307788, -0.06274296, 0.13879871, 0
2946, 824215978, -0.47413903, -0.006487391, -0.011624417, 0.88035166, -0.14841393, -0.049480997, 0.119223595, 0
2948, 824249312, -0.47399622, -0.006487523, -0.01159501, 0.8804289, -0.14263256, -0.03736088, 0.112789154, 0
2951, 824299313, -0.47387037, -0.006501362, -0.01157065, 0.8804969, -0.15148853, -0.04916489, 0.12879086, 0
2954, 824349314, -0.47406906, -0.0065171663, -0.011539667, 0.88039035, -0.50801414, -1.1505408, 0.048226357, 0
2958, 824415982, -0.476436, -0.006532736, -0.01152285, 0.87911177, -0.06280217, 0.35526958, 0.14565277, 0
2962, 824482650, -0.4791865, -0.0064669177, -0.011477135, 0.8776165, -0.032618307, 0.3740278, 0.10558987, 0
2965, 824532651, -0.48278677, -0.0064473785, -0.011490796, 0.8756411, -0.07189506, 0.25243366, 0.13842678, 0
2967, 824565985, -0.48926958, -0.0075232843, -0.012504745, 0.87201285, 0.07414599, 0.38563082, 0.18080139, 0
2970, 824615986, -0.5094976, -0.0069152885, -0.012490547, 0.86035603, -0.12850477, 0.13318998, 0.30181217, 0
2973, 824665987, -0.5454451, -0.0050846217, -0.01175407, 0.83805126, -0.24317542, 0.1128574, 0.12748337, 0
2975, 824699321, -0.5785341, -0.0041230163, -0.011496637, 0.8155694, 0.95612293, 0.02355522, 0.008504868, 0
2978, 824749322, -0.6395562, -0.002643657, -0.011328218, 0.76865906, -0.041782826, 0.29724702, 0.23872471, 0
2981, 824799323, -0.70166487, -0.0010715537, -0.011135207, 0.7124222, -0.23253453, -0.18144758, 0.19312286, 0
2983, 824832657, -0.7443809, -1.07181666E-4, -0.010817561, 0.66767085, -1.4980154, 0.11300627, -0.038910866, 0
2986, 824882658, -0.80411255, 0.0013545433, -0.0101293875, 0.59439296, -0.509188, 0.25012267, 0.081591606, 0
2990, 824949326, -0.87451696, 0.0032214092, -0.009293486, 0.48489934, -1.1921831, -1.1882851, 0.22485161, 0
2993, 824999327, -0.91246593, 0.0043342593, -0.008465577, 0.40904728, -0.26596084, 0.605844, 0.2650242, 0
2996, 825049328, -0.93572915, 0.004999014, -0.008471735, 0.35258794, -0.25419065, -1.0959493, -0.115781784, 0
2998, 825082662, -0.94894534, 0.0053746025, -0.00881207, 0.31527826, -0.83681124, -0.5045737, 0.37134933, 0
3001, 825132663, -0.96662855, 0.0059584677, -0.010948309, 0.25588644, -0.6155441, -1.121067, -0.21847725, 0
3004, 825182664, -0.97843874, 0.0065774936, -0.0071343803, 0.20631954, -0.43661815, -0.114491224, 0.010107994, 0
3006, 825215998, -0.9817419, 0.0067401724, -0.007077643, 0.18997735, -0.2489869, -0.22772072, 0.16403389, 0
3009, 825265999, -0.9828691, 0.0068131424, -0.0071885292, 0.18404977, 0.20476243, 0.59609103, 0.15423012, 0
3012, 825316000, -0.9831882, 0.006846673, -0.0074051428, 0.18232776, 0.41110647, 0.4909595, 0.1192646, 0
3014, 825349334, -0.9841954, 0.006893213, -0.007343374, 0.17681222, 0.24319454, 0.46904284, 0.1542387, 0
3019, 825432669, -0.9860495, 0.0069678156, -0.007120874, 0.16616844, 0.24641412, -0.34497178, 0.15653038, 0
3021, 825466003, -0.98605776, 0.006964179, -0.0071168924, 0.16611911, 0.03948619, -0.119033374, 0.16261196, 0
3024, 825516004, -0.98606557, 0.0069613312, -0.0071401997, 0.16607213, 0.042196676, -0.15361613, 0.13680363, 0
3027, 825566005, -0.98607564, 0.0069686663, -0.0072477036, 0.16600782, 0.056000806, -0.13014355, 0.11117935, 0
3029, 825599339, -0.9860806, 0.006975563, -0.007318137, 0.16597486, 0.06294123, -0.13411795, 0.16903305, 0
3032, 825649340, -0.9860892, 0.006958264, -0.007340837, 0.16592237, 0.046145514, -0.13881046, 0.14363098, 0
3035, 825699341, -0.9861001, 0.0069532394, -0.0074327337, 0.16585456, 0.052478697, -0.14388639, 0.118291855, 0
3037, 825732675, -0.9861056, 0.006947536, -0.0074711805, 0.1658197, 0.05838994, -0.12877743, 0.14159966, 0
3040, 825782676, -0.98611444, 0.0069520827, -0.007546599, 0.1657624, 0.072601296, -0.13771199, 0.123654366, 0
3043, 825832677, -0.9861222, 0.0069356617, -0.007581051, 0.16571602, 0.054030254, -0.13783287, 0.1457777, 0
3046, 825882678, -0.9861298, 0.0069480333, -0.007629348, 0.16566746, 0.056441765, -0.1227491, 0.14380455, 0
3048, 825916012, -0.98613584, 0.006940958, -0.007678856, 0.16563013, 0.06740665, -0.111558944, 0.20392895, 0
3051, 825966013, -0.986144, 0.006940836, -0.0077083292, 0.16557935, 0.05990351, -0.13937843, 0.11066437, 0
3054, 826016014, -0.9861555, 0.0069271796, -0.007736219, 0.16551, 0.051396694, -0.13698415, 0.12202835, 0
3056, 826049348, -0.9861623, 0.0069303056, -0.0077512106, 0.16546856, 0.068015985, -0.15598254, 0.12912369, 0
3059, 826099349, -0.98617053, 0.0069298167, -0.007792304, 0.16541767, 0.06976948, -0.13446699, 0.13050556, 0
3062, 826149350, -0.98617613, 0.006925582, -0.007839757, 0.16538252, 0.062342424, -0.14509642, 0.13298893, 0
3064, 826182684, -0.9861823, 0.006910084, -0.007860004, 0.16534527, 0.06862635, -0.13492535, 0.14794922, 0
3067, 826232685, -0.98618984, 0.0069133677, -0.007883117, 0.16529886, 0.061389454, -0.14115341, 0.12500858, 0
3070, 826282686, -0.98619735, 0.0069103404, -0.007895353, 0.1652533, 0.07176556, -0.13707516, 0.13829231, 0
3073, 826332687, -0.9862062, 0.0069001233, -0.0079167755, 0.16520007, 0.05723388, -0.14080021, 0.112257004, 0
3075, 826366021, -0.98621154, 0.0069062826, -0.0079179285, 0.16516745, 0.06312117, -0.13307464, 0.12997532, 0
3078, 826416022, -0.9862221, 0.006905927, -0.007930425, 0.16510385, 0.05993018, -0.13328393, 0.12647533, 0
3081, 826466023, -0.98622954, 0.0069045164, -0.007946168, 0.16505995, 0.05295781, -0.13213198, 0.1286068, 0
