sep=,
DeviceTag:,Xsens_5,,,,,,,,,,,,,,,,,
FirmwareVersion:,2.4.0,,,,,,,,,,,,,,,,,
AppVersion:,2022.0.1,,,,,,,,,,,,,,,,,
SyncStatus:,Synced,,,,,,,,,,,,,,,,,
OutputRate:,60Hz,,,,,,,,,,,,,,,,,
FilterProfile:,General,,,,,,,,,,,,,,,,,
Measurement Mode:,Sensor fusion Mode - Extended (Quaternion),,,,,,,,,,,,,,,,,
StartTime:,2020-11-25 10:46:50.655 +0100,,,,,,,,,,,,,,,,,
© Xsens Technologies B. V. 2005-2020,,,,,,,,,,,,,,,,,,,

PacketCounter,SampleTimeFine,Quat_W,Quat_X,Quat_Y,Quat_Z,FreeAcc_X,FreeAcc_Y,FreeAcc_Z,Status
1, 775131663, 0.9705731, 0.014042822, 0.0015802851, -0.24039182, -0.109513804, -0.30083266, 0.078840256, 0
2, 775148330, 0.97056955, 0.014051066, 0.0015771461, -0.24040602, -0.114365906, -0.3109197, 0.084239006, 0
3, 775164997, 0.97056854, 0.014050293, 0.0015727857, -0.24040966, -0.11760893, -0.30747923, 0.074025154, 0
4, 775181664, 0.97057635, 0.014056464, 0.0015641873, -0.24037771, -0.13129167, -0.31018898, 0.091724396, 0
5, 775198331, 0.97058195, 0.014066686, 0.0015707185, -0.24035494, -0.10585731, -0.30571687, 0.07889271, 0
6, 775214998, 0.97059524, 0.014066152, 0.0015769792, -0.24030115, -0.11681849, -0.2955448, 0.09033203, 0
7, 775231665, 0.97060144, 0.014067981, 0.0015656272, -0.24027602, -0.1294577, -0.3084644, 0.08735561, 0
8, 775248332, 0.9706098, 0.014070359, 0.0015640049, -0.24024217, -0.10905168, -0.2958164, 0.0809536, 0
9, 775264999, 0.9706167, 0.014076574, 0.0015602398, -0.24021383, -0.12371387, -0.30590174, 0.10011864, 0
10, 775281666, 0.9706181, 0.014082756, 0.0015639984, -0.24020746, -0.12415295, -0.31563118, 0.0723896, 0
11, 775298333, 0.97061455, 0.014088407, 0.0015551558, -0.24022143, -0.119714685, -0.3019834, 0.06947136, 0
12, 775315000, 0.9706205, 0.014093076, 0.001554645, -0.24019766, -0.12852575, -0.31450903, 0.09170437, 0
13, 775331667, 0.9706266, 0.014094512, 0.0015503521, -0.240173, -0.1257595, -0.30092135, 0.08737373, 0
14, 775348334, 0.9706325, 0.014115214, 0.0015463759, -0.24014802, -0.12450214, -0.30966, 0.07730484, 0
15, 775365001, 0.97064054, 0.014120622, 0.0015453062, -0.24011499, -0.1305857, -0.30294436, 0.084527016, 0
16, 775381668, 0.97064465, 0.014124167, 0.0015430922, -0.24009815, -0.12877595, -0.3160556, 0.074671745, 0
17, 775398335, 0.9706498, 0.014130944, 0.0015380643, -0.24007693, -0.13379242, -0.31525242, 0.07156563, 0
18, 775415002, 0.9706649, 0.014138297, 0.001541766, -0.2400152, -0.13077365, -0.31479454, 0.07511139, 0
19, 775431669, 0.9706617, 0.014146836, 0.0015474078, -0.2400276, -0.12130973, -0.3074013, 0.07962322, 0
20, 775448336, 0.97066647, 0.014153943, 0.0015456356, -0.24000782, -0.12115518, -0.3080166, 0.08284092, 0
21, 775465003, 0.97067225, 0.014167974, 0.0015469977, -0.239984, -0.12963733, -0.30230233, 0.07472134, 0
22, 775481670, 0.97067565, 0.014173625, 0.0015524601, -0.23997, -0.11146188, -0.3137084, 0.08287048, 0
23, 775498337, 0.97068083, 0.014182017, 0.0015532029, -0.23994796, -0.13534336, -0.30924365, 0.0634985, 0
24, 775515004, 0.97068393, 0.0141890375, 0.0015508456, -0.23993534, -0.12283509, -0.29970193, 0.08543301, 0
25, 775531671, 0.9706885, 0.01420253, 0.0015361299, -0.23991592, -0.11402852, -0.31093428, 0.09147644, 0
26, 775548338, 0.9706922, 0.0142125, 0.0015333986, -0.2399003, -0.113290034, -0.29732984, 0.098890305, 0
27, 775565005, 0.970702, 0.01422017, 0.0015403038, -0.23986024, -0.12387158, -0.30709878, 0.08439064, 0
28, 775581672, 0.9707034, 0.014227051, 0.0015351704, -0.23985459, -0.11422585, -0.30914482, 0.071219444, 0
29, 775598339, 0.97070765, 0.014224666, 0.0015382818, -0.23983693, -0.12257539, -0.30267975, 0.07290268, 0
30, 775615006, 0.97071296, 0.014237001, 0.00153939, -0.239815, -0.13077246, -0.31320876, 0.09639168, 0
31, 775631673, 0.970731, 0.014243057, 0.0015296481, -0.23974185, -0.117393054, -0.30923772, 0.07415104, 0
32, 775648340, 0.9707146, 0.014246207, 0.00153086, -0.23980813, -0.11043462, -0.31168282, 0.064759254, 0
33, 775665007, 0.9707196, 0.014239639, 0.0015320521, -0.23978841, -0.13399144, -0.3215096, 0.073287964, 0
34, 775681674, 0.9707277, 0.014235461, 0.001530548, -0.23975575, -0.10795343, -0.31274173, 0.059261322, 0
35, 775698341, 0.97072804, 0.014246901, 0.0015173525, -0.23975343, -0.1234699, -0.3047273, 0.06994057, 0
36, 775715008, 0.97073317, 0.014254962, 0.0015060815, -0.23973219, -0.12492338, -0.31953758, 0.07246113, 0
37, 775731675, 0.970733, 0.014267473, 0.0015090576, -0.23973215, -0.13222714, -0.30751768, 0.077708244, 0
38, 775748342, 0.9707374, 0.014272481, 0.001511482, -0.23971449, -0.1280512, -0.2970495, 0.07265282, 0
39, 775765009, 0.9707439, 0.014272979, 0.0015124308, -0.2396882, -0.118801855, -0.3032051, 0.08596039, 0
40, 775781676, 0.97075087, 0.014272884, 0.0015159933, -0.23965988, -0.117800824, -0.3118406, 0.08046436, 0
41, 775798343, 0.9707562, 0.014278004, 0.0015209044, -0.23963751, -0.12736462, -0.31320858, 0.09648132, 0
42, 775815010, 0.9707632, 0.014283614, 0.0015170381, -0.23960851, -0.12210743, -0.30282632, 0.08842754, 0
43, 775831677, 0.9707704, 0.014291625, 0.0015068809, -0.23957926, -0.12565264, -0.31929892, 0.058502197, 0
44, 775848344, 0.9707653, 0.01429576, 0.001501477, -0.2395997, -0.124292955, -0.31095073, 0.08341122, 0
45, 775865011, 0.9707705, 0.014296269, 0.0014977345, -0.23957895, -0.12649208, -0.3052691, 0.09451866, 0
46, 775881678, 0.97077966, 0.0143076135, 0.0014944536, -0.23954116, -0.12087734, -0.31885928, 0.07314873, 0
47, 775898345, 0.9707929, 0.014306632, 0.0014994149, -0.23948729, -0.12153981, -0.30774337, 0.09850788, 0
49, 775931679, 0.9708147, 0.0143222315, 0.0014955517, -0.23939823, -0.1277428, -0.31238315, 0.08732319, 0
50, 775948346, 0.97081655, 0.014333647, 0.0014851233, -0.23938952, -0.122960456, -0.3239022, 0.0936203, 0
51, 775965013, 0.9708204, 0.014335568, 0.0014780505, -0.2393742, -0.121956825, -0.3186927, 0.083930016, 0
53, 775998347, 0.9708273, 0.014350397, 0.0014706381, -0.23934549, -0.1244275, -0.31759304, 0.07699013, 0
54, 776015014, 0.9708309, 0.01435929, 0.0014709501, -0.23933023, -0.12771596, -0.31733748, 0.08636665, 0
55, 776031681, 0.9708353, 0.014367572, 0.0014793831, -0.23931184, -0.12780432, -0.313255, 0.075406075, 0
57, 776065015, 0.97084445, 0.014373381, 0.001483665, -0.23927416, -0.12043569, -0.31366512, 0.080062866, 0
58, 776081682, 0.9708529, 0.014382455, 0.001482825, -0.23923923, -0.13254856, -0.31498376, 0.078045845, 0
59, 776098349, 0.970862, 0.014394987, 0.0014884803, -0.2392016, -0.12903209, -0.30944812, 0.090761185, 0
62, 776148350, 0.97087985, 0.014410326, 0.0014895342, -0.23912853, -0.11251264, -0.299233, 0.10584736, 0
64, 776181684, 0.97088224, 0.014435403, 0.0014968102, -0.23911738, -0.11025649, -0.3087981, 0.098145485, 0
65, 776198351, 0.9708913, 0.014441881, 0.0014994224, -0.23907988, -0.1315774, -0.30318454, 0.07157326, 0
66, 776215018, 0.97089815, 0.014444148, 0.0014949841, -0.23905173, -0.12431026, -0.311777, 0.08660889, 0
68, 776248352, 0.9709002, 0.014463261, 0.0014929305, -0.23904243, -0.13567097, -0.30988047, 0.09081745, 0
69, 776265019, 0.9709051, 0.014471027, 0.0014927845, -0.2390221, -0.114584625, -0.32660127, 0.08954811, 0
70, 776281686, 0.9709109, 0.014466097, 0.0014909218, -0.23899876, -0.12375072, -0.31657583, 0.074736595, 0
72, 776315020, 0.9709236, 0.014469566, 0.0014736339, -0.23894711, -0.12301896, -0.31164616, 0.06766319, 0
73, 776331687, 0.9709319, 0.014474399, 0.0014608403, -0.23891324, -0.11999247, -0.30060273, 0.075273514, 0
74, 776348354, 0.97093874, 0.014480318, 0.0014588059, -0.23888484, -0.13149719, -0.32046098, 0.089217186, 0
77, 776398355, 0.970954, 0.014499842, 0.0014528289, -0.23882194, -0.1294532, -0.32006052, 0.07339668, 0
78, 776415022, 0.9709582, 0.014520752, 0.001458252, -0.23880379, -0.13578306, -0.32300544, 0.09345913, 0
80, 776448356, 0.9709767, 0.014541232, 0.0014633804, -0.23872727, -0.122383796, -0.31060803, 0.07471275, 0
81, 776465023, 0.9709851, 0.014550388, 0.0014620536, -0.23869221, -0.12768972, -0.33813262, 0.08327007, 0
82, 776481690, 0.9709934, 0.014557133, 0.0014612974, -0.23865828, -0.12241974, -0.31731462, 0.05614376, 0
84, 776515024, 0.9710012, 0.014556585, 0.0014639293, -0.23862638, -0.12605613, -0.32254413, 0.084080696, 0
85, 776531691, 0.9710018, 0.014569063, 0.0014624381, -0.23862289, -0.14128794, -0.31609425, 0.08734512, 0
86, 776548358, 0.97101384, 0.014580139, 0.0014693975, -0.23857316, -0.11446934, -0.31800362, 0.08178234, 0
88, 776581692, 0.97103, 0.01459392, 0.0014774149, -0.23850657, -0.13083486, -0.31140003, 0.08842564, 0
89, 776598359, 0.97104496, 0.0146082, 0.0014761204, -0.23844472, -0.13496889, -0.31767234, 0.07751274, 0
92, 776648360, 0.9710766, 0.014619104, 0.0014545264, -0.23831539, -0.12852886, -0.32878143, 0.08415413, 0
93, 776665027, 0.9710777, 0.014622196, 0.00145249, -0.23831129, -0.13436165, -0.32362458, 0.06674957, 0
95, 776698361, 0.9710852, 0.0146373585, 0.0014508626, -0.23827958, -0.11731113, -0.3239787, 0.09444809, 0
96, 776715028, 0.97109264, 0.01464493, 0.0014324872, -0.23824902, -0.12560315, -0.32595688, 0.07328987, 0
97, 776731695, 0.97109556, 0.014648812, 0.0014316599, -0.23823708, -0.13707577, -0.3203479, 0.083376884, 0
99, 776765029, 0.9710983, 0.014647333, 0.001416498, -0.23822556, -0.13425581, -0.31953344, 0.085401535, 0
100, 776781696, 0.9711068, 0.01465383, 0.0014189371, -0.23819067, -0.12008826, -0.31173956, 0.05866909, 0
101, 776798363, 0.97110724, 0.014661998, 0.0014178634, -0.23818839, -0.12266556, -0.3167047, 0.086582184, 0
103, 776831697, 0.9711143, 0.014676392, 0.0014270154, -0.2381587, -0.14857599, -0.3258607, 0.066306114, 0
104, 776848364, 0.9711203, 0.0146743925, 0.0014241308, -0.23813431, -0.14281699, -0.32166186, 0.080150604, 0
105, 776865031, 0.97112125, 0.014676464, 0.0014186818, -0.23813054, -0.13079919, -0.32091695, 0.08872604, 0
107, 776898365, 0.97112733, 0.01467683, 0.0014162324, -0.23810565, -0.13025104, -0.3035621, 0.08444595, 0
108, 776915032, 0.97113556, 0.01468514, 0.0014157451, -0.23807171, -0.12855104, -0.3323125, 0.08649349, 0
109, 776931699, 0.9711385, 0.014692146, 0.0014244033, -0.2380594, -0.13690683, -0.31678638, 0.091786385, 0
111, 776965033, 0.971133, 0.014707485, 0.0014236822, -0.23808043, -0.12630399, -0.3294623, 0.0964756, 0
112, 776981700, 0.971138, 0.0147115495, 0.001405777, -0.23805968, -0.13104995, -0.31507626, 0.08293247, 0
114, 777015034, 0.97115433, 0.014722282, 0.0013927973, -0.23799299, -0.11255566, -0.32129362, 0.08056545, 0
115, 777031701, 0.9711605, 0.0147223575, 0.0013936177, -0.2379678, -0.14150183, -0.32117358, 0.0812912, 0
116, 777048368, 0.97115654, 0.014730602, 0.0013893856, -0.23798321, -0.12107635, -0.3301822, 0.08685398, 0
119, 777098369, 0.9711707, 0.014745266, 0.0013962516, -0.23792447, -0.13407075, -0.32044986, 0.081279755, 0
120, 777115036, 0.97117734, 0.014750364, 0.0014032323, -0.23789719, -0.118122056, -0.31325862, 0.076192856, 0
122, 777148370, 0.97118145, 0.014762177, 0.0014041165, -0.23787966, -0.12390727, -0.330632, 0.07518005, 0
123, 777165037, 0.97118866, 0.014762739, 0.0013962208, -0.23785001, -0.13048147, -0.32943338, 0.07877731, 0
124, 777181704, 0.9711915, 0.0147758415, 0.0013961026, -0.23783754, -0.12007248, -0.32208747, 0.06850815, 0
126, 777215038, 0.9712065, 0.014794306, 0.001405813, -0.23777564, -0.135242, -0.32419136, 0.08294964, 0
127, 777231705, 0.9712121, 0.014799887, 0.0014132651, -0.23775218, -0.12320887, -0.33133096, 0.0749588, 0
128, 777248372, 0.97121435, 0.014816906, 0.0014153364, -0.23774143, -0.13368393, -0.3150831, 0.07858086, 0
130, 777281706, 0.97122824, 0.014835459, 0.001404479, -0.23768352, -0.133518, -0.31492016, 0.07130623, 0
131, 777298373, 0.97123295, 0.014846113, 0.0014032807, -0.2376639, -0.13255899, -0.3148003, 0.08215809, 0
134, 777348374, 0.9712592, 0.014859398, 0.0014246514, -0.23755594, -0.13381042, -0.319627, 0.075876236, 0
135, 777365041, 0.97126704, 0.014861469, 0.0014298846, -0.23752357, -0.12764536, -0.32242602, 0.0832243, 0
136, 777381708, 0.97126746, 0.014867359, 0.0014263395, -0.23752175, -0.12271632, -0.30920324, 0.087589264, 0
138, 777415042, 0.9712761, 0.014889742, 0.0014257821, -0.23748437, -0.116662905, -0.32825813, 0.080592155, 0
139, 777431709, 0.97128874, 0.014896867, 0.001426687, -0.23743245, -0.11681448, -0.32449952, 0.090628624, 0
140, 777448376, 0.9712962, 0.014896131, 0.0014234959, -0.23740195, -0.13296513, -0.31531933, 0.09649372, 0
142, 777481710, 0.9713053, 0.014898673, 0.0014183024, -0.23736452, -0.12625733, -0.3286084, 0.076934814, 0
143, 777498377, 0.9713136, 0.014901841, 0.0014360789, -0.2373308, -0.13999377, -0.3147832, 0.08787823, 0
145, 777531711, 0.9713297, 0.014910825, 0.0014348964, -0.23726374, -0.13236322, -0.31882402, 0.086779594, 0
146, 777548378, 0.97133696, 0.014918586, 0.0014374794, -0.23723367, -0.13196872, -0.32119083, 0.09439564, 0
149, 777598379, 0.971356, 0.014937708, 0.0014289466, -0.23715451, -0.14232567, -0.3325101, 0.09756756, 0
150, 777615046, 0.9713586, 0.014951334, 0.0014333018, -0.23714304, -0.12985665, -0.32538027, 0.068193436, 0
151, 777631713, 0.97136635, 0.014962233, 0.0014390352, -0.2371107, -0.12160397, -0.32401115, 0.09441471, 0
153, 777665047, 0.971382, 0.014970711, 0.0014312846, -0.23704588, -0.12911987, -0.3198191, 0.08115387, 0
154, 777681714, 0.97137547, 0.014980111, 0.0014319996, -0.23707214, -0.118672065, -0.32411614, 0.06518173, 0
155, 777698381, 0.97138065, 0.014981995, 0.001416723, -0.23705083, -0.13527542, -0.32037833, 0.07396126, 0
157, 777731715, 0.9713822, 0.014995281, 0.0014036513, -0.23704381, -0.12464095, -0.32775432, 0.088440895, 0
158, 777748382, 0.9713893, 0.014998105, 0.0013952191, -0.23701444, -0.13125691, -0.32149404, 0.083055496, 0
159, 777765049, 0.9713979, 0.0150065, 0.001387187, -0.23697893, -0.13158503, -0.31037894, 0.070521355, 0
161, 777798383, 0.97141224, 0.015017483, 0.0013880305, -0.23691945, -0.13730983, -0.31955665, 0.081832886, 0
163, 777831717, 0.971432, 0.015032623, 0.0013934461, -0.23683694, -0.12760274, -0.31323653, 0.07402897, 0
165, 777865051, 0.9714445, 0.015045993, 0.0013855777, -0.23678547, -0.12562886, -0.3175451, 0.08855152, 0
166, 777881718, 0.971443, 0.015047125, 0.0013861626, -0.23679143, -0.13769318, -0.3314657, 0.0927124, 0
167, 777898385, 0.9714506, 0.015060646, 0.001386265, -0.23675953, -0.14070542, -0.31821236, 0.07227516, 0
169, 777931719, 0.97147185, 0.015061791, 0.0013780235, -0.23667173, -0.13585134, -0.33289462, 0.0862875, 0
170, 777948386, 0.9714793, 0.015074419, 0.0013928286, -0.23664047, -0.13055074, -0.3312956, 0.09790707, 0
172, 777981720, 0.9714908, 0.015085665, 0.0013969538, -0.23659216, -0.12028773, -0.31065956, 0.07735729, 0
173, 777998387, 0.97149277, 0.015090387, 0.0013862236, -0.23658402, -0.12947126, -0.3184798, 0.09013176, 0
174, 778015054, 0.97149813, 0.01510208, 0.0013952912, -0.2365615, -0.13636263, -0.32660764, 0.090722084, 0
176, 778048388, 0.97150844, 0.015103268, 0.0013772934, -0.23651876, -0.13476756, -0.32292286, 0.09909725, 0
177, 778065055, 0.9715126, 0.015104938, 0.0013771746, -0.23650151, -0.13391043, -0.33000928, 0.09091854, 0
178, 778081722, 0.97151923, 0.01511834, 0.0013769845, -0.23647355, -0.12253131, -0.33431864, 0.074160576, 0
180, 778115056, 0.97153735, 0.015125685, 0.0013640746, -0.23639858, -0.13355161, -0.3130757, 0.07807827, 0
181, 778131723, 0.9715456, 0.015123669, 0.0013633618, -0.23636511, -0.13928376, -0.3042024, 0.08487129, 0
182, 778148390, 0.9715366, 0.0151288295, 0.0013616337, -0.23640187, -0.11800506, -0.30913338, 0.087197304, 0
184, 778181724, 0.9715466, 0.015136891, 0.0013722997, -0.23636009, -0.13236026, -0.32405862, 0.07418728, 0
185, 778198391, 0.97155166, 0.015148763, 0.001368897, -0.23633847, -0.12953481, -0.30868843, 0.06977463, 0
186, 778215058, 0.9715573, 0.015145342, 0.0013661876, -0.23631588, -0.12327481, -0.3219413, 0.082707405, 0
188, 778248392, 0.97156465, 0.015156433, 0.0013571597, -0.23628518, -0.12436518, -0.33132562, 0.05864048, 0
190, 778281726, 0.9715754, 0.015156631, 0.0013518493, -0.23624077, -0.13918833, -0.32068956, 0.07695675, 0
192, 778315060, 0.97159153, 0.015162167, 0.0013392427, -0.23617408, -0.13971767, -0.3257248, 0.08394718, 0
193, 778331727, 0.9715945, 0.015169427, 0.0013495098, -0.23616123, -0.12788641, -0.32126802, 0.08624554, 0
194, 778348394, 0.97159624, 0.015181683, 0.0013586382, -0.23615363, -0.13362318, -0.32378477, 0.091383934, 0
196, 778381728, 0.9716061, 0.015194438, 0.0013561997, -0.23611212, -0.12195861, -0.3281695, 0.09545326, 0
197, 778398395, 0.97160906, 0.015202441, 0.0013511763, -0.23609953, -0.124475904, -0.3382761, 0.07495117, 0
199, 778431729, 0.9716197, 0.015231201, 0.0013480531, -0.23605335, -0.13649754, -0.33004612, 0.07117462, 0
200, 778448396, 0.9716242, 0.0152460085, 0.0013503244, -0.23603408, -0.11765937, -0.3293675, 0.08733082, 0
201, 778465063, 0.9716296, 0.015247632, 0.0013464002, -0.23601179, -0.12489693, -0.3331956, 0.0972538, 0
203, 778498397, 0.9716396, 0.015251766, 0.0013407742, -0.23597068, -0.13652635, -0.3294404, 0.0705719, 0
205, 778531731, 0.9716482, 0.015259558, 0.0013414592, -0.23593447, -0.116291724, -0.32463166, 0.07143879, 0
207, 778565065, 0.97168624, 0.015265114, 0.0013443269, -0.23577738, -0.13292213, -0.33299306, 0.06738186, 0
208, 778581732, 0.9717053, 0.015268135, 0.0013490341, -0.23569874, -0.11690646, -0.33090094, 0.08143234, 0
209, 778598399, 0.971714, 0.015276579, 0.0013467768, -0.23566192, -0.122722596, -0.3412726, 0.09727764, 0
211, 778631733, 0.97172517, 0.015290749, 0.001330938, -0.23561506, -0.14164463, -0.33203453, 0.09165192, 0
212, 778648400, 0.971731, 0.015283834, 0.0013319378, -0.23559153, -0.12731765, -0.32889852, 0.0721817, 0
213, 778665067, 0.97172636, 0.015299944, 0.0013304962, -0.23560965, -0.13178703, -0.33632284, 0.06982517, 0
215, 778698401, 0.9717409, 0.015305508, 0.0013331925, -0.23554964, -0.123966224, -0.31912518, 0.08506489, 0
216, 778715068, 0.9717381, 0.015312857, 0.0013307788, -0.23556025, -0.12580986, -0.33540595, 0.08183956, 0
217, 778731735, 0.9717568, 0.015320534, 0.0013357907, -0.23548327, -0.13652562, -0.33776838, 0.08746433, 0
220, 778781736, 0.97177047, 0.015361094, 0.0013329467, -0.23542383, -0.12642711, -0.34133574, 0.093304634, 0
221, 778798403, 0.9717695, 0.0153602855, 0.0013418783, -0.23542798, -0.12896933, -0.3339312, 0.09754372, 0
223, 778831737, 0.97177213, 0.01536458, 0.0013284369, -0.2354168, -0.12566033, -0.34160015, 0.0760622, 0
224, 778848404, 0.97178125, 0.0153745515, 0.0013291694, -0.23537873, -0.12880267, -0.33712152, 0.072844505, 0
226, 778881738, 0.9717869, 0.015379462, 0.0013407321, -0.2353549, -0.11782371, -0.33520573, 0.10063362, 0
227, 778898405, 0.9717917, 0.015368296, 0.001329176, -0.23533572, -0.13734706, -0.32588923, 0.08104229, 0
228, 778915072, 0.97179794, 0.015381938, 0.001331133, -0.23530924, -0.12415906, -0.33329567, 0.073931694, 0
230, 778948406, 0.97180116, 0.01539523, 0.0013260791, -0.23529494, -0.12273759, -0.32770652, 0.064769745, 0
231, 778965073, 0.9718006, 0.015399409, 0.0013280332, -0.235297, -0.13848713, -0.32821724, 0.07011986, 0
232, 778981740, 0.97181344, 0.015400388, 0.0013216491, -0.23524396, -0.13063702, -0.32929096, 0.074481964, 0
235, 779031741, 0.97183365, 0.015423774, 0.0013009212, -0.23515886, -0.13252707, -0.33485395, 0.07629967, 0
236, 779048408, 0.97183186, 0.015429758, 0.0013073041, -0.23516573, -0.12999785, -0.32645643, 0.07919693, 0
238, 779081742, 0.97184217, 0.015447816, 0.0013129611, -0.23512234, -0.13468207, -0.30968016, 0.09364033, 0
239, 779098409, 0.9718459, 0.015459679, 0.0013113742, -0.23510554, -0.13351487, -0.3346348, 0.084028244, 0
240, 779115076, 0.9718501, 0.015461196, 0.0013024025, -0.23508802, -0.13578795, -0.33372197, 0.06341839, 0
242, 779148410, 0.9718649, 0.015467092, 0.0012833148, -0.23502699, -0.13564986, -0.33177033, 0.09615898, 0
243, 779165077, 0.97187537, 0.015471571, 0.0012735374, -0.23498324, -0.12684184, -0.3270105, 0.06852722, 0
244, 779181744, 0.97188044, 0.015471763, 0.0012657833, -0.23496234, -0.12558031, -0.3215194, 0.06357193, 0
246, 779215078, 0.9718953, 0.0154792005, 0.0012680584, -0.23490068, -0.135233, -0.3260175, 0.057362556, 0
247, 779231745, 0.9718987, 0.015486845, 0.0012790572, -0.23488638, -0.13816395, -0.32628277, 0.085954666, 0
248, 779248412, 0.9719038, 0.01548872, 0.0012786795, -0.2348646, -0.1330475, -0.33983475, 0.09727955, 0
250, 779281746, 0.9719233, 0.015503283, 0.0012730646, -0.23478293, -0.12976396, -0.32508886, 0.07822895, 0
251, 779298413, 0.97192806, 0.0155117605, 0.0012699612, -0.23476273, -0.1308186, -0.33086646, 0.06872845, 0
253, 779331747, 0.97194266, 0.015528446, 0.0012625554, -0.23470129, -0.126674, -0.34453622, 0.08461857, 0
254, 779348414, 0.9719482, 0.015536981, 0.001267095, -0.23467778, -0.12135855, -0.33376116, 0.05622101, 0
255, 779365081, 0.9719528, 0.015542796, 0.0012613654, -0.2346584, -0.13588865, -0.33382466, 0.06629181, 0
257, 779398415, 0.9719649, 0.015560019, 0.0012560418, -0.23460682, -0.13719778, -0.33633006, 0.08829498, 0
258, 779415082, 0.9719667, 0.015568044, 0.0012487692, -0.23459914, -0.13153501, -0.34188062, 0.081674576, 0
259, 779431749, 0.97197086, 0.015574291, 0.0012499775, -0.23458149, -0.12685952, -0.35483816, 0.09142876, 0
262, 779481750, 0.97199005, 0.015585897, 0.0012530463, -0.23450114, -0.13111015, -0.34842217, 0.071344376, 0
263, 779498417, 0.9719938, 0.015600385, 0.0012522135, -0.23448472, -0.12829421, -0.32885596, 0.09043026, 0
265, 779531751, 0.97200423, 0.01560678, 0.0012610257, -0.23444101, -0.1289005, -0.32397872, 0.0676384, 0
266, 779548418, 0.97200966, 0.015609686, 0.0012560395, -0.23441775, -0.1302374, -0.3316764, 0.0771513, 0
267, 779565085, 0.97201407, 0.015614069, 0.001264179, -0.23439984, -0.1280202, -0.3420877, 0.082102776, 0
269, 779598419, 0.9720251, 0.01563211, 0.0012610226, -0.2343524, -0.12840152, -0.33043808, 0.09096527, 0
270, 779615086, 0.9720288, 0.015644247, 0.0012592877, -0.23433642, -0.12190444, -0.34106022, 0.08050251, 0
271, 779631753, 0.97203165, 0.015656808, 0.0012479703, -0.23432371, -0.13346165, -0.34602964, 0.080267906, 0
273, 779665087, 0.9720469, 0.015676934, 0.001247515, -0.2342592, -0.130668, -0.32663137, 0.06706238, 0
274, 779681754, 0.9720554, 0.015686335, 0.0012484732, -0.23422378, -0.12938218, -0.34664792, 0.09393978, 0
277, 779731755, 0.9720616, 0.015707236, 0.0012403816, -0.23419712, -0.12677647, -0.33605117, 0.08516121, 0
278, 779748422, 0.9720749, 0.015715577, 0.0012445753, -0.2341407, -0.13042712, -0.33677202, 0.0843029, 0
280, 779781756, 0.9720812, 0.015724516, 0.0012412695, -0.23411386, -0.12171272, -0.3373019, 0.08717251, 0
281, 779798423, 0.9720846, 0.015731718, 0.0012344804, -0.23409937, -0.122978, -0.33497435, 0.07184219, 0
282, 779815090, 0.9720864, 0.015729384, 0.001238611, -0.23409173, -0.13814254, -0.34229794, 0.08204746, 0
284, 779848424, 0.9720991, 0.015732562, 0.001211731, -0.23403932, -0.14012086, -0.34090805, 0.07363129, 0
285, 779865091, 0.97210634, 0.015745196, 0.0012066155, -0.23400852, -0.12719664, -0.3232131, 0.08677864, 0
286, 779881758, 0.9721114, 0.01574658, 0.001200521, -0.23398732, -0.1298685, -0.340539, 0.07220936, 0
288, 779915092, 0.972125, 0.01575604, 0.001198568, -0.23393027, -0.14333174, -0.35190997, 0.09843731, 0
289, 779931759, 0.9721336, 0.015757034, 0.0011972788, -0.23389465, -0.116185546, -0.3503746, 0.07253742, 0
292, 779981760, 0.9721599, 0.01577474, 0.0011891504, -0.23378359, -0.13700938, -0.33176827, 0.07476425, 0
293, 779998427, 0.97217, 0.015781483, 0.0011875122, -0.2337412, -0.12927483, -0.33833107, 0.072548866, 0
294, 780015094, 0.97217077, 0.01578252, 0.00118025, -0.23373772, -0.13376066, -0.334411, 0.064229965, 0
296, 780048428, 0.97217256, 0.015786596, 0.0011664266, -0.23373045, -0.12700312, -0.3437367, 0.09458637, 0
297, 780065095, 0.9721777, 0.015789008, 0.0011615913, -0.23370913, -0.12534219, -0.34425554, 0.073765755, 0
298, 780081762, 0.97218263, 0.015799938, 0.0011710415, -0.23368779, -0.119127, -0.34843752, 0.07641029, 0
300, 780115096, 0.9721936, 0.015802084, 0.0011715379, -0.23364185, -0.13581292, -0.32586184, 0.07522106, 0
301, 780131763, 0.97219914, 0.01580644, 0.0011809228, -0.23361853, -0.12730882, -0.33735147, 0.09148502, 0
302, 780148430, 0.9722082, 0.015811604, 0.0011825457, -0.23358068, -0.13439864, -0.34488204, 0.068860054, 0
304, 780181764, 0.9722284, 0.015825575, 0.001186661, -0.23349512, -0.14314264, -0.3178964, 0.087981224, 0
307, 780231765, 0.97224915, 0.015847297, 0.0011894943, -0.23340729, -0.1343931, -0.345373, 0.085157394, 0
308, 780248432, 0.9722572, 0.015849821, 0.0011853244, -0.23337372, -0.13091514, -0.3422512, 0.08585262, 0
309, 780265099, 0.97226113, 0.015846997, 0.001182975, -0.23335765, -0.13138415, -0.33979475, 0.08201504, 0
311, 780298433, 0.97226745, 0.015860308, 0.0011774777, -0.23333049, -0.13733171, -0.3385338, 0.08037758, 0
312, 780315100, 0.9722654, 0.01586003, 0.0011798142, -0.23333909, -0.13819966, -0.34320638, 0.059598923, 0
313, 780331767, 0.9722701, 0.015860215, 0.0011747156, -0.23331966, -0.12479832, -0.3302212, 0.058386803, 0
315, 780365101, 0.9722824, 0.01585858, 0.0011640678, -0.23326778, -0.13009982, -0.3326582, 0.08132267, 0
316, 780381768, 0.9722828, 0.015868362, 0.0011660476, -0.23326614, -0.1477969, -0.33857372, 0.06798077, 0
317, 780398435, 0.9722853, 0.015879842, 0.0011678035, -0.23325463, -0.1422983, -0.33552277, 0.077762604, 0
319, 780431769, 0.9722944, 0.015887873, 0.0011769072, -0.2332159, -0.13265572, -0.3293536, 0.07605171, 0
320, 780448436, 0.9723022, 0.015879247, 0.0011781218, -0.23318388, -0.13031614, -0.34266335, 0.07949829, 0
321, 780465103, 0.9723064, 0.015884474, 0.0011696671, -0.2331667, -0.13135889, -0.34977454, 0.053100586, 0
323, 780498437, 0.9723169, 0.015892867, 0.0011700565, -0.23312183, -0.12571718, -0.35063472, 0.07004166, 0
324, 780515104, 0.97232634, 0.015896305, 0.0011780208, -0.2330825, -0.1275656, -0.35094988, 0.08392906, 0
325, 780531771, 0.9723317, 0.01591086, 0.0011852501, -0.23305885, -0.13391045, -0.33434665, 0.08671188, 0
327, 780565105, 0.9723395, 0.015915496, 0.0011888581, -0.23302566, -0.13903916, -0.34168458, 0.08531761, 0
328, 780581772, 0.9723451, 0.015924316, 0.0011937454, -0.23300223, -0.14106028, -0.34081376, 0.07306385, 0
329, 780598439, 0.9723496, 0.015929103, 0.0011925811, -0.23298344, -0.13964088, -0.34322104, 0.07723236, 0
331, 780631773, 0.9723565, 0.015929963, 0.0011893256, -0.23295382, -0.12457387, -0.3547371, 0.06812096, 0
333, 780665107, 0.9723635, 0.01594196, 0.0011998792, -0.23292392, -0.13272756, -0.34313503, 0.082920074, 0
335, 780698441, 0.9723728, 0.015958304, 0.0011856486, -0.23288387, -0.13318165, -0.34524173, 0.06899738, 0
336, 780715108, 0.97237086, 0.015966494, 0.0011871177, -0.23289144, -0.123858266, -0.331596, 0.070887566, 0
338, 780748442, 0.9723808, 0.015970029, 0.0011794957, -0.23284987, -0.14027716, -0.350647, 0.08984566, 0
339, 780765109, 0.97238797, 0.015977094, 0.0011779863, -0.23281951, -0.1196867, -0.33156246, 0.08660126, 0
340, 780781776, 0.97239745, 0.015978629, 0.0011757902, -0.23278005, -0.13472936, -0.34759957, 0.07868385, 0
342, 780815110, 0.9724131, 0.015973868, 0.0011785887, -0.23271437, -0.14398517, -0.3466267, 0.06425381, 0
343, 780831777, 0.97241414, 0.015977917, 0.0011793766, -0.23270999, -0.13069557, -0.34303594, 0.069722176, 0
344, 780848444, 0.9724218, 0.015984384, 0.0011761859, -0.23267755, -0.1274681, -0.33674255, 0.069586754, 0
346, 780881778, 0.9724311, 0.015996257, 0.0011750003, -0.23263788, -0.13594387, -0.3524655, 0.06650162, 0
348, 780915112, 0.97244185, 0.016006043, 0.0011777622, -0.23259223, -0.123647675, -0.355664, 0.08662987, 0
350, 780948446, 0.97245425, 0.016015897, 0.0011770213, -0.23253982, -0.13585594, -0.34812596, 0.07629204, 0
351, 780965113, 0.9724589, 0.016016813, 0.0011708554, -0.2325203, -0.12526923, -0.3545547, 0.07509136, 0
352, 780981780, 0.97246164, 0.016025802, 0.0011726726, -0.23250838, -0.12685399, -0.3457748, 0.07730961, 0
354, 781015114, 0.9724711, 0.016037662, 0.0011653672, -0.23246756, -0.1126066, -0.34726802, 0.07983875, 0
355, 781031781, 0.97247267, 0.016036708, 0.001176733, -0.23246114, -0.13256913, -0.34182844, 0.078204155, 0
356, 781048448, 0.9724791, 0.016041469, 0.0011809453, -0.23243387, -0.13839915, -0.34801224, 0.06655407, 0
358, 781081782, 0.9724912, 0.016050184, 0.0011712441, -0.23238274, -0.127623, -0.3291259, 0.07577801, 0
359, 781098449, 0.9725111, 0.016050322, 0.0011739769, -0.23229934, -0.13555768, -0.34345007, 0.07257366, 0
361, 781131783, 0.9725218, 0.016058054, 0.0011829009, -0.2322544, -0.12393471, -0.35711768, 0.07041359, 0
363, 781165117, 0.97252655, 0.016075447, 0.0011769849, -0.2322328, -0.13220866, -0.34803128, 0.10740566, 0
365, 781198451, 0.9725351, 0.016075803, 0.001182631, -0.23219769, -0.13783032, -0.33246833, 0.0629015, 0
366, 781215118, 0.97254366, 0.016081585, 0.0011881128, -0.23216079, -0.13616101, -0.34749055, 0.07807732, 0
367, 781231785, 0.9725493, 0.016083123, 0.001185647, -0.23213717, -0.12790287, -0.3501692, 0.07978821, 0
369, 781265119, 0.97256154, 0.016078072, 0.0011782337, -0.23208663, -0.13172218, -0.3393437, 0.06282711, 0
370, 781281786, 0.9725693, 0.016085718, 0.0011814529, -0.23205356, -0.14595354, -0.350282, 0.07778168, 0
371, 781298453, 0.9725753, 0.016094629, 0.0011948996, -0.23202768, -0.12223549, -0.34619927, 0.10164833, 0
373, 781331787, 0.97257984, 0.01609861, 0.0011924106, -0.23200792, -0.12488433, -0.34749478, 0.088264465, 0
374, 781348454, 0.97258455, 0.016101351, 0.0011841017, -0.23198862, -0.13394418, -0.33615014, 0.10009861, 0
375, 781365121, 0.9725895, 0.016103756, 0.0011797225, -0.23196772, -0.13176034, -0.34750882, 0.0874033, 0
378, 781415122, 0.9726007, 0.016113736, 0.0011841458, -0.23191962, -0.14008929, -0.3545414, 0.10070133, 0
379, 781431789, 0.972607, 0.016120931, 0.0011744339, -0.23189284, -0.1438635, -0.3444085, 0.096987724, 0
381, 781465123, 0.9726104, 0.01612352, 0.001160099, -0.23187838, -0.13130566, -0.35438758, 0.078679085, 0
382, 781481790, 0.97261685, 0.016123407, 0.0011584905, -0.23185147, -0.14268494, -0.35709515, 0.07369709, 0
383, 781498457, 0.9726277, 0.016130814, 0.0011662351, -0.23180528, -0.13768505, -0.35047212, 0.07324982, 0
385, 781531791, 0.9726402, 0.01614528, 0.0011656211, -0.23175186, -0.13852328, -0.34438998, 0.06862259, 0
386, 781548458, 0.97264904, 0.016154135, 0.0011742552, -0.23171426, -0.13249111, -0.3495355, 0.09648991, 0
388, 781581792, 0.9726602, 0.016164659, 0.0011857137, -0.23166674, -0.14178056, -0.34708226, 0.09087086, 0
389, 781598459, 0.97267073, 0.016174015, 0.001185147, -0.2316217, -0.13652709, -0.34843266, 0.0785656, 0
390, 781615126, 0.9726717, 0.016179522, 0.0011919378, -0.23161723, -0.13546562, -0.3377358, 0.09321594, 0
392, 781648460, 0.97267944, 0.016208008, 0.0011929881, -0.23158279, -0.13462967, -0.3512909, 0.07879925, 0
393, 781665127, 0.97268325, 0.016212443, 0.0011893446, -0.23156665, -0.14145932, -0.33957407, 0.07464504, 0
394, 781681794, 0.9726875, 0.016216556, 0.0011878383, -0.23154873, -0.14107625, -0.3414038, 0.098389626, 0
396, 781715128, 0.9727001, 0.016221907, 0.0011870641, -0.23149493, -0.14223142, -0.34619105, 0.07858086, 0
397, 781731795, 0.97270674, 0.016225493, 0.0011940886, -0.2314668, -0.1525873, -0.34654102, 0.076301575, 0
398, 781748462, 0.97271526, 0.016240016, 0.0011942332, -0.23142989, -0.13257629, -0.36353236, 0.06506157, 0
400, 781781796, 0.9727281, 0.016253645, 0.0011974445, -0.23137513, -0.14492375, -0.3420154, 0.06672287, 0
401, 781798463, 0.97273767, 0.01625834, 0.0011898829, -0.23133439, -0.13305943, -0.34682512, 0.06441593, 0
402, 781815130, 0.9727452, 0.01625213, 0.0011871596, -0.23130324, -0.1348437, -0.36096045, 0.06797981, 0
405, 781865131, 0.97276306, 0.016256593, 0.001198325, -0.23122783, -0.13410111, -0.33186975, 0.067949295, 0
406, 781881798, 0.9727629, 0.016254306, 0.0011976834, -0.2312289, -0.1281141, -0.3316561, 0.06598663, 0
408, 781915132, 0.972769, 0.016260419, 0.00119003, -0.23120257, -0.13540421, -0.35367736, 0.08844757, 0
409, 781931799, 0.9727789, 0.016269457, 0.0011998886, -0.23116004, -0.13763988, -0.34610683, 0.086509705, 0
410, 781948466, 0.9727877, 0.016278058, 0.0012051966, -0.23112231, -0.13889627, -0.34653687, 0.06440735, 0
412, 781981800, 0.9727958, 0.016284171, 0.0012076055, -0.23108822, -0.12059583, -0.3450183, 0.06699371, 0
413, 781998467, 0.9727991, 0.016297935, 0.0012139552, -0.23107326, -0.13359667, -0.34309715, 0.072208405, 0
415, 782031801, 0.9728125, 0.01631087, 0.0012163578, -0.23101567, -0.14565006, -0.33536714, 0.07711601, 0
416, 782048468, 0.9728202, 0.01631495, 0.0012266692, -0.23098254, -0.14080413, -0.33598575, 0.07619858, 0
417, 782065135, 0.9728259, 0.016315883, 0.0012206037, -0.23095895, -0.13008986, -0.3444249, 0.080908775, 0
420, 782115136, 0.97284, 0.016320359, 0.0012060471, -0.23089866, -0.12765124, -0.35429403, 0.07419109, 0
421, 782131803, 0.97285336, 0.016327262, 0.0012044123, -0.23084237, -0.13420506, -0.3436276, 0.080607414, 0
423, 782165137, 0.9728604, 0.016323395, 0.0012044179, -0.2308133, -0.13228725, -0.3390316, 0.082725525, 0
424, 782181804, 0.972867, 0.016337238, 0.0012119062, -0.23078428, -0.13631566, -0.3498627, 0.08239174, 0
425, 782198471, 0.97287405, 0.016336858, 0.0012087494, -0.23075451, -0.14066629, -0.3557658, 0.08172512, 0
427, 782231805, 0.9728867, 0.01633937, 0.0012156261, -0.23070109, -0.12140539, -0.3579131, 0.07542324, 0
428, 782248472, 0.97288823, 0.016346106, 0.0012132799, -0.23069412, -0.1412627, -0.34630316, 0.075899124, 0
429, 782265139, 0.9728803, 0.016346822, 0.0012008965, -0.23072772, -0.14096572, -0.34324193, 0.060832024, 0
431, 782298473, 0.9728896, 0.016357481, 0.0011846775, -0.23068754, -0.1428169, -0.3423711, 0.07701397, 0
432, 782315140, 0.9728968, 0.01635909, 0.0011987835, -0.23065697, -0.15118763, -0.35824752, 0.095630646, 0
435, 782365141, 0.97290087, 0.016368726, 0.001190669, -0.23063919, -0.1311288, -0.34820756, 0.07128143, 0
436, 782381808, 0.97290754, 0.016367873, 0.001190725, -0.23061109, -0.13296002, -0.36515456, 0.0641737, 0
437, 782398475, 0.972914, 0.016372789, 0.0011897135, -0.23058338, -0.13056473, -0.33746946, 0.08145714, 0
439, 782431809, 0.97292113, 0.016393995, 0.0011973286, -0.23055167, -0.11762135, -0.35732535, 0.068855286, 0
440, 782448476, 0.97292435, 0.016394364, 0.0011936494, -0.2305383, -0.13461185, -0.36328873, 0.07258606, 0
442, 782481810, 0.97293514, 0.016409557, 0.0012037263, -0.23049149, -0.11947488, -0.34588316, 0.07325935, 0
443, 782498477, 0.97294235, 0.016419135, 0.0012032104, -0.23046072, -0.13395177, -0.3551163, 0.07186794, 0
444, 782515144, 0.97294766, 0.016425945, 0.001204495, -0.23043768, -0.14061628, -0.36298025, 0.079078674, 0
446, 782548478, 0.97297245, 0.016430993, 0.0012013712, -0.2303325, -0.13348019, -0.35170075, 0.06839657, 0
447, 782565145, 0.9729753, 0.016435202, 0.0011968905, -0.23031977, -0.14180051, -0.35989648, 0.07393265, 0
450, 782615146, 0.9729924, 0.016447244, 0.0011982799, -0.23024723, -0.1281482, -0.35421076, 0.05525303, 0
451, 782631813, 0.9729939, 0.016449604, 0.0012012735, -0.23024076, -0.13083687, -0.35264656, 0.09222317, 0
452, 782648480, 0.9729956, 0.016451335, 0.0011995651, -0.23023343, -0.12692563, -0.347712, 0.07304287, 0
454, 782681814, 0.97300506, 0.016465237, 0.0011994591, -0.23019232, -0.14869362, -0.3485152, 0.06726742, 0
455, 782698481, 0.9730106, 0.01648448, 0.0011957807, -0.23016754, -0.14301884, -0.34518233, 0.0784235, 0
456, 782715148, 0.97301584, 0.016492276, 0.0011984041, -0.23014496, -0.1406507, -0.35174584, 0.07884598, 0
458, 782748482, 0.97302747, 0.016499536, 0.0012000486, -0.23009486, -0.13184083, -0.3535908, 0.064543724, 0
459, 782765149, 0.9730323, 0.01651199, 0.0012068996, -0.23007408, -0.14496854, -0.3535644, 0.09208202, 0
460, 782781816, 0.9730353, 0.016522748, 0.0012128375, -0.2300603, -0.1418714, -0.36793542, 0.07490349, 0
462, 782815150, 0.97304064, 0.01651561, 0.001210107, -0.23003814, -0.13734104, -0.3483944, 0.06305504, 0
463, 782831817, 0.9730484, 0.016522085, 0.0012165334, -0.2300051, -0.15251392, -0.34394324, 0.06849575, 0
464, 782848484, 0.97306645, 0.016521212, 0.0012232048, -0.22992875, -0.14250892, -0.34648833, 0.067811966, 0
466, 782881818, 0.97308815, 0.016525706, 0.001224144, -0.22983667, -0.12184083, -0.34936482, 0.082616806, 0
467, 782898485, 0.97309667, 0.016527038, 0.0012291635, -0.22980064, -0.13103873, -0.3507139, 0.074567795, 0
469, 782931819, 0.9731071, 0.016536094, 0.0012323098, -0.22975533, -0.13135786, -0.36560574, 0.07340813, 0
470, 782948486, 0.9731137, 0.016536077, 0.0012326521, -0.2297272, -0.12996648, -0.35451362, 0.08707714, 0
471, 782965153, 0.9731195, 0.016536757, 0.0012314947, -0.22970313, -0.13112131, -0.34677774, 0.08368683, 0
473, 782998487, 0.97311723, 0.016552193, 0.0012330369, -0.22971137, -0.13452667, -0.36227068, 0.07412338, 0
474, 783015154, 0.97312325, 0.016551137, 0.0012380561, -0.22968557, -0.12738465, -0.36290523, 0.08028126, 0
477, 783065155, 0.97313493, 0.016571756, 0.0012331426, -0.22963509, -0.13405657, -0.34731308, 0.08275509, 0
478, 783081822, 0.9731449, 0.016564434, 0.0012368527, -0.22959346, -0.13827842, -0.35607633, 0.06978226, 0
479, 783098489, 0.97315305, 0.016566984, 0.0012376333, -0.22955869, -0.15234144, -0.34732577, 0.063492775, 0
481, 783131823, 0.973166, 0.016576782, 0.0012361385, -0.22950308, -0.13347106, -0.34934837, 0.0864048, 0
482, 783148490, 0.9731733, 0.016583303, 0.0012343873, -0.22947145, -0.14182734, -0.35142913, 0.059836388, 0
483, 783165157, 0.97317153, 0.01659181, 0.001230371, -0.22947833, -0.13134171, -0.3602156, 0.09869194, 0
485, 783198491, 0.973174, 0.016611744, 0.0012281386, -0.22946648, -0.13298756, -0.35983518, 0.058933258, 0
486, 783215158, 0.9731808, 0.016621701, 0.001222487, -0.22943704, -0.14098397, -0.36826676, 0.09502888, 0
487, 783231825, 0.97318834, 0.016629048, 0.0012154432, -0.2294043, -0.14274839, -0.3581855, 0.07446575, 0
489, 783265159, 0.9732021, 0.016629335, 0.001222263, -0.22934623, -0.12758242, -0.3436904, 0.08255768, 0
491, 783298493, 0.9732163, 0.016635513, 0.0012139546, -0.22928512, -0.13332738, -0.35928458, 0.07336998, 0
493, 783331827, 0.9732227, 0.016637802, 0.0012039215, -0.22925816, -0.13655351, -0.35935324, 0.06616974, 0
494, 783348494, 0.9732188, 0.016635204, 0.0012042477, -0.22927457, -0.13969757, -0.33948526, 0.08294296, 0
496, 783381828, 0.9732326, 0.016646855, 0.0011888838, -0.22921538, -0.13979824, -0.35802484, 0.08401966, 0
497, 783398495, 0.9732398, 0.016648183, 0.0011900229, -0.22918452, -0.12822808, -0.35958943, 0.09317398, 0
498, 783415162, 0.97324157, 0.016652737, 0.0011894256, -0.22917698, -0.133196, -0.3445375, 0.07611942, 0
500, 783448496, 0.9732577, 0.016671067, 0.0011829933, -0.22910711, -0.14208385, -0.35431907, 0.07539177, 0
501, 783465163, 0.97326314, 0.016673047, 0.0011841147, -0.22908376, -0.13232812, -0.36327046, 0.0772171, 0
502, 783481830, 0.9732668, 0.016682196, 0.0011904573, -0.22906765, -0.12724818, -0.35473433, 0.07371712, 0
504, 783515164, 0.97328776, 0.016700951, 0.0011946601, -0.22897705, -0.13956605, -0.36918998, 0.091617584, 0
506, 783548498, 0.97329664, 0.01671314, 0.001193783, -0.2289386, -0.120426655, -0.35197905, 0.09394455, 0
508, 783581832, 0.9733056, 0.016714236, 0.0011950738, -0.22890027, -0.1336092, -0.36487868, 0.07164097, 0
509, 783598499, 0.97331494, 0.016707424, 0.0011949684, -0.22886153, -0.1406626, -0.35179713, 0.07411575, 0
510, 783615166, 0.9733171, 0.016711723, 0.0011856416, -0.2288515, -0.13103294, -0.35047892, 0.0803175, 0
512, 783648500, 0.97332937, 0.016717646, 0.001181917, -0.22879918, -0.13440903, -0.35592347, 0.07060146, 0
513, 783665167, 0.97333366, 0.016712686, 0.0011900709, -0.22878125, -0.13523452, -0.3542431, 0.080366135, 0
514, 783681834, 0.9733456, 0.016720606, 0.0011910511, -0.22872986, -0.1342047, -0.35815153, 0.10027695, 0
516, 783715168, 0.97336555, 0.016718773, 0.0011885233, -0.2286447, -0.12764116, -0.35628322, 0.082365036, 0
517, 783731835, 0.9733727, 0.016718991, 0.0011894682, -0.2286147, -0.12721555, -0.35601065, 0.082437515, 0
518, 783748502, 0.97337466, 0.016724302, 0.0011817662, -0.22860605, -0.14054504, -0.3683323, 0.09551811, 0
521, 783798503, 0.9733882, 0.016742896, 0.0011928468, -0.22854689, -0.14670101, -0.36756176, 0.06801605, 0
523, 783831837, 0.9733951, 0.016745783, 0.0011892417, -0.22851695, -0.14076112, -0.36483958, 0.08136654, 0
524, 783848504, 0.97340375, 0.016748749, 0.0011836924, -0.22848012, -0.12699476, -0.34959584, 0.080358505, 0
525, 783865171, 0.9734045, 0.016762147, 0.0011729612, -0.22847563, -0.1427091, -0.35891995, 0.06524372, 0
527, 783898505, 0.97342014, 0.016779728, 0.0011699188, -0.22840814, -0.1279283, -0.35588956, 0.08567333, 0
528, 783915172, 0.97342193, 0.01676977, 0.0011623596, -0.22840121, -0.13712025, -0.36930898, 0.08991814, 0
529, 783931839, 0.97342324, 0.016781518, 0.0011651672, -0.22839479, -0.1481938, -0.3595371, 0.083916664, 0
531, 783965173, 0.97342247, 0.016784856, 0.0011403956, -0.22839758, -0.1396245, -0.36756247, 0.092411995, 0
532, 783981840, 0.97341895, 0.01678822, 0.001135612, -0.22841217, -0.13372882, -0.34694037, 0.07258034, 0
533, 783998507, 0.9734257, 0.01679279, 0.0011398154, -0.22838366, -0.13725889, -0.37437302, 0.09125233, 0
535, 784031841, 0.9734367, 0.016791252, 0.0011496602, -0.22833677, -0.13231711, -0.35942593, 0.092163086, 0
536, 784048508, 0.97344446, 0.016796235, 0.0011459732, -0.22830327, -0.13000205, -0.35758898, 0.09156513, 0
537, 784065175, 0.9734452, 0.016794788, 0.0011559092, -0.2283003, -0.1309763, -0.35937685, 0.062286377, 0
539, 784098509, 0.9734684, 0.016789032, 0.0011464687, -0.22820148, -0.14660832, -0.35998225, 0.059217453, 0
540, 784115176, 0.97346884, 0.016784012, 0.0011442647, -0.22820026, -0.13233069, -0.3421032, 0.08051586, 0
541, 784131843, 0.97347265, 0.016780883, 0.0011509652, -0.2281842, -0.13286412, -0.36647916, 0.07152462, 0
543, 784165177, 0.9734794, 0.016777279, 0.0011557478, -0.22815567, -0.13945442, -0.35883218, 0.08338165, 0
544, 784181844, 0.9734828, 0.016778149, 0.0011490016, -0.22814104, -0.1391774, -0.36500928, 0.07530975, 0
545, 784198511, 0.9734864, 0.016780807, 0.0011475638, -0.22812521, -0.14028892, -0.37429917, 0.06824875, 0
548, 784248512, 0.9735046, 0.016809916, 0.0011402931, -0.22804561, -0.1291431, -0.3686624, 0.102775574, 0
550, 784281846, 0.9735209, 0.016828405, 0.0011366761, -0.22797461, -0.13620271, -0.34506887, 0.10407257, 0
551, 784298513, 0.973524, 0.016831014, 0.0011291788, -0.22796136, -0.12914215, -0.35812137, 0.061000824, 0
552, 784315180, 0.9735284, 0.016847204, 0.0011342143, -0.2279416, -0.14464764, -0.352354, 0.06273174, 0
554, 784348514, 0.97353965, 0.016863685, 0.0011538662, -0.22789183, -0.13603763, -0.35943386, 0.09180164, 0
555, 784365181, 0.97354853, 0.016866801, 0.0011518756, -0.22785412, -0.13175341, -0.3646748, 0.061224937, 0
556, 784381848, 0.9735566, 0.01687318, 0.0011578705, -0.22781907, -0.12909694, -0.35670304, 0.07116985, 0
558, 784415182, 0.973576, 0.016879443, 0.0011590752, -0.2277354, -0.13269347, -0.3542269, 0.07492542, 0
559, 784431849, 0.97358096, 0.016891306, 0.0011598294, -0.22771315, -0.12657696, -0.3634399, 0.064188, 0
560, 784448516, 0.9735916, 0.016900478, 0.001159322, -0.2276673, -0.1349549, -0.37118238, 0.07763767, 0
563, 784498517, 0.973603, 0.016900936, 0.0011584904, -0.2276187, -0.14207484, -0.36196923, 0.07572842, 0
564, 784515184, 0.9736115, 0.01690345, 0.0011645273, -0.22758216, -0.14435332, -0.36419502, 0.07749462, 0
566, 784548518, 0.9736286, 0.016899308, 0.0011621998, -0.22750911, -0.14430006, -0.35069677, 0.09282112, 0
567, 784565185, 0.9736358, 0.016900415, 0.0011633331, -0.22747798, -0.14216352, -0.34661242, 0.10204029, 0
568, 784581852, 0.97364885, 0.016899528, 0.0011682572, -0.22742246, -0.15233402, -0.36223796, 0.08432007, 0
570, 784615186, 0.973666, 0.016914139, 0.0011817041, -0.2273477, -0.13620967, -0.35272938, 0.08563709, 0
571, 784631853, 0.97367173, 0.016924666, 0.0011796486, -0.2273224, -0.1380662, -0.3658793, 0.08664513, 0
572, 784648520, 0.9736841, 0.016926395, 0.0011749582, -0.22726966, -0.14508526, -0.3574147, 0.08794403, 0
574, 784681854, 0.9736967, 0.016936801, 0.0011752201, -0.22721435, -0.1474375, -0.36869764, 0.07523346, 0
575, 784698521, 0.9737023, 0.016945241, 0.0011634743, -0.22718947, -0.14215127, -0.3624109, 0.059189796, 0
578, 784748522, 0.97372025, 0.016956914, 0.0011504133, -0.22711174, -0.13504975, -0.35171244, 0.07145214, 0
579, 784765189, 0.97373086, 0.016962796, 0.0011489586, -0.22706659, -0.15322053, -0.38003215, 0.060764313, 0
581, 784798523, 0.97373897, 0.016963858, 0.0011407824, -0.22703156, -0.13877831, -0.37452257, 0.096468925, 0
582, 784815190, 0.9737427, 0.016964132, 0.0011315611, -0.22701542, -0.14513291, -0.37197983, 0.07556152, 0
583, 784831857, 0.9737488, 0.016970025, 0.0011334365, -0.2269888, -0.13731585, -0.35179323, 0.09060192, 0
585, 784865191, 0.97375405, 0.016969882, 0.0011341625, -0.22696611, -0.13804801, -0.3644758, 0.07716465, 0
586, 784881858, 0.973753, 0.016977996, 0.0011348943, -0.22697002, -0.1358497, -0.36048082, 0.08366871, 0
587, 784898525, 0.9737611, 0.016974078, 0.001145685, -0.22693549, -0.12949872, -0.35854456, 0.086013794, 0
589, 784931859, 0.9737657, 0.016986728, 0.001138406, -0.22691514, -0.14261168, -0.3663769, 0.073041916, 0
590, 784948526, 0.9737701, 0.016996466, 0.0011377184, -0.2268955, -0.13762797, -0.36575246, 0.0672369, 0
593, 784998527, 0.9737845, 0.01701264, 0.0011308659, -0.22683224, -0.13668919, -0.36635157, 0.08232689, 0
594, 785015194, 0.9737927, 0.01701563, 0.0011379649, -0.22679687, -0.1248956, -0.36421213, 0.07403183, 0
595, 785031861, 0.9738116, 0.017014308, 0.0011308829, -0.22671542, -0.1313375, -0.3615042, 0.07070446, 0
597, 785065195, 0.97382796, 0.017024243, 0.0011185511, -0.22664498, -0.14200981, -0.3632566, 0.0728941, 0
598, 785081862, 0.9738332, 0.017033495, 0.0011138973, -0.22662176, -0.14740683, -0.36060578, 0.08513546, 0
599, 785098529, 0.9738363, 0.01703176, 0.0011180311, -0.22660865, -0.12838884, -0.35740784, 0.086330414, 0
601, 785131863, 0.9738518, 0.017029673, 0.0011118631, -0.22654194, -0.14558183, -0.36267117, 0.073215485, 0
602, 785148530, 0.9738561, 0.017030314, 0.001114076, -0.2265233, -0.14404237, -0.3597066, 0.080028534, 0
604, 785181864, 0.9738679, 0.017041802, 0.0011160347, -0.22647174, -0.13468018, -0.36080578, 0.09447956, 0
605, 785198531, 0.9738749, 0.017050542, 0.0011198937, -0.22644086, -0.14678897, -0.36938468, 0.08913231, 0
606, 785215198, 0.9738868, 0.017052216, 0.0011180402, -0.22639024, -0.14304413, -0.35535884, 0.0829134, 0
608, 785248532, 0.9738957, 0.017036429, 0.001113567, -0.22635269, -0.1449865, -0.35745817, 0.08232498, 0
609, 785265199, 0.97389454, 0.017031042, 0.0011202422, -0.22635803, -0.13291746, -0.35529837, 0.079301834, 0
610, 785281866, 0.9738966, 0.017032297, 0.0011177253, -0.22634932, -0.12974443, -0.35844046, 0.07454014, 0
612, 785315200, 0.97390014, 0.017029183, 0.0011218603, -0.22633421, -0.14099762, -0.36858884, 0.082998276, 0
613, 785331867, 0.9739069, 0.0170262, 0.0011164417, -0.22630553, -0.13119592, -0.35348117, 0.07566929, 0
614, 785348534, 0.97391343, 0.017029569, 0.0011198928, -0.22627701, -0.13336605, -0.3648085, 0.057562828, 0
616, 785381868, 0.97392404, 0.017055256, 0.0011222111, -0.22622932, -0.14259456, -0.366269, 0.08171463, 0
617, 785398535, 0.9739286, 0.017064136, 0.0011232856, -0.22620925, -0.13525215, -0.3793066, 0.07327175, 0
620, 785448536, 0.9739423, 0.017083136, 0.0011185361, -0.2261483, -0.13537544, -0.37490952, 0.076685905, 0
621, 785465203, 0.9739522, 0.017096793, 0.0011166157, -0.22610539, -0.14559712, -0.36402392, 0.09290314, 0
622, 785481870, 0.9739499, 0.01709806, 0.0011060468, -0.22611481, -0.13070746, -0.36977753, 0.07616711, 0
624, 785515204, 0.97396487, 0.017108668, 0.0010977929, -0.22604948, -0.1332102, -0.36389363, 0.07605839, 0
625, 785531871, 0.97396785, 0.017118134, 0.0011022672, -0.2260361, -0.13603573, -0.36468166, 0.06572628, 0
626, 785548538, 0.9739704, 0.01712044, 0.0011014139, -0.22602488, -0.13695447, -0.36896798, 0.076865196, 0
628, 785581872, 0.9739781, 0.017125977, 0.0010977399, -0.22599158, -0.13197735, -0.36708763, 0.07042885, 0
629, 785598539, 0.97398067, 0.017127521, 0.0010987936, -0.2259798, -0.13724612, -0.37842432, 0.08668518, 0
631, 785631873, 0.9739936, 0.0171319, 0.0010971507, -0.22592416, -0.1358512, -0.36553556, 0.09130573, 0
632, 785648540, 0.9740023, 0.017128192, 0.001104588, -0.22588731, -0.13350932, -0.3795764, 0.08456802, 0
635, 785698541, 0.9740164, 0.01712901, 0.00110153, -0.225826, -0.13175634, -0.36569786, 0.067362785, 0
636, 785715208, 0.97402143, 0.017124698, 0.0011105873, -0.22580478, -0.1531218, -0.36779773, 0.072452545, 0
637, 785731875, 0.97402126, 0.017126694, 0.0011202475, -0.22580554, -0.13661589, -0.36300582, 0.08587265, 0
639, 785765209, 0.9740441, 0.017128883, 0.0011224955, -0.2257066, -0.14047417, -0.36452582, 0.07599068, 0
640, 785781876, 0.97405094, 0.017126003, 0.0011276045, -0.2256776, -0.15675579, -0.36178285, 0.06248474, 0
641, 785798543, 0.9740571, 0.017127747, 0.0011241409, -0.2256506, -0.12942597, -0.3583668, 0.08310509, 0
643, 785831877, 0.9740706, 0.01712057, 0.0011362373, -0.22559248, -0.14377464, -0.36125883, 0.07298756, 0
644, 785848544, 0.9740738, 0.017122705, 0.0011363076, -0.22557853, -0.12535441, -0.36506292, 0.08909607, 0
645, 785865211, 0.97408086, 0.01713107, 0.001138236, -0.2255476, -0.13998625, -0.36310947, 0.07160568, 0
647, 785898545, 0.97409064, 0.017142786, 0.0011300741, -0.22550455, -0.1406739, -0.36725128, 0.08011818, 0
649, 785931879, 0.9740964, 0.017138114, 0.0011235842, -0.22548033, -0.1357464, -0.3757722, 0.087934494, 0
651, 785965213, 0.9741092, 0.017147597, 0.0011249437, -0.22542435, -0.13631728, -0.3703172, 0.08693981, 0
652, 785981880, 0.97411865, 0.017145604, 0.0011203403, -0.22538325, -0.1334098, -0.37154993, 0.07630539, 0
653, 785998547, 0.97412, 0.017147154, 0.001126852, -0.22537738, -0.13390635, -0.3578853, 0.06429291, 0
655, 786031881, 0.9741306, 0.017152261, 0.0011443109, -0.22533126, -0.12634988, -0.37995154, 0.082240105, 0
656, 786048548, 0.9741349, 0.01714593, 0.0011398523, -0.22531271, -0.13171007, -0.3649633, 0.081287384, 0
657, 786065215, 0.9741421, 0.017141806, 0.001136937, -0.22528216, -0.14544064, -0.36365333, 0.07882309, 0
659, 786098549, 0.97415805, 0.017142499, 0.0011350511, -0.2252131, -0.12781848, -0.3691255, 0.07965851, 0
660, 786115216, 0.9741601, 0.017150225, 0.0011343396, -0.225204, -0.13756728, -0.36307034, 0.070201874, 0
662, 786148550, 0.9741697, 0.017171238, 0.0011236261, -0.22516052, -0.13403253, -0.36294532, 0.08112621, 0
664, 786181884, 0.97417873, 0.017165659, 0.0011367624, -0.225122, -0.123962894, -0.3734979, 0.077890396, 0
666, 786215218, 0.97418106, 0.017181579, 0.0011435854, -0.22511055, -0.14008822, -0.3744968, 0.089375496, 0
667, 786231885, 0.9741837, 0.017184675, 0.0011537211, -0.22509892, -0.13454491, -0.3705567, 0.07634735, 0
668, 786248552, 0.974189, 0.017190494, 0.0011600782, -0.22507559, -0.12756296, -0.37547052, 0.07923889, 0
670, 786281886, 0.97419953, 0.017191572, 0.0011525273, -0.2250295, -0.14217375, -0.3588017, 0.07505226, 0
671, 786298553, 0.97420126, 0.01719735, 0.0011605595, -0.2250217, -0.13657036, -0.36584786, 0.0857954, 0
672, 786315220, 0.9742101, 0.017191442, 0.001166317, -0.2249839, -0.14039296, -0.37519774, 0.07805824, 0
674, 786348554, 0.9742193, 0.017190915, 0.0011610738, -0.22494422, -0.14484146, -0.358493, 0.06633568, 0
675, 786365221, 0.9742255, 0.017202942, 0.0011691677, -0.22491677, -0.13135722, -0.37783557, 0.07630825, 0
676, 786381888, 0.97422546, 0.017206214, 0.0011720032, -0.22491638, -0.13069367, -0.36320335, 0.07580376, 0
678, 786415222, 0.9742422, 0.017213797, 0.001175858, -0.2248427, -0.14993638, -0.37833148, 0.0810709, 0
679, 786431889, 0.97423875, 0.017205827, 0.0011670125, -0.22485843, -0.12789848, -0.3670685, 0.0830183, 0
680, 786448556, 0.9742456, 0.017203653, 0.0011803925, -0.22482882, -0.1302279, -0.3725734, 0.080527306, 0
682, 786481890, 0.9742648, 0.017203385, 0.0011837606, -0.22474593, -0.1351539, -0.370464, 0.103829384, 0
683, 786498557, 0.9742667, 0.017203536, 0.0011783864, -0.22473767, -0.13929248, -0.3610639, 0.07827377, 0
684, 786515224, 0.97427136, 0.017203968, 0.0011823371, -0.22471762, -0.13646267, -0.36219543, 0.08959675, 0
686, 786548558, 0.97427577, 0.017212365, 0.001181714, -0.22469771, -0.1326965, -0.3691088, 0.0644331, 0
687, 786565225, 0.97430295, 0.01721086, 0.0011649393, -0.22457993, -0.14026462, -0.36110955, 0.075406075, 0
689, 786598559, 0.9743135, 0.017207164, 0.0011713365, -0.2245343, -0.13727422, -0.3788632, 0.08526325, 0
691, 786631893, 0.9743333, 0.017199937, 0.0011627646, -0.22444913, -0.14387612, -0.36588752, 0.09217167, 0
693, 786665227, 0.9743468, 0.01720843, 0.00116123, -0.22438969, -0.14387897, -0.3560201, 0.06873703, 0
694, 786681894, 0.97434735, 0.017212845, 0.0011620217, -0.22438699, -0.15091383, -0.3718055, 0.07361317, 0
695, 786698561, 0.97435755, 0.017205242, 0.0011463964, -0.22434355, -0.1385603, -0.37060046, 0.090548515, 0
697, 786731895, 0.9743683, 0.017216522, 0.0011419284, -0.22429599, -0.14084227, -0.36269918, 0.07205868, 0
698, 786748562, 0.97437674, 0.01722186, 0.0011471023, -0.22425878, -0.1257593, -0.38079584, 0.07426071, 0
699, 786765229, 0.9743818, 0.017221317, 0.001158018, -0.22423682, -0.13302957, -0.3748641, 0.06005478, 0
701, 786798563, 0.9743877, 0.017212072, 0.0011533137, -0.2242119, -0.13202122, -0.36000946, 0.073171616, 0
702, 786815230, 0.9743946, 0.017221037, 0.001151851, -0.22418128, -0.14338541, -0.38084975, 0.06605816, 0
703, 786831897, 0.9744005, 0.017236736, 0.0011485186, -0.22415479, -0.135207, -0.37120992, 0.08007145, 0
706, 786881898, 0.9744066, 0.017237158, 0.0011639195, -0.2241276, -0.15355104, -0.36672643, 0.096170425, 0
707, 786898565, 0.9744075, 0.0172326, 0.0011643576, -0.22412413, -0.13942441, -0.36916003, 0.086488724, 0
709, 786931899, 0.9744196, 0.017239865, 0.001168411, -0.22407056, -0.13743237, -0.38608667, 0.09864807, 0
710, 786948566, 0.97442406, 0.017235767, 0.0011727263, -0.22405212, -0.13849993, -0.37544248, 0.10016441, 0
711, 786965233, 0.97442997, 0.017235294, 0.0011815326, -0.22402617, -0.13646701, -0.3804491, 0.08511639, 0
713, 786998567, 0.97444165, 0.017244415, 0.001176527, -0.22397465, -0.1482142, -0.392141, 0.08104038, 0
714, 787015234, 0.97443676, 0.017255355, 0.0011733455, -0.22399513, -0.14094386, -0.39314315, 0.08182526, 0
716, 787048568, 0.97444504, 0.017249139, 0.0011602032, -0.22395982, -0.13155805, -0.3785938, 0.08782101, 0
717, 787065235, 0.9744472, 0.017248485, 0.0011626168, -0.22395025, -0.14089522, -0.36733702, 0.07511997, 0
718, 787081902, 0.97444713, 0.017250346, 0.0011638775, -0.2239505, -0.12646195, -0.36900604, 0.0929842, 0
721, 787131903, 0.9744659, 0.01726895, 0.0011522128, -0.22386718, -0.14472939, -0.3853414, 0.073402405, 0
722, 787148570, 0.97446525, 0.017263105, 0.0011432441, -0.22387052, -0.14349242, -0.38903475, 0.094340324, 0
724, 787181904, 0.9744753, 0.017267855, 0.0011405392, -0.22382656, -0.13797648, -0.3712871, 0.059181213, 0
725, 787198571, 0.9744809, 0.017267097, 0.0011421862, -0.22380228, -0.14183219, -0.3808324, 0.075948715, 0
726, 787215238, 0.97448546, 0.017271996, 0.0011376059, -0.22378238, -0.13353983, -0.38014218, 0.058359146, 0
728, 787248572, 0.97450024, 0.017281154, 0.0011303235, -0.22371721, -0.1349694, -0.37477222, 0.08051777, 0
729, 787265239, 0.97450143, 0.017288199, 0.0011153935, -0.22371101, -0.1516426, -0.3728341, 0.08183956, 0
730, 787281906, 0.9745067, 0.01728504, 0.001114282, -0.223689, -0.14143126, -0.37722862, 0.0754652, 0
732, 787315240, 0.9745191, 0.017286293, 0.0010998667, -0.2236349, -0.14113072, -0.3781223, 0.08734608, 0
733, 787331907, 0.97452384, 0.01728657, 0.0011009275, -0.22361413, -0.1580342, -0.37507033, 0.08983326, 0
736, 787381908, 0.97454536, 0.017286755, 0.0011062274, -0.22352031, -0.12486311, -0.36872667, 0.07798195, 0
737, 787398575, 0.97454906, 0.0172919, 0.0010984065, -0.22350383, -0.14462, -0.37026805, 0.08150005, 0
738, 787415242, 0.97455156, 0.017292205, 0.0010894444, -0.2234931, -0.15231134, -0.36561716, 0.08197212, 0
740, 787448576, 0.9745646, 0.017289724, 0.0010956241, -0.22343612, -0.13842791, -0.35302183, 0.06049347, 0
741, 787465243, 0.974572, 0.017292356, 0.001095826, -0.2234039, -0.14308767, -0.36097515, 0.083333015, 0
743, 787498577, 0.97458774, 0.017293358, 0.0011039, -0.2233351, -0.1473, -0.36735228, 0.0656662, 0
744, 787515244, 0.9745935, 0.017298503, 0.0011065272, -0.22330941, -0.13737676, -0.36769944, 0.07579327, 0
745, 787531911, 0.9745993, 0.01729629, 0.0011120472, -0.22328414, -0.14651361, -0.3731166, 0.08117199, 0
747, 787565245, 0.9746102, 0.017299496, 0.0011120246, -0.22323649, -0.14399043, -0.36806795, 0.08400154, 0
748, 787581912, 0.97461396, 0.017317194, 0.0011156372, -0.22321889, -0.13882849, -0.37782714, 0.09979153, 0
749, 787598579, 0.9746172, 0.017313253, 0.001116646, -0.22320448, -0.15203653, -0.37625223, 0.10307884, 0
751, 787631913, 0.97462934, 0.017316548, 0.001114288, -0.22315133, -0.15125379, -0.35454535, 0.092923164, 0
752, 787648580, 0.9746344, 0.017320829, 0.0011088402, -0.22312881, -0.14646032, -0.36700734, 0.075904846, 0
753, 787665247, 0.9746353, 0.017321505, 0.0011015229, -0.223125, -0.12582128, -0.3721876, 0.08079147, 0
755, 787698581, 0.97464645, 0.01732009, 0.0011084441, -0.22307649, -0.1389927, -0.38167682, 0.08740997, 0
756, 787715248, 0.9746515, 0.017337203, 0.0011129741, -0.2230533, -0.13916135, -0.3737619, 0.092591286, 0
757, 787731915, 0.9746541, 0.017335873, 0.0011119855, -0.22304198, -0.13445061, -0.37936163, 0.08360195, 0
759, 787765249, 0.9746598, 0.017345482, 0.0011094627, -0.22301567, -0.14717475, -0.37693822, 0.069646835, 0
760, 787781916, 0.9746641, 0.017344825, 0.0011008845, -0.22299725, -0.1352882, -0.37589508, 0.09352493, 0
763, 787831917, 0.9746764, 0.017352575, 0.0010917106, -0.22294305, -0.14596602, -0.3825922, 0.0743742, 0
764, 787848584, 0.9746852, 0.017344376, 0.0010921016, -0.22290513, -0.14413984, -0.37625027, 0.06247711, 0
766, 787881918, 0.9746803, 0.017351486, 0.0010960302, -0.2229258, -0.14792806, -0.37994185, 0.06482983, 0
767, 787898585, 0.97468364, 0.017355036, 0.0010952362, -0.22291096, -0.13788927, -0.35606295, 0.07081699, 0
768, 787915252, 0.974691, 0.017361023, 0.0010947649, -0.22287834, -0.13319571, -0.37724578, 0.08939171, 0
770, 787948586, 0.9746872, 0.017357845, 0.0010944898, -0.22289507, -0.1463167, -0.370569, 0.08858013, 0
771, 787965253, 0.9746912, 0.017357837, 0.001097925, -0.22287764, -0.14108464, -0.3736901, 0.087285995, 0
772, 787981920, 0.9746994, 0.01735537, 0.0010924984, -0.2228422, -0.14261933, -0.37108007, 0.0778141, 0
774, 788015254, 0.9747127, 0.01735857, 0.00108437, -0.2227836, -0.1401551, -0.37187594, 0.06238365, 0
775, 788031921, 0.9747187, 0.01736095, 0.0010730571, -0.2227574, -0.14057851, -0.36977077, 0.08693981, 0
778, 788081922, 0.97473186, 0.01735691, 0.0010635084, -0.22270028, -0.14994943, -0.37228152, 0.08703709, 0
779, 788098589, 0.97473663, 0.017356997, 0.0010687379, -0.22267956, -0.14446105, -0.38237223, 0.08156681, 0
780, 788115256, 0.97474086, 0.017365847, 0.0010794831, -0.22266023, -0.12907384, -0.38533232, 0.09165478, 0
782, 788148590, 0.97475, 0.017375307, 0.0010824195, -0.22261918, -0.14491515, -0.37861925, 0.07827854, 0
783, 788165257, 0.9747523, 0.017381687, 0.0010820569, -0.22260846, -0.13761576, -0.3682359, 0.100964546, 0
784, 788181924, 0.9747621, 0.017386582, 0.0010784405, -0.22256544, -0.14439662, -0.3761775, 0.07971859, 0
786, 788215258, 0.9747755, 0.017390124, 0.0010636603, -0.22250658, -0.13916647, -0.38306433, 0.079636574, 0
787, 788231925, 0.9747857, 0.017394567, 0.001062165, -0.22246157, -0.13646062, -0.376068, 0.06415558, 0
788, 788248592, 0.9747882, 0.017400352, 0.0010610782, -0.22245032, -0.13396248, -0.37374863, 0.08389759, 0
790, 788281926, 0.97480094, 0.017390914, 0.0010702834, -0.22239527, -0.13693346, -0.37786803, 0.061263084, 0
793, 788331927, 0.9748143, 0.017383404, 0.0010666148, -0.22233711, -0.13388965, -0.37755865, 0.0819931, 0
794, 788348594, 0.97481626, 0.01739114, 0.0010604587, -0.222328, -0.13828458, -0.36124733, 0.074189186, 0
795, 788365261, 0.97482157, 0.017396562, 0.0010517439, -0.22230388, -0.14166997, -0.37528056, 0.078692436, 0
797, 788398595, 0.9748336, 0.01739778, 0.0010471966, -0.22225091, -0.1435413, -0.38411948, 0.07289028, 0
798, 788415262, 0.97483844, 0.01739913, 0.0010510193, -0.22222966, -0.15427996, -0.36418545, 0.082855225, 0
799, 788431929, 0.974841, 0.017392475, 0.001050932, -0.22221905, -0.13181384, -0.36599118, 0.07717514, 0
801, 788465263, 0.97485745, 0.01740311, 0.001047784, -0.222146, -0.14701395, -0.36839303, 0.059574127, 0
802, 788481930, 0.9748607, 0.017401636, 0.0010477708, -0.22213177, -0.13411735, -0.3766115, 0.07227516, 0
803, 788498597, 0.9748637, 0.017406613, 0.001042668, -0.2221181, -0.14083342, -0.38115788, 0.069527626, 0
805, 788531931, 0.9748688, 0.017412497, 0.0010374162, -0.22209571, -0.14795353, -0.37153754, 0.09028149, 0
807, 788565265, 0.9748857, 0.01742029, 0.0010380588, -0.22202088, -0.14224488, -0.36099026, 0.0902462, 0
809, 788598599, 0.9748932, 0.017430453, 0.0010518973, -0.22198682, -0.14162225, -0.36635768, 0.06861305, 0
810, 788615266, 0.97490066, 0.01743152, 0.0010498042, -0.22195399, -0.14415145, -0.37358654, 0.08014393, 0
811, 788631933, 0.9749052, 0.01743845, 0.0010488296, -0.22193357, -0.13587652, -0.36924183, 0.09406662, 0
813, 788665267, 0.97491205, 0.017448723, 0.0010606527, -0.22190253, -0.13018389, -0.37773466, 0.08702946, 0
814, 788681934, 0.9749225, 0.017453128, 0.0010607557, -0.22185646, -0.13021821, -0.36278656, 0.06704712, 0
815, 788698601, 0.97492886, 0.017455976, 0.0010604578, -0.22182815, -0.13630004, -0.37854376, 0.091692924, 0
817, 788731935, 0.9749399, 0.017460514, 0.0010550338, -0.22177972, -0.14475818, -0.37564817, 0.09584427, 0
818, 788748602, 0.97494864, 0.01745693, 0.0010622967, -0.22174172, -0.13479982, -0.36648813, 0.08318329, 0
820, 788781936, 0.9749586, 0.017455954, 0.0010719409, -0.22169775, -0.1489043, -0.3845178, 0.0807991, 0
821, 788798603, 0.97496647, 0.017469237, 0.0010726951, -0.22166204, -0.15700352, -0.3657447, 0.07310581, 0
822, 788815270, 0.9749806, 0.017476028, 0.0010712732, -0.22159936, -0.14027143, -0.374006, 0.06358719, 0
824, 788848604, 0.97499806, 0.017493086, 0.001068851, -0.22152105, -0.14435868, -0.36907592, 0.065732956, 0
825, 788865271, 0.975011, 0.017500082, 0.0010722101, -0.22146346, -0.1322143, -0.36599392, 0.07010937, 0
826, 788881938, 0.9750148, 0.017491527, 0.0010699617, -0.22144777, -0.1556593, -0.37168542, 0.07978344, 0
828, 788915272, 0.9750242, 0.01748914, 0.0010597609, -0.22140647, -0.13892312, -0.3616281, 0.07588959, 0
829, 788931939, 0.9750286, 0.017498823, 0.0010573405, -0.22138667, -0.14041881, -0.3730353, 0.07299709, 0
830, 788948606, 0.97503394, 0.017504154, 0.0010562852, -0.2213622, -0.149694, -0.36852482, 0.09697342, 0
832, 788981940, 0.97504526, 0.017512433, 0.0010570977, -0.22131181, -0.12789348, -0.37517506, 0.076455116, 0
834, 789015274, 0.9750548, 0.01751684, 0.0010460392, -0.22126938, -0.14663029, -0.3758519, 0.0604887, 0
836, 789048608, 0.9750672, 0.017517934, 0.0010364503, -0.2212145, -0.1408502, -0.3742805, 0.082211494, 0
837, 789065275, 0.97507274, 0.017519075, 0.0010373851, -0.22119012, -0.15757844, -0.38035434, 0.086559296, 0
838, 789081942, 0.9750773, 0.017519824, 0.0010444702, -0.22117007, -0.13429128, -0.36606443, 0.088936806, 0
840, 789115276, 0.97509056, 0.017520634, 0.0010436164, -0.22111143, -0.1389495, -0.38026482, 0.069028854, 0
841, 789131943, 0.9750968, 0.017519306, 0.0010610408, -0.22108404, -0.1427568, -0.37834546, 0.0717144, 0
842, 789148610, 0.9751026, 0.017524315, 0.0010677453, -0.22105832, -0.13209493, -0.36372283, 0.06523895, 0
844, 789181944, 0.9751153, 0.01752748, 0.0010519013, -0.22100206, -0.14331043, -0.35492778, 0.06889534, 0
845, 789198611, 0.9751218, 0.017532127, 0.0010412324, -0.22097285, -0.14197582, -0.3847248, 0.074668884, 0
847, 789231945, 0.97514105, 0.017534234, 0.0010300745, -0.22088775, -0.14916182, -0.37303665, 0.082110405, 0
849, 789265279, 0.9751445, 0.017528566, 0.0010528255, -0.2208731, -0.14569671, -0.37245405, 0.07138157, 0
851, 789298613, 0.9751734, 0.017537134, 0.0010626737, -0.22074457, -0.13568425, -0.37459815, 0.08804226, 0
852, 789315280, 0.97517914, 0.017542118, 0.0010616097, -0.2207191, -0.13635153, -0.3742567, 0.09210968, 0
853, 789331947, 0.9751817, 0.017549923, 0.0010468564, -0.22070673, -0.13858026, -0.37917614, 0.0713768, 0
855, 789365281, 0.9751969, 0.017545693, 0.001038419, -0.22063982, -0.14998949, -0.365538, 0.08103943, 0
856, 789381948, 0.9752023, 0.017541885, 0.0010328768, -0.2206166, -0.14246382, -0.3739465, 0.08307457, 0
857, 789398615, 0.9752084, 0.017543294, 0.0010453766, -0.22058928, -0.14077754, -0.37278554, 0.079239845, 0
859, 789431949, 0.97521263, 0.01753382, 0.0010272987, -0.22057126, -0.14132039, -0.37115338, 0.09235573, 0
860, 789448616, 0.97522694, 0.017528197, 0.0010224588, -0.22050871, -0.14671417, -0.3651193, 0.0776701, 0
861, 789465283, 0.9752338, 0.017519452, 0.0010186812, -0.22047918, -0.13653952, -0.37537, 0.07474136, 0
864, 789515284, 0.9752459, 0.017514475, 0.0010160644, -0.22042552, -0.13705683, -0.3743752, 0.089323044, 0
865, 789531951, 0.97525376, 0.017519878, 0.001008855, -0.22039092, -0.14517984, -0.3889616, 0.0892477, 0
867, 789565285, 0.9752639, 0.017529486, 0.001014636, -0.22034495, -0.14678474, -0.38278148, 0.09137249, 0
868, 789581952, 0.975269, 0.01752989, 0.0010213213, -0.22032227, -0.1549439, -0.3842409, 0.07185459, 0
869, 789598619, 0.97527313, 0.017532716, 0.0010170134, -0.22030397, -0.14092341, -0.3662723, 0.08598137, 0
871, 789631953, 0.97528297, 0.017537938, 0.0010235896, -0.22025964, -0.12835969, -0.35850802, 0.08897972, 0
872, 789648620, 0.97528845, 0.017540675, 0.0010202499, -0.22023511, -0.14524826, -0.37061062, 0.056694984, 0
874, 789681954, 0.97530055, 0.017548136, 0.0010288493, -0.22018144, -0.15908723, -0.37895587, 0.074801445, 0
875, 789698621, 0.97530764, 0.017550835, 0.0010263564, -0.22014965, -0.147156, -0.36536914, 0.07589722, 0
876, 789715288, 0.97531295, 0.01754574, 0.0010154699, -0.2201266, -0.14210117, -0.37104288, 0.06432152, 0
879, 789765289, 0.975321, 0.017540526, 0.0010210455, -0.22009107, -0.15038468, -0.3664378, 0.07295704, 0
880, 789781956, 0.9753286, 0.017547043, 0.0010267057, -0.2200568, -0.1474249, -0.37714526, 0.07374287, 0
882, 789815290, 0.9753439, 0.017543344, 0.0010230942, -0.21998942, -0.13221551, -0.37098563, 0.06760979, 0
883, 789831957, 0.9753492, 0.017552098, 0.0010251219, -0.21996531, -0.14074293, -0.3672383, 0.06475639, 0
884, 789848624, 0.9753543, 0.017552909, 0.0010213025, -0.2199428, -0.14040773, -0.3798838, 0.09148502, 0
886, 789881958, 0.97536504, 0.017560214, 0.0010209009, -0.21989456, -0.13747938, -0.35595068, 0.07810211, 0
887, 789898625, 0.9753665, 0.017557211, 0.0010198551, -0.21988848, -0.1572397, -0.3788345, 0.08802128, 0
888, 789915292, 0.9753699, 0.017563304, 0.0010234448, -0.21987289, -0.1381407, -0.3812401, 0.07611942, 0
890, 789948626, 0.9753906, 0.017569652, 0.0010410297, -0.21978016, -0.15210068, -0.36014676, 0.08930683, 0
891, 789965293, 0.97539747, 0.017577412, 0.001031047, -0.21974915, -0.14341941, -0.36654493, 0.06830692, 0
892, 789981960, 0.97540796, 0.017574564, 0.0010212429, -0.21970272, -0.15276629, -0.36089736, 0.09572983, 0
894, 790015294, 0.9754127, 0.017579235, 0.0010152784, -0.21968147, -0.1421154, -0.37383848, 0.10139561, 0
895, 790031961, 0.97541565, 0.017578783, 9.951065E-4, -0.21966858, -0.13513228, -0.37395003, 0.073952675, 0
896, 790048628, 0.9754212, 0.017579343, 0.0010054499, -0.2196443, -0.13537416, -0.3798535, 0.07112217, 0
898, 790081962, 0.9754382, 0.017567616, 0.001010385, -0.21956922, -0.1433676, -0.38612795, 0.081095695, 0
899, 790098629, 0.97544336, 0.017569887, 0.0010147142, -0.21954618, -0.14051601, -0.37516806, 0.06757927, 0
901, 790131963, 0.9754549, 0.017562965, 0.001005672, -0.21949539, -0.13990763, -0.37444773, 0.07196045, 0
902, 790148630, 0.97546023, 0.017570896, 9.996777E-4, -0.21947104, -0.13795567, -0.37484726, 0.0717144, 0
903, 790165297, 0.975465, 0.017571498, 0.0010208852, -0.21944979, -0.14453411, -0.37630484, 0.080963135, 0
906, 790215298, 0.97547036, 0.017567197, 0.0010385343, -0.21942616, -0.14612551, -0.3767124, 0.06704235, 0
907, 790231965, 0.9754802, 0.017568495, 0.0010350149, -0.21938232, -0.14084774, -0.37210113, 0.0818491, 0
909, 790265299, 0.9754896, 0.01757958, 0.0010477472, -0.21933968, -0.15151514, -0.3816628, 0.08392143, 0
910, 790281966, 0.9754979, 0.017569916, 0.0010471956, -0.21930349, -0.1455841, -0.36900684, 0.08974171, 0
911, 790298633, 0.97550726, 0.017567988, 0.0010440875, -0.21926184, -0.13877082, -0.3796843, 0.08730316, 0
913, 790331967, 0.97551465, 0.017566597, 0.00105789, -0.219229, -0.14954793, -0.38084075, 0.07255268, 0
914, 790348634, 0.97552, 0.0175687, 0.0010721979, -0.21920492, -0.13814512, -0.37778434, 0.076459885, 0
915, 790365301, 0.97552305, 0.017562496, 0.0010762741, -0.21919167, -0.13587311, -0.3814632, 0.09259415, 0
917, 790398635, 0.9755374, 0.017562425, 0.0010672564, -0.21912771, -0.13848117, -0.37680894, 0.08741951, 0
918, 790415302, 0.9755425, 0.017561207, 0.0010731871, -0.21910594, -0.14580375, -0.3753697, 0.07770157, 0
921, 790465303, 0.97555757, 0.0175732, 0.0010820684, -0.2190373, -0.13652386, -0.37452012, 0.09193802, 0
922, 790481970, 0.9755635, 0.017569777, 0.0010852633, -0.2190111, -0.14837416, -0.38880497, 0.063165665, 0
923, 790498637, 0.9755674, 0.017565928, 0.0010801451, -0.21899398, -0.14778079, -0.38642433, 0.06246853, 0
925, 790531971, 0.9755824, 0.017551262, 0.0010829396, -0.21892837, -0.13783209, -0.38407335, 0.09239006, 0
926, 790548638, 0.9755886, 0.017553126, 0.0010836634, -0.21890084, -0.1439153, -0.36797872, 0.06959629, 0
928, 790581972, 0.97559935, 0.017560251, 0.0011016887, -0.21885271, -0.13657667, -0.38025215, 0.08028221, 0
929, 790598639, 0.9756075, 0.017565334, 0.0011079967, -0.21881595, -0.154052, -0.3708726, 0.06662464, 0
930, 790615306, 0.97560793, 0.017565688, 0.0011145083, -0.21881346, -0.14557694, -0.37995365, 0.07383728, 0
932, 790648640, 0.9756123, 0.017563768, 0.0011002237, -0.21879412, -0.13749938, -0.37845987, 0.0886879, 0
933, 790665307, 0.9756206, 0.017567113, 0.0010994663, -0.21875659, -0.13203351, -0.368607, 0.09167385, 0
936, 790715308, 0.9756265, 0.017568579, 0.001180938, -0.21872963, -0.19133045, -0.37252915, 0.12539482, 0
937, 790731975, 0.9756366, 0.01756434, 0.0011593793, -0.21868561, -0.08630728, -0.38302398, 0.008640289, 0
938, 790748642, 0.9756429, 0.017565345, 0.0011636522, -0.21865743, -0.15180533, -0.36425525, 0.15859795, 0
940, 790781976, 0.9756532, 0.017555978, 0.0011233408, -0.21861206, -0.17069091, -0.37202635, 0.100310326, 0
941, 790798643, 0.9756591, 0.017556299, 0.001117178, -0.21858561, -0.10465741, -0.38262528, 0.049497604, 0
942, 790815310, 0.9756606, 0.017558806, 0.001110748, -0.21857874, -0.15500703, -0.37232506, 0.06616211, 0
944, 790848644, 0.97531545, 0.017599616, 0.0011844264, -0.22011016, 0.067449145, -0.16707434, 0.12433338, 0
945, 790865311, 0.97478014, 0.017652683, 0.0011834104, -0.22246478, 0.15582092, -0.36662105, 0.064837456, 0
946, 790881978, 0.97418994, 0.017731326, 0.0012767017, -0.22502838, -0.08408515, -0.49550733, 0.12407875, 0
948, 790915312, 0.97321826, 0.017840937, 0.0013782878, -0.22918582, -0.10213285, -0.54802614, 0.12316513, 0
950, 790948646, 0.9728282, 0.017887454, 0.0013920153, -0.23083222, -0.3344489, -0.29803377, 0.07749748, 0
952, 790981980, 0.97229844, 0.017944029, 0.0014018868, -0.2330486, 0.054245695, -0.42133114, 0.06884098, 0
953, 790998647, 0.9716011, 0.01802065, 0.0014833157, -0.23593271, 0.26652518, -0.5270077, 0.08746147, 0
955, 791031981, 0.96970683, 0.018213414, 0.0017303157, -0.24358544, 0.114461936, -0.5499791, 0.098127365, 0
956, 791048648, 0.9687271, 0.018303521, 0.0018683673, -0.24744542, -0.02591573, -0.5481126, 0.055958748, 0
957, 791065315, 0.9678878, 0.018369436, 0.0019231525, -0.25070366, -0.24421199, -0.49156958, 0.06079197, 0
959, 791098649, 0.96637434, 0.01849837, 0.0020211532, -0.25646505, -0.107905656, -0.42401627, 0.07923031, 0
960, 791115316, 0.9653764, 0.018591713, 0.0020151876, -0.26019004, -0.094640695, -0.45856157, 0.053811073, 0
961, 791131983, 0.9641459, 0.018711453, 0.0021504099, -0.26470372, 0.03638392, -0.60810935, 0.111050606, 0
963, 791165317, 0.9609999, 0.018990058, 0.002558943, -0.2758838, -0.035524324, -0.4425407, 0.1404419, 0
964, 791181984, 0.9591504, 0.019148383, 0.0027691142, -0.28223395, 0.015306716, -0.50640815, 0.0054340363, 0
965, 791198651, 0.9573815, 0.019291893, 0.0029376694, -0.2881665, -0.25067562, -0.417739, 0.13302135, 0
967, 791231985, 0.95297444, 0.01962808, 0.0032077066, -0.3023976, 0.3020977, -0.7674146, 0.09487152, 0
968, 791248652, 0.9502467, 0.019810902, 0.0034074697, -0.31084946, 0.24965607, -0.8535123, -0.018496513, 0
969, 791265319, 0.9470972, 0.020048618, 0.0036378768, -0.32029933, 0.041283343, -1.1164893, 0.2956276, 0
971, 791298653, 0.939187, 0.020473605, 0.004000341, -0.34277183, -0.049689706, -0.79795265, 0.41331387, 0
972, 791315320, 0.9349386, 0.020669991, 0.004048813, -0.35418388, 0.19245793, -1.0459597, -0.20650768, 0
973, 791331987, 0.9303585, 0.020943455, 0.004396794, -0.3660259, 0.00940671, -0.8622459, 0.17321777, 0
975, 791365321, 0.9199658, 0.02154927, 0.0050394726, -0.39137375, -0.35271776, -0.8371167, 0.5089588, 0
977, 791398655, 0.9072712, 0.022000834, 0.0053687384, -0.41993582, -0.017377295, -1.2117189, 0.2532959, 0
979, 791431989, 0.8922116, 0.022520484, 0.0058015836, -0.4510186, -0.18337473, -0.8878482, 0.2833109, 0
980, 791448656, 0.88412195, 0.022840297, 0.0062056407, -0.46665666, -0.44306266, -0.87359816, -0.10833168, 0
981, 791465323, 0.87545615, 0.023069408, 0.0065252483, -0.4827026, -0.54422885, -0.6209108, 0.0045490265, 0
983, 791498657, 0.858102, 0.02355337, 0.00713614, -0.51288927, -0.3206264, -0.56355697, -0.15027428, 0
984, 791515324, 0.8490077, 0.023679016, 0.007369831, -0.52779806, -0.41004384, -0.5214431, 0.12456226, 0
986, 791548658, 0.82893986, 0.024253156, 0.008100071, -0.55875313, -0.4185317, -1.5044124, 0.37482738, 0
987, 791565325, 0.8181067, 0.024295751, 0.008553965, -0.5744892, -0.4472695, -1.0767848, 0.20315838, 0
988, 791581992, 0.8072459, 0.024844736, 0.009443656, -0.5896165, -0.5407973, -0.3150143, -0.58323765, 0
990, 791615326, 0.7856669, 0.025241064, 0.010118596, -0.61805177, -0.6121758, -0.020250162, -0.26197433, 0
992, 791648660, 0.76273096, 0.025623677, 0.010900604, -0.6461162, -0.35968313, 0.29748467, -0.077409744, 0
994, 791681994, 0.7441082, 0.025908971, 0.011382637, -0.6674596, -0.9763322, 0.31967482, -0.14072227, 0
995, 791698661, 0.7353783, 0.02594789, 0.011485901, -0.67706233, -0.7864742, 0.19351071, 0.2664032, 0
996, 791715328, 0.7269838, 0.026162026, 0.011842301, -0.6860537, -0.35392994, -0.10477255, -0.19856834, 0
998, 791748662, 0.7104536, 0.026447924, 0.012311707, -0.70313925, -0.42003298, -0.15619376, -0.10215092, 0
999, 791765329, 0.7017642, 0.026603177, 0.012532991, -0.71180207, -0.39621454, 0.17214912, 0.1320858, 0
1000, 791781996, 0.6928367, 0.02689395, 0.012926604, -0.7204769, -0.88030267, 0.07271709, 0.021122932, 0
1002, 791815330, 0.67399925, 0.02746478, 0.013703666, -0.73809415, -0.25314173, 1.154695, 0.23741245, 0
1003, 791831997, 0.6655848, 0.027691212, 0.013992238, -0.7456771, 0.4659704, 0.7071214, 0.039863586, 0
1004, 791848664, 0.65857637, 0.027944423, 0.014281607, -0.75185925, 0.5583287, 0.3055749, 0.27388, 0
1007, 791898665, 0.6379594, 0.028274052, 0.014677949, -0.76941067, 0.22706039, -0.46725202, -0.055516243, 0
1008, 791915332, 0.63170964, 0.02850893, 0.014969369, -0.774536, 0.70807964, -0.6568895, 0.20582867, 0
1010, 791948666, 0.6210006, 0.028990207, 0.015668806, -0.7831169, -0.10862016, -0.34982806, 0.44171238, 0
1011, 791965333, 0.6168574, 0.028820995, 0.01542292, -0.7863957, -0.13230766, -1.0182341, -0.16728973, 0
1013, 791998667, 0.6090037, 0.028990665, 0.015662786, -0.7924827, -0.48726496, -0.6191336, 0.043628693, 0
1014, 792015334, 0.60450244, 0.02895728, 0.015667792, -0.7959225, -0.81058955, -0.4296184, 0.13275433, 0
1015, 792032001, 0.60003805, 0.029036375, 0.015758822, -0.79928905, -0.15094696, -0.76124465, 0.028182983, 0
1017, 792065335, 0.5910738, 0.029094487, 0.015869558, -0.80593646, -0.36096135, -0.53382, 0.11509895, 0
1018, 792082002, 0.5873462, 0.02914503, 0.015944224, -0.80865365, -0.32080117, -0.57769483, 0.0075178146, 0
1019, 792098669, 0.5832972, 0.029200926, 0.01603718, -0.8115753, -0.5594309, -0.5900548, 0.15006828, 0
1022, 792148670, 0.57042503, 0.029287556, 0.016193705, -0.8206675, -0.4546241, -0.15269798, 0.098329544, 0
1023, 792165337, 0.56615084, 0.029338513, 0.016247712, -0.8236191, -0.3981771, 0.14251809, 0.088869095, 0
1025, 792198671, 0.5599875, 0.02940129, 0.016335694, -0.8278181, -0.07505365, -0.47552013, 0.10416889, 0
1026, 792215338, 0.5577773, 0.029435482, 0.016378503, -0.82930684, -0.20873255, -0.5509276, -3.8719177E-4, 0
1027, 792232005, 0.55564386, 0.02948152, 0.016424289, -0.8307352, -0.4693601, -0.21859458, 0.20458984, 0
1029, 792265339, 0.5521243, 0.029506406, 0.016464217, -0.8330767, -0.26694727, -0.5549722, 0.11945629, 0
1030, 792282006, 0.5507782, 0.029468788, 0.016432488, -0.83396935, -0.21237408, -0.5602733, 0.1540308, 0
1031, 792298673, 0.54981166, 0.029504407, 0.016445152, -0.83460546, -0.23935014, -0.57178754, -0.018486977, 0
1033, 792332007, 0.5482967, 0.029498296, 0.016408449, -0.83560234, -0.21847928, -0.5977488, 0.05434704, 0
1034, 792348674, 0.5474476, 0.029481554, 0.016384099, -0.83616, -0.29495257, -0.51212645, 0.07635307, 0
1035, 792365341, 0.5465317, 0.029502135, 0.016393611, -0.83675796, -0.23867661, -0.52456355, 0.040187836, 0
1037, 792398675, 0.54608816, 0.029510813, 0.016374892, -0.83704764, -0.27650517, -0.46182275, 0.015882492, 0
1038, 792415342, 0.5461065, 0.02951494, 0.01636776, -0.83703566, -0.26026154, -0.45188978, 0.09728432, 0
1040, 792448676, 0.5461392, 0.029526647, 0.016332604, -0.8370145, -0.26642224, -0.4576787, 0.1266079, 0
1041, 792465343, 0.5461598, 0.029539626, 0.016318867, -0.83700085, -0.2744642, -0.47538406, 0.049750328, 0
1042, 792482010, 0.5461796, 0.029536063, 0.016305797, -0.83698833, -0.25709808, -0.46043572, 0.07827473, 0
1044, 792515344, 0.54623044, 0.029559279, 0.01631672, -0.8369542, -0.27150282, -0.46829897, 0.06366444, 0
1045, 792532011, 0.54624397, 0.02956524, 0.016314093, -0.83694524, -0.26169673, -0.4746797, 0.08204365, 0
1046, 792548678, 0.54626274, 0.02955528, 0.016300078, -0.83693343, -0.27783945, -0.46093172, 0.05101967, 0
1049, 792598679, 0.5463421, 0.029640106, 0.016324416, -0.83687824, -0.2459054, -0.4415269, 0.12464523, 0
1050, 792615346, 0.5463585, 0.029615832, 0.016292585, -0.836869, -0.27868268, -0.46033686, 0.05953884, 0
1052, 792648680, 0.54640466, 0.029602991, 0.016245948, -0.83684015, -0.26511878, -0.46776965, 0.080246925, 0
1053, 792665347, 0.54642564, 0.029583119, 0.016227802, -0.8368275, -0.27065298, -0.46893835, 0.09278679, 0
1054, 792682014, 0.5464514, 0.029571386, 0.01621122, -0.8368114, -0.27471858, -0.47016424, 0.06347275, 0
1056, 792715348, 0.54649514, 0.029552627, 0.016166098, -0.8367844, -0.26397303, -0.4612012, 0.08904266, 0
1057, 792732015, 0.5465243, 0.029540874, 0.016144905, -0.8367662, -0.2679585, -0.4724351, 0.06358433, 0
1058, 792748682, 0.5465418, 0.029536981, 0.016122459, -0.83675534, -0.26617265, -0.44973165, 0.08851814, 0
1060, 792782016, 0.54658675, 0.029521639, 0.016069552, -0.83672756, -0.2841783, -0.47168687, 0.07566643, 0
1061, 792798683, 0.5466117, 0.029511543, 0.016046626, -0.8367121, -0.2710066, -0.46083713, 0.052905083, 0
1064, 792848684, 0.5466732, 0.029471317, 0.015995583, -0.8366743, -0.27394813, -0.45609102, 0.06480312, 0
1065, 792865351, 0.54669267, 0.029458957, 0.015966667, -0.83666265, -0.2666256, -0.46565297, 0.07953358, 0
1067, 792898685, 0.5467409, 0.029429661, 0.015920395, -0.8366329, -0.26242143, -0.45552891, 0.07927132, 0
1068, 792915352, 0.54675573, 0.029416543, 0.015892027, -0.8366243, -0.26673996, -0.45221364, 0.058776855, 0
1069, 792932019, 0.54677415, 0.029399944, 0.015875334, -0.8366132, -0.28071266, -0.4462471, 0.072592735, 0
1071, 792965353, 0.5468061, 0.029388096, 0.015828062, -0.8365937, -0.26616123, -0.46325123, 0.08482647, 0
1072, 792982020, 0.5468241, 0.029375704, 0.015807116, -0.83658266, -0.26777017, -0.46605378, 0.06607628, 0
1073, 792998687, 0.5468426, 0.029366847, 0.015790308, -0.8365712, -0.26885223, -0.4606854, 0.05726242, 0
1075, 793032021, 0.54687583, 0.029346963, 0.015746905, -0.83655095, -0.2708603, -0.4451221, 0.06719971, 0
1076, 793048688, 0.54689705, 0.029339798, 0.015718417, -0.8365379, -0.26392397, -0.43686226, 0.07442188, 0
1079, 793098689, 0.54694897, 0.029312111, 0.015640387, -0.83650637, -0.26575467, -0.45782158, 0.058457375, 0
1080, 793115356, 0.5469724, 0.029306248, 0.015614196, -0.83649176, -0.26016086, -0.44330922, 0.059627533, 0
1081, 793132023, 0.54699904, 0.029290851, 0.015581832, -0.8364755, -0.26347435, -0.45059553, 0.07988167, 0
1083, 793165357, 0.547045, 0.029267142, 0.01553244, -0.83644724, -0.27049643, -0.42474514, 0.05201435, 0
1084, 793182024, 0.54705733, 0.029254347, 0.015507, -0.83644015, -0.27351588, -0.44459656, 0.07625198, 0
1085, 793198691, 0.54707927, 0.029236877, 0.015475794, -0.8364268, -0.25826102, -0.4533234, 0.08350372, 0
1087, 793232025, 0.54712224, 0.029206721, 0.015436346, -0.83640045, -0.2638945, -0.44285303, 0.071811676, 0
1088, 793248692, 0.5471426, 0.029184634, 0.015411103, -0.8363883, -0.26696584, -0.44237757, 0.09302616, 0
1089, 793265359, 0.54717004, 0.029171033, 0.015378697, -0.8363716, -0.26702523, -0.44678375, 0.072585106, 0
1091, 793298693, 0.5472125, 0.029133633, 0.015331269, -0.8363459, -0.26588136, -0.45338064, 0.077147484, 0
1094, 793348694, 0.5472746, 0.02909479, 0.015257278, -0.836308, -0.25462368, -0.43542358, 0.045659065, 0
1095, 793365361, 0.5473007, 0.029082146, 0.015227041, -0.83629197, -0.2720474, -0.43052524, 0.054383278, 0
1096, 793382028, 0.5473168, 0.029063256, 0.015196274, -0.8362827, -0.27829096, -0.43425342, 0.07672024, 0
1098, 793415362, 0.54735523, 0.029035963, 0.015153481, -0.8362591, -0.2774992, -0.44100487, 0.0671978, 0
1099, 793432029, 0.5473799, 0.029022558, 0.015122919, -0.8362439, -0.27562413, -0.43104938, 0.07543373, 0
1100, 793448696, 0.5474071, 0.029011942, 0.015104384, -0.83622694, -0.25721112, -0.44432342, 0.058965683, 0
1102, 793482030, 0.5474636, 0.028967656, 0.015040027, -0.8361926, -0.2729831, -0.4413238, 0.08230972, 0
1103, 793498697, 0.5474795, 0.028943663, 0.015015943, -0.8361836, -0.26775196, -0.4370769, 0.08044529, 0
1104, 793515364, 0.54750305, 0.028925186, 0.014981821, -0.83616936, -0.27626988, -0.42286977, 0.084171295, 0
1106, 793548698, 0.5475458, 0.028888173, 0.014913193, -0.8361438, -0.27143505, -0.4401244, 0.06027794, 0
1107, 793565365, 0.5475677, 0.02886848, 0.014886401, -0.8361306, -0.2778318, -0.43261725, 0.07617855, 0
1108, 793582032, 0.54758394, 0.028849151, 0.014855772, -0.8361213, -0.27169716, -0.43239686, 0.073449135, 0
1110, 793615366, 0.547635, 0.028813848, 0.014792973, -0.83608997, -0.26830983, -0.43837646, 0.0898571, 0
1111, 793632033, 0.54765785, 0.028781991, 0.014766085, -0.8360768, -0.28184012, -0.44137266, 0.07786083, 0
1112, 793648700, 0.54767877, 0.02876318, 0.014738751, -0.8360642, -0.25702888, -0.4454199, 0.09136486, 0
1114, 793682034, 0.5477082, 0.02872195, 0.014681366, -0.8360474, -0.26726574, -0.43747848, 0.052225113, 0
1115, 793698701, 0.5477243, 0.028702447, 0.014657483, -0.83603793, -0.25887203, -0.42653626, 0.061825752, 0
1116, 793715368, 0.54774016, 0.028677508, 0.014629158, -0.8360288, -0.26544487, -0.42819998, 0.06575298, 0
1118, 793748702, 0.54778004, 0.028634174, 0.014567674, -0.8360053, -0.2631868, -0.42926994, 0.087402344, 0
1121, 793798703, 0.547847, 0.028577624, 0.0144835515, -0.83596474, -0.2568541, -0.4352119, 0.06273937, 0
1122, 793815370, 0.54786456, 0.028549463, 0.01444891, -0.8359548, -0.28005883, -0.4338443, 0.08281803, 0
1123, 793832037, 0.54788154, 0.0285215, 0.014428599, -0.8359449, -0.26869294, -0.41189754, 0.069067955, 0
1125, 793865371, 0.54793173, 0.028484164, 0.014379636, -0.8359141, -0.266715, -0.4122878, 0.075844765, 0
1126, 793882038, 0.5479403, 0.028469602, 0.014350416, -0.8359096, -0.2646155, -0.4264795, 0.09705734, 0
1127, 793898705, 0.54796207, 0.0284494, 0.014314537, -0.8358966, -0.2632523, -0.42494237, 0.08361244, 0
1129, 793932039, 0.54800093, 0.028416822, 0.014266673, -0.8358732, -0.27057457, -0.42237675, 0.069395065, 0
1130, 793948706, 0.5480109, 0.02840205, 0.014238384, -0.83586764, -0.25891158, -0.4126846, 0.045781136, 0
1131, 793965373, 0.54802376, 0.028374609, 0.0142117385, -0.8358605, -0.27046672, -0.42350194, 0.0628252, 0
1133, 793998707, 0.5480721, 0.028336193, 0.014168939, -0.8358309, -0.26553577, -0.42359945, 0.06986809, 0
1135, 794032041, 0.5481147, 0.028297082, 0.014112429, -0.83580524, -0.26861563, -0.42514142, 0.06459713, 0
1137, 794065375, 0.5481489, 0.028267777, 0.014058382, -0.8357847, -0.26976472, -0.40771267, 0.07057762, 0
1138, 794082042, 0.54816955, 0.028239565, 0.014033239, -0.83577245, -0.26485938, -0.41509512, 0.079143524, 0
1139, 794098709, 0.5481925, 0.028216945, 0.014012744, -0.83575857, -0.2721709, -0.40748703, 0.073298454, 0
1141, 794132043, 0.548246, 0.028185312, 0.013954856, -0.83572555, -0.2660449, -0.41213933, 0.072146416, 0
1142, 794148710, 0.54826444, 0.028173018, 0.01392674, -0.83571434, -0.25859883, -0.42201376, 0.08159351, 0
1144, 794182044, 0.5483079, 0.028131362, 0.0138693545, -0.8356881, -0.26931065, -0.41238007, 0.07456112, 0
1145, 794198711, 0.5483272, 0.028109893, 0.0138484305, -0.8356765, -0.27159896, -0.41501865, 0.075071335, 0
1146, 794215378, 0.5483482, 0.028090782, 0.013828658, -0.83566374, -0.2687066, -0.40910113, 0.08028698, 0
1148, 794248712, 0.54840684, 0.028060775, 0.013762081, -0.83562726, -0.25983348, -0.40795147, 0.06632137, 0
1150, 794282046, 0.548449, 0.028007267, 0.013698714, -0.8356025, -0.27580318, -0.4063216, 0.076203346, 0
1152, 794315380, 0.5484827, 0.027949447, 0.0136411125, -0.8355832, -0.25103983, -0.40263614, 0.06900692, 0
1153, 794332047, 0.5485, 0.027927633, 0.0136176115, -0.8355731, -0.24928218, -0.40637422, 0.09506607, 0
1154, 794348714, 0.54852396, 0.02790633, 0.013587159, -0.8355584, -0.26013127, -0.40537968, 0.08324146, 0
1156, 794382048, 0.54857427, 0.027857091, 0.013514878, -0.83552825, -0.2618429, -0.39927447, 0.080174446, 0
1157, 794398715, 0.54860425, 0.027846698, 0.013475297, -0.83550954, -0.2749728, -0.40487963, 0.08890724, 0
1158, 794415382, 0.5486341, 0.027823478, 0.013447622, -0.8354912, -0.26589197, -0.40316078, 0.09358215, 0
1160, 794448716, 0.5486891, 0.027764592, 0.01340031, -0.8354578, -0.27448866, -0.4026175, 0.08026695, 0
1161, 794465383, 0.5487111, 0.027737875, 0.0133716585, -0.8354447, -0.27206466, -0.38810232, 0.0759716, 0
1162, 794482050, 0.54872966, 0.027704002, 0.013334917, -0.83543426, -0.26720318, -0.4031024, 0.08307934, 0
1165, 794532051, 0.5488005, 0.0276214, 0.01324411, -0.8353918, -0.2602699, -0.38614, 0.07391834, 0
1166, 794548718, 0.5488224, 0.027595457, 0.013209191, -0.83537894, -0.26581815, -0.3736241, 0.062849045, 0
1168, 794582052, 0.5488539, 0.027530225, 0.013143283, -0.8353614, -0.2577663, -0.39652717, 0.059788704, 0
1169, 794598719, 0.5488728, 0.027506875, 0.013106977, -0.8353503, -0.2730306, -0.3941529, 0.090434074, 0
1171, 794632053, 0.54890734, 0.027458651, 0.013047679, -0.83533007, -0.27544442, -0.38007668, 0.0892477, 0
1172, 794648720, 0.54892236, 0.02743235, 0.013025016, -0.8353215, -0.25805008, -0.38901025, 0.08627224, 0
1173, 794665387, 0.54895616, 0.027403856, 0.013004048, -0.8353006, -0.2637098, -0.391431, 0.07232571, 0
1175, 794698721, 0.5490034, 0.02735506, 0.012951733, -0.8352719, -0.27660844, -0.38163292, 0.06618214, 0
1176, 794715388, 0.5490272, 0.027322471, 0.01291742, -0.8352579, -0.27040747, -0.37894738, 0.0646286, 0
1177, 794732055, 0.549052, 0.027299426, 0.012875305, -0.83524305, -0.27007702, -0.38875595, 0.072981834, 0
1179, 794765389, 0.5490959, 0.02723039, 0.012801468, -0.83521736, -0.25652513, -0.38582158, 0.061356544, 0
1180, 794782056, 0.5491149, 0.027205268, 0.012772724, -0.8352063, -0.2645957, -0.37908918, 0.08078003, 0
1181, 794798723, 0.5491386, 0.027177623, 0.012736423, -0.83519214, -0.2542009, -0.38555247, 0.0691843, 0
1183, 794832057, 0.54917645, 0.027109241, 0.012679373, -0.83517027, -0.25221258, -0.3693963, 0.09624004, 0
1184, 794848724, 0.5491882, 0.02707976, 0.012646651, -0.8351641, -0.25908446, -0.3662363, 0.09072399, 0
1185, 794865391, 0.54921657, 0.027046857, 0.012612663, -0.83514696, -0.25047344, -0.37824294, 0.08653164, 0
1187, 794898725, 0.5492518, 0.026985165, 0.012548275, -0.8351267, -0.26154694, -0.37474483, 0.06804371, 0
1188, 794915392, 0.54926735, 0.026947476, 0.012509889, -0.83511823, -0.2742519, -0.36745524, 0.087833405, 0
1189, 794932059, 0.54929394, 0.02691381, 0.012482331, -0.8351023, -0.2659535, -0.36534595, 0.101968765, 0
1192, 794982060, 0.54937357, 0.026827913, 0.012389491, -0.83505416, -0.2700422, -0.36524424, 0.084098816, 0
1193, 794998727, 0.5493911, 0.026796414, 0.012355556, -0.83504415, -0.25502455, -0.37182382, 0.07387543, 0
1195, 795032061, 0.54945046, 0.02674454, 0.012298404, -0.83500755, -0.2632852, -0.3564077, 0.049019814, 0
1196, 795048728, 0.5494677, 0.026715545, 0.012256288, -0.83499765, -0.25591996, -0.35835317, 0.078103065, 0
1198, 795082062, 0.5495107, 0.026654894, 0.012195842, -0.8349722, -0.25973576, -0.3544148, 0.0897913, 0
1199, 795098729, 0.54952973, 0.026622292, 0.012162986, -0.8349611, -0.24890602, -0.3652755, 0.09026146, 0
1200, 795115396, 0.5495476, 0.026596894, 0.01214345, -0.8349505, -0.25177732, -0.36929777, 0.06917286, 0
1202, 795148730, 0.54959124, 0.026528746, 0.012075538, -0.83492506, -0.2508961, -0.35328725, 0.09156132, 0
1203, 795165397, 0.5496109, 0.026494974, 0.012038129, -0.83491373, -0.25998276, -0.36198783, 0.08313179, 0
1204, 795182064, 0.5496345, 0.02647397, 0.012000257, -0.8348993, -0.26596957, -0.3594737, 0.07965565, 0
1207, 795232065, 0.549698, 0.026394252, 0.01190003, -0.8348614, -0.27217463, -0.36370683, 0.08606434, 0
1208, 795248732, 0.54971826, 0.026364606, 0.011871688, -0.8348495, -0.2705109, -0.36379808, 0.06771088, 0
1210, 795282066, 0.5497596, 0.026312407, 0.011808733, -0.8348248, -0.26623538, -0.35580805, 0.07294941, 0
1211, 795298733, 0.54978454, 0.026276452, 0.011779261, -0.83480984, -0.25880623, -0.35781413, 0.07843208, 0
1212, 795315400, 0.5498087, 0.026250664, 0.0117552085, -0.83479524, -0.26029482, -0.36363134, 0.08622837, 0
1214, 795348734, 0.54986334, 0.026197713, 0.011686127, -0.83476174, -0.25327405, -0.35983709, 0.09177685, 0
1215, 795365401, 0.54988605, 0.02617425, 0.011651904, -0.8347482, -0.2486212, -0.35498372, 0.07989788, 0
1216, 795382068, 0.5499031, 0.026157834, 0.011618249, -0.83473784, -0.24880672, -0.3477174, 0.08795357, 0
1218, 795415402, 0.5499357, 0.026088616, 0.011551174, -0.83471936, -0.2659579, -0.34861946, 0.07167816, 0
1219, 795432069, 0.54996103, 0.026068944, 0.011520895, -0.8347038, -0.24483064, -0.34727108, 0.07949352, 0
1222, 795482070, 0.5500226, 0.025980663, 0.011428377, -0.8346674, -0.2614044, -0.33791, 0.078448296, 0
1223, 795498737, 0.55004215, 0.025943274, 0.0113935955, -0.8346562, -0.24613526, -0.3461669, 0.07892895, 0
1225, 795532071, 0.55007964, 0.025871104, 0.011309269, -0.83463466, -0.25232038, -0.34256893, 0.07833099, 0
1226, 795548738, 0.5500933, 0.02583065, 0.011279569, -0.83462733, -0.2566257, -0.35778248, 0.07787132, 0
1227, 795565405, 0.5501164, 0.025792677, 0.011236836, -0.8346138, -0.26301602, -0.33130726, 0.07926464, 0
1229, 795598739, 0.5501502, 0.025719527, 0.011178195, -0.8345946, -0.26387683, -0.34334284, 0.0766058, 0
1230, 795615406, 0.55017674, 0.025711687, 0.011173489, -0.83457744, -0.24776226, -0.33685315, 0.0720911, 0
1231, 795632073, 0.5502028, 0.025698485, 0.011152012, -0.83456105, -0.2618901, -0.31882468, 0.07882595, 0
1233, 795665407, 0.5502476, 0.025609061, 0.011062007, -0.8345353, -0.25602755, -0.34193152, 0.10391903, 0
1234, 795682074, 0.55025977, 0.025566297, 0.011019122, -0.8345291, -0.26410568, -0.34062508, 0.08189297, 0
1237, 795732075, 0.55031884, 0.02547342, 0.010924041, -0.8344944, -0.2593944, -0.32229468, 0.08629894, 0
1238, 795748742, 0.5503399, 0.025439685, 0.010890553, -0.834482, -0.26166594, -0.32488048, 0.09452915, 0
1239, 795765409, 0.5503593, 0.025405979, 0.010855238, -0.8344707, -0.24985787, -0.32700464, 0.075344086, 0
1241, 795798743, 0.5504005, 0.025340078, 0.010767753, -0.8344466, -0.23718284, -0.3241473, 0.07153416, 0
1242, 795815410, 0.550421, 0.025309976, 0.010734881, -0.8344344, -0.25791788, -0.32369706, 0.08237362, 0
1243, 795832077, 0.550443, 0.025251878, 0.010667901, -0.8344225, -0.2470784, -0.32938844, 0.09184742, 0
1245, 795865411, 0.55048174, 0.025259174, 0.010674328, -0.83439666, -0.24659519, -0.3200268, 0.08417225, 0
1246, 795882078, 0.55063164, 0.025251566, 0.010685369, -0.8342978, -0.22392927, -0.50986946, 0.058727264, 0
1247, 795898745, 0.5513636, 0.025774207, 0.011262936, -0.8337907, -0.2241279, -0.55913544, -0.023744583, 0
1249, 795932079, 0.5530393, 0.027147619, 0.012713099, -0.8326156, -0.29959863, -0.062117714, 0.12856865, 0
1250, 795948746, 0.5531613, 0.02731999, 0.012899825, -0.8325261, -0.26673493, -0.0460076, 0.27266312, 0
1252, 795982080, 0.55322224, 0.025043655, 0.010498389, -0.83259094, -0.2605418, -0.51939607, -0.16344738, 0
1253, 795998747, 0.5532597, 0.024677033, 0.010159352, -0.83258116, -0.2676851, -0.3614548, -0.067811966, 0
1254, 796015414, 0.55327916, 0.024796182, 0.010259587, -0.8325635, -0.24677736, -0.32564548, 0.07960415, 0
1256, 796048748, 0.55332124, 0.024694774, 0.010160045, -0.83253974, -0.24283512, -0.3070336, 0.07043171, 0
1257, 796065415, 0.5533539, 0.024620607, 0.010099359, -0.83252096, -0.25846922, -0.32362747, 0.10106373, 0
1258, 796082082, 0.55337685, 0.024631979, 0.010100361, -0.8325054, -0.25961024, -0.3178314, 0.058712006, 0
1260, 796115416, 0.55341494, 0.024587408, 0.010064511, -0.83248186, -0.24346446, -0.3204309, 0.06294155, 0
1261, 796132083, 0.5534354, 0.024565902, 0.010023628, -0.83246934, -0.24658053, -0.30725405, 0.07967472, 0
1264, 796182084, 0.5534919, 0.02447598, 0.00992081, -0.83243555, -0.2523487, -0.3167572, 0.05121517, 0
1265, 796198751, 0.5535136, 0.024552142, 0.0099979155, -0.832418, -0.24920216, -0.3282036, 0.053811073, 0
1266, 796215418, 0.5535392, 0.02464622, 0.01009379, -0.8323971, -0.24302332, -0.2993158, 0.08511448, 0
1268, 796248752, 0.55357856, 0.024890218, 0.010370093, -0.8323603, -0.24578731, -0.27569243, 0.13029766, 0
1269, 796265419, 0.5536005, 0.024851333, 0.010342648, -0.8323472, -0.25483248, -0.33101872, 0.010152817, 0
1270, 796282086, 0.5536157, 0.024823261, 0.0103239585, -0.8323381, -0.23989344, -0.28093222, 0.114580154, 0
1272, 796315420, 0.5530863, 0.024947211, 0.010455816, -0.83268476, -0.2702438, -0.11228404, 0.09245491, 0
1273, 796332087, 0.5521957, 0.02508215, 0.010566063, -0.8332701, -0.268068, -0.13992175, 0.0986557, 0
1274, 796348754, 0.55116844, 0.025082069, 0.010551046, -0.8339504, -0.26164475, -0.32869485, 0.031389236, 0
1276, 796382088, 0.54853654, 0.025711816, 0.011170076, -0.83565646, -0.2549488, -0.28363118, 0.045121193, 0
1279, 796432089, 0.54438716, 0.025994, 0.011381806, -0.8383539, -0.2383585, -0.27126983, 0.15689659, 0
1280, 796448756, 0.5431226, 0.025466213, 0.010813688, -0.8391975, -0.27377257, -0.28058767, -0.057415962, 0
1281, 796465423, 0.5415103, 0.025784353, 0.0111049935, -0.84022516, -0.28217477, -0.22843848, -0.046585083, 0
1283, 796498757, 0.5373674, 0.027549239, 0.01280699, -0.8428008, -0.24519427, -0.28180334, 0.046710968, 0
1284, 796515424, 0.535267, 0.028303454, 0.013524011, -0.8441002, -0.23587705, -0.3651701, 0.09302044, 0
1285, 796532091, 0.53338766, 0.029155532, 0.014334385, -0.8452467, -0.46127415, -0.73146844, 0.09235668, 0
1287, 796565425, 0.5260499, 0.030371219, 0.015394037, -0.8497719, -0.9709159, -1.5474845, 0.090148926, 0
1288, 796582092, 0.5202344, 0.03031295, 0.015225579, -0.8533495, -0.9161986, -1.6078922, 0.08614159, 0
1289, 796598759, 0.51252574, 0.030186253, 0.014967098, -0.85801053, -0.9938052, -1.4181442, -0.026992798, 0
1291, 796632093, 0.4909735, 0.030804947, 0.015165043, -0.8704976, -1.4808279, -1.2135816, 0.0168581, 0
1293, 796665427, 0.46033072, 0.03131942, 0.015060034, -0.887067, -1.3828638, -1.0343122, 0.20732689, 0
1295, 796698761, 0.42518345, 0.03103985, 0.014304698, -0.90446174, -0.7744978, 0.21867134, 0.09763241, 0
1296, 796715428, 0.40736032, 0.030525804, 0.013668571, -0.9126548, -0.64517903, 0.71990955, 0.16267395, 0
1297, 796732095, 0.38990107, 0.029722981, 0.012839286, -0.9202874, -0.2155766, 0.89046365, 0.13075542, 0
1299, 796765429, 0.35444343, 0.027870974, 0.011235428, -0.9345945, 0.092491075, 0.31779534, 0.06698799, 0
1300, 796782096, 0.33789125, 0.027280714, 0.010805063, -0.94072765, 0.66748375, 0.4649732, 0.07447624, 0
1301, 796798763, 0.32302067, 0.027169922, 0.010609374, -0.94594234, 1.1181184, 0.48815614, -0.017032623, 0
1303, 796832097, 0.29691675, 0.028455062, 0.011157915, -0.9544141, 0.48618242, 0.76110286, -0.0144023895, 0
1304, 796848764, 0.28548378, 0.029820826, 0.011827096, -0.95784646, 0.6125286, 0.76575595, 0.09260368, 0
1305, 796865431, 0.27570787, 0.03093306, 0.012338738, -0.96066445, 0.47910947, 0.4330378, 0.05265999, 0
1308, 796915432, 0.24613614, 0.03333258, 0.01316045, -0.9685725, -0.97997123, -0.5493545, -0.07053757, 0
1310, 796948766, 0.22242773, 0.033532586, 0.012869427, -0.97428733, -1.0941738, -0.3194125, -0.038648605, 0
1311, 796965433, 0.2097709, 0.0336106, 0.012708072, -0.9770902, -0.9274279, -0.10042759, 0.080872536, 0
1312, 796982100, 0.19597398, 0.033822626, 0.012580617, -0.9799449, -0.8816278, -0.27885097, 0.17053318, 0
1314, 797015434, 0.16584545, 0.03443837, 0.012343536, -0.98547286, -0.554788, -0.48192042, 0.12142372, 0
1315, 797032101, 0.1505801, 0.03461973, 0.012178594, -0.9879164, 0.06409293, -0.25092766, 0.13508129, 0
1316, 797048768, 0.13716295, 0.03487462, 0.0120647, -0.98986095, 0.3944626, 0.14960904, 0.004547119, 0
1318, 797082102, 0.11271017, 0.035393625, 0.011847721, -0.9929267, 0.8176253, -0.25066334, 0.07032585, 0
1319, 797098769, 0.10155806, 0.035589214, 0.011734258, -0.9941235, 1.0829768, -0.6161672, 0.1916542, 0
1320, 797115436, 0.09251471, 0.03559796, 0.011562189, -0.99500763, 1.2657335, -0.21572162, 0.105849266, 0
1322, 797148770, 0.07991672, 0.035880048, 0.011413852, -0.9960901, 0.27919105, -0.007983174, 0.1401596, 0
1323, 797165437, 0.07453658, 0.035959546, 0.011347788, -0.9965052, 0.077491485, -0.3673007, 0.029147148, 0
1324, 797182104, 0.06947578, 0.035859752, 0.011216603, -0.9968759, -0.103215456, 0.040087607, 0.09041977, 0
1326, 797215438, 0.0609099, 0.035782356, 0.01098153, -0.99744123, -0.46722096, -0.57415146, 0.117445946, 0
1327, 797232105, 0.056272503, 0.03584216, 0.010916062, -0.9977122, -0.73725283, -0.4555984, 0.047260284, 0
1328, 797248772, 0.05081865, 0.035893813, 0.010846343, -0.9980038, -0.81046265, -0.4188039, 0.056056023, 0
1330, 797282106, 0.03959214, 0.035953775, 0.010624908, -0.9985124, -0.7113551, 0.049689513, 0.036341667, 0
1331, 797298773, 0.034668118, 0.036007807, 0.010512053, -0.9986947, -0.91671944, 0.050807133, 0.04453659, 0
1332, 797315440, 0.029181516, 0.035982378, 0.010392211, -0.9988721, -1.2032593, -0.09005819, 0.071463585, 0
1335, 797365441, 0.008228232, 0.03604216, 0.01002581, -0.9992661, -0.6845592, -0.0741734, 0.013902664, 0
1337, 797398775, -0.00830099, 0.03572082, 0.009689938, -0.9992803, -0.8046198, -0.020086417, 0.18400288, 0
1338, 797415442, -0.017421078, 0.035273094, 0.009472745, -0.9991809, -0.7549083, 0.024472633, -0.07483482, 0
1339, 797432109, -0.026488274, 0.035034016, 0.009284504, -0.998992, -0.42646086, -0.117381446, 0.1500864, 0
1341, 797465443, -0.045880757, 0.03138938, 0.008435741, -0.99841803, -0.5035715, -0.1212002, 0.18449783, 0
1342, 797482110, -0.054892886, 0.028518515, 0.007908619, -0.99805355, 0.22787115, 0.01867742, 0.031736374, 0
1343, 797498777, -0.06386478, 0.027969839, 0.0077624978, -0.9975364, 0.31985924, -0.19763203, 2.8133392E-4, 0
1345, 797532111, -0.078800045, 0.028048929, 0.0076259538, -0.9964666, 1.4038304, -0.6425182, 0.14027596, 0
1346, 797548778, -0.08180132, 0.027841335, 0.0075293253, -0.9962312, 1.8231132, -0.4336407, 0.11293697, 0
1347, 797565445, -0.08200446, 0.027633488, 0.0074502523, -0.99622095, -0.054810338, -0.1295904, 0.15027809, 0
1350, 797615446, -0.08186536, 0.026388934, 0.0071349903, -0.99626845, -0.3373743, -0.13479958, 0.049779892, 0
1351, 797632113, -0.08183722, 0.026389753, 0.00707807, -0.99627113, -0.3456339, -0.13150626, 0.08748722, 0
1353, 797665447, -0.08177693, 0.026312778, 0.0069536846, -0.996279, -0.34273383, -0.12799518, 0.04706478, 0
1354, 797682114, -0.08175386, 0.026271025, 0.0068916795, -0.9962824, -0.32634997, -0.11695363, 0.09279442, 0
1355, 797698781, -0.081720084, 0.02612894, 0.0068177823, -0.99628943, -0.33779585, -0.1376832, 0.08309555, 0
1357, 797732115, -0.081657134, 0.026105765, 0.006710891, -0.9962959, -0.32046556, -0.12444024, 0.084448814, 0
1358, 797748782, -0.08162909, 0.026053024, 0.0066511654, -0.99630004, -0.32955384, -0.123788714, 0.08349228, 0
1359, 797765449, -0.08160888, 0.026007421, 0.0065909205, -0.9963033, -0.31622922, -0.12171334, 0.0826149, 0
1361, 797798783, -0.08155714, 0.025869552, 0.006472141, -0.9963119, -0.31419894, -0.114609756, 0.088077545, 0
1362, 797815450, -0.08153007, 0.025865788, 0.006427205, -0.99631447, -0.3249134, -0.12523705, 0.092801094, 0
1365, 797865451, -0.08146224, 0.025777044, 0.006253181, -0.9963234, -0.31164134, -0.11661265, 0.08326435, 0
1366, 797882118, -0.08144284, 0.025761716, 0.006201942, -0.99632573, -0.31795415, -0.113596, 0.06722164, 0
1368, 797915452, -0.08139949, 0.025900025, 0.006105415, -0.99632627, -0.32103518, -0.104008324, 0.07100296, 0
1369, 797932119, -0.08137178, 0.02595603, 0.0060520587, -0.9963274, -0.31878364, -0.11312487, 0.08327389, 0
1370, 797948786, -0.0813501, 0.025970202, 0.0060032737, -0.99632907, -0.3151454, -0.10165907, 0.08292961, 0
1372, 797982120, -0.08129517, 0.026089095, 0.0059093884, -0.99633104, -0.33286116, -0.1164121, 0.06472206, 0
1373, 797998787, -0.08148295, 0.02710754, 0.0059553715, -0.9962882, -0.18724746, -0.05741906, -0.063241005, 0
1374, 798015454, -0.08201756, 0.028950315, 0.0061076446, -0.9961915, -0.3345293, -0.10671429, 0.044137, 0
1376, 798048788, -0.08319053, 0.032531273, 0.006382359, -0.99598205, -0.9145212, -0.027617915, 0.08192825, 0
1377, 798065455, -0.08476879, 0.03405625, 0.0064720446, -0.9957974, -1.1343937, -0.03457214, 0.0867548, 0
1380, 798115456, -0.09151596, 0.03275226, 0.0060921405, -0.9952462, 0.0782677, -0.13803367, 0.06674385, 0
1381, 798132123, -0.09355678, 0.033437893, 0.0060713086, -0.99503374, -0.15994023, -0.059471015, -0.20303535, 0
1382, 798148790, -0.09594905, 0.035440512, 0.00621616, -0.9947357, 0.06122606, -0.2515469, 0.2344265, 0
1384, 798182124, -0.0991851, 0.035327762, 0.006031406, -0.99442333, -0.10742896, -0.02465519, 0.09288025, 0
1385, 798198791, -0.10034838, 0.03535372, 0.0059663807, -0.99430615, -0.57528883, -0.13775595, 0.069143295, 0
1386, 798215458, -0.102528855, 0.03532349, 0.005885071, -0.9940852, -0.83508635, -0.035159484, 0.12071037, 0
1388, 798248792, -0.109042585, 0.03512428, 0.005686239, -0.99340004, -1.1076611, 0.18072866, 0.023013115, 0
1389, 798265459, -0.114162125, 0.035313785, 0.005557729, -0.9928187, -0.9075419, 0.10046366, 0.15716171, 0
1391, 798298793, -0.12618047, 0.035289336, 0.0052700317, -0.9913654, 0.009453994, -0.16012235, 0.10387516, 0
1392, 798315460, -0.13143973, 0.034740586, 0.0051059653, -0.9907022, 0.18058853, -0.13577087, 0.074313164, 0
1393, 798332127, -0.13575357, 0.033129644, 0.00489992, -0.99017656, 0.24297406, -0.2760957, 0.31325054, 0
1395, 798365461, -0.14147772, 0.029212497, 0.004531898, -0.9894999, 0.5009964, -0.13971697, -0.22020721, 0
1396, 798382128, -0.14351434, 0.030873956, 0.004545201, -0.98915625, 0.33557832, -0.2079354, -0.1403141, 0
1397, 798398795, -0.14472981, 0.033215735, 0.004588482, -0.988903, 0.30806652, -0.2726691, 0.19571304, 0
1399, 798432129, -0.14527844, 0.03499783, 0.0045492416, -0.98876107, -0.39666986, -0.07825027, 0.11054325, 0
1400, 798448796, -0.14525329, 0.03500163, 0.0044889487, -0.988765, -0.25225276, -0.07464258, 0.13346863, 0
1401, 798465463, -0.1452385, 0.0343385, 0.0043974495, -0.9887908, -0.2605955, -0.07236882, 0.14569378, 0
1403, 798498797, -0.14520724, 0.03423045, 0.0042837556, -0.9887997, -0.37077805, -0.05064665, 0.0035123825, 0
1404, 798515464, -0.1451964, 0.035342447, 0.0042742975, -0.9887622, -0.2178307, -0.0737021, 0.26224327, 0
1407, 798565465, -0.14597984, 0.035295587, 0.004097872, -0.98864925, -0.17459573, -0.076037556, 0.053120613, 0
1408, 798582132, -0.14594927, 0.035152096, 0.0040412, -0.988659, -0.2612829, -0.060957137, 0.12887573, 0
1409, 798598799, -0.14593774, 0.033722103, 0.003916603, -0.9887111, -0.122931354, -0.06540017, 0.3138094, 0
1411, 798632133, -0.14594646, 0.026141625, 0.003480054, -0.98894095, -0.29898965, -0.058060933, 0.10802269, 0
1412, 798648800, -0.14592843, 0.024781646, 0.0033728958, -0.988979, -0.5579357, -0.03584834, -0.16508198, 0
1413, 798665467, -0.1458936, 0.025176572, 0.0033406126, -0.98897433, -0.46031788, -0.022733195, -0.24537945, 0
1415, 798698801, -0.14582805, 0.025061095, 0.003238022, -0.9889872, -0.44500017, -0.028802183, -0.11293888, 0
1416, 798715468, -0.14580491, 0.024731804, 0.0031703806, -0.9889992, -0.33061287, -0.025929578, -0.015893936, 0
1418, 798748802, -0.14575636, 0.02474509, 0.003052274, -0.9890063, -0.26305678, -0.053452265, 0.1656456, 0
1419, 798765469, -0.1457348, 0.024686038, 0.0029963, -0.9890111, -0.298702, -0.046555568, 0.14086723, 0
1422, 798815470, -0.14564914, 0.024631096, 0.002825242, -0.98902565, -0.28302497, -0.053798903, 0.103076935, 0
1423, 798832137, -0.1456238, 0.024587773, 0.002766392, -0.9890306, -0.28702134, -0.03523985, 0.07895374, 0
1424, 798848804, -0.14558893, 0.024551017, 0.0027052616, -0.98903686, -0.3020872, -0.050589025, 0.05400467, 0
1426, 798882138, -0.14553525, 0.024521245, 0.0025896614, -0.98904586, -0.28710014, -0.044151366, 0.07504654, 0
1427, 798898805, -0.14551401, 0.024484515, 0.0025390175, -0.98904985, -0.27786747, -0.03043317, 0.06733894, 0
1428, 798915472, -0.14548881, 0.02446395, 0.002477243, -0.9890544, -0.30442667, -0.03226774, 0.0705843, 0
1430, 798948806, -0.14544979, 0.024386225, 0.0023635973, -0.9890622, -0.2880224, -0.024090052, 0.07714653, 0
1431, 798965473, -0.14543015, 0.024367658, 0.002311136, -0.9890656, -0.29632398, -0.02501013, 0.07601738, 0
1432, 798982140, -0.14540648, 0.024340333, 0.0022536602, -0.98907, -0.28368855, -0.027937388, 0.07468414, 0
1434, 799015474, -0.14535752, 0.02428028, 0.0021414685, -0.9890789, -0.29035142, -0.029538983, 0.06908703, 0
1436, 799048808, -0.14530484, 0.024224108, 0.0020291356, -0.98908824, -0.28032306, -0.02687545, 0.089398384, 0
1438, 799082142, -0.14526318, 0.024172569, 0.0019142819, -0.98909575, -0.29294938, -0.02486839, 0.08200073, 0
1439, 799098809, -0.1452476, 0.024143582, 0.0018607181, -0.98909885, -0.28203738, -0.022995478, 0.072948456, 0
1440, 799115476, -0.14521757, 0.024108073, 0.0018059115, -0.9891043, -0.2993541, -0.016066324, 0.079512596, 0
1442, 799148810, -0.14516419, 0.024075601, 0.0016876224, -0.9891132, -0.2845462, -0.03555695, 0.09687042, 0
1443, 799165477, -0.14512628, 0.024047855, 0.001624997, -0.9891195, -0.28288844, -0.019330056, 0.068326, 0
1445, 799198811, -0.1450788, 0.023982204, 0.001518646, -0.9891281, -0.26456782, -0.007347632, 0.106108665, 0
1446, 799215478, -0.14504978, 0.023943098, 0.0014560854, -0.98913354, -0.2741237, -0.017035473, 0.08372784, 0
1447, 799232145, -0.14502318, 0.023920469, 0.0013986904, -0.989138, -0.2768392, 0.0030512277, 0.09282398, 0
1449, 799265479, -0.14497694, 0.02386104, 0.0012864606, -0.9891463, -0.29004604, -0.011409858, 0.080553055, 0
1451, 799298813, -0.14493681, 0.023801899, 0.0011841847, -0.9891538, -0.27234632, -0.01166467, 0.107364655, 0
1453, 799332147, -0.14488328, 0.023740541, 0.001078183, -0.98916334, -0.26741377, -0.005652171, 0.07409382, 0
1454, 799348814, -0.14484906, 0.023728153, 0.0010112873, -0.9891687, -0.25121388, -0.019349838, 0.096152306, 0
1455, 799365481, -0.14481895, 0.023700196, 9.5311896E-4, -0.9891738, -0.27700213, -0.010140699, 0.075502396, 0
1457, 799398815, -0.14476323, 0.023678621, 8.447435E-4, -0.9891826, -0.2598227, 0.0025592234, 0.09225273, 0
1458, 799415482, -0.14473896, 0.023644974, 7.8684464E-4, -0.989187, -0.2812262, -0.010981855, 0.10514259, 0
1459, 799432149, -0.14472477, 0.023611441, 7.4576057E-4, -0.98918986, -0.27853173, -0.003972908, 0.07613468, 0
1461, 799465483, -0.14466533, 0.023561355, 6.458861E-4, -0.9891998, -0.2665022, 0.004605912, 0.08603859, 0
1462, 799482150, -0.14464216, 0.023536555, 5.8954E-4, -0.9892039, -0.2692966, -0.005852893, 0.06640053, 0
1463, 799498817, -0.1446182, 0.023514058, 5.239621E-4, -0.9892079, -0.2713872, -0.0056233206, 0.07051563, 0
1465, 799532151, -0.14455865, 0.023464967, 4.143118E-4, -0.9892178, -0.2630499, 0.015749017, 0.05551243, 0
1466, 799548818, -0.1445221, 0.023445973, 3.568672E-4, -0.9892237, -0.25172544, 0.0059303525, 0.107011795, 0
1467, 799565485, -0.14450127, 0.02340763, 3.10255E-4, -0.9892277, -0.2600728, 0.011564501, 0.068089485, 0
1469, 799598819, -0.14444523, 0.02338059, 2.1609127E-4, -0.98923653, -0.2590647, 0.003898335, 0.10873318, 0
1470, 799615486, -0.14441586, 0.023351936, 1.5601671E-4, -0.98924154, -0.2723581, 0.011967286, 0.087182045, 0
1472, 799648820, -0.14436297, 0.023316385, 6.042724E-5, -0.9892501, -0.2523842, -0.0013732113, 0.08871937, 0
1473, 799665487, -0.14434002, 0.023277624, 7.885348E-6, -0.9892544, -0.2448875, 0.014475157, 0.13500977, 0
1474, 799682154, -0.1443213, 0.023218513, -3.7038426E-5, -0.98925847, -0.2684627, 0.0218316, 0.02290535, 0
1476, 799715488, -0.14427911, 0.023170974, -1.5342716E-4, -0.98926574, -0.24097773, 0.012720215, 0.100613594, 0
1478, 799748822, -0.14423811, 0.023111587, -2.5707486E-4, -0.989273, -0.23849782, 0.012260615, 0.07662773, 0
1480, 799782156, -0.14419414, 0.023049869, -3.71056E-4, -0.9892809, -0.27016577, 0.021645112, 0.068208694, 0
1481, 799798823, -0.1441677, 0.023030063, -4.2747497E-4, -0.9892851, -0.2662625, 0.011074481, 0.072280884, 0
1482, 799815490, -0.14414892, 0.023000991, -4.7135275E-4, -0.98928857, -0.2501364, 0.0067398446, 0.09064865, 0
1484, 799848824, -0.14409739, 0.022934524, -5.691041E-4, -0.98929745, -0.2579837, 0.03089543, 0.04565239, 0
1485, 799865491, -0.14408499, 0.02290762, -6.1262754E-4, -0.9892999, -0.23531206, 0.015149256, 0.08679676, 0
1486, 799882158, -0.14406937, 0.022861835, -6.571777E-4, -0.98930323, -0.2452649, 0.018434346, 0.09935188, 0
1488, 799915492, -0.14402275, 0.022811064, -7.5811613E-4, -0.98931116, -0.2304387, 0.028456088, 0.0966444, 0
1489, 799932159, -0.1440004, 0.022781396, -8.0821174E-4, -0.9893151, -0.23423746, 0.029199732, 0.09933376, 0
1490, 799948826, -0.14397645, 0.022754384, -8.542281E-4, -0.989319, -0.26300356, 0.012726183, 0.061016083, 0
1493, 799998827, -0.14389467, 0.022660678, -9.966387E-4, -0.989333, -0.23810145, 0.014578224, 0.06952953, 0
1494, 800015494, -0.14386588, 0.02264989, -0.001041501, -0.9893374, -0.24484561, 0.03040415, 0.08576965, 0
1496, 800048828, -0.14382277, 0.022593593, -0.0011364982, -0.9893449, -0.2404007, 0.04064638, 0.078614235, 0
1497, 800065495, -0.14379553, 0.022580098, -0.0011805991, -0.989349, -0.23761137, 0.023456352, 0.074440956, 0
1499, 800098829, -0.14374322, 0.022518922, -0.00128139, -0.98935795, -0.2399587, 0.02182991, 0.088350296, 0
1500, 800115496, -0.14371195, 0.022491729, -0.001331364, -0.9893631, -0.23242481, 0.030744916, 0.09149265, 0
1501, 800132163, -0.14367943, 0.02246089, -0.0013867695, -0.9893684, -0.22606236, 0.027653618, 0.1012373, 0
1503, 800165497, -0.14363897, 0.022410112, -0.0014750423, -0.98937523, -0.2324754, 0.025354644, 0.08591366, 0
1504, 800182164, -0.1436132, 0.022389347, -0.0015189843, -0.98937947, -0.22185382, 0.04817719, 0.08219719, 0
1505, 800198831, -0.14358555, 0.022358993, -0.0015707843, -0.98938406, -0.2329189, 0.042367015, 0.07784271, 0
1508, 800248832, -0.14351183, 0.022257047, -0.0017074693, -0.98939687, -0.24367371, 0.035650894, 0.079221725, 0
1509, 800265499, -0.14348377, 0.022230659, -0.0017500827, -0.9894014, -0.24028252, 0.0540823, 0.08518505, 0
1511, 800298833, -0.14343023, 0.022172136, -0.0018439859, -0.9894103, -0.23173352, 0.038945388, 0.07511902, 0
1512, 800315500, -0.1434103, 0.022135269, -0.0018899725, -0.98941404, -0.2314499, 0.048431553, 0.0754261, 0
1513, 800332167, -0.14338508, 0.022114882, -0.0019369214, -0.98941797, -0.23518673, 0.041937448, 0.08793926, 0
1515, 800365501, -0.14333221, 0.022041412, -0.0020374611, -0.989427, -0.22987276, 0.043236848, 0.08300781, 0
1516, 800382168, -0.14330426, 0.022009362, -0.002086905, -0.9894317, -0.21796788, 0.038463365, 0.09616661, 0
1517, 800398835, -0.14328617, 0.021987585, -0.0021341057, -0.9894348, -0.22748429, 0.041583132, 0.08565712, 0
1519, 800432169, -0.14324656, 0.021922762, -0.002212045, -0.9894418, -0.22434495, 0.060745854, 0.06081009, 0
1520, 800448836, -0.14322235, 0.021897832, -0.0022534905, -0.9894457, -0.22554298, 0.04087056, 0.07960224, 0
1523, 800498837, -0.14316235, 0.02182184, -0.0023938732, -0.9894557, -0.23210034, 0.06445642, 0.07960987, 0
1524, 800515504, -0.14314215, 0.021793576, -0.002438107, -0.9894592, -0.21103536, 0.059118353, 0.08441448, 0
1526, 800548838, -0.14307746, 0.021736551, -0.0025374223, -0.98946947, -0.21309058, 0.05169886, 0.08798313, 0
1527, 800565505, -0.14304693, 0.021696433, -0.002574422, -0.9894747, -0.21811949, 0.05820517, 0.06945324, 0
1528, 800582172, -0.14302737, 0.021675257, -0.002611089, -0.9894778, -0.21184139, 0.04760138, 0.07444763, 0
1530, 800615506, -0.14297882, 0.021635875, -0.0027028162, -0.98948544, -0.22733997, 0.06219716, 0.10400295, 0
1531, 800632173, -0.14295545, 0.021603521, -0.0027379747, -0.98948956, -0.22040385, 0.06953019, 0.08910179, 0
1532, 800648840, -0.14291388, 0.021578081, -0.0027778614, -0.98949605, -0.20976877, 0.058103725, 0.09923172, 0
1534, 800682174, -0.14285754, 0.021503236, -0.0028628553, -0.98950547, -0.19377579, 0.07096792, 0.118021965, 0
1535, 800698841, -0.14283416, 0.021452507, -0.002902263, -0.98950976, -0.24191338, 0.06733683, 0.05006981, 0
1536, 800715508, -0.14280869, 0.021479512, -0.0029495293, -0.9895128, -0.2145496, 0.06614043, 0.08385849, 0
1538, 800748842, -0.14276962, 0.021417333, -0.0030393123, -0.9895195, -0.21293625, 0.07840259, 0.07031822, 0
1539, 800765509, -0.14273445, 0.021405162, -0.003087915, -0.9895247, -0.21137333, 0.070648395, 0.08553791, 0
1540, 800782176, -0.14270952, 0.02136631, -0.0031292906, -0.98952895, -0.18848093, 0.06683697, 0.10620117, 0
1542, 800815510, -0.14266877, 0.021246616, -0.0031996365, -0.9895373, -0.20885433, 0.060185935, 0.091153145, 0
1543, 800832177, -0.14264837, 0.021239782, -0.0032420128, -0.9895402, -0.20667519, 0.07042193, 0.10250473, 0
1544, 800848844, -0.14262393, 0.021208046, -0.003294392, -0.9895442, -0.1937469, 0.06989552, 0.102809906, 0
1546, 800882178, -0.14257285, 0.02112445, -0.003370107, -0.9895531, -0.21533523, 0.07813749, 0.05526066, 0
1547, 800898845, -0.1425417, 0.02111795, -0.0034053568, -0.9895576, -0.20834954, 0.07225502, 0.09401989, 0
1550, 800948846, -0.14246903, 0.021100843, -0.0035339515, -0.989568, -0.20320995, 0.0778493, 0.09126377, 0
1551, 800965513, -0.14244442, 0.021369388, -0.0035705632, -0.9895657, -0.2635553, 0.095565245, -0.008236885, 0
1553, 800998847, -0.14232944, 0.026273146, -0.0034318452, -0.98946464, -0.16294076, 0.08042397, 0.13196945, 0
1554, 801015514, -0.14227581, 0.028283803, -0.0033681523, -0.9894172, -0.093924716, 0.069004215, 0.21779633, 0
1555, 801032181, -0.1422297, 0.029469205, -0.0033409158, -0.9893893, -0.16688257, 0.07023924, 0.12528038, 0
1557, 801065515, -0.14215763, 0.031006442, -0.0033425237, -0.9893527, -0.07592623, 0.071417585, 0.28745556, 0
1558, 801082182, -0.14213046, 0.031037988, -0.0033765922, -0.98935544, -0.21221876, 0.07292077, 0.056638718, 0
1559, 801098849, -0.14211568, 0.03101771, -0.0034185345, -0.989358, -0.24565323, 0.08978232, 0.015160561, 0
1561, 801132183, -0.1420549, 0.03097047, -0.0034976988, -0.989368, -0.17697448, 0.07041235, 0.093626976, 0
1562, 801148850, -0.14203405, 0.030954124, -0.0035363026, -0.9893713, -0.20991789, 0.0882699, 0.09022236, 0
1565, 801198851, -0.14194497, 0.030889066, -0.0036607196, -0.98938566, -0.18980107, 0.07789738, 0.06999874, 0
1566, 801215518, -0.14191689, 0.030857226, -0.0037095435, -0.98939055, -0.19147187, 0.08433239, 0.09553528, 0
1567, 801232185, -0.14190097, 0.030815072, -0.003761045, -0.98939395, -0.1866989, 0.09004479, 0.067682266, 0
1569, 801265519, -0.14185765, 0.030778835, -0.0038435222, -0.98940086, -0.19881442, 0.08865374, 0.10009098, 0
1570, 801282186, -0.14184102, 0.030178731, -0.003911101, -0.98942155, 0.0140285585, 0.06973262, 0.3446436, 0
1571, 801298853, -0.1419008, 0.02429836, -0.0042543155, -0.9895735, 0.32958615, 0.045331184, 0.782856, 0
1573, 801332187, -0.14191477, 0.020447673, -0.004497409, -0.98965746, 0.5379012, 0.049135886, 0.9597645, 0
1574, 801348854, -0.14188792, 0.020744178, -0.0045129075, -0.98965496, -0.49735668, 0.12823871, -0.37013054, 0
1576, 801382188, -0.14186129, 0.020506505, -0.004604072, -0.9896634, -0.177854, 0.08807616, 0.16960049, 0
1577, 801398855, -0.14183216, 0.02047433, -0.004651473, -0.9896681, -0.17498173, 0.083799355, 0.118805885, 0
1580, 801448856, -0.14175804, 0.020339413, -0.0047479323, -0.9896809, -0.19109148, 0.0918965, 0.077833176, 0
1581, 801465523, -0.14172238, 0.020310607, -0.0047918945, -0.9896864, -0.18359438, 0.11460804, 0.06642628, 0
1582, 801482190, -0.14169703, 0.020312011, -0.004827061, -0.9896899, -0.20011923, 0.09626192, 0.07270336, 0
1584, 801515524, -0.14164732, 0.020600958, -0.004882228, -0.9896907, -0.22490503, 0.09877177, 0.04421997, 0
1585, 801532191, -0.14161286, 0.021390393, -0.004888204, -0.989679, -0.20166016, 0.10553086, 0.057557106, 0
1586, 801548858, -0.1415701, 0.021939944, -0.0049035484, -0.98967296, -0.14682685, 0.09859067, 0.14218807, 0
1588, 801582192, -0.14149715, 0.023008214, -0.0049220286, -0.989659, -0.18225887, 0.104326084, 0.05757141, 0
1589, 801598859, -0.14146055, 0.023526138, -0.004924173, -0.9896521, -0.17001389, 0.09884292, 0.09394741, 0
1590, 801615526, -0.1414288, 0.02414378, -0.004933466, -0.98964167, -0.18549424, 0.09683827, 0.06652069, 0
1592, 801648860, -0.14136651, 0.02515551, -0.0049583507, -0.98962533, -0.17143777, 0.10831569, 0.10695362, 0
1594, 801682194, -0.14136934, 0.026384886, -0.0049672993, -0.9895928, -0.5211914, 0.18270461, 0.14543343, 0
1596, 801715528, -0.14312164, 0.027211085, -0.005032836, -0.98931813, -0.16809888, 0.11586633, 0.18631554, 0
1597, 801732195, -0.14421852, 0.02737037, -0.005085535, -0.98915416, -0.31926858, 0.13281944, 0.015852928, 0
1598, 801748862, -0.14550303, 0.027962316, -0.0051178318, -0.9889493, -0.37832108, 0.17521138, 0.056495667, 0
1600, 801782196, -0.14839007, 0.028691443, -0.0052070045, -0.98849887, -0.031690925, 0.09873743, 0.2093544, 0
1601, 801798863, -0.15001038, 0.027996987, -0.005309673, -0.98827374, -0.37988585, 0.1682554, 0.03497696, 0
1602, 801815530, -0.15180586, 0.027541382, -0.0054087737, -0.9880118, -0.4839295, 0.19184719, 0.133708, 0
1604, 801848864, -0.1568842, 0.028253136, -0.0055486313, -0.9871973, -0.50050795, 0.20071076, 0.10808945, 0
1605, 801865531, -0.16014765, 0.029364444, -0.0056072585, -0.9866403, -0.8153761, 0.2839626, -0.08401203, 0
1607, 801898865, -0.16733147, 0.030330513, -0.0057919654, -0.98541707, -0.28926125, 0.16840336, 0.029914856, 0
1608, 801915532, -0.17152318, 0.030238796, -0.0059047234, -0.9846981, -0.86544925, 0.34371024, 0.092570305, 0
1609, 801932199, -0.17594418, 0.030340005, -0.006024644, -0.983914, -0.35445237, 0.2354023, -0.022063255, 0
1611, 801965533, -0.1866506, 0.030468516, -0.0063423803, -0.9819334, -0.6913017, 0.2835826, 0.05908966, 0
1612, 801982200, -0.19298688, 0.03062515, -0.0065085655, -0.98070174, -0.47974882, 0.1754665, 0.01796627, 0
