sep=,
DeviceTag:,brasDroit,,,,,,,,,,,,,,,,,
FirmwareVersion:,1.6.0,,,,,,,,,,,,,,,,,
AppVersion:,2022.0.1,,,,,,,,,,,,,,,,,
StartTime:,2022-06-03 20:38:06.000 +0200,,,,,,,,,,,,,,,,,
© Xsens Technologies B. V. 2005-2022,,,,,,,,,,,,,,,,,,,

PacketCounter,SampleTimeFine,Quat_W,Quat_X,Quat_Y,Quat_Z,Acc_X,Acc_Y,Acc_Z,Gyr_X,Gyr_Y,Gyr_Z,Mag_X,Mag_Y,Mag_Z,Status,
0, 2793784606, 0.5277411, 0.49498492, -0.5249696, 0.44821972, 0.0, 0.0, 0.0, 0.0, 0.0, 0.0, -0.984375, -0.19921875, -0.49853515625, 0, 
1, 2793801273, 0.52751714, 0.49517375, -0.52486295, 0.44839948, 9.968379974365234, 0.5296258926391602, -0.43420279026031494, 2.7268240451812744, -0.1715538650751114, 0.33201104402542114, -0.9853515625, -0.197265625, -0.50146484375, 0, 
2, 2793817940, 0.52720416, 0.49540332, -0.52472824, 0.44867176, 9.876458168029785, 0.6519300937652588, -0.40890106558799744, 3.5967214107513428, -0.2008291780948639, 0.6996685266494751, -0.98388671875, -0.19580078125, -0.49951171875, 0, 
3, 2793834607, 0.52685225, 0.49556878, -0.524617, 0.4490325, 9.89459228515625, 0.7620997428894043, -0.43210241198539734, 3.743943452835083, 0.07183723151683807, 1.450914740562439, -0.9833984375, -0.19677734375, -0.49951171875, 0, 
4, 2793851274, 0.5266422, 0.49549294, -0.5246365, 0.44933948, 9.995062828063965, 0.8322717547416687, -0.4321468472480774, 1.7903085947036743, 0.6723654270172119, 2.135746955871582, -0.986328125, -0.1982421875, -0.49951171875, 0, 
5, 2793867941, 0.5267055, 0.49513948, -0.52478164, 0.44948566, 10.042255401611328, 0.8090478181838989, -0.3804797828197479, -1.1157530546188354, 1.513499140739441, 2.137834310531616, -0.9814453125, -0.197265625, -0.4990234375, 0, 
6, 2793884608, 0.5269358, 0.49453747, -0.5250778, 0.44953245, 10.006274223327637, 0.7877612113952637, -0.3168659806251526, -3.4084742069244385, 1.998514175415039, 2.673370838165283, -0.9814453125, -0.1962890625, -0.5009765625, 0, 
7, 2793901275, 0.52729976, 0.49373925, -0.5254921, 0.44949877, 9.995789527893066, 0.7263461947441101, -0.29966846108436584, -5.228564739227295, 2.384754180908203, 3.0797295570373535, -0.98583984375, -0.19482421875, -0.5009765625, 0, 
8, 2793917942, 0.5277924, 0.49289033, -0.52584743, 0.44943702, 9.972030639648438, 0.5966986417770386, -0.2849774658679962, -5.769876956939697, 3.125563621520996, 2.5634028911590576, -0.98193359375, -0.19384765625, -0.4990234375, 0, 
9, 2793934609, 0.5282809, 0.4920928, -0.5261826, 0.44934464, 9.911032676696777, 0.4096728563308716, -0.24709881842136383, -5.616609573364258, 2.921032667160034, 2.2102670669555664, -0.97998046875, -0.19580078125, -0.49853515625, 0, 
10, 2793951276, 0.52867365, 0.49139452, -0.52650404, 0.44927055, 9.878880500793457, 0.2993124723434448, -0.28496435284614563, -4.824587821960449, 2.3800666332244873, 2.167250871658325, -0.9833984375, -0.19580078125, -0.49853515625, 0, 
11, 2793967943, 0.529034, 0.4908812, -0.52658165, 0.44931638, 9.871795654296875, 0.26616668701171875, -0.29158157110214233, -2.855483055114746, 2.981529474258423, 1.2100144624710083, -0.98193359375, -0.19189453125, -0.4990234375, 0, 
12, 2793984610, 0.52929276, 0.49060914, -0.52633256, 0.44960058, 9.850875854492188, 0.24114102125167847, -0.2937813699245453, 0.23755142092704773, 3.8616464138031006, 0.4140869975090027, -0.98095703125, -0.19580078125, -0.498046875, 0, 
13, 2794001277, 0.5294516, 0.49043614, -0.52598137, 0.45001328, 9.874305725097656, 0.3177576959133148, -0.33662334084510803, 1.7153018712997437, 3.998584508895874, 0.4871984124183655, -0.9833984375, -0.19287109375, -0.50048828125, 0, 
14, 2794017944, 0.5295992, 0.49031326, -0.5256163, 0.45039982, 9.883018493652344, 0.4490582346916199, -0.24046935141086578, 1.8838844299316406, 3.765700578689575, 0.1990426629781723, -0.98388671875, -0.1943359375, -0.50244140625, 0, 
15, 2794034611, 0.52978253, 0.49013972, -0.5253603, 0.4506716, 9.87974739074707, 0.4995250701904297, -0.2780803143978119, 0.8259646892547607, 3.267443895339966, 0.2204805165529251, -0.98046875, -0.19482421875, -0.50244140625, 0, 
16, 2794051278, 0.5300101, 0.48990372, -0.52520716, 0.450839, 9.891660690307617, 0.5280976891517639, -0.26077964901924133, -0.2469320148229599, 2.894331216812134, 0.27518922090530396, -0.982421875, -0.19189453125, -0.50244140625, 0, 
17, 2794067945, 0.53031385, 0.48963445, -0.5250609, 0.45094496, 9.906404495239258, 0.4811426103115082, -0.2796489894390106, -0.8671820163726807, 3.0406436920166016, -0.0403912253677845, -0.98388671875, -0.19482421875, -0.5029296875, 0, 
18, 2794084612, 0.53059614, 0.48937967, -0.52489364, 0.4510841, 9.926464080810547, 0.41455966234207153, -0.30578377842903137, -0.5571146607398987, 3.1062638759613037, 0.023275544866919518, -0.9794921875, -0.19384765625, -0.50146484375, 0, 
19, 2794101279, 0.5307815, 0.48929906, -0.52460575, 0.45128834, 9.950507164001465, 0.4145447611808777, -0.25817638635635376, 1.0122458934783936, 2.875185489654541, -0.4732970595359802, -0.982421875, -0.1953125, -0.501953125, 0, 
20, 2794117946, 0.5308391, 0.48944297, -0.5241832, 0.45155525, 9.918238639831543, 0.4987199902534485, -0.24263472855091095, 2.9062671661376953, 2.4206244945526123, -1.1110405921936035, -0.98095703125, -0.19287109375, -0.501953125, 0, 
21, 2794134613, 0.53076696, 0.48977765, -0.52372384, 0.45181006, 9.861104965209961, 0.5984349250793457, -0.23965854942798615, 4.109551429748535, 1.453924298286438, -1.5625029802322388, -0.9814453125, -0.193359375, -0.5029296875, 0, 
22, 2794151280, 0.5306412, 0.49022174, -0.5232379, 0.45203912, 9.814929008483887, 0.6569000482559204, -0.25231197476387024, 4.678768157958984, 0.9312458038330078, -1.9748669862747192, -0.98291015625, -0.19482421875, -0.5029296875, 0, 
23, 2794167947, 0.53051484, 0.490715, -0.522774, 0.45218927, 9.780522346496582, 0.6866586804389954, -0.24268202483654022, 4.508072376251221, 0.43036383390426636, -2.3625669479370117, -0.98291015625, -0.19677734375, -0.50732421875, 0, 
24, 2794184614, 0.53045005, 0.49122965, -0.5223057, 0.45224726, 9.799052238464355, 0.6394535899162292, -0.26240697503089905, 4.062053203582764, 0.28981414437294006, -2.9819459915161133, -0.98388671875, -0.1962890625, -0.50732421875, 0, 
25, 2794201281, 0.53044456, 0.49170217, -0.52187306, 0.4522399, 9.815129280090332, 0.6040014028549194, -0.3087488114833832, 3.3624422550201416, 0.2835134267807007, -3.132420778274536, -0.98486328125, -0.19775390625, -0.5078125, 0, 
26, 2794217948, 0.53043956, 0.49216288, -0.52143496, 0.45225027, 9.816031455993652, 0.5750700831413269, -0.2948126494884491, 3.39778733253479, 0.4014599025249481, -3.0449533462524414, -0.98388671875, -0.19873046875, -0.5078125, 0, 
27, 2794234615, 0.530378, 0.49260777, -0.5210644, 0.4522649, 9.838972091674805, 0.5697709321975708, -0.34812137484550476, 3.3371880054473877, 0.01625766046345234, -2.568749189376831, -0.9833984375, -0.19775390625, -0.509765625, 0, 
28, 2794251282, 0.5303062, 0.49300402, -0.5207925, 0.45223024, 9.86803913116455, 0.5638175010681152, -0.4057058095932007, 2.710329294204712, -0.39490941166877747, -2.2070462703704834, -0.98486328125, -0.19921875, -0.50732421875, 0, 
29, 2794267949, 0.53025305, 0.49325538, -0.5207306, 0.45208973, 9.848325729370117, 0.5673043727874756, -0.3948284685611725, 1.0882514715194702, -1.0032237768173218, -1.4217609167099, -0.98388671875, -0.20068359375, -0.505859375, 0, 
30, 2794284616, 0.5301701, 0.49340457, -0.52083004, 0.45190966, 9.82811450958252, 0.5968088507652283, -0.3026857376098633, 0.1734427809715271, -1.5130573511123657, -0.5597527623176575, -0.98388671875, -0.1982421875, -0.5068359375, 0, 
31, 2794301283, 0.5300869, 0.49348807, -0.52098954, 0.45173258, 9.854108810424805, 0.5963375568389893, -0.3206115961074829, -0.2415405660867691, -1.5194733142852783, -0.1089436262845993, -0.9853515625, -0.19775390625, -0.50634765625, 0, 
32, 2794317950, 0.530017, 0.4935143, -0.52117693, 0.45156923, 9.82966136932373, 0.6490532159805298, -0.31380701065063477, -0.5329234600067139, -1.3484703302383423, 0.19950373470783234, -0.9853515625, -0.19677734375, -0.50634765625, 0, 
33, 2794334617, 0.52991533, 0.4935559, -0.5213621, 0.45142967, 9.829245567321777, 0.639800488948822, -0.2757015824317932, -0.2772190570831299, -1.4208003282546997, 0.3226879835128784, -0.9814453125, -0.19873046875, -0.50634765625, 0, 
34, 2794351284, 0.5297385, 0.4936757, -0.52149665, 0.45135078, 9.79546070098877, 0.6254392266273499, -0.2821716368198395, 0.6375961303710938, -1.543229341506958, 0.3245193064212799, -0.98193359375, -0.19873046875, -0.5048828125, 0, 
35, 2794367951, 0.52949417, 0.49392694, -0.52151895, 0.45133668, 9.846583366394043, 0.5965402722358704, -0.310035765171051, 1.9272468090057373, -1.5638089179992676, -0.08234483003616333, -0.9833984375, -0.19775390625, -0.50732421875, 0, 
36, 2794384618, 0.529197, 0.49422675, -0.5215082, 0.45136982, 9.85998821258545, 0.6050488352775574, -0.34431466460227966, 2.5548346042633057, -1.6236913204193115, -0.031695712357759476, -0.984375, -0.19873046875, -0.50390625, 0, 
37, 2794401285, 0.52896863, 0.49434945, -0.52163893, 0.4513518, 9.844017028808594, 0.6727307438850403, -0.40387266874313354, 1.0540714263916016, -1.5159258842468262, 0.6835324764251709, -0.98388671875, -0.20068359375, -0.505859375, 0, 
38, 2794417952, 0.52886343, 0.49423718, -0.5219724, 0.45121244, 9.81629467010498, 0.7425187826156616, -0.40767067670822144, -1.2837086915969849, -1.4943602085113525, 1.3919286727905273, -0.98583984375, -0.2001953125, -0.50634765625, 0, 
39, 2794434619, 0.5288712, 0.4938962, -0.52245104, 0.45102265, 9.923456192016602, 0.6876816749572754, -0.4007938802242279, -3.129718780517578, -1.0782051086425781, 2.1729626655578613, -0.98388671875, -0.1982421875, -0.50537109375, 0, 
40, 2794451286, 0.52902675, 0.4933636, -0.5230117, 0.45077336, 10.01799488067627, 0.5897320508956909, -0.3582689166069031, -4.797412872314453, -0.4541388154029846, 2.4652674198150635, -0.9833984375, -0.19482421875, -0.50341796875, 0, 
41, 2794467953, 0.529225, 0.49281403, -0.5235745, 0.45048863, 10.049821853637695, 0.49828973412513733, -0.2898840606212616, -5.136486530303955, -0.3757639527320862, 2.2727367877960205, -0.9833984375, -0.19677734375, -0.50390625, 0, 
42, 2794484620, 0.5292995, 0.4924165, -0.52406156, 0.4502691, 9.99836254119873, 0.4951421916484833, -0.18668046593666077, -3.695502519607544, -0.796375572681427, 2.08888840675354, -0.9814453125, -0.19677734375, -0.50390625, 0, 
43, 2794501287, 0.5292002, 0.49223998, -0.5243885, 0.45019817, 9.998830795288086, 0.5255326628684998, -0.24356403946876526, -1.271644949913025, -1.019897699356079, 1.8286892175674438, -0.9833984375, -0.1943359375, -0.50146484375, 0, 
44, 2794517954, 0.5290035, 0.49218807, -0.52457637, 0.45026708, 9.899496078491211, 0.5497344732284546, -0.29199159145355225, 0.4456673562526703, -0.77812659740448, 1.7191946506500244, -0.98388671875, -0.193359375, -0.50244140625, 0, 
45, 2794534621, 0.52871895, 0.49229795, -0.5246414, 0.45040557, 9.891044616699219, 0.5390887260437012, -0.29918938875198364, 1.9630662202835083, -0.9142581820487976, 1.2453855276107788, -0.9833984375, -0.197265625, -0.5029296875, 0, 
46, 2794551288, 0.5284484, 0.49243572, -0.5246403, 0.45057368, 9.884305000305176, 0.5865256190299988, -0.32039541006088257, 2.3283543586730957, -0.6088393926620483, 0.9860056638717651, -0.98291015625, -0.19677734375, -0.5009765625, 0, 
47, 2794567955, 0.5282247, 0.4925603, -0.52462256, 0.45072043, 9.86666202545166, 0.6138061285018921, -0.3320350646972656, 2.0965723991394043, -0.4108405113220215, 0.7532374858856201, -0.98046875, -0.19482421875, -0.50146484375, 0, 
48, 2794584622, 0.5281111, 0.4925223, -0.52470654, 0.4507975, 9.918352127075195, 0.6385130286216736, -0.39689016342163086, 0.5658805966377258, -0.1157694160938263, 1.0910691022872925, -0.98046875, -0.19384765625, -0.501953125, 0, 
49, 2794601289, 0.5282294, 0.4921803, -0.52493656, 0.45076436, 9.887834548950195, 0.651470959186554, -0.3957577645778656, -2.1727511882781982, 0.7606523633003235, 1.5630855560302734, -0.982421875, -0.1943359375, -0.5009765625, 0, 
50, 2794617956, 0.52847445, 0.49174792, -0.5252889, 0.45053867, 9.783309936523438, 0.6290785074234009, -0.31118670105934143, -4.0036234855651855, 0.40158790349960327, 1.2118583917617798, -0.97998046875, -0.1943359375, -0.4990234375, 0, 
51, 2794634623, 0.5288041, 0.49120772, -0.5257233, 0.45023417, 9.70321273803711, 0.5679229497909546, -0.3514278531074524, -5.221290588378906, 0.47746554017066956, 1.329894781112671, -0.982421875, -0.19287109375, -0.5009765625, 0, 
52, 2794651290, 0.52916735, 0.4905837, -0.52619654, 0.44993487, 9.756683349609375, 0.4894818961620331, -0.47533637285232544, -5.739178657531738, 0.7342969179153442, 1.679252028465271, -0.9814453125, -0.19189453125, -0.49951171875, 0, 
53, 2794667957, 0.5295676, 0.48996544, -0.52650726, 0.44977412, 9.910330772399902, 0.34950464963912964, -0.5757445693016052, -4.839443683624268, 1.9081783294677734, 1.5001680850982666, -0.982421875, -0.19384765625, -0.50146484375, 0, 
54, 2794684624, 0.52989686, 0.4894731, -0.52662486, 0.44978502, 10.088141441345215, 0.20212262868881226, -0.6171901226043701, -2.9239718914031982, 2.544346570968628, 1.237330436706543, -0.98046875, -0.19189453125, -0.5009765625, 0, 
55, 2794701291, 0.53010714, 0.4891054, -0.5266287, 0.4499326, 10.188633918762207, 0.21904367208480835, -0.6394850611686707, -1.2225712537765503, 2.603409767150879, 1.2687188386917114, -0.97998046875, -0.19287109375, -0.50146484375, 0, 
56, 2794717958, 0.53021586, 0.48879606, -0.52673423, 0.45001698, 10.176277160644531, 0.4350716471672058, -0.6479157209396362, -1.2121210098266602, 1.4722884893417358, 1.4833531379699707, -0.97900390625, -0.19091796875, -0.5009765625, 0, 
57, 2794734625, 0.53049135, 0.48827633, -0.52709156, 0.44983816, 10.058028221130371, 0.6762107014656067, -0.5322253704071045, -4.270764350891113, 0.9250091314315796, 1.6148746013641357, -0.97998046875, -0.19189453125, -0.50048828125, 0, 
58, 2794751292, 0.53110343, 0.48734426, -0.52783465, 0.4492552, 9.853188514709473, 0.8786885738372803, -0.39092347025871277, -9.563210487365723, 0.6569852232933044, 1.8899556398391724, -0.978515625, -0.18994140625, -0.49951171875, 0, 
59, 2794767959, 0.53206015, 0.48597318, -0.5289469, 0.44829905, 9.720457077026367, 0.8647885918617249, -0.33476462960243225, -14.814728736877441, 0.6660010814666748, 2.2940735816955566, -0.97900390625, -0.18798828125, -0.4990234375, 0, 
60, 2794784626, 0.53319806, 0.48437586, -0.5301846, 0.4472124, 9.69891357421875, 0.6046367883682251, -0.35140958428382874, -17.109085083007812, 1.1264413595199585, 2.5005128383636475, -0.97900390625, -0.19189453125, -0.49658203125, 0, 
61, 2794801293, 0.5342896, 0.48292983, -0.5312028, 0.4462643, 9.682791709899902, 0.2811111509799957, -0.4540237486362457, -15.219476699829102, 1.7571927309036255, 1.867955207824707, -0.98046875, -0.18701171875, -0.4921875, 0, 
62, 2794817960, 0.5351315, 0.48187977, -0.53190756, 0.44555065, 9.446525573730469, 0.17586974799633026, -0.4291269779205322, -11.11799144744873, 1.5610498189926147, 1.0084428787231445, -0.978515625, -0.189453125, -0.4931640625, 0, 
63, 2794834627, 0.53575695, 0.48114908, -0.5324573, 0.4449314, 9.151021957397461, 0.3583464026451111, -0.44369640946388245, -8.405936241149902, 0.6751700639724731, 0.3366853892803192, -0.98095703125, -0.185546875, -0.49169921875, 0, 
64, 2794851294, 0.5364759, 0.480119, -0.53312343, 0.44438004, 9.398990631103516, 0.5526087284088135, -0.6374683380126953, -9.925924301147461, 1.728121280670166, 1.7822409868240356, -0.97802734375, -0.189453125, -0.490234375, 0, 
65, 2794867961, 0.53764594, 0.47806686, -0.5341533, 0.4439414, 10.095159530639648, 0.37817269563674927, -0.928597629070282, -15.883000373840332, 5.536145210266113, 5.766032695770264, -0.978515625, -0.1865234375, -0.48974609375, 0, 
66, 2794884628, 0.5390678, 0.475175, -0.5358621, 0.44326216, 10.475628852844238, 0.06110353395342827, -0.902579128742218, -22.77076530456543, 5.724726676940918, 9.423604965209961, -0.97900390625, -0.1845703125, -0.48828125, 0, 
67, 2794901295, 0.54052275, 0.47196615, -0.53818506, 0.4421025, 10.583991050720215, 0.021511469036340714, -0.7102333903312683, -27.695131301879883, 2.967617988586426, 10.715892791748047, -0.974609375, -0.18505859375, -0.486328125, 0, 
68, 2794917962, 0.54191, 0.46880198, -0.5407103, 0.4406876, 10.563592910766602, 0.2503923177719116, -0.44233474135398865, -28.86871337890625, 1.0024523735046387, 10.463458061218262, -0.97314453125, -0.18212890625, -0.4833984375, 0, 
69, 2794934629, 0.5432611, 0.46556693, -0.543377, 0.43917078, 10.394913673400879, 0.5093474984169006, -0.202414870262146, -29.8234920501709, 0.22737112641334534, 10.912923812866211, -0.9716796875, -0.17919921875, -0.47900390625, 0, 
70, 2794951296, 0.5447147, 0.461918, -0.5465765, 0.43724877, 10.228938102722168, 0.711050808429718, 0.013019338250160217, -34.819679260253906, -1.4272615909576416, 12.341043472290039, -0.97119140625, -0.1748046875, -0.47607421875, 0, 
71, 2794967963, 0.5464062, 0.45806158, -0.5502019, 0.4346408, 10.119865417480469, 0.6726730465888977, 0.20814384520053864, -40.21123504638672, -3.683833122253418, 11.190340042114258, -0.96923828125, -0.1728515625, -0.47021484375, 0, 
72, 2794984630, 0.5481571, 0.45464888, -0.5535935, 0.43170267, 10.031922340393066, 0.31671667098999023, 0.40939298272132874, -39.28103256225586, -4.946596145629883, 7.35882043838501, -0.96630859375, -0.171875, -0.46142578125, 0, 
73, 2795001297, 0.54940784, 0.4524325, -0.55607384, 0.42924657, 9.82726001739502, -0.12364515662193298, 0.5547041296958923, -28.669954299926758, -5.462795257568359, 3.256760358810425, -0.96728515625, -0.1708984375, -0.458984375, 0, 
74, 2795017964, 0.5498585, 0.45179248, -0.5572766, 0.42778116, 9.681587219238281, -0.26305916905403137, 0.4006139636039734, -12.668510437011719, -5.266845226287842, -0.6399208903312683, -0.9658203125, -0.171875, -0.4541015625, 0, 
75, 2795034631, 0.5497399, 0.4523012, -0.5574881, 0.42712, 9.666873931884766, -0.20214441418647766, 0.1468838006258011, -0.5615712404251099, -4.581958293914795, -3.4078595638275146, -0.96728515625, -0.17041015625, -0.4541015625, 0, 
76, 2795051298, 0.5494369, 0.45326686, -0.5572879, 0.4267472, 9.726962089538574, -0.14611835777759552, 0.03307278826832771, 4.051667213439941, -4.178866386413574, -4.807632923126221, -0.96728515625, -0.1708984375, -0.453125, 0, 
77, 2795067965, 0.54911566, 0.45422703, -0.55711925, 0.42635962, 9.777627944946289, -0.08552055060863495, 0.02732379548251629, 3.9398679733276367, -4.39884090423584, -4.691465854644775, -0.966796875, -0.1728515625, -0.45556640625, 0, 
78, 2795084632, 0.5488436, 0.4549793, -0.5570796, 0.4259596, 9.881085395812988, 0.017646806314587593, 0.11217831075191498, 2.574364423751831, -4.126859188079834, -3.684195041656494, -0.96728515625, -0.17431640625, -0.45361328125, 0, 
79, 2795101299, 0.54878706, 0.45537212, -0.5570614, 0.4256364, 9.995321273803711, 0.07564010471105576, 0.2144547402858734, 0.7762248516082764, -2.09039306640625, -2.582566738128662, -0.9697265625, -0.173828125, -0.45068359375, 0, 
80, 2795117966, 0.5489254, 0.4554553, -0.55711484, 0.42529872, 9.994683265686035, 0.11171577870845795, 0.22161251306533813, -1.2677133083343506, -0.7540251016616821, -1.797640085220337, -0.96826171875, -0.17236328125, -0.45263671875, 0, 
81, 2795134633, 0.549168, 0.45536414, -0.55728585, 0.42485923, 9.976810455322266, 0.09779154509305954, 0.19914568960666656, -2.986863374710083, -0.6086729168891907, -1.4504214525222778, -0.96923828125, -0.17431640625, -0.45263671875, 0, 
82, 2795151300, 0.5493315, 0.45551398, -0.55730367, 0.42446333, 9.95900821685791, 0.016553105786442757, 0.17219193279743195, -1.2137601375579834, -0.9014261960983276, -2.45902419090271, -0.96923828125, -0.17431640625, -0.45166015625, 0, 
83, 2795167967, 0.5492106, 0.4563593, -0.55677253, 0.42440894, 9.992130279541016, -0.13092489540576935, 0.1030854731798172, 5.213356971740723, -0.8792329430580139, -4.7229437828063965, -0.97314453125, -0.17431640625, -0.45166015625, 0, 
84, 2795184634, 0.5487167, 0.45804086, -0.5555024, 0.4249004, 10.046504020690918, -0.20895512402057648, -0.025193799287080765, 13.786564826965332, -0.24451184272766113, -7.093928813934326, -0.97021484375, -0.17724609375, -0.453125, 0, 
85, 2795201301, 0.5478867, 0.46044528, -0.5535594, 0.4259075, 10.035486221313477, -0.07222789525985718, -0.08998868614435196, 21.506685256958008, 0.5218149423599243, -9.048445701599121, -0.970703125, -0.17626953125, -0.45556640625, 0, 
86, 2795217968, 0.54681504, 0.46331257, -0.55130565, 0.4270967, 10.02192211151123, 0.16229204833507538, -0.1804373413324356, 25.6180362701416, -0.006953865755349398, -10.399231910705566, -0.9736328125, -0.1806640625, -0.4560546875, 0, 
87, 2795234635, 0.54575133, 0.46622896, -0.54904723, 0.42819148, 9.9685640335083, 0.38035961985588074, -0.2751573324203491, 25.433917999267578, -0.4041310250759125, -10.979680061340332, -0.9755859375, -0.18212890625, -0.46142578125, 0, 
88, 2795251302, 0.54484373, 0.4688364, -0.5470617, 0.42904064, 9.925433158874512, 0.44534778594970703, -0.3581617474555969, 22.04294204711914, -0.7160044312477112, -10.320146560668945, -0.98046875, -0.18310546875, -0.4638671875, 0, 
89, 2795267969, 0.5441174, 0.47106028, -0.5453833, 0.42966312, 9.890993118286133, 0.424498975276947, -0.4101775288581848, 18.262670516967773, -0.7838265895843506, -9.271247863769531, -0.9755859375, -0.1865234375, -0.46630859375, 0, 
90, 2795284636, 0.54349464, 0.4730476, -0.54385245, 0.43020785, 9.816971778869629, 0.3516162931919098, -0.4378984868526459, 16.315736770629883, -0.5011001825332642, -8.502310752868652, -0.9794921875, -0.1875, -0.46728515625, 0, 
91, 2795301303, 0.5427927, 0.47498608, -0.5423404, 0.43086666, 9.747514724731445, 0.3346553444862366, -0.4580332934856415, 16.761796951293945, -0.35171404480934143, -7.59837532043457, -0.98046875, -0.18994140625, -0.47216796875, 0, 
92, 2795317970, 0.5419736, 0.47694552, -0.5407648, 0.4317127, 9.768708229064941, 0.36434611678123474, -0.5082332491874695, 18.10855484008789, -0.002100244164466858, -6.838893890380859, -0.9775390625, -0.1923828125, -0.47119140625, 0, 
93, 2795334637, 0.541011, 0.478917, -0.53915113, 0.43275458, 9.763382911682129, 0.45363226532936096, -0.5282296538352966, 19.46567153930664, 0.21298910677433014, -5.85250997543335, -0.98388671875, -0.1923828125, -0.47314453125, 0, 
94, 2795351304, 0.5399431, 0.4808465, -0.5376142, 0.43385905, 9.811184883117676, 0.5359650254249573, -0.555508017539978, 19.658945083618164, -0.1311499923467636, -4.8990631103515625, -0.9814453125, -0.19384765625, -0.4775390625, 0, 
95, 2795367971, 0.5388905, 0.48259053, -0.53624976, 0.43491906, 9.844627380371094, 0.6424447894096375, -0.5830631852149963, 18.242137908935547, -0.3083901107311249, -3.8532943725585938, -0.984375, -0.19384765625, -0.4765625, 0, 
96, 2795384638, 0.53796446, 0.484056, -0.53508997, 0.43586415, 9.924440383911133, 0.7554509043693542, -0.5989118218421936, 15.75368595123291, -0.14749084413051605, -2.950892448425293, -0.9833984375, -0.1943359375, -0.48046875, 0, 
97, 2795401305, 0.5372804, 0.4851549, -0.53421825, 0.4365548, 9.941015243530273, 0.8546699285507202, -0.574992835521698, 11.794095993041992, -0.0708063468337059, -2.310304880142212, -0.98486328125, -0.19482421875, -0.4794921875, 0, 
98, 2795417972, 0.53687364, 0.4857932, -0.53374714, 0.4369216, 9.956403732299805, 0.8771441578865051, -0.5302648544311523, 6.77561616897583, -0.22914405167102814, -1.309577465057373, -0.98388671875, -0.19677734375, -0.484375, 0, 
99, 2795434639, 0.53680104, 0.48598486, -0.5336691, 0.4368929, 9.989673614501953, 0.8156490325927734, -0.4645031690597534, 1.3791604042053223, -0.4335973262786865, -0.8211302757263184, -0.986328125, -0.1962890625, -0.48046875, 0, 
100, 2795451306, 0.53703725, 0.4858226, -0.53384215, 0.43657166, 10.015401840209961, 0.6825940012931824, -0.39766862988471985, -2.7866106033325195, -0.14043445885181427, -0.6906464695930481, -0.9853515625, -0.1953125, -0.4833984375, 0, 
101, 2795467973, 0.5373707, 0.48564658, -0.5340601, 0.43609035, 10.025287628173828, 0.5485117435455322, -0.29580268263816833, -3.8835508823394775, -0.4435094892978668, -1.372008204460144, -0.98388671875, -0.1962890625, -0.4794921875, 0, 
102, 2795484640, 0.53761613, 0.48566005, -0.53419274, 0.4356102, 10.008828163146973, 0.3942641615867615, -0.25379645824432373, -2.629335641860962, -1.0153769254684448, -2.0857186317443848, -0.98193359375, -0.197265625, -0.48095703125, 0, 
103, 2795501307, 0.5376656, 0.4860525, -0.5340662, 0.43526652, 9.942429542541504, 0.2820286452770233, -0.2274874448776245, 0.6963260769844055, -1.4574267864227295, -3.2518398761749268, -0.984375, -0.19873046875, -0.48193359375, 0, 
104, 2795517974, 0.5374263, 0.48691612, -0.53364456, 0.43511388, 9.872391700744629, 0.2026197612285614, -0.20072732865810394, 4.993165016174316, -2.197608470916748, -4.397496700286865, -0.98583984375, -0.20068359375, -0.4833984375, 0, 
105, 2795534641, 0.5369539, 0.4881143, -0.5329374, 0.4352211, 9.835065841674805, 0.24921907484531403, -0.24317818880081177, 8.820114135742188, -2.129312515258789, -4.925106048583984, -0.984375, -0.19970703125, -0.48046875, 0, 
106, 2795551308, 0.53630894, 0.48955494, -0.5320222, 0.4355182, 9.850274085998535, 0.36765334010124207, -0.2669731080532074, 11.608111381530762, -2.0817630290985107, -5.293828010559082, -0.986328125, -0.19873046875, -0.4794921875, 0, 
107, 2795567975, 0.53557473, 0.4910602, -0.5310524, 0.43591037, 9.887350082397461, 0.4570067822933197, -0.3092021346092224, 12.658951759338379, -2.081455707550049, -5.096405506134033, -0.98828125, -0.20458984375, -0.48291015625, 0, 
108, 2795584642, 0.53488183, 0.4923244, -0.5302373, 0.43632704, 9.882119178771973, 0.5432689189910889, -0.3884313106536865, 11.25955867767334, -1.6946649551391602, -3.7286853790283203, -0.98779296875, -0.2021484375, -0.48291015625, 0, 
109, 2795601309, 0.5342865, 0.49327922, -0.5295578, 0.4368028, 9.90313720703125, 0.6506435871124268, -0.3815937340259552, 9.598278999328613, -0.7101763486862183, -2.2166004180908203, -0.986328125, -0.203125, -0.48388671875, 0, 
110, 2795617976, 0.53381157, 0.4938944, -0.5290482, 0.43730575, 10.035303115844727, 0.675735354423523, -0.4031915068626404, 7.531729221343994, 0.21616481244564056, -0.6666474342346191, -0.98583984375, -0.201171875, -0.48779296875, 0, 
111, 2795634643, 0.53355026, 0.49414748, -0.5287254, 0.43772885, 10.10213851928711, 0.6218633055686951, -0.40072205662727356, 4.624776840209961, 1.1254925727844238, 0.34977349638938904, -0.98583984375, -0.203125, -0.48779296875, 0, 
112, 2795651310, 0.5333143, 0.49432185, -0.528517, 0.43807125, 10.08658218383789, 0.6120598316192627, -0.3782823979854584, 3.6116790771484375, 0.7601913809776306, 0.6525924801826477, -0.9892578125, -0.2021484375, -0.48828125, 0, 
113, 2795667977, 0.5329988, 0.49455428, -0.5282763, 0.43848255, 10.035322189331055, 0.5699245929718018, -0.37402814626693726, 4.443528652191162, 0.6492371559143066, 0.8235188722610474, -0.98681640625, -0.203125, -0.48828125, 0, 
114, 2795684644, 0.53253454, 0.49495095, -0.5278521, 0.43911, 9.913650512695312, 0.5610939264297485, -0.3717264235019684, 6.88881254196167, 1.0210058689117432, 0.8443933725357056, -0.986328125, -0.20458984375, -0.48876953125, 0, 
115, 2795701311, 0.5318224, 0.49570805, -0.52710545, 0.44001508, 9.831879615783691, 0.5673156976699829, -0.37361231446266174, 11.033655166625977, 1.1582900285720825, 0.20288468897342682, -0.98828125, -0.2041015625, -0.4892578125, 0, 
116, 2795717978, 0.53089863, 0.4967624, -0.5261905, 0.44103554, 9.734092712402344, 0.6504597067832947, -0.3888099491596222, 13.767147064208984, 0.5006580948829651, -0.3862525224685669, -0.98779296875, -0.205078125, -0.490234375, 0, 
117, 2795734645, 0.52986073, 0.49797028, -0.52519333, 0.4421086, 9.68510913848877, 0.7168083190917969, -0.45530667901039124, 15.159943580627441, 0.1022779792547226, -0.6835522055625916, -0.98828125, -0.20361328125, -0.49169921875, 0, 
118, 2795751312, 0.5288112, 0.49914017, -0.5242009, 0.44322217, 9.672130584716797, 0.777458906173706, -0.5511853694915771, 15.191140174865723, 0.2975749671459198, -0.3474108874797821, -0.98828125, -0.203125, -0.49560546875, 0, 
119, 2795767979, 0.5278956, 0.5000448, -0.5233736, 0.44427025, 9.695540428161621, 0.8521100282669067, -0.6550624966621399, 13.029385566711426, 0.7624967694282532, 0.5290113687515259, -0.98681640625, -0.203125, -0.49609375, 0, 
120, 2795784646, 0.5272167, 0.5005341, -0.5228762, 0.44511068, 9.652535438537598, 0.9199535250663757, -0.7236630916595459, 8.953797340393066, 0.9720853567123413, 1.681941270828247, -0.9892578125, -0.2041015625, -0.49658203125, 0, 
121, 2795801313, 0.52680975, 0.500513, -0.52281725, 0.4456849, 9.66484260559082, 0.9685400724411011, -0.7416781783103943, 3.8675241470336914, 1.0080839395523071, 3.229191780090332, -0.98828125, -0.20263671875, -0.498046875, 0, 
122, 2795817980, 0.5266485, 0.5000149, -0.5231647, 0.4460266, 9.687662124633789, 0.8835792541503906, -0.7035316228866577, -0.7861306667327881, 1.0812082290649414, 4.7471795082092285, -0.9873046875, -0.203125, -0.49853515625, 0, 
123, 2795834647, 0.5266917, 0.4991126, -0.5238624, 0.44616756, 9.760194778442383, 0.7628271579742432, -0.647003710269928, -4.747724533081055, 1.0976260900497437, 6.051852703094482, -0.9873046875, -0.20458984375, -0.49755859375, 0, 
124, 2795851314, 0.52682, 0.49798355, -0.52477837, 0.44620135, 9.789860725402832, 0.6636022925376892, -0.5776960849761963, -6.915930271148682, 0.9429894685745239, 6.969172954559326, -0.98583984375, -0.19921875, -0.49755859375, 0, 
125, 2795867981, 0.52686024, 0.4968798, -0.5257437, 0.44624773, 9.849569320678711, 0.5823835730552673, -0.5289584398269653, -6.629708766937256, 0.41141051054000854, 7.3629937171936035, -0.98681640625, -0.19873046875, -0.49658203125, 0, 
126, 2795884648, 0.52676517, 0.49590442, -0.526621, 0.4464105, 9.937287330627441, 0.5334187746047974, -0.4819076359272003, -5.010639667510986, 0.2456066757440567, 7.4338507652282715, -0.98291015625, -0.19677734375, -0.49560546875, 0, 
127, 2795901315, 0.52647865, 0.49513465, -0.52741516, 0.44666564, 9.983640670776367, 0.5022621750831604, -0.45643407106399536, -3.024719715118408, -0.4626167118549347, 7.32845401763916, -0.9833984375, -0.19580078125, -0.49658203125, 0, 
128, 2795917982, 0.5260447, 0.49455696, -0.52813864, 0.44696164, 10.035439491271973, 0.553048849105835, -0.45693376660346985, -1.4620497226715088, -1.1920279264450073, 6.991915225982666, -0.98193359375, -0.19775390625, -0.49365234375, 0, 
129, 2795934649, 0.52559286, 0.49407265, -0.5288434, 0.44719562, 10.053916931152344, 0.5851102471351624, -0.4502768814563751, -1.2314075231552124, -1.6872625350952148, 6.420151233673096, -0.98046875, -0.19189453125, -0.49462890625, 0, 
130, 2795951316, 0.5251368, 0.49366808, -0.5295212, 0.4473756, 10.152867317199707, 0.5592607855796814, -0.45443961024284363, -1.042731523513794, -2.0336997509002686, 5.857093334197998, -0.98046875, -0.19287109375, -0.49462890625, 0, 
131, 2795967983, 0.5245693, 0.49347204, -0.53004867, 0.4476332, 10.162392616271973, 0.5081644654273987, -0.3868774473667145, 0.8345963358879089, -2.275009870529175, 5.209809303283691, -0.97998046875, -0.18896484375, -0.4921875, 0, 
132, 2795984650, 0.5238745, 0.49347135, -0.53043264, 0.44799286, 10.12263011932373, 0.5024164915084839, -0.3654824197292328, 2.784017324447632, -2.4760308265686035, 4.771114826202393, -0.97900390625, -0.19091796875, -0.4951171875, 0, 
133, 2796001317, 0.52313906, 0.49359006, -0.5306919, 0.4484143, 10.113251686096191, 0.5719554424285889, -0.3676063120365143, 3.9604604244232178, -2.334444284439087, 4.260885238647461, -0.9775390625, -0.18994140625, -0.4931640625, 0, 
134, 2796017984, 0.52246284, 0.4937688, -0.53085905, 0.44880795, 10.04681396484375, 0.7332459688186646, -0.4293859601020813, 4.15952205657959, -2.066112756729126, 3.4462850093841553, -0.97802734375, -0.19091796875, -0.4912109375, 0, 
135, 2796034651, 0.5219526, 0.49387652, -0.53102535, 0.44908592, 9.99832820892334, 0.8129943609237671, -0.370650976896286, 2.9202640056610107, -1.6301971673965454, 2.7756545543670654, -0.9775390625, -0.1875, -0.49365234375, 0, 
136, 2796051318, 0.5216161, 0.4939267, -0.5311433, 0.44928265, 9.927109718322754, 0.7846307158470154, -0.3580033779144287, 1.9772042036056519, -0.9213272333145142, 1.9942368268966675, -0.9775390625, -0.1875, -0.4912109375, 0, 
137, 2796067985, 0.5214815, 0.49382877, -0.5311973, 0.4494825, 9.865653991699219, 0.7411362528800964, -0.384258896112442, 0.9685763120651245, 0.5125933289527893, 1.7063628435134888, -0.9765625, -0.1845703125, -0.4931640625, 0, 
138, 2796084652, 0.5214478, 0.49362054, -0.5311713, 0.44978076, 9.792482376098633, 0.7315242290496826, -0.3849952518939972, 0.8389247059822083, 1.8430708646774292, 1.8790438175201416, -0.9765625, -0.18701171875, -0.49267578125, 0, 
139, 2796101319, 0.521459, 0.4933775, -0.531062, 0.45016348, 9.797011375427246, 0.6969397664070129, -0.43946024775505066, 1.1266833543777466, 2.7006092071533203, 1.8880207538604736, -0.974609375, -0.189453125, -0.49462890625, 0, 
140, 2796117986, 0.5215377, 0.4930688, -0.530898, 0.4506036, 9.85488224029541, 0.6820759177207947, -0.5331875681877136, 1.0423665046691895, 3.540539264678955, 1.938772439956665, -0.97607421875, -0.18701171875, -0.49267578125, 0, 
141, 2796134653, 0.5216445, 0.49268597, -0.5307173, 0.45111158, 9.886652946472168, 0.5898698568344116, -0.6064990162849426, 0.9809598922729492, 4.163362979888916, 2.3108737468719482, -0.974609375, -0.18505859375, -0.49658203125, 0, 
142, 2796151320, 0.52166814, 0.4921655, -0.530604, 0.45178485, 9.860079765319824, 0.5317391753196716, -0.676150918006897, 1.1622081995010376, 4.604555130004883, 3.89104962348938, -0.9755859375, -0.18798828125, -0.4951171875, 0, 
143, 2796167987, 0.5214678, 0.49162132, -0.5305204, 0.4527059, 9.700037002563477, 0.5694250464439392, -0.645785927772522, 2.648103713989258, 4.593503952026367, 5.66335916519165, -0.9755859375, -0.18359375, -0.498046875, 0, 
144, 2796184654, 0.52104634, 0.49100053, -0.530497, 0.45389086, 9.620779991149902, 0.6259835958480835, -0.6690718531608582, 3.895430326461792, 4.702409267425537, 7.781440734863281, -0.97265625, -0.18212890625, -0.498046875, 0, 
145, 2796201321, 0.5206371, 0.49004498, -0.53067595, 0.4551823, 9.661334991455078, 0.6622962355613708, -0.6473008990287781, 2.411123037338257, 5.425867557525635, 10.028817176818848, -0.97412109375, -0.18310546875, -0.49951171875, 0, 
146, 2796217988, 0.5204338, 0.4886101, -0.53115904, 0.45639184, 9.774370193481445, 0.6841707825660706, -0.5861210823059082, -1.2481460571289062, 6.313477039337158, 11.864828109741211, -0.97314453125, -0.1806640625, -0.4990234375, 0, 
147, 2796234655, 0.52060974, 0.48663205, -0.5319977, 0.457327, 9.96988582611084, 0.6040460467338562, -0.5835002064704895, -6.583622455596924, 7.2093987464904785, 12.872270584106445, -0.96923828125, -0.17626953125, -0.5029296875, 0, 
148, 2796251322, 0.52119803, 0.48417556, -0.53312916, 0.45794633, 10.06093692779541, 0.5296775102615356, -0.6170459985733032, -11.750723838806152, 8.116950988769531, 13.17488956451416, -0.9677734375, -0.1728515625, -0.5009765625, 0, 
149, 2796267989, 0.5220817, 0.48142478, -0.53441906, 0.45833603, 10.078349113464355, 0.4006478488445282, -0.5557582378387451, -15.128754615783691, 8.79406452178955, 13.028950691223145, -0.9677734375, -0.173828125, -0.5009765625, 0, 
150, 2796284656, 0.52311563, 0.4786046, -0.5356988, 0.45861647, 10.142274856567383, 0.20122404396533966, -0.4661692678928375, -16.245037078857422, 9.241161346435547, 12.385061264038086, -0.9658203125, -0.1708984375, -0.5, 0, 
151, 2796301323, 0.524095, 0.4759358, -0.53687847, 0.45889616, 10.186086654663086, -0.05162149295210838, -0.3648529648780823, -15.207334518432617, 8.919144630432129, 11.6677885055542, -0.962890625, -0.16748046875, -0.50048828125, 0, 
152, 2796317990, 0.5248116, 0.47372472, -0.5378428, 0.45923588, 10.229364395141602, -0.18971700966358185, -0.2229127734899521, -11.798348426818848, 7.478320598602295, 10.318041801452637, -0.96044921875, -0.1640625, -0.49755859375, 0, 
153, 2796334657, 0.5252542, 0.47209007, -0.53846157, 0.45968783, 10.27530288696289, -0.2017916589975357, -0.14630232751369476, -7.320638656616211, 6.257423400878906, 8.331130027770996, -0.96044921875, -0.16455078125, -0.5, 0, 
154, 2796351324, 0.52550566, 0.47098505, -0.5387363, 0.4602121, 10.22872543334961, -0.15650448203086853, -0.11706095933914185, -3.43247389793396, 5.352792263031006, 6.118803977966309, -0.96044921875, -0.16162109375, -0.5, 0, 
155, 2796367991, 0.5257254, 0.47030523, -0.53877395, 0.46061203, 10.129903793334961, -0.0473938025534153, -0.0811137855052948, -1.5045925378799438, 4.342935085296631, 3.4261021614074707, -0.95703125, -0.162109375, -0.49755859375, 0, 
156, 2796384658, 0.5260888, 0.4698436, -0.5386982, 0.4607564, 10.034311294555664, -0.005336343310773373, -0.06236303225159645, -1.7678011655807495, 3.768415689468384, 0.8734250068664551, -0.95751953125, -0.16064453125, -0.50048828125, 0, 
157, 2796401325, 0.5266103, 0.46947718, -0.5385909, 0.46065986, 9.961007118225098, -0.058301445096731186, -0.02949562296271324, -2.7259979248046875, 3.387695550918579, -0.954508364200592, -0.958984375, -0.16064453125, -0.49951171875, 0, 
158, 2796417992, 0.52722657, 0.46926272, -0.53836143, 0.46044147, 9.940357208251953, -0.20068487524986267, -0.04354892671108246, -2.546389102935791, 3.305171489715576, -2.6523358821868896, -0.95751953125, -0.16015625, -0.5, 0, 
159, 2796434659, 0.5277929, 0.46929047, -0.5379524, 0.4602423, 9.920804023742676, -0.37025073170661926, -0.10147722065448761, -0.8680399656295776, 3.0672035217285156, -3.9009807109832764, -0.958984375, -0.16015625, -0.50048828125, 0, 
160, 2796451326, 0.5281409, 0.469663, -0.537272, 0.46025798, 9.85869312286377, -0.45915839076042175, -0.10108299553394318, 2.7407572269439697, 2.846665859222412, -4.582303524017334, -0.95751953125, -0.162109375, -0.50146484375, 0, 
161, 2796467993, 0.5281609, 0.4703794, -0.53639865, 0.4605219, 9.827733993530273, -0.3713694214820862, -0.13661430776119232, 6.576056480407715, 2.048933267593384, -4.536253452301025, -0.9599609375, -0.1650390625, -0.50439453125, 0, 
162, 2796484660, 0.52797127, 0.47123158, -0.5355278, 0.46088126, 9.819817543029785, -0.20797458291053772, -0.2115321010351181, 8.09038257598877, 1.1450225114822388, -4.019684314727783, -0.96142578125, -0.16357421875, -0.50390625, 0, 
163, 2796501327, 0.5277651, 0.47198385, -0.53483546, 0.46115184, 9.833277702331543, -0.030506860464811325, -0.2300872802734375, 6.888876438140869, 0.46546608209609985, -3.34393048286438, -0.9609375, -0.166015625, -0.5048828125, 0, 
164, 2796517994, 0.5277047, 0.47253996, -0.53439116, 0.46116656, 9.866199493408203, 0.14215295016765594, -0.2700752913951874, 3.976583480834961, -0.10676654428243637, -3.208413600921631, -0.96044921875, -0.16552734375, -0.50634765625, 0, 
165, 2796534661, 0.5279373, 0.4727687, -0.5341795, 0.46091092, 9.873894691467285, 0.2379915863275528, -0.2595958113670349, 0.10676012933254242, 0.28579288721084595, -3.1598258018493652, -0.96240234375, -0.1650390625, -0.5048828125, 0, 
166, 2796551328, 0.52833843, 0.4727856, -0.5341911, 0.46042043, 9.86752986907959, 0.29821741580963135, -0.170577734708786, -2.780463457107544, 0.002004193840548396, -3.042302131652832, -0.962890625, -0.16748046875, -0.50537109375, 0, 
167, 2796567995, 0.5289335, 0.47260264, -0.53433305, 0.45975962, 9.95005989074707, 0.27004745602607727, -0.11865066736936569, -5.175058364868164, 0.320728600025177, -3.1160025596618652, -0.9638671875, -0.16552734375, -0.50537109375, 0, 
168, 2796584662, 0.52966994, 0.47229862, -0.5345465, 0.45897534, 9.988604545593262, 0.2516741156578064, -0.0828387662768364, -6.752303123474121, 0.5603227019309998, -3.3357346057891846, -0.962890625, -0.16650390625, -0.50439453125, 0, 
169, 2796601329, 0.53043866, 0.47205424, -0.53476715, 0.45808125, 9.95892333984375, 0.24147929251194, -0.010365061461925507, -7.068478584289551, 0.10943666845560074, -4.032822608947754, -0.962890625, -0.169921875, -0.50390625, 0, 
170, 2796617996, 0.53110945, 0.47208422, -0.53482723, 0.45720232, 9.926700592041016, 0.14378847181797028, 0.017008991912007332, -5.186712741851807, -0.480711966753006, -5.198148727416992, -0.96484375, -0.1689453125, -0.501953125, 0, 
171, 2796634663, 0.53158283, 0.47249457, -0.5346186, 0.4564715, 9.855417251586914, 0.048105910420417786, 0.03025102987885475, -1.7683008909225464, -0.9410362839698792, -6.307857990264893, -0.9638671875, -0.1708984375, -0.50146484375, 0, 
172, 2796651330, 0.5317905, 0.4732496, -0.5341699, 0.45597258, 9.812749862670898, 0.023708952590823174, -0.017572496086359024, 1.9588278532028198, -1.369075894355774, -6.674324989318848, -0.96630859375, -0.1708984375, -0.50146484375, 0, 
173, 2796667997, 0.5318004, 0.47425893, -0.5335109, 0.4556837, 9.792387008666992, 0.08732325583696365, -0.07847718149423599, 4.963095664978027, -1.4400230646133423, -6.904070854187012, -0.966796875, -0.171875, -0.50244140625, 0, 
174, 2796684664, 0.53170705, 0.4753682, -0.53273475, 0.4555451, 9.818955421447754, 0.13275961577892303, -0.17047809064388275, 6.583394527435303, -1.2137222290039062, -6.780234336853027, -0.96875, -0.1728515625, -0.50244140625, 0, 
175, 2796701331, 0.531653, 0.47633058, -0.5320264, 0.4554307, 9.821216583251953, 0.18931953608989716, -0.23441652953624725, 5.79550838470459, -0.7779091000556946, -6.054996967315674, -0.97021484375, -0.17822265625, -0.50341796875, 0, 
176, 2796717998, 0.5316674, 0.47702265, -0.5315436, 0.455253, 9.820722579956055, 0.3312114179134369, -0.2550230324268341, 3.64506459236145, -0.7138514518737793, -4.7735795974731445, -0.97021484375, -0.1767578125, -0.50390625, 0, 
177, 2796734665, 0.5318252, 0.4773595, -0.53136075, 0.45492896, 9.835310935974121, 0.41295650601387024, -0.2522718012332916, 0.40375223755836487, -0.654366135597229, -3.4748880863189697, -0.9697265625, -0.1767578125, -0.50341796875, 0, 
178, 2796751332, 0.53218436, 0.47733903, -0.53145456, 0.45442027, 9.8444185256958, 0.42691895365715027, -0.29353591799736023, -3.104234218597412, -0.41797372698783875, -2.5669562816619873, -0.97119140625, -0.1787109375, -0.50244140625, 0, 
179, 2796767999, 0.5327467, 0.4769562, -0.5318017, 0.45375723, 9.894659042358398, 0.4151209592819214, -0.24507206678390503, -6.4523138999938965, 0.023557284846901894, -1.6105396747589111, -0.970703125, -0.1767578125, -0.5009765625, 0, 
180, 2796784666, 0.5334977, 0.47627684, -0.53233784, 0.45295894, 9.971628189086914, 0.3209296762943268, -0.186258003115654, -9.24078369140625, 0.5026429891586304, -0.9904817938804626, -0.97021484375, -0.1767578125, -0.5009765625, 0, 
181, 2796801333, 0.5343088, 0.47550234, -0.53296435, 0.45207882, 9.966082572937012, 0.1959693729877472, -0.10172763466835022, -10.373135566711426, 0.4194785952568054, -0.8336809277534485, -0.97412109375, -0.17724609375, -0.4990234375, 0, 
182, 2796818000, 0.5350344, 0.47483593, -0.533522, 0.45126253, 9.96172046661377, 0.11660826206207275, -0.07747632265090942, -9.244932174682617, 0.23187822103500366, -0.9547648429870605, -0.97021484375, -0.17626953125, -0.4990234375, 0, 
183, 2796834667, 0.53559756, 0.4743926, -0.53389513, 0.4506191, 9.9222993850708, 0.07574234157800674, -0.037138260900974274, -6.686529159545898, 0.18706877529621124, -1.2364789247512817, -0.9755859375, -0.17626953125, -0.5, 0, 
184, 2796851334, 0.53594255, 0.47430336, -0.5340207, 0.45015383, 9.908151626586914, 0.02710895799100399, -0.05277622118592262, -3.262751340866089, -0.22016680240631104, -2.0114810466766357, -0.97216796875, -0.17626953125, -0.49755859375, 0, 
185, 2796868001, 0.53608274, 0.47449255, -0.5339628, 0.4498561, 9.856051445007324, 0.042321693152189255, -0.05857584998011589, -0.3699370324611664, -0.6096078157424927, -2.381507158279419, -0.9736328125, -0.17919921875, -0.49560546875, 0, 
186, 2796884668, 0.53602016, 0.47492826, -0.53376406, 0.44970655, 9.85947322845459, 0.08608636260032654, -0.0595749095082283, 2.173692226409912, -1.1150360107421875, -2.5732438564300537, -0.97314453125, -0.17724609375, -0.4970703125, 0, 
187, 2796901335, 0.53585374, 0.4755189, -0.5334078, 0.44970393, 9.861145973205566, 0.14052878320217133, -0.11689352244138718, 4.109717845916748, -0.9153595566749573, -2.793090581893921, -0.97265625, -0.1806640625, -0.49951171875, 0, 
188, 2796918002, 0.5356605, 0.47606218, -0.53303325, 0.44980326, 9.871786117553711, 0.21809212863445282, -0.1920459270477295, 4.4599456787109375, -0.46571576595306396, -2.2224650382995605, -0.9736328125, -0.1806640625, -0.49755859375, 0, 
189, 2796934669, 0.5354983, 0.476457, -0.53279984, 0.4498548, 9.868949890136719, 0.31668323278427124, -0.20380951464176178, 3.201094627380371, -0.5694984197616577, -1.4870349168777466, -0.97314453125, -0.17822265625, -0.49658203125, 0, 
190, 2796951336, 0.53535455, 0.4767048, -0.5327579, 0.44981316, 9.867603302001953, 0.3800761103630066, -0.19910673797130585, 1.6450459957122803, -1.0582141876220703, -0.7226110696792603, -0.97314453125, -0.18017578125, -0.49658203125, 0, 
191, 2796968003, 0.5352208, 0.47683027, -0.53289616, 0.44967565, 9.863767623901367, 0.37910616397857666, -0.2007099837064743, 0.2630999982357025, -1.6204769611358643, -0.06707965582609177, -0.97412109375, -0.181640625, -0.49755859375, 0, 
192, 2796984670, 0.5351306, 0.47681093, -0.533141, 0.44951287, 9.888440132141113, 0.37086400389671326, -0.18170906603336334, -0.8340775370597839, -1.4872653484344482, 0.5853334069252014, -0.97412109375, -0.18115234375, -0.49658203125, 0, 
193, 2797001337, 0.53509337, 0.4767359, -0.53338635, 0.44934583, 9.893756866455078, 0.35437893867492676, -0.11060183495283127, -1.228474736213684, -1.1375240087509155, 0.6121371388435364, -0.97265625, -0.1796875, -0.49609375, 0, 
194, 2797018004, 0.5350213, 0.47669297, -0.5335927, 0.44923228, 9.871187210083008, 0.3255392909049988, -0.09776522219181061, -0.6894554495811462, -1.0463684797286987, 0.6702395081520081, -0.974609375, -0.18115234375, -0.49462890625, 0, 
195, 2797034671, 0.53493935, 0.4767103, -0.5337309, 0.44914722, 9.874205589294434, 0.2882196307182312, -0.14937300980091095, -0.09676476567983627, -0.9233121275901794, 0.3618241548538208, -0.974609375, -0.181640625, -0.49609375, 0, 
196, 2797051338, 0.5348724, 0.47676456, -0.5338259, 0.4490565, 9.860601425170898, 0.3367743194103241, -0.1698782742023468, 0.09528563916683197, -0.8425937294960022, 0.016436949372291565, -0.9736328125, -0.1796875, -0.4951171875, 0, 
197, 2797068005, 0.5348109, 0.47680438, -0.53392005, 0.44897547, 9.849386215209961, 0.31316131353378296, -0.2196578085422516, 0.0531911738216877, -0.7439592480659485, 0.0865517109632492, -0.97265625, -0.1796875, -0.49609375, 0, 
198, 2797084672, 0.5347432, 0.47683847, -0.5340061, 0.4489176, 9.841279029846191, 0.29676440358161926, -0.2522227466106415, 0.17302018404006958, -0.6424561142921448, 0.1849813014268875, -0.97412109375, -0.1806640625, -0.4951171875, 0, 
199, 2797101339, 0.534647, 0.4768448, -0.5340974, 0.4489169, 9.868075370788574, 0.20400460064411163, -0.27818578481674194, 0.3553057610988617, -0.49281394481658936, 0.6014565825462341, -0.97314453125, -0.17919921875, -0.49267578125, 0, 
200, 2797118006, 0.53454155, 0.47684497, -0.5341882, 0.44893423, 9.909647941589355, 0.20080330967903137, -0.27518919110298157, 0.42962104082107544, -0.44773560762405396, 0.7175974249839783, -0.97314453125, -0.1796875, -0.494140625, 0, 
201, 2797134673, 0.5344693, 0.47673297, -0.53437865, 0.44891268, 9.943853378295898, 0.2854318916797638, -0.28030967712402344, -0.549712598323822, -0.4733738899230957, 1.2105906009674072, -0.97216796875, -0.18115234375, -0.49267578125, 0, 
202, 2797151340, 0.53449416, 0.47639114, -0.53477323, 0.44877598, 9.973104476928711, 0.3441886305809021, -0.27727511525154114, -2.7713451385498047, -0.5341784358024597, 2.0021767616271973, -0.97314453125, -0.177734375, -0.494140625, 0, 
203, 2797168007, 0.53468484, 0.47577658, -0.53536755, 0.4484921, 10.008538246154785, 0.361203670501709, -0.26565396785736084, -5.472281455993652, -0.2994893193244934, 2.6054069995880127, -0.97265625, -0.1796875, -0.49169921875, 0, 
204, 2797184674, 0.5349996, 0.4750013, -0.53608847, 0.44807702, 9.999788284301758, 0.31037694215774536, -0.21323685348033905, -7.330804347991943, -0.24038805067539215, 2.746828317642212, -0.9716796875, -0.17724609375, -0.48974609375, 0, 
205, 2797201341, 0.5353497, 0.47425744, -0.53676, 0.44764277, 9.976773262023926, 0.23659805953502655, -0.16930721700191498, -7.251237869262695, -0.08879923820495605, 2.2897820472717285, -0.97216796875, -0.177734375, -0.49169921875, 0, 
206, 2797218008, 0.5356252, 0.47369403, -0.5372962, 0.44726634, 9.949155807495117, 0.17669470608234406, -0.13306254148483276, -5.709494113922119, -0.23265297710895538, 1.6256701946258545, -0.9716796875, -0.17822265625, -0.48974609375, 0, 
207, 2797234675, 0.5357526, 0.47338122, -0.53766084, 0.44700673, 9.901142120361328, 0.16011543571949005, -0.12149708718061447, -3.348155975341797, -0.538174033164978, 1.025718092918396, -0.97216796875, -0.177734375, -0.48828125, 0, 
208, 2797251342, 0.5357602, 0.47327632, -0.53785837, 0.44687095, 9.906558990478516, 0.198076993227005, -0.1619931012392044, -1.2201889753341675, -0.602205753326416, 0.537821888923645, -0.970703125, -0.1748046875, -0.48974609375, 0, 
209, 2797268009, 0.535715, 0.47328055, -0.53793734, 0.44682574, 9.90098762512207, 0.2050454169511795, -0.20477721095085144, 0.054676707834005356, -0.4015558958053589, 0.24336546659469604, -0.96923828125, -0.17529296875, -0.48974609375, 0, 
210, 2797284676, 0.5356654, 0.47333074, -0.53797877, 0.44678208, 9.925434112548828, 0.23978154361248016, -0.20306779444217682, 0.35740602016448975, -0.4153611660003662, -0.02836606651544571, -0.96923828125, -0.1748046875, -0.4892578125, 0, 
211, 2797301343, 0.53565204, 0.4732978, -0.53807145, 0.4467212, 9.881714820861816, 0.27708831429481506, -0.20797455310821533, -0.28850147128105164, -0.2708286941051483, 0.2699386775493622, -0.970703125, -0.17724609375, -0.48681640625, 0, 
212, 2797318010, 0.5356858, 0.4731624, -0.5382736, 0.44658077, 9.828595161437988, 0.3015388548374176, -0.2733157277107239, -1.4486925601959229, -0.44477730989456177, 0.5680447816848755, -0.97265625, -0.17529296875, -0.48974609375, 0, 
213, 2797334677, 0.53583145, 0.4728284, -0.538579, 0.44639152, 9.854273796081543, 0.3023618459701538, -0.28422361612319946, -3.0422890186309814, 0.041242845356464386, 1.1155674457550049, -0.97119140625, -0.177734375, -0.4873046875, 0, 
214, 2797351344, 0.5360682, 0.4723845, -0.5389381, 0.44614363, 9.915202140808105, 0.25287890434265137, -0.2897970378398895, -4.125629425048828, 0.3273622989654541, 1.2008064985275269, -0.97021484375, -0.17578125, -0.48486328125, 0, 
215, 2797368011, 0.53627855, 0.47190472, -0.5393306, 0.44592422, 9.9091157913208, 0.17856748402118683, -0.22514373064041138, -4.1684160232543945, 0.30894678831100464, 1.6290125846862793, -0.97021484375, -0.17626953125, -0.486328125, 0, 
216, 2797384678, 0.53631306, 0.47153875, -0.53971136, 0.44580933, 9.902176856994629, 0.18225377798080444, -0.2001752257347107, -2.754991292953491, -0.3089659810066223, 2.0926661491394043, -0.9697265625, -0.177734375, -0.48681640625, 0, 
217, 2797401345, 0.5362201, 0.47126132, -0.54003936, 0.4458173, 9.912837982177734, 0.19156014919281006, -0.22829341888427734, -1.3982998132705688, -0.46211710572242737, 2.4367475509643555, -0.970703125, -0.17431640625, -0.484375, 0, 
218, 2797418012, 0.53610396, 0.47099137, -0.5403655, 0.44584665, 9.96364688873291, 0.2351917326450348, -0.3165753185749054, -1.2094701528549194, -0.4938128590583801, 2.5527985095977783, -0.970703125, -0.17529296875, -0.48486328125, 0, 
219, 2797434679, 0.5360326, 0.47066382, -0.54078436, 0.44577086, 9.9323148727417, 0.34312811493873596, -0.25507423281669617, -2.2422122955322266, -0.8327200412750244, 2.542181968688965, -0.9677734375, -0.173828125, -0.48388671875, 0, 
220, 2797451346, 0.5359659, 0.47036228, -0.54127777, 0.44557035, 9.968729972839355, 0.3666225075721741, -0.24380230903625488, -2.853869915008545, -1.5736955404281616, 2.2133026123046875, -0.9697265625, -0.17333984375, -0.4853515625, 0, 
221, 2797468013, 0.53593445, 0.4700524, -0.5417724, 0.44533402, 9.928829193115234, 0.33086609840393066, -0.22794631123542786, -3.1359810829162598, -1.5380172729492188, 2.0073893070220947, -0.96923828125, -0.17431640625, -0.48388671875, 0, 
222, 2797484680, 0.5359134, 0.46972606, -0.5422804, 0.4450854, 9.941088676452637, 0.23798604309558868, -0.21444068849086761, -3.316460371017456, -1.5379016399383545, 2.0356268882751465, -0.97021484375, -0.17041015625, -0.48388671875, 0, 
223, 2797501347, 0.5359105, 0.46939126, -0.54277223, 0.44484243, 9.92790412902832, 0.1948140561580658, -0.23981627821922302, -3.334914445877075, -1.365976333618164, 1.9798808097839355, -0.9677734375, -0.17333984375, -0.482421875, 0, 
224, 2797518014, 0.5358609, 0.46914628, -0.5432717, 0.44455075, 9.911272048950195, 0.2179834544658661, -0.23014895617961884, -3.0583105087280273, -2.000800371170044, 1.6330980062484741, -0.96875, -0.17138671875, -0.482421875, 0, 
225, 2797534681, 0.53578466, 0.46898258, -0.5437703, 0.44420567, 9.856368064880371, 0.22588755190372467, -0.22153882682323456, -2.871081829071045, -2.5178184509277344, 1.2109622955322266, -0.96728515625, -0.17138671875, -0.48291015625, 0, 
226, 2797551348, 0.5356647, 0.468955, -0.54417825, 0.44388014, 9.919060707092285, 0.1878482699394226, -0.2637832462787628, -1.879229187965393, -2.699463129043579, 0.615236222743988, -0.9677734375, -0.17138671875, -0.48095703125, 0, 
227, 2797568015, 0.5355911, 0.46894675, -0.5444993, 0.44358373, 9.92169189453125, 0.15123674273490906, -0.2905944287776947, -1.5815842151641846, -2.1713039875030518, 0.2284332811832428, -0.97021484375, -0.171875, -0.47705078125, 0, 
228, 2797584682, 0.5354993, 0.4690125, -0.5447885, 0.44326985, 9.893936157226562, 0.10464742034673691, -0.25795871019363403, -1.2206628322601318, -2.404801845550537, -0.15902924537658691, -0.96826171875, -0.17041015625, -0.47705078125, 0, 
229, 2797601349, 0.5353215, 0.46928373, -0.5449646, 0.4429811, 9.90882682800293, 0.10778510570526123, -0.234623983502388, 0.25298306345939636, -2.8552653789520264, -0.9394866824150085, -0.96826171875, -0.17041015625, -0.4765625, 0, 
230, 2797618016, 0.53501284, 0.46972737, -0.54499835, 0.4428421, 9.90725040435791, 0.13651670515537262, -0.252984881401062, 2.304176092147827, -2.863474130630493, -1.0961211919784546, -0.96728515625, -0.17236328125, -0.4765625, 0, 
231, 2797634683, 0.53468424, 0.47020626, -0.54496497, 0.44277173, 9.906758308410645, 0.20362816751003265, -0.3152228891849518, 2.961090564727783, -2.577111005783081, -1.1317353248596191, -0.96533203125, -0.17333984375, -0.478515625, 0, 
232, 2797651350, 0.53438234, 0.47068486, -0.54491794, 0.44268548, 9.897961616516113, 0.27680593729019165, -0.2920076251029968, 2.855464458465576, -2.477363109588623, -1.313624382019043, -0.9677734375, -0.1728515625, -0.47705078125, 0, 
233, 2797668017, 0.53411007, 0.4711721, -0.5448802, 0.44254217, 9.920736312866211, 0.2776481807231903, -0.3122144937515259, 2.5476250648498535, -2.6115353107452393, -1.61685311794281, -0.97021484375, -0.17138671875, -0.47607421875, 0, 
234, 2797684684, 0.5338468, 0.4716461, -0.5448437, 0.44239998, 9.937827110290527, 0.23627401888370514, -0.3770422041416168, 2.471363067626953, -2.538487672805786, -1.5851572751998901, -0.96875, -0.17236328125, -0.47412109375, 0, 
235, 2797701351, 0.5336023, 0.4720873, -0.5447851, 0.44229645, 9.996484756469727, 0.2697089612483978, -0.4357697665691376, 2.5016887187957764, -2.1619553565979004, -1.4501014947891235, -0.96923828125, -0.1728515625, -0.4755859375, 0, 
236, 2797718018, 0.53339654, 0.47248745, -0.5447135, 0.44220576, 10.000686645507812, 0.3271138668060303, -0.4082499146461487, 2.3131914138793945, -1.8025832176208496, -1.4090056419372559, -0.96923828125, -0.1748046875, -0.47607421875, 0, 
237, 2797734685, 0.5332068, 0.47288913, -0.5446249, 0.44211423, 10.028570175170898, 0.3541240692138672, -0.401455283164978, 2.315061569213867, -1.6873133182525635, -1.5211125612258911, -0.966796875, -0.1728515625, -0.4775390625, 0, 
238, 2797751352, 0.5330881, 0.47320452, -0.54456437, 0.44199425, 10.014904975891113, 0.4078056514263153, -0.4237913191318512, 1.5768394470214844, -1.3550527095794678, -1.427895188331604, -0.9716796875, -0.17529296875, -0.4765625, 0, 
239, 2797768019, 0.5330657, 0.47341752, -0.54453933, 0.44182396, 10.065081596374512, 0.4352441132068634, -0.42899271845817566, 0.5914804339408875, -0.9765865206718445, -1.405663251876831, -0.96826171875, -0.1767578125, -0.4736328125, 0, 
240, 2797784686, 0.5331229, 0.47352114, -0.5445562, 0.44162312, 10.035866737365723, 0.4460736811161041, -0.388861745595932, -0.3098752200603485, -0.5992218852043152, -1.2126203775405884, -0.9697265625, -0.1767578125, -0.4755859375, 0, 
241, 2797801353, 0.53324383, 0.47354883, -0.54460335, 0.44138944, 10.022396087646484, 0.42744311690330505, -0.3981819748878479, -1.0100880861282349, -0.34767964482307434, -1.1435558795928955, -0.96826171875, -0.17529296875, -0.47412109375, 0, 
242, 2797818020, 0.5333761, 0.4736181, -0.5445741, 0.44119114, 9.944815635681152, 0.3752470314502716, -0.3774743676185608, -0.5300933122634888, -0.035768136382102966, -1.4519966840744019, -0.96923828125, -0.173828125, -0.4755859375, 0, 
243, 2797834687, 0.53347576, 0.47371536, -0.5444696, 0.44109508, 9.934873580932617, 0.3459834158420563, -0.44403916597366333, 0.28949394822120667, 0.36556363105773926, -1.3278263807296753, -0.9716796875, -0.17431640625, -0.474609375, 0, 
244, 2797851354, 0.53355867, 0.473825, -0.5442958, 0.4410916, 9.880206108093262, 0.38348448276519775, -0.456081748008728, 0.9463574290275574, 0.8211496472358704, -1.2103153467178345, -0.970703125, -0.177734375, -0.474609375, 0, 
245, 2797868021, 0.5336411, 0.47391176, -0.5441135, 0.44112387, 9.916915893554688, 0.4136541485786438, -0.4615221917629242, 1.0229520797729492, 1.0368213653564453, -1.0192830562591553, -0.96923828125, -0.1748046875, -0.47412109375, 0, 
246, 2797884688, 0.5337805, 0.47389174, -0.5440196, 0.4410922, 9.843222618103027, 0.4552344083786011, -0.4411134719848633, -0.06059965491294861, 1.0404967069625854, -0.7395026683807373, -0.97119140625, -0.17724609375, -0.4755859375, 0, 
247, 2797901355, 0.5339759, 0.4737484, -0.54402256, 0.441006, 9.830657958984375, 0.440578430891037, -0.46491363644599915, -1.193846344947815, 1.0915299654006958, -0.33104407787323, -0.97119140625, -0.177734375, -0.4755859375, 0, 
248, 2797918022, 0.5342623, 0.47341236, -0.5441462, 0.44086775, 9.875330924987793, 0.4068755805492401, -0.48854565620422363, -2.7581803798675537, 1.4035695791244507, 0.3154652416706085, -0.97021484375, -0.17529296875, -0.47509765625, 0, 
249, 2797934689, 0.53474724, 0.47279644, -0.5443897, 0.4406402, 9.956544876098633, 0.36755138635635376, -0.4914892017841339, -5.130595684051514, 2.2632601261138916, 0.8226991891860962, -0.96923828125, -0.17529296875, -0.474609375, 0, 
250, 2797951356, 0.5353247, 0.47207955, -0.54470354, 0.44031966, 9.996993064880371, 0.33846360445022583, -0.439652681350708, -6.362771511077881, 2.3544669151306152, 0.8069090247154236, -0.97021484375, -0.1767578125, -0.474609375, 0, 
251, 2797968023, 0.5358924, 0.4713546, -0.54508567, 0.4399328, 9.960933685302734, 0.31722238659858704, -0.3508814871311188, -6.816565036773682, 1.8762390613555908, 0.8445724248886108, -0.97119140625, -0.17529296875, -0.4716796875, 0, 
252, 2797984690, 0.5364579, 0.47055247, -0.545586, 0.43948132, 9.956692695617676, 0.2713574171066284, -0.34014448523521423, -7.691879749298096, 1.4562808275222778, 1.2850086688995361, -0.96728515625, -0.17529296875, -0.47314453125, 0, 
253, 2798001357, 0.53700346, 0.46982104, -0.5460486, 0.4390232, 9.924954414367676, 0.23949703574180603, -0.2816861569881439, -7.2787604331970215, 1.2862380743026733, 0.9344860315322876, -0.970703125, -0.17529296875, -0.47265625, 0, 
254, 2798018024, 0.5374521, 0.4692158, -0.54645514, 0.43861523, 9.924585342407227, 0.22431810200214386, -0.25667130947113037, -6.141490936279297, 0.9101026654243469, 0.7560806274414062, -0.9716796875, -0.17578125, -0.4716796875, 0, 
255, 2798034691, 0.5378241, 0.46873498, -0.54682803, 0.4382085, 9.949520111083984, 0.23638541996479034, -0.27093571424484253, -5.329606533050537, 0.3753989636898041, 0.4162512421607971, -0.96875, -0.1748046875, -0.470703125, 0, 
256, 2798051358, 0.53817165, 0.46838665, -0.5471049, 0.43780822, 9.976574897766113, 0.22352412343025208, -0.2753884792327881, -4.446069717407227, 0.2596551477909088, -0.2931629419326782, -0.97119140625, -0.17333984375, -0.46923828125, 0, 
257, 2798068025, 0.5384582, 0.46814662, -0.5472723, 0.43750352, 9.975817680358887, 0.2133711576461792, -0.2391669750213623, -3.1617722511291504, 0.4171348214149475, -0.5164160132408142, -0.9697265625, -0.17236328125, -0.46923828125, 0, 
258, 2798084692, 0.53865933, 0.46799007, -0.5473886, 0.43727785, 9.90184497833252, 0.22228941321372986, -0.20591093599796295, -2.124983310699463, 0.28764984011650085, -0.4458402693271637, -0.96875, -0.17529296875, -0.46728515625, 0, 
259, 2798101359, 0.5387748, 0.46794334, -0.54744136, 0.43711975, 9.886488914489746, 0.28777074813842773, -0.19914719462394714, -0.9992923140525818, 0.08772990107536316, -0.5561926364898682, -0.96875, -0.17431640625, -0.4697265625, 0, 
260, 2798118026, 0.53884697, 0.4679331, -0.54743755, 0.43704617, 9.85623836517334, 0.2793983519077301, -0.23457059264183044, -0.2363283634185791, 0.29621726274490356, -0.4317404627799988, -0.96875, -0.17431640625, -0.47021484375, 0, 
261, 2798134693, 0.53887516, 0.46796352, -0.5474086, 0.43701518, 9.862507820129395, 0.25288793444633484, -0.25208327174186707, 0.29193997383117676, 0.23815330862998962, -0.3759816586971283, -0.96923828125, -0.17529296875, -0.46826171875, 0, 
262, 2798151360, 0.53886384, 0.4680405, -0.5473179, 0.4370603, 9.905739784240723, 0.19432735443115234, -0.26557084918022156, 1.0638810396194458, 0.4237300753593445, -0.3491138815879822, -0.9697265625, -0.1748046875, -0.47021484375, 0, 
263, 2798168027, 0.5387239, 0.46826094, -0.54714894, 0.43720818, 9.896707534790039, 0.14554807543754578, -0.25207850337028503, 2.630418062210083, 0.12932494282722473, -0.37397104501724243, -0.97119140625, -0.1748046875, -0.470703125, 0, 
264, 2798184694, 0.5384538, 0.46858177, -0.54690564, 0.43750182, 9.895191192626953, 0.22306619584560394, -0.2826366424560547, 4.194137096405029, 0.08291471749544144, -0.06047157943248749, -0.97314453125, -0.17529296875, -0.4697265625, 0, 
265, 2798201361, 0.53811216, 0.46891862, -0.54664564, 0.43788585, 9.885753631591797, 0.302926629781723, -0.30870503187179565, 4.87329626083374, 0.11751747131347656, 0.3763338327407837, -0.9697265625, -0.17529296875, -0.47216796875, 0, 
266, 2798218028, 0.53780985, 0.46915466, -0.5464429, 0.43825746, 9.891512870788574, 0.38722488284111023, -0.33249935507774353, 4.154642105102539, 0.3181033134460449, 0.774265468120575, -0.9677734375, -0.17578125, -0.4716796875, 0, 
267, 2798234695, 0.5375836, 0.46926242, -0.5463342, 0.438555, 9.894392967224121, 0.4106318950653076, -0.33762258291244507, 2.873521089553833, 0.40321436524391174, 1.0571322441101074, -0.9697265625, -0.17529296875, -0.47119140625, 0, 
268, 2798251362, 0.53741777, 0.4693029, -0.54627407, 0.4387897, 9.903514862060547, 0.39074909687042236, -0.3557994067668915, 2.04756236076355, 0.45054659247398376, 1.0523426532745361, -0.96875, -0.17578125, -0.4716796875, 0, 
269, 2798268029, 0.53730047, 0.46929842, -0.54619855, 0.43903217, 9.905163764953613, 0.3576255142688751, -0.35697659850120544, 1.8003742694854736, 0.850527286529541, 1.0547374486923218, -0.9697265625, -0.17333984375, -0.47412109375, 0, 
270, 2798284696, 0.5372074, 0.4692723, -0.5460938, 0.43930408, 9.922112464904785, 0.2963905334472656, -0.3618519902229309, 1.8410474061965942, 1.2104498147964478, 1.0764185190200806, -0.97021484375, -0.17431640625, -0.470703125, 0, 
271, 2798301363, 0.53712773, 0.4692439, -0.54600394, 0.4395434, 9.923450469970703, 0.3025625944137573, -0.3671067953109741, 1.6225069761276245, 1.107256293296814, 0.9725846648216248, -0.9677734375, -0.17333984375, -0.4736328125, 0, 
272, 2798318030, 0.5370816, 0.4691728, -0.54597014, 0.4397177, 9.951310157775879, 0.3556814193725586, -0.3701593279838562, 0.9426817893981934, 0.9454991221427917, 0.9725589752197266, -0.9716796875, -0.17431640625, -0.470703125, 0, 
273, 2798334697, 0.5370895, 0.4690443, -0.5459881, 0.43982264, 9.939995765686035, 0.3563971221446991, -0.3836122453212738, 0.1398005187511444, 0.9065806269645691, 0.9355742335319519, -0.96826171875, -0.173828125, -0.47509765625, 0, 
274, 2798351364, 0.53718275, 0.46879628, -0.5460745, 0.4398662, 9.934080123901367, 0.34695354104042053, -0.37681490182876587, -1.0149544477462769, 1.1383371353149414, 1.1197936534881592, -0.9697265625, -0.173828125, -0.47412109375, 0, 
275, 2798368031, 0.53732634, 0.46847707, -0.5462301, 0.43983746, 9.915358543395996, 0.3204026222229004, -0.3429552912712097, -1.9203890562057495, 1.053789734840393, 1.1918805837631226, -0.96826171875, -0.171875, -0.47265625, 0, 
276, 2798384698, 0.5374874, 0.46814817, -0.546391, 0.43979096, 9.943384170532227, 0.30579981207847595, -0.3202151954174042, -2.0940685272216797, 1.0707708597183228, 1.1260045766830444, -0.9697265625, -0.17236328125, -0.4716796875, 0, 
277, 2798401365, 0.53763777, 0.46784753, -0.54651695, 0.43977073, 9.954724311828613, 0.2639993727207184, -0.32239291071891785, -1.7521648406982422, 1.1612350940704346, 1.0369237661361694, -0.9697265625, -0.173828125, -0.47412109375, 0, 
278, 2798418032, 0.53775, 0.46758747, -0.5466253, 0.4397754, 9.945830345153809, 0.26615017652511597, -0.30522435903549194, -1.3305668830871582, 1.038742184638977, 1.0358351469039917, -0.96875, -0.173828125, -0.47314453125, 0, 
279, 2798434699, 0.53781134, 0.4673671, -0.54673475, 0.43979886, 9.980137825012207, 0.30312395095825195, -0.3214316964149475, -0.95445716381073, 0.7840367555618286, 1.112826943397522, -0.96923828125, -0.171875, -0.47265625, 0, 
280, 2798451366, 0.5378786, 0.4671841, -0.54684305, 0.43977618, 9.957962036132812, 0.3247274160385132, -0.30560237169265747, -1.005016565322876, 0.5493475198745728, 0.781411349773407, -0.9677734375, -0.17626953125, -0.47216796875, 0, 
281, 2798468033, 0.53798294, 0.4669841, -0.5469721, 0.43970048, 9.941786766052246, 0.35719671845436096, -0.27276164293289185, -1.4495892524719238, 0.49398571252822876, 0.6023018956184387, -0.96630859375, -0.171875, -0.47216796875, 0, 
282, 2798484700, 0.53813773, 0.46672273, -0.54717755, 0.43953288, 9.867632865905762, 0.39959943294525146, -0.2524281144142151, -2.414637327194214, 0.2911587655544281, 0.5868958234786987, -0.9658203125, -0.17041015625, -0.47021484375, 0, 
283, 2798501367, 0.53837425, 0.46636373, -0.5474157, 0.4393279, 9.865791320800781, 0.3946200907230377, -0.272908091545105, -3.277592897415161, 0.6522721648216248, 0.6743119359016418, -0.96875, -0.17236328125, -0.4716796875, 0, 
284, 2798518034, 0.5387068, 0.4659009, -0.5476725, 0.4390913, 9.904243469238281, 0.2952280342578888, -0.2738465666770935, -4.145453453063965, 1.1568679809570312, 0.7181864380836487, -0.96875, -0.1708984375, -0.47119140625, 0, 
285, 2798534701, 0.53909785, 0.46543673, -0.54787076, 0.43885595, 9.977716445922852, 0.14023660123348236, -0.2696993947029114, -4.157299995422363, 1.601837396621704, 0.36320728063583374, -0.96826171875, -0.17236328125, -0.4716796875, 0, 
286, 2798551368, 0.5394175, 0.46510717, -0.54797494, 0.4386825, 9.983941078186035, 0.044013313949108124, -0.27218177914619446, -2.911306142807007, 1.4737995862960815, -1.0245079465676099E-4, -0.96875, -0.17236328125, -0.47265625, 0, 
287, 2798568035, 0.5396072, 0.46491757, -0.547992, 0.43862876, 9.965658187866211, 0.05149698257446289, -0.27676475048065186, -1.262603759765625, 1.268424153327942, 0.029768362641334534, -0.96875, -0.17041015625, -0.4697265625, 0, 
288, 2798584702, 0.5397155, 0.46481436, -0.5479454, 0.43866327, 9.909713745117188, 0.1382143348455429, -0.2877231240272522, -0.16057884693145752, 1.2186843156814575, 0.07319469749927521, -0.966796875, -0.17236328125, -0.470703125, 0, 
289, 2798601369, 0.53982645, 0.46464884, -0.54796326, 0.4386798, 9.92215347290039, 0.2447131723165512, -0.27388760447502136, -0.6609229445457458, 1.120139241218567, 0.43841901421546936, -0.9658203125, -0.169921875, -0.470703125, 0, 
290, 2798618036, 0.53999424, 0.46436244, -0.5480925, 0.43861482, 9.923908233642578, 0.2795298993587494, -0.22180278599262238, -1.9342455863952637, 1.025756597518921, 0.7770060300827026, -0.96630859375, -0.16943359375, -0.47265625, 0, 
291, 2798634703, 0.5401822, 0.46407905, -0.5482124, 0.43853366, 9.939471244812012, 0.2586892545223236, -0.19951416552066803, -2.0192413330078125, 1.074010968208313, 0.6138916015625, -0.966796875, -0.171875, -0.47021484375, 0, 
292, 2798651370, 0.5403567, 0.46391132, -0.54818964, 0.43852472, 9.949106216430664, 0.23477354645729065, -0.19641537964344025, -0.8462052345275879, 1.4363794326782227, 0.032227180898189545, -0.966796875, -0.1708984375, -0.470703125, 0, 
293, 2798668037, 0.540462, 0.46385664, -0.5480256, 0.43865752, 9.94796085357666, 0.20167788863182068, -0.20132258534431458, 0.756426215171814, 1.8099021911621094, -0.10908448696136475, -0.96826171875, -0.169921875, -0.47021484375, 0, 
294, 2798684704, 0.54050285, 0.46388572, -0.54781306, 0.43884197, 9.90650749206543, 0.26656395196914673, -0.22336769104003906, 1.6146950721740723, 1.6605032682418823, -0.19387534260749817, -0.96728515625, -0.17138671875, -0.47021484375, 0, 
295, 2798701371, 0.5405844, 0.46386662, -0.54763985, 0.4389781, 9.904073715209961, 0.33373570442199707, -0.2536550462245941, 1.0048948526382446, 1.6588894128799438, -0.18904729187488556, -0.96630859375, -0.1728515625, -0.47216796875, 0, 
296, 2798718038, 0.5407424, 0.4637136, -0.5475862, 0.43901205, 9.924487113952637, 0.3231847286224365, -0.2894222140312195, -0.4833756983280182, 1.57952880859375, 0.08691029250621796, -0.96630859375, -0.17138671875, -0.47216796875, 0, 
297, 2798734705, 0.5410317, 0.4633906, -0.547621, 0.43895334, 9.909032821655273, 0.24557438492774963, -0.3142615854740143, -2.1482012271881104, 1.9638217687606812, 0.2671724855899811, -0.96923828125, -0.17236328125, -0.47265625, 0, 
298, 2798751372, 0.54135585, 0.46296838, -0.5477091, 0.43888927, 9.890523910522461, 0.18663854897022247, -0.2762123942375183, -2.8103535175323486, 2.1784303188323975, 0.6862090229988098, -0.96630859375, -0.17138671875, -0.47314453125, 0, 
299, 2798768039, 0.54164195, 0.46257412, -0.5477563, 0.43889284, 9.893499374389648, 0.14245395362377167, -0.25668928027153015, -2.2063162326812744, 2.3183910846710205, 0.8164111971855164, -0.9677734375, -0.17138671875, -0.47216796875, 0, 
300, 2798784706, 0.5418568, 0.46224377, -0.54778105, 0.4389446, 9.863511085510254, 0.1586407721042633, -0.22518950700759888, -1.4934636354446411, 2.094843626022339, 0.8988585472106934, -0.96826171875, -0.17041015625, -0.474609375, 0, 
301, 2798801373, 0.5420191, 0.4619554, -0.54779255, 0.43903354, 9.900023460388184, 0.18711906671524048, -0.25642699003219604, -0.989713191986084, 1.9365955591201782, 0.995956301689148, -0.966796875, -0.17138671875, -0.47265625, 0, 
302, 2798818040, 0.54219586, 0.46165475, -0.5478174, 0.43910053, 9.908559799194336, 0.17506512999534607, -0.23163564503192902, -1.2046294212341309, 1.9094843864440918, 0.9592532515525818, -0.96875, -0.1689453125, -0.47119140625, 0, 
303, 2798834707, 0.54234576, 0.46138182, -0.54784405, 0.4391692, 9.911252975463867, 0.17184236645698547, -0.22348955273628235, -1.0157485008239746, 1.722819209098816, 0.9470616579055786, -0.9677734375, -0.17138671875, -0.4716796875, 0, 
304, 2798851374, 0.5424603, 0.46116662, -0.5478276, 0.43927407, 9.93884563446045, 0.14792987704277039, -0.24250537157058716, -0.421456903219223, 1.6918147802352905, 0.8351596593856812, -0.96826171875, -0.169921875, -0.4716796875, 0, 
305, 2798868041, 0.5425459, 0.4609931, -0.5477698, 0.4394226, 9.96821403503418, 0.13875098526477814, -0.24641823768615723, 0.11557089537382126, 1.748239517211914, 0.7960618734359741, -0.96533203125, -0.17138671875, -0.470703125, 0, 
306, 2798884708, 0.5426259, 0.46087506, -0.5477181, 0.43951207, 9.980006217956543, 0.1576339155435562, -0.23358559608459473, 0.0989995002746582, 1.3498084545135498, 0.40413638949394226, -0.9677734375, -0.16845703125, -0.47314453125, 0, 
307, 2798901375, 0.5426915, 0.46076548, -0.54771876, 0.4395453, 9.950949668884277, 0.20035769045352936, -0.1948535442352295, -0.1951303631067276, 0.8967453837394714, 0.37139052152633667, -0.966796875, -0.17041015625, -0.47265625, 0, 
308, 2798918042, 0.54274666, 0.46066377, -0.54775023, 0.43954468, 9.972992897033691, 0.20335358381271362, -0.1882123500108719, -0.3529302179813385, 0.6115352511405945, 0.345304012298584, -0.9677734375, -0.16943359375, -0.47216796875, 0, 
309, 2798934709, 0.5428201, 0.460554, -0.547792, 0.4395169, 9.99191665649414, 0.17525912821292877, -0.19085806608200073, -0.5729432702064514, 0.5799675583839417, 0.25121575593948364, -0.9638671875, -0.16845703125, -0.4716796875, 0, 
310, 2798951376, 0.5428556, 0.4605275, -0.54778665, 0.43950737, 9.968331336975098, 0.14331276714801788, -0.1874111443758011, 0.06840512156486511, 0.41903018951416016, -0.029787572100758553, -0.9677734375, -0.16845703125, -0.47265625, 0, 
311, 2798968043, 0.5428361, 0.4606189, -0.5477182, 0.43952104, 9.9362154006958, 0.1319117397069931, -0.1900320202112198, 0.9604185223579407, 0.1652979701757431, -0.41968968510627747, -0.96875, -0.169921875, -0.47119140625, 0, 
312, 2798984710, 0.5427176, 0.46083692, -0.54757714, 0.43961462, 9.887779235839844, 0.13141711056232452, -0.18301349878311157, 2.268254518508911, -0.06642653048038483, -0.5299012064933777, -0.9658203125, -0.171875, -0.47509765625, 0, 
313, 2799001377, 0.54249966, 0.46113905, -0.54738575, 0.43980518, 9.844749450683594, 0.14263391494750977, -0.1981443464756012, 3.4134747982025146, -0.2000223696231842, -0.3437352180480957, -0.96728515625, -0.17041015625, -0.47509765625, 0, 
314, 2799018044, 0.5422473, 0.4614554, -0.54717994, 0.44004065, 9.799198150634766, 0.1975206881761551, -0.22532737255096436, 3.787574291229248, -0.1760489046573639, -0.17138738930225372, -0.966796875, -0.1708984375, -0.474609375, 0, 
315, 2799034711, 0.5419916, 0.46174708, -0.5469689, 0.44031176, 9.852546691894531, 0.22037284076213837, -0.2454475611448288, 3.8561272621154785, 0.018088970333337784, 0.04781251400709152, -0.96875, -0.1708984375, -0.47314453125, 0, 
316, 2799051378, 0.5417485, 0.46197367, -0.5467887, 0.4405973, 9.861464500427246, 0.22114576399326324, -0.23804019391536713, 3.5356340408325195, 0.19402258098125458, 0.4065183401107788, -0.96630859375, -0.17236328125, -0.47412109375, 0, 
317, 2799068045, 0.5415275, 0.4621077, -0.5466777, 0.440866, 9.85164737701416, 0.23200692236423492, -0.24251635372638702, 2.846883773803711, 0.24605479836463928, 0.8444059491157532, -0.966796875, -0.16748046875, -0.47607421875, 0, 
318, 2799084712, 0.5413466, 0.46215847, -0.54664445, 0.44107598, 9.842710494995117, 0.29016438126564026, -0.23564976453781128, 1.9531028270721436, 0.17328912019729614, 1.064239740371704, -0.96533203125, -0.1689453125, -0.47509765625, 0, 
319, 2799101379, 0.54119694, 0.46216115, -0.546615, 0.44129327, 9.847968101501465, 0.3050486445426941, -0.24853259325027466, 1.6905087232589722, 0.4459107220172882, 1.1898316144943237, -0.96630859375, -0.1689453125, -0.474609375, 0, 
320, 2799118046, 0.54102564, 0.46215674, -0.5465851, 0.4415446, 9.900901794433594, 0.27841994166374207, -0.2543773353099823, 1.8629846572875977, 0.4958297908306122, 1.4069632291793823, -0.966796875, -0.1689453125, -0.4765625, 0, 
321, 2799134713, 0.5408793, 0.46212503, -0.54657453, 0.44177014, 9.96920394897461, 0.23264168202877045, -0.24257215857505798, 1.5258829593658447, 0.5188044905662537, 1.4001374244689941, -0.96533203125, -0.169921875, -0.4765625, 0, 
322, 2799151380, 0.5406787, 0.46214977, -0.5465879, 0.44197333, 9.955207824707031, 0.193686842918396, -0.20590780675411224, 1.752709150314331, -0.017314188182353973, 1.344583511352539, -0.9658203125, -0.16943359375, -0.4755859375, 0, 
323, 2799168047, 0.5403938, 0.4622485, -0.5465815, 0.44222635, 9.971491813659668, 0.2513428032398224, -0.22624538838863373, 2.5420923233032227, -0.3271253705024719, 1.4455487728118896, -0.96728515625, -0.16845703125, -0.4755859375, 0, 
324, 2799184714, 0.54013026, 0.46234632, -0.5465163, 0.44252688, 9.998418807983398, 0.3366578221321106, -0.263447642326355, 2.8278534412384033, 0.12589283287525177, 1.374281644821167, -0.96728515625, -0.16650390625, -0.47705078125, 0, 
325, 2799201381, 0.5399109, 0.46249527, -0.546399, 0.44278374, 9.91928482055664, 0.3854486644268036, -0.22555211186408997, 2.871023416519165, 0.191294863820076, 0.7205556631088257, -0.9658203125, -0.1669921875, -0.4794921875, 0, 
326, 2799218048, 0.53976727, 0.4626577, -0.54626715, 0.44295162, 9.894026756286621, 0.38924556970596313, -0.2040664702653885, 2.3917460441589355, 0.20535622537136078, 0.06221964955329895, -0.96826171875, -0.16845703125, -0.47509765625, 0, 
327, 2799234715, 0.5396531, 0.46288136, -0.546097, 0.44306695, 9.881722450256348, 0.31560149788856506, -0.20908379554748535, 2.443855047225952, 0.1051081046462059, -0.5739165544509888, -0.9658203125, -0.16552734375, -0.478515625, 0, 
328, 2799251382, 0.5395443, 0.46314165, -0.5458566, 0.44322366, 9.927227020263672, 0.23336774110794067, -0.24155545234680176, 2.931713104248047, 0.40576285123825073, -0.7974514961242676, -0.96533203125, -0.16845703125, -0.47705078125, 0, 
329, 2799268049, 0.53945565, 0.46335226, -0.54561275, 0.44341165, 9.937296867370605, 0.19727040827274323, -0.2870232164859772, 2.8131771087646484, 0.745079755783081, -0.5676286220550537, -0.96630859375, -0.1689453125, -0.4794921875, 0, 
330, 2799284716, 0.5393789, 0.4634878, -0.54545784, 0.44355392, 9.932222366333008, 0.20752109587192535, -0.33026382327079773, 2.053415060043335, 0.5437000393867493, -0.207872673869133, -0.96484375, -0.1689453125, -0.478515625, 0, 
331, 2799301383, 0.5393506, 0.4634863, -0.5454939, 0.4435454, 9.896013259887695, 0.2560778856277466, -0.327054888010025, 0.24186713993549347, -0.045577798038721085, 0.2071106880903244, -0.96484375, -0.16943359375, -0.47705078125, 0, 
332, 2799318050, 0.53941995, 0.463327, -0.5456676, 0.44341382, 9.901824951171875, 0.26113954186439514, -0.33329927921295166, -1.5343159437179565, -0.10020969063043594, 0.48354852199554443, -0.966796875, -0.16845703125, -0.4775390625, 0, 
333, 2799334717, 0.5396376, 0.46299273, -0.54586416, 0.44325626, 9.903304100036621, 0.19986575841903687, -0.3131321966648102, -2.823723316192627, 0.8216234445571899, 0.6646431088447571, -0.96435546875, -0.16845703125, -0.478515625, 0, 
334, 2799351384, 0.53991854, 0.4626094, -0.54605186, 0.44308314, 9.94443416595459, 0.14988048374652863, -0.2796659469604492, -3.238290309906006, 1.1917780637741089, 0.5698889493942261, -0.96484375, -0.1669921875, -0.47900390625, 0, 
335, 2799368051, 0.5402154, 0.4622715, -0.5462089, 0.44288027, 9.992145538330078, 0.08481533825397491, -0.24866381287574768, -3.1384775638580322, 1.132996916770935, 0.14292526245117188, -0.9658203125, -0.16796875, -0.4775390625, 0, 
336, 2799384718, 0.5405161, 0.46205693, -0.5462724, 0.44265914, 10.016841888427734, 0.026707161217927933, -0.23438102006912231, -2.4754159450531006, 1.0618575811386108, -0.6973056793212891, -0.96533203125, -0.16796875, -0.4775390625, 0, 
337, 2799401385, 0.54080164, 0.46199507, -0.5461859, 0.44248146, 10.04684066772461, 0.025938525795936584, -0.212844118475914, -1.241652488708496, 1.2351917028427124, -1.5399253368377686, -0.96533203125, -0.16943359375, -0.47802734375, 0, 
338, 2799418052, 0.5410614, 0.4620574, -0.5459907, 0.44233966, 10.067824363708496, 0.016145145520567894, -0.21703413128852844, -0.23283226788043976, 1.2783746719360352, -2.140171766281128, -0.96435546875, -0.169921875, -0.47509765625, 0, 
339, 2799434719, 0.54131097, 0.46223724, -0.545721, 0.44217935, 10.146065711975098, -0.012011383660137653, -0.22916123270988464, 0.39403221011161804, 1.1011348962783813, -2.856290102005005, -0.96630859375, -0.17041015625, -0.4775390625, 0, 
340, 2799451386, 0.5415992, 0.46250653, -0.5453564, 0.4419948, 10.18004035949707, -0.01872417889535427, -0.23935483396053314, 0.8023627400398254, 1.250649094581604, -3.701124906539917, -0.966796875, -0.17138671875, -0.47802734375, 0, 
341, 2799468053, 0.5418585, 0.46291414, -0.54490536, 0.44180626, 10.171067237854004, -0.020876839756965637, -0.19880786538124084, 1.6568024158477783, 1.0314555168151855, -4.421994209289551, -0.9677734375, -0.17041015625, -0.4775390625, 0, 
342, 2799484720, 0.5420504, 0.46346384, -0.54436314, 0.44166297, 10.147933959960938, 0.005764803849160671, -0.19608713686466217, 2.8473193645477295, 0.8319070935249329, -4.87093448638916, -0.96826171875, -0.1708984375, -0.47705078125, 0, 
343, 2799501387, 0.5422185, 0.46405953, -0.5437924, 0.44153422, 10.083168029785156, 0.10540632158517838, -0.19791685044765472, 3.235018730163574, 0.7546206712722778, -5.008602619171143, -0.9677734375, -0.1728515625, -0.4765625, 0, 
344, 2799518054, 0.5424005, 0.46463612, -0.5432761, 0.44134, 10.04366683959961, 0.2165232002735138, -0.16397109627723694, 2.709996461868286, 0.45268529653549194, -5.050312519073486, -0.96875, -0.17333984375, -0.48046875, 0, 
345, 2799534721, 0.54267913, 0.46510482, -0.5428488, 0.4410295, 9.986791610717773, 0.2870078682899475, -0.12776663899421692, 1.2937039136886597, 0.43726643919944763, -5.089256763458252, -0.96826171875, -0.1767578125, -0.47802734375, 0, 
346, 2799551388, 0.5430304, 0.46548206, -0.54245836, 0.4406794, 9.932721138000488, 0.28816744685173035, -0.10680201649665833, 0.4613807797431946, 0.7220797538757324, -4.99812650680542, -0.97021484375, -0.17529296875, -0.4814453125, 0, 
347, 2799568055, 0.5433503, 0.4658889, -0.54203546, 0.44037545, 9.843111038208008, 0.2639647424221039, -0.07017890363931656, 0.942233681678772, 0.7846387028694153, -4.944916725158691, -0.9697265625, -0.17578125, -0.478515625, 0, 
348, 2799584722, 0.54354453, 0.4664029, -0.54152215, 0.44022304, 9.81049919128418, 0.26179981231689453, -0.0609913244843483, 2.584097385406494, 0.8132994174957275, -4.688366889953613, -0.97216796875, -0.177734375, -0.4814453125, 0, 
349, 2799601389, 0.54355615, 0.46706906, -0.5408765, 0.4402961, 9.75955867767334, 0.2876507639884949, -0.08127386122941971, 4.976451396942139, 0.8911747336387634, -4.282712459564209, -0.97119140625, -0.1796875, -0.48193359375, 0, 
350, 2799618056, 0.54346526, 0.46782082, -0.54015166, 0.44049996, 9.725513458251953, 0.3507949113845825, -0.13753654062747955, 6.3522772789001465, 0.9676158428192139, -4.056808948516846, -0.974609375, -0.18017578125, -0.4814453125, 0, 
351, 2799634723, 0.54329866, 0.468564, -0.5394307, 0.440799, 9.737642288208008, 0.446024090051651, -0.17785793542861938, 6.906459331512451, 1.0027949810028076, -3.426992654800415, -0.97314453125, -0.1787109375, -0.48291015625, 0, 
352, 2799651390, 0.54312956, 0.469269, -0.53873384, 0.44110936, 9.721673965454102, 0.47881197929382324, -0.19391699135303497, 6.742691516876221, 1.05568528175354, -3.158596992492676, -0.97314453125, -0.1806640625, -0.48583984375, 0, 
353, 2799668057, 0.5430761, 0.46979532, -0.53813267, 0.44134897, 9.743800163269043, 0.5059142708778381, -0.20221886038780212, 5.147864818572998, 1.4413869380950928, -2.8021836280822754, -0.974609375, -0.1806640625, -0.48583984375, 0, 
354, 2799684724, 0.5431071, 0.47014815, -0.53767437, 0.44149357, 9.694705963134766, 0.5246815085411072, -0.19068674743175507, 3.4385623931884766, 1.4392224550247192, -2.309561252593994, -0.97265625, -0.18115234375, -0.484375, 0, 
355, 2799701391, 0.54323626, 0.47035933, -0.53730935, 0.44155407, 9.783318519592285, 0.49888288974761963, -0.24039636552333832, 2.004532814025879, 1.6121079921722412, -2.0968732833862305, -0.9736328125, -0.18408203125, -0.4853515625, 0, 
356, 2799718058, 0.5434617, 0.4704287, -0.5370065, 0.44157076, 9.922201156616211, 0.42320603132247925, -0.2742699384689331, 0.7982774376869202, 2.0247926712036133, -1.8268897533416748, -0.97265625, -0.18310546875, -0.48681640625, 0, 
357, 2799734725, 0.5437183, 0.47051936, -0.5366998, 0.44153178, 10.024711608886719, 0.3181515038013458, -0.2454688847064972, 0.6013028621673584, 1.9093689918518066, -2.22158145904541, -0.97705078125, -0.18115234375, -0.48291015625, 0, 
358, 2799751392, 0.54384977, 0.47081628, -0.53636086, 0.44146496, 10.089186668395996, 0.27756962180137634, -0.2076786309480667, 1.7651183605194092, 0.8523073792457581, -2.8106353282928467, -0.9755859375, -0.1806640625, -0.486328125, 0, 
359, 2799768059, 0.54379123, 0.47133735, -0.5359298, 0.44150427, 10.119827270507812, 0.32435479760169983, -0.17840135097503662, 3.8842363357543945, 0.15830570459365845, -2.9611356258392334, -0.97607421875, -0.1826171875, -0.48779296875, 0, 
360, 2799784726, 0.5435878, 0.4720252, -0.5354109, 0.4416498, 10.089101791381836, 0.4169827401638031, -0.18720129132270813, 5.645379543304443, -0.2073860466480255, -3.024514675140381, -0.97705078125, -0.1845703125, -0.48828125, 0, 
361, 2799801393, 0.54325545, 0.47287226, -0.5348229, 0.44186494, 10.03538990020752, 0.484904021024704, -0.19383955001831055, 7.119749069213867, -0.6815924644470215, -3.183825731277466, -0.974609375, -0.1845703125, -0.48828125, 0, 
362, 2799818060, 0.5428228, 0.47382978, -0.534268, 0.44204202, 9.93017292022705, 0.5831611752510071, -0.166519433259964, 7.628570079803467, -1.633168339729309, -3.319047451019287, -0.9765625, -0.18798828125, -0.48828125, 0, 
363, 2799834727, 0.5423127, 0.47488162, -0.5337498, 0.4421656, 9.847880363464355, 0.688211977481842, -0.174986332654953, 7.909031391143799, -2.5158207416534424, -3.5097219944000244, -0.97705078125, -0.185546875, -0.490234375, 0, 
364, 2799851394, 0.54187536, 0.4758224, -0.5332933, 0.44224125, 9.795709609985352, 0.7954124212265015, -0.23208072781562805, 6.939384460449219, -2.295691967010498, -3.3013365268707275, -0.9775390625, -0.1875, -0.49169921875, 0, 
365, 2799868061, 0.5415817, 0.47651348, -0.53294915, 0.44227168, 9.797412872314453, 0.8149107098579407, -0.30923762917518616, 4.987555027008057, -1.578600287437439, -2.6222281455993652, -0.97900390625, -0.18603515625, -0.490234375, 0, 
366, 2799884728, 0.541517, 0.47686693, -0.5328164, 0.4421296, 9.760951042175293, 0.8287544250488281, -0.3329339623451233, 1.7214105129241943, -1.0642718076705933, -2.0309078693389893, -0.97802734375, -0.189453125, -0.4912109375, 0, 
367, 2799901395, 0.5416862, 0.47687182, -0.53294045, 0.44176754, 9.753170013427734, 0.8255486488342285, -0.3489530086517334, -1.9281370639801025, -0.8242039680480957, -1.4411242008209229, -0.97900390625, -0.1875, -0.48974609375, 0, 
368, 2799918062, 0.54207563, 0.47651863, -0.5333368, 0.4411924, 9.779059410095215, 0.7641021013259888, -0.3101477324962616, -5.603597164154053, -0.6437495350837708, -0.6989705562591553, -0.97998046875, -0.18994140625, -0.48876953125, 0, 
369, 2799934729, 0.5426393, 0.47585803, -0.53393126, 0.44049296, 9.806607246398926, 0.660707950592041, -0.26448145508766174, -8.37277889251709, -0.21651697158813477, 0.08616753667593002, -0.97802734375, -0.18896484375, -0.48974609375, 0, 
370, 2799951396, 0.54326636, 0.47498792, -0.5346945, 0.4397326, 9.843646049499512, 0.5582884550094604, -0.23301322758197784, -10.102574348449707, -0.17946821451187134, 0.988387942314148, -0.97900390625, -0.18701171875, -0.48681640625, 0, 
371, 2799968063, 0.5438787, 0.47404462, -0.53554255, 0.43896082, 9.851798057556152, 0.489203542470932, -0.14859406650066376, -10.627226829528809, -0.3664538860321045, 1.537217378616333, -0.9794921875, -0.1884765625, -0.48486328125, 0, 
372, 2799984730, 0.54443, 0.47314858, -0.5363919, 0.43820632, 9.859041213989258, 0.4315517544746399, -0.1239020824432373, -10.182882308959961, -0.6814132332801819, 1.6147979497909546, -0.9794921875, -0.1845703125, -0.4853515625, 0, 
373, 2800001397, 0.54493535, 0.47234887, -0.53716856, 0.43748897, 9.850099563598633, 0.3843505084514618, -0.09395731985569, -9.320886611938477, -0.7480831742286682, 1.301080584526062, -0.97705078125, -0.18994140625, -0.48095703125, 0, 
374, 2800018064, 0.54539543, 0.4716691, -0.5378706, 0.4367863, 9.866337776184082, 0.3436793386936188, -0.06951945275068283, -8.431599617004395, -0.9503209590911865, 0.8061022162437439, -0.98046875, -0.185546875, -0.48291015625, 0, 
375, 2800034731, 0.54583365, 0.47112465, -0.53845483, 0.43610603, 9.854606628417969, 0.3374136984348297, -0.06150130182504654, -7.428196907043457, -0.922633707523346, 0.07424483448266983, -0.97900390625, -0.18701171875, -0.48046875, 0, 
376, 2800051398, 0.5462158, 0.47075906, -0.53891116, 0.4354583, 9.859743118286133, 0.30007821321487427, -0.05481467396020889, -6.066854000091553, -1.0814322233200073, -0.7126476764678955, -0.97998046875, -0.1865234375, -0.47900390625, 0, 
377, 2800068065, 0.5465629, 0.47049776, -0.5392171, 0.43492615, 9.931859016418457, 0.2274380624294281, -0.022353949025273323, -4.695051193237305, -0.5846226811408997, -1.046855092048645, -0.98046875, -0.18798828125, -0.4794921875, 0, 
378, 2800084732, 0.546859, 0.47033963, -0.5394026, 0.4344948, 9.9904146194458, 0.17692680656909943, -0.010303848423063755, -3.406040906906128, -0.3039843440055847, -1.2881779670715332, -0.9794921875, -0.1845703125, -0.47802734375, 0, 
379, 2800101399, 0.5470575, 0.4703031, -0.53952885, 0.43412733, 10.010536193847656, 0.2021225094795227, -0.040132325142621994, -2.218827962875366, -0.6002464294433594, -1.399413824081421, -0.97900390625, -0.18701171875, -0.478515625, 0, 
380, 2800118066, 0.54715586, 0.47035515, -0.53962874, 0.43382245, 10.01865291595459, 0.24384590983390808, -0.0689273327589035, -1.2524480819702148, -0.9351963400840759, -1.2796871662139893, -0.97802734375, -0.18505859375, -0.47607421875, 0, 
381, 2800134733, 0.54711485, 0.47058743, -0.5396549, 0.43358964, 10.000691413879395, 0.2609163820743561, -0.09004074335098267, 0.3635658919811249, -1.4793895483016968, -1.5004816055297852, -0.9794921875, -0.18798828125, -0.47509765625, 0, 
382, 2800151400, 0.54692376, 0.4710609, -0.5395194, 0.4334854, 10.01451587677002, 0.30481278896331787, -0.07583139836788177, 2.713531017303467, -1.7321099042892456, -1.9867513179779053, -0.97998046875, -0.19091796875, -0.4755859375, 0, 
383, 2800168067, 0.5465954, 0.47176123, -0.53920615, 0.43352783, 9.978957176208496, 0.37123674154281616, -0.0900912657380104, 5.088930130004883, -1.7736029624938965, -2.44461727142334, -0.9814453125, -0.18798828125, -0.47509765625, 0, 
384, 2800184734, 0.5461598, 0.472619, -0.53878856, 0.43366167, 9.955408096313477, 0.4641054570674896, -0.09969677776098251, 6.675548076629639, -1.9521363973617554, -2.703331470489502, -0.97900390625, -0.19091796875, -0.4775390625, 0, 
385, 2800201401, 0.5457511, 0.47348696, -0.53836536, 0.43375507, 9.8831148147583, 0.5684530138969421, -0.1318969875574112, 6.489484786987305, -1.992604374885559, -2.991295337677002, -0.98095703125, -0.1904296875, -0.4765625, 0, 
386, 2800218068, 0.5453927, 0.4742893, -0.53797346, 0.43381524, 9.823436737060547, 0.5951787233352661, -0.17736126482486725, 5.865955829620361, -1.8375831842422485, -2.921090602874756, -0.98095703125, -0.19140625, -0.47802734375, 0, 
387, 2800234735, 0.5450452, 0.4750376, -0.5376209, 0.43387038, 9.842744827270508, 0.5697602033615112, -0.23396049439907074, 5.493649482727051, -1.7992923259735107, -2.6436920166015625, -0.98046875, -0.19140625, -0.4765625, 0, 
388, 2800251402, 0.54475826, 0.47567153, -0.5372908, 0.43394503, 9.866918563842773, 0.4945732653141022, -0.30694425106048584, 4.8742828369140625, -1.2548174858093262, -2.2556209564208984, -0.98388671875, -0.1923828125, -0.4765625, 0, 
389, 2800268069, 0.54450756, 0.4761728, -0.5370563, 0.43400034, 9.890264511108398, 0.4864672124385834, -0.3597341775894165, 3.9000654220581055, -1.1465396881103516, -1.633731722831726, -0.98193359375, -0.1923828125, -0.47998046875, 0, 
390, 2800284736, 0.54427314, 0.47654352, -0.53692824, 0.4340459, 9.852684020996094, 0.5050889253616333, -0.37701278924942017, 3.011918783187866, -1.126075029373169, -0.8883508443832397, -0.9853515625, -0.19091796875, -0.478515625, 0, 
391, 2800301403, 0.5440767, 0.47676188, -0.53690267, 0.43408412, 9.879448890686035, 0.5389118790626526, -0.4032915532588959, 1.9847729206085205, -0.9398196339607239, -0.13085529208183289, -0.9814453125, -0.19189453125, -0.47802734375, 0, 
392, 2800318070, 0.5439495, 0.4767564, -0.53702694, 0.43409574, 9.931089401245117, 0.5193204283714294, -0.3936571180820465, 0.35932695865631104, -0.6636122465133667, 0.8805966377258301, -0.982421875, -0.19287109375, -0.4794921875, 0, 
393, 2800334737, 0.54396105, 0.47651592, -0.5372835, 0.4340276, 10.010242462158203, 0.4908946454524994, -0.3876517415046692, -1.644079327583313, -0.20476073026657104, 1.4691381454467773, -0.98095703125, -0.19091796875, -0.47802734375, 0, 
394, 2800351404, 0.54403347, 0.47620273, -0.53759986, 0.43388912, 10.025809288024902, 0.4689302146434784, -0.29193058609962463, -2.5534451007843018, -0.21779757738113403, 1.488808512687683, -0.98291015625, -0.19140625, -0.47509765625, 0, 
395, 2800368071, 0.54409224, 0.47592032, -0.5379076, 0.43374372, 10.027594566345215, 0.4482942223548889, -0.25394877791404724, -2.3759236335754395, -0.3494724631309509, 1.3605272769927979, -0.98193359375, -0.18896484375, -0.47509765625, 0, 
396, 2800384738, 0.54412615, 0.4757026, -0.538126, 0.43366906, 9.976747512817383, 0.45280125737190247, -0.22297437489032745, -1.546059489250183, -0.06923113018274307, 1.1681631803512573, -0.97998046875, -0.19140625, -0.47705078125, 0, 
397, 2800401405, 0.5440633, 0.47562322, -0.538239, 0.43369472, 9.962864875793457, 0.4142758250236511, -0.23093704879283905, -0.052595674991607666, -0.11939358711242676, 0.9761703014373779, -0.9814453125, -0.19091796875, -0.478515625, 0, 
398, 2800418072, 0.5439179, 0.47572768, -0.5382165, 0.43379045, 9.92115306854248, 0.38473764061927795, -0.21458210051059723, 1.645250916481018, -0.23289629817008972, 0.35953187942504883, -0.9833984375, -0.19091796875, -0.47705078125, 0, 
399, 2800434739, 0.5436494, 0.47601318, -0.53806484, 0.43400198, 9.911735534667969, 0.36993950605392456, -0.2402200847864151, 3.484844923019409, -0.36920711398124695, 0.06802092492580414, -0.97998046875, -0.19189453125, -0.47607421875, 0, 
400, 2800451406, 0.54328376, 0.47645408, -0.5377425, 0.43437564, 9.920635223388672, 0.39881300926208496, -0.2551203668117523, 5.430898666381836, -0.027187885716557503, -0.1678144484758377, -0.98046875, -0.1904296875, -0.4765625, 0, 
401, 2800468073, 0.5428026, 0.47697994, -0.5373309, 0.43490887, 9.928668975830078, 0.4346829950809479, -0.2450701743364334, 6.9723615646362305, 0.1467415988445282, 0.16625849902629852, -0.98291015625, -0.1904296875, -0.4775390625, 0, 
402, 2800484740, 0.5423213, 0.47744524, -0.53696585, 0.4354494, 9.94059944152832, 0.5076510310173035, -0.29398036003112793, 6.764116287231445, 0.18523746728897095, 0.5670076012611389, -0.98046875, -0.19091796875, -0.478515625, 0, 
403, 2800501407, 0.54194784, 0.47775725, -0.5367255, 0.43586794, 9.906820297241211, 0.5724208950996399, -0.29946839809417725, 4.846403121948242, 0.167743980884552, 0.7686820030212402, -0.98095703125, -0.19189453125, -0.4794921875, 0, 
404, 2800518074, 0.5417361, 0.4778209, -0.53667253, 0.43612665, 9.875986099243164, 0.5657560229301453, -0.2886151373386383, 2.325037717819214, 0.2905568778514862, 1.2192604541778564, -0.98046875, -0.18994140625, -0.47802734375, 0, 
405, 2800534741, 0.5416462, 0.47769386, -0.5367069, 0.43633536, 9.934974670410156, 0.5151990652084351, -0.3142915964126587, 0.6141604781150818, 0.8140931129455566, 1.662898063659668, -0.98095703125, -0.19189453125, -0.4775390625, 0, 
406, 2800551408, 0.5416641, 0.4774308, -0.53675187, 0.4365454, 9.950080871582031, 0.40295863151550293, -0.2730482816696167, -0.25656241178512573, 1.5861624479293823, 1.8790181875228882, -0.98291015625, -0.19091796875, -0.4794921875, 0, 
407, 2800568075, 0.54162294, 0.47725028, -0.536731, 0.4368194, 9.973800659179688, 0.29753026366233826, -0.24503366649150848, 0.841998279094696, 1.5835883617401123, 1.7699209451675415, -0.98046875, -0.1884765625, -0.48046875, 0, 
408, 2800584742, 0.5414622, 0.4772038, -0.5366096, 0.43721864, 10.001070022583008, 0.26485344767570496, -0.21220095455646515, 2.525034189224243, 1.5265487432479858, 1.7697030305862427, -0.97900390625, -0.18994140625, -0.48046875, 0, 
409, 2800601409, 0.5411403, 0.47732455, -0.53636956, 0.4377798, 9.977471351623535, 0.3373859226703644, -0.19910767674446106, 4.395517349243164, 1.3912243843078613, 1.8570680618286133, -0.97802734375, -0.18701171875, -0.48095703125, 0, 
410, 2800618076, 0.5407436, 0.47748953, -0.53609025, 0.43843126, 9.976861000061035, 0.3935094177722931, -0.20571394264698029, 5.497631549835205, 1.435572624206543, 2.119547128677368, -0.98046875, -0.18896484375, -0.4833984375, 0, 
411, 2800634743, 0.5403125, 0.47766668, -0.53579515, 0.43912995, 9.978331565856934, 0.4379839599132538, -0.20248687267303467, 5.784277439117432, 1.481880784034729, 2.303971529006958, -0.97998046875, -0.19091796875, -0.48291015625, 0, 
412, 2800651410, 0.53988904, 0.47786137, -0.53544855, 0.43986133, 9.977704048156738, 0.4204152226448059, -0.22210142016410828, 6.345810890197754, 1.7668733596801758, 2.162743330001831, -0.9794921875, -0.1875, -0.48388671875, 0, 
413, 2800668077, 0.53942955, 0.47812122, -0.5350102, 0.44067556, 9.962650299072266, 0.44186294078826904, -0.21117785573005676, 7.317504405975342, 2.052121877670288, 2.036536455154419, -0.9794921875, -0.1875, -0.482421875, 0, 
414, 2800684744, 0.5388606, 0.47851938, -0.53446925, 0.44159472, 9.948543548583984, 0.42736902832984924, -0.22962906956672668, 8.753838539123535, 1.9486719369888306, 1.9150168895721436, -0.97900390625, -0.18798828125, -0.486328125, 0, 
415, 2800701411, 0.53827006, 0.4789493, -0.53387034, 0.4425723, 9.958255767822266, 0.47893914580345154, -0.2951408624649048, 9.251790046691895, 2.176382064819336, 1.891594409942627, -0.97998046875, -0.1865234375, -0.48828125, 0, 
416, 2800718078, 0.5377711, 0.47928098, -0.5332546, 0.44356084, 9.92674446105957, 0.5421144366264343, -0.2660019099712372, 8.656012535095215, 2.9086239337921143, 1.9596346616744995, -0.97900390625, -0.18798828125, -0.48828125, 0, 
417, 2800734745, 0.53731036, 0.47953257, -0.5326982, 0.44451466, 9.922017097473145, 0.5799030661582947, -0.24178345501422882, 7.937703609466553, 2.959566831588745, 2.2036209106445312, -0.97705078125, -0.18798828125, -0.49169921875, 0, 
418, 2800751412, 0.53688824, 0.47970104, -0.53219354, 0.4454466, 9.906723976135254, 0.5840390920639038, -0.24778592586517334, 7.256830215454102, 3.091024875640869, 2.4802002906799316, -0.97509765625, -0.18603515625, -0.4921875, 0, 
419, 2800768079, 0.5365134, 0.4797693, -0.5317316, 0.4463754, 9.924677848815918, 0.559421718120575, -0.27726638317108154, 6.605100154876709, 3.4042673110961914, 2.8313369750976562, -0.9765625, -0.18798828125, -0.49267578125, 0, 
420, 2800784746, 0.53614724, 0.4797829, -0.5312892, 0.4473266, 9.925552368164062, 0.4981740415096283, -0.26662546396255493, 6.389338970184326, 3.6053528785705566, 3.151329278945923, -0.9775390625, -0.1875, -0.49609375, 0, 
421, 2800801413, 0.53579545, 0.4797734, -0.53085345, 0.44827455, 9.957714080810547, 0.48484882712364197, -0.27355316281318665, 6.223227500915527, 3.6943700313568115, 3.2016453742980957, -0.9765625, -0.1845703125, -0.49560546875, 0, 
422, 2800818080, 0.53547484, 0.4796746, -0.5304905, 0.4491924, 9.947441101074219, 0.5098266005516052, -0.25160014629364014, 5.464784622192383, 3.715424060821533, 3.561107635498047, -0.9765625, -0.18310546875, -0.49755859375, 0, 
423, 2800834747, 0.5352105, 0.47944504, -0.5302718, 0.45000988, 9.933699607849121, 0.5337575078010559, -0.26270177960395813, 3.981231927871704, 3.462984561920166, 3.9712424278259277, -0.9755859375, -0.18359375, -0.501953125, 0, 
424, 2800851414, 0.5351086, 0.47903562, -0.5301796, 0.45067498, 9.93458366394043, 0.5316072106361389, -0.2646738886833191, 1.8366804122924805, 3.6430675983428955, 3.9796054363250732, -0.97607421875, -0.1806640625, -0.4990234375, 0, 
425, 2800868081, 0.5350985, 0.4784919, -0.53020716, 0.45123208, 9.942575454711914, 0.4781689941883087, -0.23103316128253937, 0.2760857343673706, 3.5975284576416016, 4.182470798492432, -0.9755859375, -0.18212890625, -0.4990234375, 0, 
426, 2800884748, 0.53516626, 0.47790843, -0.5302597, 0.45170802, 9.965560913085938, 0.3788549602031708, -0.18303193151950836, -0.5001904964447021, 3.647050380706787, 3.8700215816497803, -0.97314453125, -0.1787109375, -0.5009765625, 0, 
427, 2800901415, 0.53527725, 0.4773168, -0.53033465, 0.4521136, 9.937677383422852, 0.3167579472064972, -0.12581640481948853, -0.9971280097961426, 3.516233205795288, 3.580188512802124, -0.97216796875, -0.18115234375, -0.5009765625, 0, 
428, 2800918082, 0.535327, 0.47684634, -0.5303708, 0.45250872, 9.862162590026855, 0.2992585599422455, -0.10906989872455597, -0.26822900772094727, 3.023970127105713, 3.162303924560547, -0.97021484375, -0.1787109375, -0.50048828125, 0, 
429, 2800934749, 0.5353091, 0.47658682, -0.5302303, 0.45296752, 9.853859901428223, 0.2560446262359619, -0.10538294166326523, 1.5125133991241455, 2.9805564880371094, 2.2594053745269775, -0.97314453125, -0.1787109375, -0.5029296875, 0, 
430, 2800951416, 0.5352214, 0.47650152, -0.52993274, 0.4535088, 9.885632514953613, 0.20255625247955322, -0.1293954849243164, 3.172152519226074, 3.031308174133301, 1.6308441162109375, -0.97314453125, -0.1787109375, -0.50439453125, 0, 
431, 2800968083, 0.5350633, 0.4765919, -0.52948034, 0.45412856, 9.943238258361816, 0.13195165991783142, -0.143191859126091, 4.816871643066406, 3.054154396057129, 0.9901165962219238, -0.974609375, -0.1787109375, -0.5048828125, 0, 
432, 2800984750, 0.534848, 0.47681046, -0.52894145, 0.4547804, 9.966361999511719, 0.08906174451112747, -0.09570737183094025, 5.863036632537842, 2.869218349456787, 0.538001298904419, -0.97412109375, -0.1787109375, -0.50537109375, 0, 
433, 2801001417, 0.53459364, 0.47703487, -0.5284553, 0.45540863, 9.97512435913086, 0.1737351417541504, -0.10494372248649597, 5.761314868927002, 2.437938928604126, 0.7240006923675537, -0.9716796875, -0.17822265625, -0.505859375, 0, 
434, 2801018084, 0.5343539, 0.47716817, -0.5280608, 0.45600754, 10.006068229675293, 0.2685234248638153, -0.13550715148448944, 4.98610782623291, 2.3420064449310303, 1.202048897743225, -0.9736328125, -0.18017578125, -0.50537109375, 0, 
435, 2801034751, 0.53416085, 0.47716472, -0.5277694, 0.45657462, 9.987957954406738, 0.28586670756340027, -0.12840351462364197, 3.8917791843414307, 2.4584412574768066, 1.7732887268066406, -0.97314453125, -0.1796875, -0.50927734375, 0, 
436, 2801051418, 0.5340035, 0.47700772, -0.5276623, 0.45704633, 9.93077278137207, 0.31021764874458313, -0.10214114189147949, 2.2876434326171875, 2.079207181930542, 2.4729385375976562, -0.9716796875, -0.1787109375, -0.5078125, 0, 
437, 2801068085, 0.5338642, 0.47684482, -0.5275467, 0.457512, 9.923399925231934, 0.30321258306503296, -0.12580455839633942, 2.2089481353759766, 2.1747682094573975, 2.387084484100342, -0.97265625, -0.17822265625, -0.5087890625, 0, 
438, 2801084752, 0.53368664, 0.47677317, -0.5273222, 0.45805243, 9.89240550994873, 0.26975297927856445, -0.0961492583155632, 3.2838239669799805, 2.394461154937744, 2.094485282897949, -0.97021484375, -0.17822265625, -0.5087890625, 0, 
439, 2801101419, 0.5334247, 0.47685134, -0.52694136, 0.45871392, 9.910314559936523, 0.28761979937553406, -0.09649443626403809, 5.041572093963623, 2.586287498474121, 1.7480988502502441, -0.97216796875, -0.17822265625, -0.5126953125, 0, 
440, 2801118086, 0.5331284, 0.47697407, -0.52647626, 0.45946425, 9.872672080993652, 0.36973944306373596, -0.0958835706114769, 5.903541564941406, 2.9227869510650635, 1.7454863786697388, -0.9716796875, -0.177734375, -0.51220703125, 0, 
441, 2801134753, 0.53283566, 0.47708267, -0.5260567, 0.4601711, 9.849308967590332, 0.4636733829975128, -0.08640767633914948, 5.539662837982178, 2.670501947402954, 1.7750437259674072, -0.9677734375, -0.177734375, -0.51171875, 0, 
442, 2801151420, 0.5326564, 0.47703648, -0.5257524, 0.46077383, 9.869278907775879, 0.4779627323150635, -0.11455199867486954, 3.859610080718994, 2.8075172901153564, 1.97329843044281, -0.96923828125, -0.17529296875, -0.51513671875, 0, 
443, 2801168087, 0.53264034, 0.4767561, -0.5255921, 0.4612652, 9.897408485412598, 0.4136626124382019, -0.13638941943645477, 1.60945725440979, 3.2469027042388916, 2.3669145107269287, -0.97021484375, -0.17626953125, -0.5146484375, 0, 
444, 2801184754, 0.53271234, 0.4763351, -0.52551913, 0.4616999, 9.891758918762207, 0.33794495463371277, -0.13695478439331055, 0.3231746256351471, 3.504502296447754, 2.6737797260284424, -0.97119140625, -0.17578125, -0.5146484375, 0, 
445, 2801201421, 0.5327573, 0.4758531, -0.5255003, 0.46216625, 9.892985343933105, 0.26363056898117065, -0.11441099643707275, 0.13046471774578094, 3.505911350250244, 3.275627613067627, -0.96826171875, -0.1748046875, -0.51708984375, 0, 
446, 2801218088, 0.53269714, 0.4754377, -0.52547294, 0.46269426, 9.880964279174805, 0.21501801908016205, -0.10094760358333588, 0.9688579440116882, 3.148473024368286, 3.564807415008545, -0.96923828125, -0.17578125, -0.517578125, 0, 
447, 2801234755, 0.53256965, 0.47505942, -0.5254555, 0.46324888, 9.885185241699219, 0.2534042298793793, -0.13269539177417755, 1.3880865573883057, 2.8374710083007812, 3.775932550430298, -0.96728515625, -0.17333984375, -0.51806640625, 0, 
448, 2801251422, 0.53245586, 0.47463632, -0.5255221, 0.4637376, 9.86630916595459, 0.30683475732803345, -0.11780937016010284, 0.6747474074363708, 2.5067856311798096, 3.9270992279052734, -0.96728515625, -0.1748046875, -0.517578125, 0, 
449, 2801268089, 0.5324537, 0.4741063, -0.5256768, 0.4641067, 9.868138313293457, 0.3275631070137024, -0.0902584120631218, -0.793955385684967, 2.53869891166687, 3.8078083992004395, -0.9658203125, -0.171875, -0.5185546875, 0, 
450, 2801284756, 0.53252196, 0.47353435, -0.52585053, 0.4644153, 9.859227180480957, 0.31734517216682434, -0.060643915086984634, -1.456965684890747, 2.6603593826293945, 3.5750787258148193, -0.96630859375, -0.17333984375, -0.51806640625, 0, 
451, 2801301423, 0.53257275, 0.4729973, -0.5260307, 0.4647004, 9.872502326965332, 0.2445542812347412, -0.0225437693297863, -1.3772077560424805, 2.385573387145996, 3.4390878677368164, -0.966796875, -0.169921875, -0.51708984375, 0, 
452, 2801318090, 0.5325952, 0.4725844, -0.5261613, 0.46494678, 9.908760070800781, 0.1991264820098877, -0.0032415485475212336, -0.8140227794647217, 1.9416409730911255, 2.777869939804077, -0.96240234375, -0.17041015625, -0.51806640625, 0, 
453, 2801334757, 0.5325336, 0.4723382, -0.52621436, 0.46520728, 9.910490989685059, 0.14582306146621704, 0.0022542590741068125, 0.36843225359916687, 1.4350603818893433, 2.243947744369507, -0.96630859375, -0.16845703125, -0.52001953125, 0, 
454, 2801351424, 0.5324171, 0.47220135, -0.52625483, 0.46543378, 9.918062210083008, 0.15789812803268433, -0.03792474791407585, 0.8657541275024414, 0.8217642307281494, 1.8584511280059814, -0.9658203125, -0.17236328125, -0.52099609375, 0, 
455, 2801368091, 0.5322893, 0.47215378, -0.52627295, 0.4656078, 9.905635833740234, 0.1717420071363449, -0.04140426963567734, 1.11538827419281, 0.4072739779949188, 1.3063437938690186, -0.9638671875, -0.16943359375, -0.51806640625, 0, 
456, 2801384758, 0.53214884, 0.47218603, -0.5262722, 0.46573633, 9.876975059509277, 0.21883592009544373, -0.02348857745528221, 1.3396915197372437, 0.0276937335729599, 0.8312793970108032, -0.962890625, -0.16943359375, -0.5185546875, 0, 
457, 2801401425, 0.5319909, 0.4722946, -0.5262836, 0.46579385, 9.877992630004883, 0.22096428275108337, -0.006149853579699993, 1.3809791803359985, -0.5562822818756104, 0.38992130756378174, -0.96435546875, -0.1689453125, -0.5185546875, 0, 
458, 2801418092, 0.5318432, 0.4724065, -0.5263349, 0.4657909, 9.864705085754395, 0.23499487340450287, -0.01568000391125679, 1.012822151184082, -0.869743287563324, 0.2544558048248291, -0.9638671875, -0.1689453125, -0.5185546875, 0, 
459, 2801434759, 0.5316975, 0.4725409, -0.52639914, 0.46574843, 9.843297958374023, 0.2544337213039398, -0.013003583066165447, 0.9041090607643127, -1.1120394468307495, 0.06324416399002075, -0.96435546875, -0.16943359375, -0.521484375, 0, 
460, 2801451426, 0.5315676, 0.4726724, -0.52650595, 0.46564263, 9.84235954284668, 0.23653240501880646, -0.03101458214223385, 0.4745585024356842, -1.4058171510696411, -0.06900060921907425, -0.96630859375, -0.17041015625, -0.51904296875, 0, 
461, 2801468093, 0.5314822, 0.47275695, -0.5266814, 0.46545553, 9.825241088867188, 0.20613500475883484, -0.06768783181905746, -0.357105016708374, -1.6097323894500732, -0.11579500138759613, -0.9638671875, -0.16748046875, -0.521484375, 0, 
462, 2801484760, 0.53139675, 0.47282493, -0.5269105, 0.46522483, 9.864028930664062, 0.20883053541183472, -0.09543623775243759, -0.7438310980796814, -1.8953138589859009, -0.04062173515558243, -0.96337890625, -0.1708984375, -0.5185546875, 0, 
463, 2801501427, 0.5313296, 0.47287464, -0.5271386, 0.4649927, 9.931512832641602, 0.19707134366035461, -0.08123699575662613, -0.8774526119232178, -1.7711052894592285, -0.04179992526769638, -0.96337890625, -0.1708984375, -0.515625, 0, 
464, 2801518094, 0.5312604, 0.472918, -0.52741075, 0.4647187, 9.902868270874023, 0.2253163605928421, -0.03456387668848038, -1.1789140701293945, -2.0553934574127197, -0.02160431258380413, -0.96337890625, -0.169921875, -0.517578125, 0, 
465, 2801534761, 0.53122574, 0.47291437, -0.52776104, 0.46436465, 9.874921798706055, 0.3099685609340668, -0.030303645879030228, -2.006857395172119, -2.3257100582122803, 3.393682709429413E-4, -0.96533203125, -0.16748046875, -0.515625, 0, 
466, 2801551428, 0.5312602, 0.4728123, -0.528191, 0.46394008, 9.822040557861328, 0.3277696967124939, -0.038929637521505356, -3.0999186038970947, -2.280247926712036, 0.13875041902065277, -0.962890625, -0.169921875, -0.51416015625, 0, 
467, 2801568095, 0.5313418, 0.47263488, -0.52867275, 0.46347815, 9.886129379272461, 0.23952877521514893, -0.03756681829690933, -3.831557273864746, -2.178769826889038, 0.29352790117263794, -0.96435546875, -0.16796875, -0.5166015625, 0, 
468, 2801584762, 0.5315578, 0.4723414, -0.5292089, 0.46291748, 10.020642280578613, 0.09487172961235046, -0.0919133722782135, -5.223249912261963, -1.8404905796051025, 0.10394275188446045, -0.9638671875, -0.1669921875, -0.5146484375, 0, 
469, 2801601429, 0.5318531, 0.47200024, -0.52971673, 0.4623453, 10.025489807128906, -0.0016932616708800197, -0.03710805997252464, -5.60409688949585, -1.3339221477508545, -0.10890520364046097, -0.9638671875, -0.16943359375, -0.5126953125, 0, 
470, 2801618096, 0.53201365, 0.4717857, -0.53019166, 0.4618346, 10.044486999511719, -2.4088338250294328E-4, -0.010640863329172134, -4.3778252601623535, -1.9082101583480835, -0.02495957724750042, -0.9658203125, -0.169921875, -0.51123046875, 0, 
471, 2801634763, 0.5320638, 0.47166118, -0.53056115, 0.4614799, 10.014042854309082, 0.017366766929626465, -0.039220552891492844, -2.785419464111328, -1.7046658992767334, 0.22702458500862122, -0.9658203125, -0.16748046875, -0.50927734375, 0, 
472, 2801651430, 0.5320158, 0.4715947, -0.530869, 0.46124876, 9.928979873657227, 0.09012900292873383, -0.03725402057170868, -1.62846839427948, -1.6209638118743896, 0.5770093202590942, -0.96484375, -0.169921875, -0.5087890625, 0, 
473, 2801668097, 0.5319072, 0.4715817, -0.53115356, 0.46105957, 9.87673282623291, 0.16244985163211823, -0.0049657756462693214, -1.01578688621521, -1.7901870012283325, 0.6533095836639404, -0.96484375, -0.16748046875, -0.5087890625, 0, 
474, 2801684764, 0.5318438, 0.47154737, -0.5314506, 0.46082553, 9.852411270141602, 0.19985179603099823, 0.011793929152190685, -1.38080632686615, -1.7477208375930786, 0.4638139307498932, -0.9638671875, -0.16845703125, -0.5107421875, 0, 
475, 2801701431, 0.5318434, 0.47147503, -0.5316943, 0.4606189, 9.867103576660156, 0.2025877684354782, 6.164271617308259E-4, -1.4713598489761353, -1.1139731407165527, 0.32985955476760864, -0.96630859375, -0.16845703125, -0.5068359375, 0, 
476, 2801718098, 0.53187424, 0.47136742, -0.5318817, 0.460477, 9.936075210571289, 0.13841868937015533, -0.026824012398719788, -1.3379690647125244, -0.47325870394706726, 0.4157261252403259, -0.96484375, -0.16796875, -0.5078125, 0, 
477, 2801734765, 0.5319215, 0.4712515, -0.53200525, 0.46039858, 9.956478118896484, 0.05622904747724533, -0.05203338339924812, -0.9558916091918945, 0.052217889577150345, 0.4179672300815582, -0.9658203125, -0.16748046875, -0.5087890625, 0, 
478, 2801751432, 0.5319414, 0.47119892, -0.5320706, 0.4603538, 9.957637786865234, 0.020491667091846466, -0.04794621095061302, -0.331300288438797, 0.07438568025827408, 0.20682896673679352, -0.96240234375, -0.1669921875, -0.50732421875, 0, 
479, 2801768099, 0.53188384, 0.47118217, -0.53213346, 0.4603647, 9.929443359375, 0.08085804432630539, -0.0490405298769474, 0.26877325773239136, -0.13312199711799622, 0.5176902413368225, -0.962890625, -0.16650390625, -0.5068359375, 0, 
480, 2801784766, 0.5317616, 0.47114223, -0.5322271, 0.46043852, 9.92979907989502, 0.12412301450967789, -0.07852547615766525, 0.5262448787689209, -0.20495282113552094, 1.1362240314483643, -0.96337890625, -0.166015625, -0.50830078125, 0, 
481, 2801801433, 0.5316527, 0.47103122, -0.5323512, 0.46053472, 9.939115524291992, 0.14196287095546722, -0.07673164457082748, 0.19756996631622314, 0.02984519489109516, 1.5346297025680542, -0.96435546875, -0.166015625, -0.50634765625, 0, 
482, 2801818100, 0.53156066, 0.47085416, -0.5325174, 0.46062958, 9.930197715759277, 0.11340553313493729, -0.05802072584629059, -0.23401042819023132, 0.1423361748456955, 1.8550828695297241, -0.96240234375, -0.16748046875, -0.50927734375, 0, 
483, 2801834767, 0.53144324, 0.47068745, -0.5326595, 0.4607712, 9.933960914611816, 0.08757828176021576, -0.043216001242399216, 0.0912260189652443, 0.2550576329231262, 1.9894084930419922, -0.962890625, -0.16552734375, -0.5078125, 0, 
484, 2801851434, 0.5313099, 0.4705537, -0.53272355, 0.4609874, 9.963187217712402, 0.0920787900686264, -0.04842624068260193, 0.8165648579597473, 0.6201539039611816, 1.9402196407318115, -0.96142578125, -0.16796875, -0.50830078125, 0, 
485, 2801868101, 0.5311328, 0.47046506, -0.5327406, 0.46126226, 10.007675170898438, 0.13970209658145905, -0.13321730494499207, 1.4302706718444824, 0.6769628524780273, 1.974809169769287, -0.96337890625, -0.16455078125, -0.509765625, 0, 
486, 2801884768, 0.5308877, 0.47034502, -0.53285086, 0.46153915, 10.038782119750977, 0.1600349247455597, -0.1730048656463623, 1.2241781949996948, 0.19319020211696625, 2.6160106658935547, -0.96337890625, -0.16650390625, -0.50732421875, 0, 
487, 2801901435, 0.53067493, 0.47017664, -0.53300756, 0.46177474, 10.064995765686035, 0.15826264023780823, -0.1493091583251953, 0.7384973764419556, 0.16349224746227264, 2.687944173812866, -0.962890625, -0.16552734375, -0.50732421875, 0, 
488, 2801918102, 0.53050315, 0.46999532, -0.53318924, 0.4619468, 10.048463821411133, 0.19137455523014069, -0.09903494268655777, 0.2515743374824524, 0.058505814522504807, 2.454983711242676, -0.9619140625, -0.1640625, -0.50732421875, 0, 
489, 2801934769, 0.5304256, 0.46973032, -0.53343666, 0.4620198, 10.023529052734375, 0.2244807332754135, -0.05078447610139847, -0.9263089895248413, 0.10992329567670822, 2.3134353160858154, -0.9599609375, -0.1650390625, -0.5078125, 0, 
490, 2801951436, 0.5304265, 0.4694326, -0.5337482, 0.46196142, 9.961559295654297, 0.22753910720348358, -0.015042691491544247, -1.986994743347168, -0.15640392899513245, 1.9130572080612183, -0.96044921875, -0.16259765625, -0.50732421875, 0, 
491, 2801968103, 0.5304691, 0.46915555, -0.5340711, 0.46182084, 9.95691204071045, 0.14719922840595245, -0.01735369861125946, -2.401139259338379, -0.37562301754951477, 1.4417965412139893, -0.96240234375, -0.16552734375, -0.5068359375, 0, 
492, 2801984770, 0.5304676, 0.469003, -0.53425825, 0.4617611, 9.95937442779541, 0.014782517217099667, -0.03566533327102661, -1.1129999160766602, -0.17786741256713867, 0.9812161326408386, -0.9609375, -0.1640625, -0.50634765625, 0, 
493, 2802001437, 0.5303491, 0.46911776, -0.53423274, 0.46181014, 9.954330444335938, -0.09508874267339706, -0.06378946453332901, 1.3659701347351074, -0.3298787772655487, 0.08237685263156891, -0.9609375, -0.16259765625, -0.505859375, 0, 
494, 2802018104, 0.53006184, 0.46956968, -0.5339514, 0.46200612, 9.912493705749512, -0.0793258473277092, -0.09775987267494202, 4.450840950012207, -0.6135650277137756, -0.9107109904289246, -0.9619140625, -0.1630859375, -0.50830078125, 0, 
495, 2802034771, 0.52969897, 0.47013366, -0.533582, 0.46227518, 9.864891052246094, 0.05123942717909813, -0.15651792287826538, 5.699216365814209, -0.6898909211158752, -1.099706768989563, -0.95849609375, -0.16259765625, -0.5087890625, 0, 
496, 2802051438, 0.52936894, 0.47064194, -0.5332501, 0.46251923, 9.799432754516602, 0.1596670150756836, -0.17153924703598022, 5.1802263259887695, -0.6098639965057373, -0.9702475070953369, -0.9609375, -0.16259765625, -0.5087890625, 0, 
497, 2802068105, 0.5291666, 0.4709183, -0.53308207, 0.46266305, 9.777782440185547, 0.24873794615268707, -0.20126977562904358, 3.0204482078552246, -0.3246537744998932, -0.3593333661556244, -0.96337890625, -0.1611328125, -0.5078125, 0, 
498, 2802084772, 0.5291636, 0.47089705, -0.5331051, 0.4626614, 9.795753479003906, 0.25366753339767456, -0.2360582947731018, 0.1496870070695877, 0.1866077184677124, 0.18644122779369354, -0.96337890625, -0.1650390625, -0.50927734375, 0, 
499, 2802101439, 0.5293431, 0.4706174, -0.53328645, 0.46253154, 9.867822647094727, 0.19637709856033325, -0.2637130916118622, -2.3691489696502686, 0.6866188049316406, 0.5988569259643555, -0.96044921875, -0.1640625, -0.509765625, 0, 
500, 2802118106, 0.52966255, 0.47014666, -0.5335784, 0.46230802, 9.88904857635498, 0.14100033044815063, -0.2508101463317871, -4.19984245300293, 1.1020056009292603, 0.8726567029953003, -0.9599609375, -0.1640625, -0.50927734375, 0, 
501, 2802134773, 0.5300789, 0.4694854, -0.534038, 0.46197176, 9.925172805786133, 0.17707601189613342, -0.24253827333450317, -6.148804187774658, 1.088674545288086, 1.3945157527923584, -0.95947265625, -0.16357421875, -0.50634765625, 0, 
502, 2802151440, 0.53057027, 0.4686659, -0.5346324, 0.46155226, 9.93166732788086, 0.22429662942886353, -0.22036001086235046, -7.7005109786987305, 1.1064624786376953, 1.8688373565673828, -0.96044921875, -0.16162109375, -0.5048828125, 0, 
503, 2802168107, 0.53118026, 0.46766844, -0.53541076, 0.4609597, 9.938177108764648, 0.22374889254570007, -0.18684454262256622, -9.952534675598145, 0.8788295984268188, 2.1085469722747803, -0.9619140625, -0.162109375, -0.50390625, 0, 
504, 2802184774, 0.5319441, 0.46647134, -0.53635406, 0.46019465, 10.048760414123535, 0.1711546778678894, -0.1572214663028717, -12.267541885375977, 0.9214493036270142, 2.256089448928833, -0.9609375, -0.162109375, -0.5048828125, 0, 
505, 2802201441, 0.5328481, 0.46520543, -0.5373386, 0.45928073, 10.089263916015625, 0.03197460621595383, -0.08559168875217438, -13.767487525939941, 1.0268585681915283, 1.6539348363876343, -0.96142578125, -0.15966796875, -0.50146484375, 0, 
506, 2802218108, 0.5337204, 0.46410242, -0.5382307, 0.45833832, 10.08810806274414, -0.1117965504527092, 0.003756699152290821, -12.890340805053711, 0.643666684627533, 0.754467248916626, -0.958984375, -0.16162109375, -0.5009765625, 0, 
507, 2802234775, 0.5344877, 0.46329454, -0.5389133, 0.45745826, 10.042089462280273, -0.1501329392194748, 0.0023104778956621885, -10.528987884521484, 0.2925291657447815, -0.44964393973350525, -0.958984375, -0.16259765625, -0.4990234375, 0, 
508, 2802251442, 0.53507304, 0.46278876, -0.539342, 0.45678046, 9.934335708618164, -0.16248959302902222, -0.0010505563113838434, -7.281832218170166, 0.24572184681892395, -1.0611214637756348, -0.958984375, -0.1611328125, -0.498046875, 0, 
509, 2802268109, 0.5354542, 0.46258384, -0.5395608, 0.4562826, 9.886198997497559, -0.1569385975599289, -0.014883196912705898, -4.2001237869262695, -0.11118472367525101, -1.5419355630874634, -0.958984375, -0.15966796875, -0.49658203125, 0, 
