sep=,
DeviceTag:,Xsens_2,,,,,,,,,,,,,,,,,
FirmwareVersion:,2.2.1,,,,,,,,,,,,,,,,,
AppVersion:,2023.0.0,,,,,,,,,,,,,,,,,
StartTime:,2023-06-22 11:29:26.000 +0200,,,,,,,,,,,,,,,,,
© Movella Technologies B. V. 2005-2023,,,,,,,,,,,,,,,,,,,

PacketCounter,SampleTimeFine,Quat_W,Quat_X,Quat_Y,Quat_Z,Acc_X,Acc_Y,Acc_Z,Gyr_X,Gyr_Y,Gyr_Z,Mag_X,Mag_Y,Mag_Z,Status,
0, 271399221, 0.475544, 0.32462612, -0.6548454, 0.48954403, 0.0, 0.0, 0.0, 0.0, 0.0, 0.0, -0.71630859375, 0.427001953125, -0.54296875, 0, 
1, 271415888, 0.47507134, 0.32422084, -0.6548717, 0.49023592, 9.294769287109375, -3.2756879329681396, -0.7227929830551147, 3.912397623062134, -1.3066959381103516, -1.1520464420318604, -0.716552734375, 0.42333984375, -0.544677734375, 0, 
2, 271432555, 0.47443095, 0.32491893, -0.65467304, 0.49065882, 9.323134422302246, -3.1751508712768555, -0.7146950364112854, 4.341577529907227, -0.968826174736023, -1.4112598896026611, -0.713623046875, 0.425048828125, -0.547119140625, 0, 
3, 271449222, 0.4744154, 0.32578912, -0.65458345, 0.49021628, 9.337181091308594, -3.150459051132202, -0.6668331623077393, 2.3238465785980225, -1.8239954710006714, -1.7821955680847168, -0.7177734375, 0.423095703125, -0.544677734375, 0, 
4, 271465889, 0.474624, 0.3267424, -0.6543512, 0.48968992, 9.421769142150879, -3.1804862022399902, -0.7162982821464539, 1.1189613342285156, -2.0029006004333496, -1.957809329032898, -0.71533203125, 0.4228515625, -0.544189453125, 0, 
5, 271482556, 0.47498524, 0.32751772, -0.6540834, 0.4891792, 9.451764106750488, -3.182220458984375, -0.7412709593772888, 1.956983208656311, -1.0530917644500732, -2.158151865005493, -0.716552734375, 0.42138671875, -0.54296875, 0, 
6, 271499223, 0.4753406, 0.32826874, -0.653745, 0.48878288, 9.426671981811523, -3.0806543827056885, -0.7979583144187927, 2.644773483276367, -0.29850319027900696, -2.4764533042907715, -0.71826171875, 0.424560546875, -0.543701171875, 0, 
7, 271515890, 0.47586817, 0.3288161, -0.65355146, 0.48815998, 9.425982475280762, -3.028380870819092, -0.8245431184768677, 2.0734822750091553, 0.12412553280591965, -2.559810161590576, -0.71875, 0.423095703125, -0.544189453125, 0, 
8, 271532557, 0.47645104, 0.3293321, -0.6534037, 0.48744082, 9.407530784606934, -3.0748367309570312, -0.8246628642082214, 0.8246328234672546, 0.6925224661827087, -2.697465419769287, -0.71728515625, 0.42236328125, -0.5458984375, 0, 
9, 271549224, 0.47702286, 0.32981145, -0.6532343, 0.48678386, 9.42631721496582, -3.122842311859131, -0.7506757974624634, 1.2405959367752075, 1.0455424785614014, -2.928248882293701, -0.71826171875, 0.420654296875, -0.54248046875, 0, 
10, 271565891, 0.4775765, 0.3302951, -0.6529901, 0.48624068, 9.399517059326172, -3.159442901611328, -0.7679378986358643, 1.807763934135437, 1.1116745471954346, -3.4208967685699463, -0.719970703125, 0.41943359375, -0.54345703125, 0, 
11, 271582558, 0.4780168, 0.3309133, -0.65253305, 0.48600096, 9.350372314453125, -3.2075276374816895, -0.7595962882041931, 3.951559543609619, 1.5399572849273682, -3.8759958744049072, -0.71826171875, 0.42041015625, -0.54541015625, 0, 
12, 271599225, 0.4783959, 0.33152887, -0.65200305, 0.48591974, 9.34929370880127, -3.134704828262329, -0.7843571305274963, 5.758893966674805, 1.455230474472046, -4.177380561828613, -0.7197265625, 0.419189453125, -0.546875, 0, 
13, 271615892, 0.478746, 0.33210474, -0.6515287, 0.4858179, 9.362770080566406, -3.047370195388794, -0.7589109539985657, 5.095743179321289, 1.2955608367919922, -4.1976399421691895, -0.7177734375, 0.4189453125, -0.546875, 0, 
14, 271632559, 0.4791687, 0.3325373, -0.6513354, 0.48536432, 9.334566116333008, -3.102501630783081, -0.7419795989990234, 2.3230786323547363, 0.143373504281044, -4.421289920806885, -0.71875, 0.41943359375, -0.54638671875, 0, 
15, 271649226, 0.4795041, 0.33300713, -0.65120757, 0.48488238, 9.417566299438477, -3.266653537750244, -0.7362963557243347, 2.8293521404266357, -0.9426499009132385, -4.524406909942627, -0.720947265625, 0.416015625, -0.549560546875, 0, 
16, 271665893, 0.47959056, 0.3338065, -0.65070164, 0.48492646, 9.452394485473633, -3.2911014556884766, -0.7936244606971741, 6.84213399887085, -0.4216235876083374, -4.68219518661499, -0.719970703125, 0.412841796875, -0.549072265625, 0, 
17, 271682560, 0.47954267, 0.3347827, -0.64999306, 0.48525092, 9.461446762084961, -3.158334255218506, -0.8159404993057251, 9.206430435180664, -0.15208828449249268, -4.912658214569092, -0.720458984375, 0.4130859375, -0.5478515625, 0, 
18, 271699227, 0.4795424, 0.33568496, -0.6493436, 0.48549733, 9.503896713256836, -3.061408281326294, -0.8343106508255005, 8.16340160369873, 0.017333395779132843, -4.942022800445557, -0.720947265625, 0.4150390625, -0.5498046875, 0, 
19, 271715894, 0.47981995, 0.3361683, -0.64904386, 0.4852894, 9.516822814941406, -3.0733296871185303, -0.8291860222816467, 4.654397487640381, -0.04958619177341461, -4.7430877685546875, -0.722412109375, 0.407958984375, -0.553466796875, 0, 
20, 271732561, 0.48007572, 0.33661667, -0.64885366, 0.48497993, 9.551733016967773, -3.1388208866119385, -0.8431353569030762, 1.955100655555725, -0.011909905821084976, -4.439897060394287, -0.722900390625, 0.407958984375, -0.5537109375, 0, 
21, 271749228, 0.48048225, 0.33682477, -0.6488202, 0.48447737, 9.531182289123535, -3.132028341293335, -0.7913104891777039, -0.23421533405780792, 0.4135618507862091, -4.22448205947876, -0.7216796875, 0.411376953125, -0.552978515625, 0, 
22, 271765895, 0.48101065, 0.33676302, -0.6490332, 0.4837101, 9.473716735839844, -3.0825488567352295, -0.748585045337677, -2.7429282665252686, 0.17208534479141235, -3.83359432220459, -0.7216796875, 0.407470703125, -0.55322265625, 0, 
23, 271782562, 0.4815439, 0.3366123, -0.64939946, 0.482792, 9.402975082397461, -3.0740537643432617, -0.6970398426055908, -5.141557693481445, -0.15849140286445618, -3.5561187267303467, -0.72412109375, 0.40283203125, -0.550537109375, 0, 
24, 271799229, 0.48203382, 0.33647266, -0.6498812, 0.48175126, 9.36413860321045, -3.111753463745117, -0.7001497149467468, -6.80182409286499, -0.8960092067718506, -3.57828688621521, -0.723388671875, 0.40625, -0.550048828125, 0, 
25, 271815896, 0.48244244, 0.3364095, -0.6503444, 0.48076007, 9.439981460571289, -3.1941864490509033, -0.7217043042182922, -6.0714263916015625, -1.438217282295227, -3.609200954437256, -0.723876953125, 0.40625, -0.55029296875, 0, 
26, 271832563, 0.4827248, 0.33653095, -0.6506288, 0.48000634, 9.471373558044434, -3.2185323238372803, -0.7609167695045471, -3.453373432159424, -1.572479009628296, -3.759201765060425, -0.724365234375, 0.405029296875, -0.54931640625, 0, 
27, 271849230, 0.48277482, 0.3369184, -0.65067375, 0.47962287, 9.475672721862793, -3.2168614864349365, -0.7551857829093933, 0.34507352113723755, -1.8664485216140747, -3.6085216999053955, -0.72607421875, 0.405029296875, -0.54736328125, 0, 
28, 271865897, 0.48264003, 0.33756122, -0.6504199, 0.47965115, 9.523383140563965, -3.144749641418457, -0.8090677857398987, 4.196890830993652, -1.5622594356536865, -3.537306070327759, -0.72607421875, 0.40185546875, -0.54931640625, 0, 
29, 271882564, 0.48243096, 0.33830422, -0.6499571, 0.4799651, 9.526679039001465, -3.0256600379943848, -0.8036757707595825, 5.9954657554626465, -0.6739597916603088, -3.2505977153778076, -0.728271484375, 0.40478515625, -0.5517578125, 0, 
30, 271899231, 0.48229662, 0.33892217, -0.6495325, 0.480239, 9.570305824279785, -2.9857637882232666, -0.84273362159729, 5.882206439971924, -0.4072931706905365, -3.0025510787963867, -0.727783203125, 0.40234375, -0.548583984375, 0, 
31, 271915898, 0.4821989, 0.33947644, -0.6490583, 0.4805865, 9.577129364013672, -3.01057767868042, -0.9012020826339722, 6.139562606811523, 0.28898170590400696, -2.656651735305786, -0.7294921875, 0.40087890625, -0.552490234375, 0, 
32, 271932565, 0.4821231, 0.34005636, -0.64851195, 0.48099002, 9.50411605834961, -2.984950542449951, -0.843980073928833, 6.361024856567383, 0.8004418611526489, -2.7653143405914307, -0.727783203125, 0.401611328125, -0.548828125, 0, 
33, 271949232, 0.4822053, 0.34043384, -0.6480466, 0.48126754, 9.462020874023438, -2.986168146133423, -0.8502972722053528, 5.6423444747924805, 1.2605229616165161, -2.6673712730407715, -0.72607421875, 0.400146484375, -0.552490234375, 0, 
34, 271965899, 0.48230395, 0.3407586, -0.64756286, 0.48158994, 9.385076522827148, -3.0405290126800537, -0.8214445114135742, 4.97162389755249, 1.9094460010528564, -2.30733323097229, -0.72705078125, 0.40185546875, -0.553466796875, 0, 
35, 271982566, 0.48239073, 0.34102502, -0.6471243, 0.48190382, 9.360011100769043, -3.0100347995758057, -0.8070316910743713, 3.9156246185302734, 2.0993127822875977, -1.8927271366119385, -0.728515625, 0.397705078125, -0.553466796875, 0, 
36, 271999233, 0.48255143, 0.3410653, -0.6468251, 0.4821161, 9.378734588623047, -2.993119716644287, -0.8288546800613403, 2.719729423522949, 2.274772882461548, -1.1929116249084473, -0.722412109375, 0.4013671875, -0.55419921875, 0, 
37, 272015900, 0.48285925, 0.34081197, -0.64667, 0.4821954, 9.416780471801758, -3.0457587242126465, -0.815061092376709, 2.0234735012054443, 2.6009886264801025, -0.5966606140136719, -0.727294921875, 0.3974609375, -0.55517578125, 0, 
38, 272032567, 0.48303005, 0.34069943, -0.6464222, 0.4824358, 9.387434005737305, -3.093634605407715, -0.8046303391456604, 2.3231167793273926, 2.6774814128875732, -0.34938284754753113, -0.724609375, 0.399658203125, -0.552734375, 0, 
39, 272049234, 0.48311844, 0.34070453, -0.64621514, 0.48262116, 9.355366706848145, -3.0900182723999023, -0.7570892572402954, 2.088350772857666, 1.7950085401535034, -0.6800811886787415, -0.72412109375, 0.3994140625, -0.558349609375, 0, 
40, 272065901, 0.48322833, 0.3406828, -0.6460251, 0.48278084, 9.387974739074707, -3.0764548778533936, -0.7473675012588501, 2.3718063831329346, 1.6662406921386719, -0.7429476380348206, -0.72412109375, 0.39892578125, -0.555419921875, 0, 
41, 272082568, 0.48342246, 0.34059122, -0.6458586, 0.4828737, 9.36121654510498, -3.0095863342285156, -0.7707929611206055, 1.509465217590332, 2.042644739151001, -0.8882613182067871, -0.724853515625, 0.40087890625, -0.55810546875, 0, 
42, 272099235, 0.48366326, 0.34042194, -0.64586776, 0.48273975, 9.368383407592773, -2.9415712356567383, -0.7582738995552063, -0.1291264146566391, 1.292435884475708, -1.0576252937316895, -0.722900390625, 0.399658203125, -0.5595703125, 0, 
43, 272115902, 0.48391256, 0.340266, -0.64603716, 0.48237306, 9.384392738342285, -2.991318941116333, -0.7554513812065125, -2.146728277206421, 0.3494788408279419, -1.4888789653778076, -0.72412109375, 0.398681640625, -0.556884765625, 0, 
44, 272132569, 0.48414427, 0.34018448, -0.6461674, 0.48202342, 9.458245277404785, -3.086582660675049, -0.7359700798988342, -1.3580942153930664, 0.09754596650600433, -1.8082375526428223, -0.726806640625, 0.40185546875, -0.55810546875, 0, 
45, 272149236, 0.4843099, 0.34030074, -0.6460703, 0.48190507, 9.466896057128906, -3.0696983337402344, -0.750292956829071, 0.9004080295562744, 0.5362338423728943, -2.217522144317627, -0.7275390625, 0.39892578125, -0.552734375, 0, 
46, 272165903, 0.48445186, 0.34048015, -0.64589643, 0.48186886, 9.436880111694336, -2.979445219039917, -0.8156875967979431, 2.173717737197876, 0.5422528386116028, -2.357008695602417, -0.725341796875, 0.400146484375, -0.55712890625, 0, 
47, 272182570, 0.48466206, 0.34058198, -0.64580137, 0.48171282, 9.42071533203125, -2.9255001544952393, -0.8391391634941101, 1.0028460025787354, 0.5558276176452637, -2.4448986053466797, -0.724365234375, 0.395751953125, -0.556884765625, 0, 
48, 272199237, 0.4848447, 0.34070316, -0.64572424, 0.48154667, 9.446878433227539, -2.9481472969055176, -0.8270230889320374, 0.30989447236061096, 0.5174981951713562, -2.360914707183838, -0.728515625, 0.399658203125, -0.560791015625, 0, 
49, 272215904, 0.48504728, 0.34083498, -0.6456386, 0.4813642, 9.459933280944824, -2.9836318492889404, -0.8111549615859985, 0.6311417818069458, 0.4560917615890503, -2.5595924854278564, -0.72412109375, 0.396240234375, -0.55615234375, 0, 
50, 272232571, 0.48516998, 0.34107146, -0.645367, 0.48143739, 9.49531078338623, -2.953514337539673, -0.8291444182395935, 2.634669780731201, 1.0660839080810547, -2.3186538219451904, -0.72705078125, 0.3974609375, -0.559814453125, 0, 
51, 272249238, 0.4853676, 0.34123963, -0.6450184, 0.48158637, 9.443534851074219, -2.8802387714385986, -0.839542031288147, 3.555126190185547, 1.842840313911438, -2.228829860687256, -0.723388671875, 0.395263671875, -0.555908203125, 0, 
52, 272265905, 0.48554316, 0.3413925, -0.6447301, 0.4816868, 9.429465293884277, -2.8079023361206055, -0.8910455107688904, 2.2371091842651367, 1.7672441005706787, -2.025362730026245, -0.727783203125, 0.3955078125, -0.55712890625, 0, 
53, 272282572, 0.48583645, 0.34139693, -0.6445653, 0.48160854, 9.399333953857422, -2.8450241088867188, -0.848930299282074, 0.7075315713882446, 1.835540533065796, -2.0651774406433105, -0.72412109375, 0.397216796875, -0.55859375, 0, 
54, 272299239, 0.4861139, 0.34146008, -0.6444066, 0.48149636, 9.372625350952148, -2.9646990299224854, -0.7704492211341858, 0.9877216815948486, 1.4176692962646484, -2.3660624027252197, -0.723388671875, 0.3974609375, -0.560302734375, 0, 
55, 272315906, 0.4862381, 0.34179977, -0.6440175, 0.48165023, 9.379469871520996, -2.9945318698883057, -0.7596439719200134, 3.792696475982666, 1.3444937467575073, -2.7114627361297607, -0.727294921875, 0.395263671875, -0.559814453125, 0, 
56, 272332573, 0.48630986, 0.3422714, -0.64348817, 0.48195046, 9.362210273742676, -2.9296624660491943, -0.741958737373352, 5.660401344299316, 1.4258785247802734, -2.986262083053589, -0.7265625, 0.39208984375, -0.560302734375, 0, 
57, 272349240, 0.4863269, 0.34279302, -0.64304125, 0.48215887, 9.415292739868164, -2.942702531814575, -0.7190433144569397, 5.214226245880127, 0.5392561554908752, -3.135327100753784, -0.726806640625, 0.392333984375, -0.5625, 0, 
58, 272365907, 0.48625508, 0.3433721, -0.64264506, 0.4823475, 9.569938659667969, -3.05041241645813, -0.7169704437255859, 5.265343189239502, -0.23753856122493744, -3.0374038219451904, -0.72607421875, 0.392578125, -0.564208984375, 0, 
59, 272382574, 0.48617128, 0.34395158, -0.6422306, 0.48257113, 9.5895414352417, -3.0926504135131836, -0.7088040709495544, 5.979983329772949, -0.29667192697525024, -2.9677438735961914, -0.7265625, 0.391357421875, -0.564697265625, 0, 
60, 272399241, 0.48599783, 0.34462255, -0.64177966, 0.48286685, 9.640849113464355, -3.0499308109283447, -0.7156166434288025, 6.637973308563232, -0.6228240132331848, -2.917530059814453, -0.724365234375, 0.392578125, -0.563232421875, 0, 
61, 272415908, 0.48583144, 0.34524834, -0.64134365, 0.48316652, 9.657689094543457, -2.9743387699127197, -0.8049938082695007, 6.810846328735352, -0.5998238325119019, -2.724973678588867, -0.727294921875, 0.388427734375, -0.5634765625, 0, 
62, 272432575, 0.4856548, 0.3458891, -0.6408369, 0.48355794, 9.649062156677246, -3.0041182041168213, -0.8460835218429565, 7.334216117858887, -0.17843089997768402, -2.605003833770752, -0.728271484375, 0.389404296875, -0.56298828125, 0, 
63, 272449242, 0.4854954, 0.346439, -0.64025295, 0.4840977, 9.597065925598145, -2.9990158081054688, -0.8471401929855347, 8.092288970947266, 0.7662744522094727, -1.9654676914215088, -0.7275390625, 0.388916015625, -0.567626953125, 0, 
64, 272465909, 0.4853684, 0.3468603, -0.6396661, 0.4846987, 9.500752449035645, -2.836333990097046, -0.8227381110191345, 7.391768932342529, 1.6459555625915527, -1.2845667600631714, -0.721923828125, 0.388671875, -0.56884765625, 0, 
65, 272482576, 0.48548603, 0.34690294, -0.63942707, 0.48486593, 9.459357261657715, -2.75679087638855, -0.7624439001083374, 2.7969257831573486, 1.7057353258132935, -1.0595333576202393, -0.72705078125, 0.38818359375, -0.56982421875, 0, 
66, 272499243, 0.48575214, 0.34661722, -0.6394481, 0.4847758, 9.476244926452637, -2.85136342048645, -0.7523316144943237, -0.6570169925689697, 1.9758981466293335, -0.3302117586135864, -0.723876953125, 0.39111328125, -0.569091796875, 0, 
67, 272515910, 0.48609897, 0.34622204, -0.63940513, 0.48476747, 9.455880165100098, -2.9751291275024414, -0.7512511014938354, -0.3569130003452301, 3.024463176727295, -0.005775664001703262, -0.726806640625, 0.390380859375, -0.570556640625, 0, 
68, 272532577, 0.48636496, 0.34593862, -0.63930947, 0.484829, 9.486039161682129, -2.887787342071533, -0.7553583383560181, 0.3941282629966736, 2.7301218509674072, -0.11000654101371765, -0.724609375, 0.388427734375, -0.57080078125, 0, 
69, 272549244, 0.48680106, 0.3455246, -0.63922894, 0.48479262, 9.494706153869629, -2.708514451980591, -0.798797070980072, -1.0516319274902344, 3.672022819519043, -0.3834734261035919, -0.723388671875, 0.39013671875, -0.5732421875, 0, 
70, 272565911, 0.48731145, 0.3448953, -0.63925153, 0.48469815, 9.540305137634277, -2.761838436126709, -0.6639971733093262, -2.5141429901123047, 4.234989643096924, 0.38943472504615784, -0.724609375, 0.39013671875, -0.5703125, 0, 
71, 272582578, 0.48778963, 0.3442957, -0.63942325, 0.48441684, 9.466819763183594, -2.9532456398010254, -0.534092903137207, -3.769062042236328, 3.080765724182129, 0.11761991679668427, -0.721923828125, 0.391357421875, -0.56884765625, 0, 
72, 272599245, 0.4880894, 0.3440678, -0.6394309, 0.4842669, 9.463980674743652, -2.927121639251709, -0.5661110877990723, -0.9317516684532166, 1.8885267972946167, -0.8780801892280579, -0.724365234375, 0.390625, -0.5693359375, 0, 
73, 272615912, 0.48819596, 0.34429392, -0.63904995, 0.48450172, 9.422037124633789, -3.12455677986145, -0.5864253640174866, 3.962855339050293, 1.7503657341003418, -1.858675479888916, -0.72265625, 0.391357421875, -0.56982421875, 0, 
74, 272632579, 0.48807108, 0.3450712, -0.63831323, 0.48504522, 9.313773155212402, -3.13899827003479, -0.6482771635055542, 9.135714530944824, 0.7436330318450928, -3.354189157485962, -0.721435546875, 0.388916015625, -0.5712890625, 0, 
75, 272649246, 0.48772556, 0.34622815, -0.6373475, 0.48583764, 9.386693954467773, -2.8952977657318115, -0.6079781651496887, 12.756060600280762, -0.12326118350028992, -4.021785259246826, -0.720703125, 0.3876953125, -0.57470703125, 0, 
76, 272665913, 0.4873057, 0.3473063, -0.63664323, 0.4864124, 9.4453125, -3.0129685401916504, -0.5280994176864624, 10.822439193725586, -1.5781270265579224, -3.5374226570129395, -0.72119140625, 0.38720703125, -0.5693359375, 0, 
77, 272682580, 0.48674676, 0.3485707, -0.63590664, 0.4870308, 9.49600601196289, -3.0735132694244385, -0.6858852505683899, 12.276602745056152, -2.6676793098449707, -3.844801425933838, -0.725830078125, 0.386962890625, -0.5771484375, 0, 
78, 272699247, 0.4861118, 0.34998477, -0.63497156, 0.48787037, 9.519491195678711, -3.0817978382110596, -0.7106280326843262, 14.454108238220215, -2.262371301651001, -3.9921517372131348, -0.723876953125, 0.38623046875, -0.57421875, 0, 
79, 272715914, 0.48543417, 0.35139066, -0.6340762, 0.48869815, 9.541007995605469, -2.9327380657196045, -0.7240501046180725, 14.62459659576416, -2.6566927433013916, -3.7926299571990967, -0.72314453125, 0.383544921875, -0.578857421875, 0, 
80, 272732581, 0.48477757, 0.3527087, -0.6330811, 0.4896895, 9.61558723449707, -2.798809051513672, -0.6934356093406677, 15.202333450317383, -1.4949887990951538, -3.1733646392822266, -0.723876953125, 0.381103515625, -0.5791015625, 0, 
81, 272749248, 0.48433962, 0.35362262, -0.6323744, 0.49037632, 9.601195335388184, -2.7222883701324463, -0.655979573726654, 11.068232536315918, -0.8882616758346558, -2.4578728675842285, -0.72265625, 0.38037109375, -0.58056640625, 0, 
82, 272765915, 0.48413083, 0.3541441, -0.6319831, 0.49071062, 9.588529586791992, -2.7387535572052, -0.6595129370689392, 6.65715217590332, -0.486878365278244, -1.920050024986267, -0.721923828125, 0.380615234375, -0.580322265625, 0, 
83, 272782582, 0.48401803, 0.35448295, -0.63182056, 0.4907865, 9.50092887878418, -2.886467695236206, -0.6366105675697327, 3.9121479988098145, -0.8363379240036011, -1.7408760786056519, -0.725341796875, 0.379638671875, -0.580810546875, 0, 
84, 272799249, 0.4836981, 0.35504484, -0.63153386, 0.49106452, 9.503857612609863, -3.0176095962524414, -0.6087939739227295, 6.425266265869141, -1.571819543838501, -1.6434581279754639, -0.72412109375, 0.378662109375, -0.580322265625, 0, 
85, 272815916, 0.48324272, 0.35599235, -0.63083, 0.49173123, 9.475061416625977, -3.0112369060516357, -0.6016717553138733, 11.114636421203613, -1.119038462638855, -2.601181983947754, -0.723876953125, 0.378662109375, -0.5810546875, 0, 
86, 272832583, 0.48255995, 0.35739648, -0.62984616, 0.49264362, 9.443142890930176, -2.971165180206299, -0.5649003982543945, 15.206507682800293, -2.121309518814087, -3.6986687183380127, -0.724365234375, 0.37646484375, -0.581787109375, 0, 
87, 272849250, 0.4817155, 0.3590076, -0.62896854, 0.49341935, 9.441068649291992, -2.901813268661499, -0.5266382098197937, 15.448832511901855, -4.244809627532959, -4.260753154754639, -0.726806640625, 0.376220703125, -0.581298828125, 0, 
88, 272865917, 0.48074713, 0.3608286, -0.6280492, 0.4942057, 9.479985237121582, -2.919443368911743, -0.5499181151390076, 16.640867233276367, -5.334812164306641, -4.825041770935059, -0.723876953125, 0.372314453125, -0.583740234375, 0, 
89, 272882584, 0.47954425, 0.3629922, -0.6268863, 0.49526533, 9.517081260681152, -3.054857015609741, -0.6034955382347107, 20.365480422973633, -6.0345025062561035, -5.220734596252441, -0.7255859375, 0.370849609375, -0.582763671875, 0, 
90, 272899251, 0.47826973, 0.36531594, -0.62549657, 0.49654436, 9.545345306396484, -2.907376527786255, -0.6098334193229675, 22.785852432250977, -5.591519355773926, -5.532008647918701, -0.7275390625, 0.370361328125, -0.585205078125, 0, 
91, 272915918, 0.4770838, 0.36754668, -0.6241905, 0.49768135, 9.574638366699219, -2.7677054405212402, -0.6813886165618896, 21.373714447021484, -5.527281761169434, -5.70176887512207, -0.728759765625, 0.365478515625, -0.58740234375, 0, 
92, 272932585, 0.47610104, 0.36949188, -0.6230626, 0.49859467, 9.548360824584961, -2.6664745807647705, -0.7305885553359985, 18.39094352722168, -4.830792427062988, -5.455461502075195, -0.7275390625, 0.364501953125, -0.587158203125, 0, 
93, 272949252, 0.47524142, 0.3711756, -0.62218314, 0.4992623, 9.569951057434082, -2.6001598834991455, -0.7638545632362366, 15.282244682312012, -4.8210835456848145, -4.920192241668701, -0.729736328125, 0.3623046875, -0.590087890625, 0, 
94, 272965919, 0.47466338, 0.37234652, -0.6216481, 0.4996065, 9.550711631774902, -2.681091070175171, -0.8558911085128784, 10.31454086303711, -3.7903225421905518, -3.858452558517456, -0.728759765625, 0.360107421875, -0.58935546875, 0, 
95, 272982586, 0.47418845, 0.3732588, -0.62132066, 0.49978387, 9.513175010681152, -2.792349100112915, -0.830166757106781, 7.817720890045166, -3.552635669708252, -3.1157472133636475, -0.72900390625, 0.360595703125, -0.593505859375, 0, 
96, 272999253, 0.4737415, 0.3740219, -0.62089866, 0.5001617, 9.552149772644043, -2.8578126430511475, -0.916912853717804, 8.436907768249512, -2.076665163040161, -2.1700875759124756, -0.729248046875, 0.359619140625, -0.591796875, 0, 
97, 273015920, 0.4734129, 0.3745535, -0.620518, 0.5005471, 9.557770729064941, -2.7241287231445312, -0.7699653506278992, 7.235672950744629, -0.8557205200195312, -1.4633820056915283, -0.7294921875, 0.36083984375, -0.59228515625, 0, 
98, 273032587, 0.47332612, 0.37472692, -0.6204247, 0.5006152, 9.513463973999023, -2.667809247970581, -0.7407991886138916, 3.141493320465088, -0.3399829566478729, -1.061863899230957, -0.7314453125, 0.356201171875, -0.593505859375, 0, 
99, 273049254, 0.4733389, 0.37465554, -0.6207292, 0.50027865, 9.52624797821045, -2.832209587097168, -0.7186404466629028, -0.9358048439025879, -1.417669415473938, -0.6506074070930481, -0.728759765625, 0.35791015625, -0.59130859375, 0, 
100, 273065921, 0.47329924, 0.3746469, -0.6209526, 0.5000455, 9.559226036071777, -2.9507997035980225, -0.6206722855567932, 0.010552431456744671, -1.2865065336227417, -0.6131359934806824, -0.730712890625, 0.357666015625, -0.590087890625, 0, 
101, 273082588, 0.47304416, 0.3749948, -0.6206992, 0.50034064, 9.551276206970215, -3.0186517238616943, -0.565189778804779, 5.699651718139648, -0.5410298705101013, -0.9242727160453796, -0.730224609375, 0.357666015625, -0.58984375, 0, 
102, 273099255, 0.47258303, 0.37570617, -0.6201513, 0.5009221, 9.467435836791992, -2.846686363220215, -0.6171051263809204, 9.643003463745117, -0.9773232340812683, -1.6158863306045532, -0.731201171875, 0.358154296875, -0.5908203125, 0, 
103, 273115922, 0.472082, 0.3764483, -0.6197192, 0.50137186, 9.437201499938965, -2.7470755577087402, -0.6016731858253479, 8.837817192077637, -1.9564647674560547, -1.7471961975097656, -0.72998046875, 0.357421875, -0.591796875, 0, 
104, 273132589, 0.4716774, 0.3770166, -0.6194883, 0.5016105, 9.526668548583984, -2.8409183025360107, -0.6028123497962952, 6.468207359313965, -2.1566219329833984, -1.5084028244018555, -0.72900390625, 0.355224609375, -0.59130859375, 0, 
105, 273149256, 0.47124624, 0.37758172, -0.61918896, 0.5019602, 9.554339408874512, -2.9317359924316406, -0.6515416502952576, 7.265927314758301, -1.7592662572860718, -1.2320157289505005, -0.731689453125, 0.355712890625, -0.593017578125, 0, 
106, 273165923, 0.47082627, 0.37814596, -0.6188526, 0.5023444, 9.570853233337402, -2.809880018234253, -0.6709498763084412, 7.469951629638672, -1.4844353199005127, -1.2639869451522827, -0.72802734375, 0.353271484375, -0.593505859375, 0, 
107, 273182590, 0.4705512, 0.37852463, -0.6185922, 0.50263745, 9.545552253723145, -2.6560487747192383, -0.7244090437889099, 5.835400104522705, -0.703516960144043, -1.0783332586288452, -0.734130859375, 0.354248046875, -0.59228515625, 0, 
108, 273199257, 0.4703879, 0.37871757, -0.6185857, 0.5026532, 9.544439315795898, -2.667839527130127, -0.7269951105117798, 2.9251108169555664, -1.1311527490615845, -0.907669186592102, -0.73291015625, 0.352783203125, -0.593505859375, 0, 
109, 273215924, 0.470309, 0.37875992, -0.61876494, 0.5024743, 9.527213096618652, -2.7539355754852295, -0.722501814365387, 0.7500295639038086, -1.3500261306762695, -0.7006674408912659, -0.731201171875, 0.35498046875, -0.59228515625, 0, 
110, 273232591, 0.4701566, 0.3788575, -0.61889386, 0.5023844, 9.52541446685791, -2.902801990509033, -0.6991536021232605, 1.657654047012329, -1.4454976320266724, -0.5257583260536194, -0.734130859375, 0.35400390625, -0.591064453125, 0, 
111, 273249258, 0.47002658, 0.37901372, -0.6187868, 0.5025203, 9.498111724853516, -2.8623697757720947, -0.7301986813545227, 3.5464115142822266, -0.19036000967025757, -0.7505097985267639, -0.7294921875, 0.354248046875, -0.593017578125, 0, 
112, 273265925, 0.46984184, 0.37924042, -0.6185678, 0.50279176, 9.477653503417969, -2.7438137531280518, -0.7027619481086731, 4.994246482849121, 0.02566392719745636, -0.7328370213508606, -0.734619140625, 0.35546875, -0.5908203125, 0, 
113, 273282592, 0.46969157, 0.37938482, -0.61845845, 0.50295734, 9.45511531829834, -2.7247750759124756, -0.6725924015045166, 3.7703566551208496, -0.1552194058895111, -0.55723637342453, -0.734619140625, 0.35400390625, -0.5927734375, 0, 
114, 273299259, 0.4695651, 0.37946907, -0.61846036, 0.5030095, 9.48629379272461, -2.7665653228759766, -0.6336237192153931, 2.641348123550415, -0.4956505596637726, -0.4605995714664459, -0.732666015625, 0.352783203125, -0.5927734375, 0, 
115, 273315926, 0.46935552, 0.37974426, -0.61829835, 0.5031966, 9.525403022766113, -2.8663434982299805, -0.679114580154419, 4.652125358581543, -0.6358161568641663, -0.9837519526481628, -0.73486328125, 0.353271484375, -0.5908203125, 0, 
116, 273332593, 0.46903107, 0.38023755, -0.6179151, 0.5035972, 9.540599822998047, -2.8116888999938965, -0.7095656991004944, 7.314976215362549, -0.6002914309501648, -1.4111769199371338, -0.73583984375, 0.350830078125, -0.59521484375, 0, 
117, 273349260, 0.46871787, 0.380762, -0.61740106, 0.504123, 9.53404712677002, -2.749870777130127, -0.7517794966697693, 8.431305885314941, 0.08041109144687653, -1.5306087732315063, -0.7333984375, 0.350341796875, -0.593017578125, 0, 
118, 273365927, 0.4683654, 0.38139382, -0.6168596, 0.5046354, 9.520085334777832, -2.819795608520508, -0.6668981313705444, 8.865467071533203, -0.38111069798469543, -1.9638478755950928, -0.73388671875, 0.351806640625, -0.592041015625, 0, 
119, 273382594, 0.46796846, 0.38204294, -0.6163199, 0.5051719, 9.578474044799805, -2.7803492546081543, -0.6051198840141296, 9.118956565856934, -0.5630889534950256, -1.808237910270691, -0.73388671875, 0.353271484375, -0.594482421875, 0, 
120, 273399261, 0.46769834, 0.38250795, -0.6158968, 0.5055862, 9.58421802520752, -2.7262935638427734, -0.5776491761207581, 7.25894832611084, -0.0802382081747055, -1.5577455759048462, -0.7373046875, 0.351318359375, -0.59521484375, 0, 
121, 273415928, 0.46751782, 0.3828348, -0.6155773, 0.5058944, 9.533483505249023, -2.717317819595337, -0.6130571365356445, 5.744692325592041, 0.17302019894123077, -1.3524787425994873, -0.736328125, 0.3486328125, -0.594482421875, 0, 
122, 273432595, 0.46732587, 0.38316482, -0.6153158, 0.5061401, 9.49899673461914, -2.816706657409668, -0.6145606637001038, 5.376221179962158, -0.25192010402679443, -1.377124547958374, -0.733642578125, 0.3505859375, -0.595703125, 0, 
123, 273449262, 0.46705118, 0.38357854, -0.61496484, 0.5065066, 9.506433486938477, -2.9196627140045166, -0.6035030484199524, 6.681585788726807, -0.2840256690979004, -1.3001841306686401, -0.734619140625, 0.344970703125, -0.595458984375, 0, 
124, 273465929, 0.46667746, 0.3841821, -0.614438, 0.5070328, 9.573719024658203, -2.9736745357513428, -0.5730030536651611, 8.893360137939453, -0.39214974641799927, -1.7253040075302124, -0.73486328125, 0.34765625, -0.59912109375, 0, 
125, 273482596, 0.46622643, 0.3848725, -0.6137899, 0.5077087, 9.5682954788208, -2.8957791328430176, -0.5420621037483215, 10.415318489074707, -0.23399771749973297, -1.6791820526123047, -0.734619140625, 0.346435546875, -0.598388671875, 0, 
126, 273499263, 0.4657774, 0.3854745, -0.6132189, 0.50835377, 9.603466033935547, -2.818166732788086, -0.573773980140686, 9.743508338928223, -0.2527141571044922, -1.2210921049118042, -0.73291015625, 0.3447265625, -0.59619140625, 0, 
127, 273515930, 0.46539536, 0.38591546, -0.61270976, 0.5089827, 9.612934112548828, -2.842233419418335, -0.6041101813316345, 8.731012344360352, 0.3599737286567688, -0.6679344773292542, -0.735107421875, 0.34619140625, -0.597412109375, 0, 
128, 273532597, 0.46496925, 0.3863352, -0.6120684, 0.5098247, 9.64109992980957, -2.90676212310791, -0.589364767074585, 10.09196949005127, 1.2523716688156128, -0.09883302450180054, -0.731689453125, 0.34521484375, -0.600341796875, 0, 
129, 273549264, 0.46459392, 0.3865301, -0.61150295, 0.510697, 9.596774101257324, -2.8337509632110596, -0.6183183789253235, 9.17247486114502, 2.072401285171509, 0.9544575810432434, -0.732421875, 0.345458984375, -0.601806640625, 0, 
130, 273565931, 0.4642794, 0.3865533, -0.61107516, 0.5114765, 9.630037307739258, -2.8507580757141113, -0.6151953935623169, 7.555209636688232, 2.2574779987335205, 1.528745412826538, -0.73046875, 0.345703125, -0.60595703125, 0, 
131, 273582598, 0.4640479, 0.38639888, -0.6107071, 0.5122423, 9.649171829223633, -2.8243749141693115, -0.6020759344100952, 6.510378360748291, 3.0052027702331543, 2.0917255878448486, -0.731689453125, 0.34619140625, -0.60302734375, 0, 
132, 273599265, 0.4639347, 0.38603124, -0.61042416, 0.5129589, 9.64109992980957, -2.784123420715332, -0.5386769771575928, 5.0049147605896, 3.8550193309783936, 2.6380701065063477, -0.728271484375, 0.3466796875, -0.602783203125, 0, 
133, 273615932, 0.46390924, 0.38547698, -0.61024237, 0.5136148, 9.64894962310791, -2.7552640438079834, -0.5770576000213623, 3.52872633934021, 4.407485485076904, 3.1882052421569824, -0.7275390625, 0.347900390625, -0.604248046875, 0, 
134, 273632599, 0.46395904, 0.38477117, -0.6101638, 0.5141921, 9.629769325256348, -2.7770063877105713, -0.5530840754508972, 2.1689987182617188, 4.721343040466309, 3.585995674133301, -0.723876953125, 0.35009765625, -0.604248046875, 0, 
135, 273649266, 0.464056, 0.38393036, -0.6101111, 0.51479536, 9.609186172485352, -2.7912981510162354, -0.5992332696914673, 1.5762444734573364, 5.401873588562012, 4.141689777374268, -0.723876953125, 0.348876953125, -0.607177734375, 0, 
136, 273665933, 0.46421787, 0.3829883, -0.6100828, 0.5153841, 9.594339370727539, -2.7734909057617188, -0.573674201965332, 0.9846293330192566, 5.908710479736328, 4.354941368103027, -0.7216796875, 0.354248046875, -0.608642578125, 0, 
137, 273682600, 0.464405, 0.38201767, -0.61011636, 0.51589596, 9.582752227783203, -2.771901845932007, -0.5316916108131409, 0.2461508959531784, 5.734005451202393, 4.310335636138916, -0.722412109375, 0.353759765625, -0.60546875, 0, 
138, 273699267, 0.4645973, 0.38107118, -0.6101614, 0.5163693, 9.545855522155762, -2.8283891677856445, -0.5329601764678955, 0.12338919937610626, 5.532215595245361, 4.102540016174316, -0.723388671875, 0.35595703125, -0.606201171875, 0, 
139, 273715934, 0.46469602, 0.38027138, -0.6100654, 0.5169835, 9.527320861816406, -2.8867318630218506, -0.5567412376403809, 1.9629833698272705, 5.4353108406066895, 3.9009435176849365, -0.720703125, 0.358642578125, -0.605712890625, 0, 
140, 273732601, 0.46471366, 0.37959138, -0.6098454, 0.51772606, 9.527548789978027, -2.8438880443573, -0.5113363862037659, 3.5053551197052, 5.418022632598877, 3.7718682289123535, -0.722412109375, 0.35693359375, -0.608154296875, 0, 
141, 273749268, 0.46473676, 0.3788954, -0.60963297, 0.518465, 9.49911117553711, -2.8164591789245605, -0.5335386395454407, 3.5195698738098145, 5.4349517822265625, 3.8267176151275635, -0.719970703125, 0.35595703125, -0.6103515625, 0, 
142, 273765935, 0.4647751, 0.37819007, -0.60943174, 0.51918143, 9.514257431030273, -2.88686203956604, -0.47401976585388184, 3.28555965423584, 5.453815937042236, 3.774813413619995, -0.716796875, 0.35888671875, -0.609619140625, 0, 
143, 273782602, 0.4647592, 0.37761486, -0.60916376, 0.5199284, 9.529458045959473, -2.9943907260894775, -0.3672967255115509, 4.220947742462158, 5.057651042938232, 3.3471195697784424, -0.71728515625, 0.36083984375, -0.6123046875, 0, 
144, 273799269, 0.46466514, 0.37718943, -0.6087974, 0.52074975, 9.515279769897461, -2.9974899291992188, -0.18906307220458984, 5.556419849395752, 4.704324245452881, 2.9776432514190674, -0.71484375, 0.360595703125, -0.61181640625, 0, 
145, 273815936, 0.46456173, 0.37679896, -0.6084286, 0.52155524, 9.535530090332031, -2.975131034851074, -0.23303012549877167, 5.616250991821289, 4.499139785766602, 2.802900791168213, -0.712646484375, 0.365478515625, -0.612548828125, 0, 
146, 273832603, 0.46442726, 0.3764849, -0.60798705, 0.52241576, 9.521395683288574, -3.0597329139709473, -0.21851280331611633, 6.333266258239746, 4.491776466369629, 2.5822088718414307, -0.71044921875, 0.362548828125, -0.613525390625, 0, 
147, 273849270, 0.46420103, 0.37626782, -0.60747963, 0.5233628, 9.584051132202148, -3.07331919670105, -0.2440362274646759, 7.50152587890625, 4.180851936340332, 2.6041080951690674, -0.709716796875, 0.365966796875, -0.61328125, 0, 
148, 273865937, 0.46398976, 0.3759608, -0.6068617, 0.52448636, 9.662803649902344, -3.072983503341675, -0.21196097135543823, 8.287632942199707, 5.377631187438965, 3.197272777557373, -0.71337890625, 0.363525390625, -0.6162109375, 0, 
149, 273882604, 0.46378168, 0.37562418, -0.6061393, 0.5257455, 9.68404769897461, -3.0849251747131348, -0.15429475903511047, 9.190071105957031, 6.156373500823975, 3.467179775238037, -0.7080078125, 0.36572265625, -0.6181640625, 0, 
150, 273899271, 0.4635937, 0.3752178, -0.60543245, 0.5270143, 9.645384788513184, -3.099667549133301, -0.09532292932271957, 8.859987258911133, 6.471179008483887, 3.753849744796753, -0.7080078125, 0.36572265625, -0.623779296875, 0, 
151, 273915938, 0.46344012, 0.3746963, -0.6047875, 0.5282596, 9.616727828979492, -3.1287217140197754, -0.10220853984355927, 8.184002876281738, 6.730956554412842, 4.188152313232422, -0.705322265625, 0.36865234375, -0.6220703125, 0, 
152, 273932605, 0.46319452, 0.3742761, -0.6039715, 0.5297046, 9.613836288452148, -3.1377899646759033, -0.18712995946407318, 9.051218032836914, 7.381052494049072, 4.304978370666504, -0.704833984375, 0.368408203125, -0.623291015625, 0, 
153, 273949272, 0.46297413, 0.37382215, -0.6029484, 0.53138053, 9.612059593200684, -3.0329527854919434, -0.24412532150745392, 10.59358024597168, 8.861519813537598, 4.550477027893066, -0.701904296875, 0.36767578125, -0.625, 0, 
154, 273965939, 0.46280712, 0.37325948, -0.60193586, 0.53306675, 9.581064224243164, -2.918530225753784, -0.25377020239830017, 10.117358207702637, 9.47702693939209, 4.866007328033447, -0.69873046875, 0.37255859375, -0.6279296875, 0, 
155, 273982606, 0.46276122, 0.372479, -0.601, 0.53470623, 9.621302604675293, -3.015131950378418, -0.24976623058319092, 8.644330024719238, 10.418869972229004, 5.379887580871582, -0.694580078125, 0.373779296875, -0.62939453125, 0, 
156, 273999273, 0.4627962, 0.37158465, -0.6000936, 0.53631353, 9.535710334777832, -3.088970184326172, -0.18520648777484894, 7.839169502258301, 11.0048246383667, 5.5301833152771, -0.69140625, 0.376220703125, -0.633056640625, 0, 
157, 274015940, 0.46280915, 0.37076157, -0.5991215, 0.5379564, 9.465625762939453, -3.031358003616333, -0.1403479278087616, 8.515326499938965, 10.958357810974121, 5.261806964874268, -0.69287109375, 0.37548828125, -0.632568359375, 0, 
158, 274032607, 0.46289855, 0.36993372, -0.5980856, 0.5395996, 9.42844295501709, -3.004030704498291, -0.08047089725732803, 8.546101570129395, 11.50041389465332, 4.839953422546387, -0.690185546875, 0.3779296875, -0.636474609375, 0, 
159, 274049274, 0.46307144, 0.36904603, -0.5971262, 0.5411195, 9.4160737991333, -2.955233335494995, -0.0238446407020092, 7.356831073760986, 11.513174057006836, 4.583703517913818, -0.685791015625, 0.380615234375, -0.640869140625, 0, 
160, 274065941, 0.4633045, 0.36808732, -0.59625334, 0.5425336, 9.461160659790039, -3.026843309402466, -0.044863224029541016, 6.224107265472412, 11.483691215515137, 4.541800022125244, -0.680419921875, 0.38134765625, -0.640380859375, 0, 
161, 274082608, 0.46355262, 0.36714834, -0.5953119, 0.54398984, 9.452754974365234, -3.1276490688323975, -0.008456934243440628, 6.682921409606934, 11.804401397705078, 4.371181488037109, -0.677978515625, 0.38232421875, -0.64111328125, 0, 
162, 274099275, 0.46376878, 0.3663301, -0.5942584, 0.545507, 9.441747665405273, -3.11303973197937, 0.040503330528736115, 7.819901466369629, 11.73963451385498, 3.9081361293792725, -0.677490234375, 0.383056640625, -0.6435546875, 0, 
163, 274115942, 0.4640234, 0.36546832, -0.59323454, 0.5469808, 9.430490493774414, -3.0607123374938965, 0.03169433772563934, 7.299306392669678, 11.861597061157227, 3.880596399307251, -0.673583984375, 0.38623046875, -0.650146484375, 0, 
164, 274132609, 0.4643533, 0.3645219, -0.59224737, 0.5484004, 9.436394691467285, -3.008136034011841, 0.03600381314754486, 6.486639022827148, 12.242366790771484, 3.8668415546417236, -0.67333984375, 0.38818359375, -0.64892578125, 0, 
165, 274149276, 0.4648004, 0.36343628, -0.5914788, 0.54957044, 9.408370971679688, -3.04014253616333, 0.013437634333968163, 3.9121501445770264, 11.931657791137695, 3.75392746925354, -0.670166015625, 0.385986328125, -0.654541015625, 0, 
166, 274165943, 0.46528387, 0.36234322, -0.5908013, 0.55061096, 9.431121826171875, -3.1678802967071533, 0.040723443031311035, 2.934333086013794, 11.508162498474121, 3.468576192855835, -0.663330078125, 0.38671875, -0.654052734375, 0, 
167, 274182610, 0.46573442, 0.3613283, -0.5900667, 0.55168337, 9.428220748901367, -3.1953556537628174, 0.0666365996003151, 3.617091417312622, 11.353745460510254, 3.2382922172546387, -0.66650390625, 0.388916015625, -0.65576171875, 0, 
168, 274199277, 0.46615297, 0.36043012, -0.5893413, 0.5526922, 9.4185152053833, -3.1365716457366943, 0.053319815546274185, 3.7844960689544678, 10.608260154724121, 2.7060341835021973, -0.664794921875, 0.39208984375, -0.65771484375, 0, 
169, 274215944, 0.46657723, 0.35951987, -0.58868045, 0.5536306, 9.427558898925781, -3.1471951007843018, 0.06132763996720314, 3.206045150756836, 10.311894416809082, 2.6729297637939453, -0.659912109375, 0.392578125, -0.660400390625, 0, 
170, 274232611, 0.467028, 0.3585963, -0.58803993, 0.5545293, 9.42288589477539, -3.138373613357544, 0.07078390568494797, 2.8680598735809326, 10.324712753295898, 2.5542402267456055, -0.658203125, 0.3935546875, -0.662353515625, 0, 
171, 274249278, 0.46753138, 0.35765967, -0.5874601, 0.5553241, 9.346575736999512, -3.1523499488830566, 0.11164005100727081, 2.0516035556793213, 10.154581069946289, 2.2280237674713135, -0.65478515625, 0.394287109375, -0.665283203125, 0, 
172, 274265945, 0.46804333, 0.3567338, -0.5869757, 0.5560002, 9.327377319335938, -3.2122628688812256, 0.15135298669338226, 1.2273480892181396, 9.566230773925781, 2.0100979804992676, -0.652099609375, 0.396240234375, -0.66455078125, 0, 
173, 274282612, 0.46852773, 0.35583907, -0.58650804, 0.5566587, 9.317376136779785, -3.214839220046997, 0.20619024336338043, 1.2660744190216064, 9.255060195922852, 1.9768909215927124, -0.6474609375, 0.399658203125, -0.6650390625, 0, 
174, 274299279, 0.4690239, 0.35496768, -0.5860919, 0.55723506, 9.323676109313965, -3.178830623626709, 0.21738894283771515, 0.7907538414001465, 8.861740112304688, 1.7000946998596191, -0.64794921875, 0.397705078125, -0.668701171875, 0, 
175, 274315946, 0.469429, 0.35424355, -0.5856597, 0.55780894, 9.308937072753906, -3.276310443878174, 0.2998921573162079, 1.5440363883972168, 7.98989725112915, 1.4125791788101196, -0.64794921875, 0.395751953125, -0.67041015625, 0, 
176, 274332613, 0.46974453, 0.35372427, -0.5852577, 0.5582946, 9.3353853225708, -3.278581380844116, 0.3141104280948639, 1.9567978382110596, 6.54294490814209, 0.7189486026763916, -0.647705078125, 0.396484375, -0.67236328125, 0, 
177, 274349280, 0.46998796, 0.35336584, -0.5847377, 0.55886126, 9.38004207611084, -3.3025355339050293, 0.26938483119010925, 3.434113025665283, 6.224847316741943, 0.32219502329826355, -0.644287109375, 0.3994140625, -0.673583984375, 0, 
178, 274365947, 0.47017163, 0.35318047, -0.58411163, 0.5594784, 9.304086685180664, -3.2748467922210693, 0.27689608931541443, 4.7552032470703125, 5.799689769744873, -0.24022796750068665, -0.64306640625, 0.399169921875, -0.674560546875, 0, 
179, 274382614, 0.4702998, 0.3530813, -0.5835411, 0.5600283, 9.312430381774902, -3.2127809524536133, 0.254119336605072, 4.689199924468994, 4.916806697845459, -0.4560149610042572, -0.64208984375, 0.400390625, -0.67529296875, 0, 
180, 274399281, 0.47049963, 0.35283947, -0.5830951, 0.56047726, 9.33968448638916, -3.205458164215088, 0.2714436650276184, 3.174720287322998, 5.1224894523620605, -0.18154925107955933, -0.644287109375, 0.399658203125, -0.675048828125, 0, 
181, 274415948, 0.47069722, 0.35257772, -0.58286905, 0.56071115, 9.303362846374512, -3.2354562282562256, 0.313959538936615, 1.4117592573165894, 3.972170829772949, -0.2512541711330414, -0.63916015625, 0.399658203125, -0.675537109375, 0, 
182, 274432615, 0.4708701, 0.352309, -0.58269805, 0.5609125, 9.40873908996582, -3.2521872520446777, 0.32527685165405273, 1.1104003190994263, 3.6584291458129883, -0.09888424724340439, -0.639892578125, 0.40087890625, -0.67626953125, 0, 
183, 274449282, 0.4710433, 0.35209298, -0.5824683, 0.5611413, 9.364670753479004, -3.2973928451538086, 0.33487552404403687, 1.6216679811477661, 3.727505683898926, -0.36078688502311707, -0.635986328125, 0.4013671875, -0.67724609375, 0, 
184, 274465949, 0.47112492, 0.35198677, -0.58223677, 0.56137955, 9.381387710571289, -3.2860772609710693, 0.24910087883472443, 2.2485392093658447, 2.97934627532959, -0.4213481545448303, -0.63720703125, 0.40087890625, -0.677978515625, 0, 
185, 274482616, 0.47121173, 0.35182977, -0.58200616, 0.56164426, 9.38078784942627, -3.3265159130096436, 0.31530246138572693, 2.180140733718872, 3.2759928703308105, -0.15090365707874298, -0.63525390625, 0.401611328125, -0.677490234375, 0, 
186, 274499283, 0.47128484, 0.35165432, -0.5817014, 0.56200844, 9.384354591369629, -3.2987453937530518, 0.29327741265296936, 2.8427796363830566, 3.7882978916168213, 0.11705005913972855, -0.6396484375, 0.399169921875, -0.68017578125, 0, 
187, 274515950, 0.47137493, 0.35140052, -0.5816358, 0.5621596, 9.321197509765625, -3.2856836318969727, 0.37758010625839233, 0.777678370475769, 2.8866279125213623, 0.25361692905426025, -0.638916015625, 0.400634765625, -0.67724609375, 0, 
188, 274532617, 0.4713842, 0.35122395, -0.5816014, 0.5622978, 9.365224838256836, -3.3467845916748047, 0.38818246126174927, 1.054923176765442, 2.144167184829712, 0.2903968095779419, -0.6357421875, 0.400390625, -0.677978515625, 0, 
189, 274549284, 0.47133178, 0.35121602, -0.58141303, 0.5625413, 9.301873207092285, -3.3207955360412598, 0.379602313041687, 2.770141363143921, 2.010033369064331, -0.17898792028427124, -0.6376953125, 0.399169921875, -0.678466796875, 0, 
190, 274565951, 0.47118184, 0.35136932, -0.58120507, 0.56278616, 9.311511993408203, -3.275473117828369, 0.38402870297431946, 3.613030195236206, 1.0758230686187744, -0.4914757013320923, -0.634765625, 0.402587890625, -0.679931640625, 0, 
191, 274582618, 0.47101292, 0.35154098, -0.5810197, 0.5630117, 9.352934837341309, -3.297109603881836, 0.35633981227874756, 3.5576934814453125, 0.8210534453392029, -0.5008243322372437, -0.638671875, 0.400634765625, -0.68212890625, 0, 
192, 274599285, 0.4708226, 0.35171494, -0.58082104, 0.5632672, 9.362451553344727, -3.3330812454223633, 0.3307522237300873, 3.7916147708892822, 0.8549391627311707, -0.3611454963684082, -0.6337890625, 0.40234375, -0.678955078125, 0, 
193, 274615952, 0.47069377, 0.35177442, -0.5807524, 0.56340843, 9.355128288269043, -3.2240653038024902, 0.452359139919281, 2.3180902004241943, 0.8616496920585632, -0.2009764462709427, -0.63623046875, 0.40283203125, -0.6796875, 0, 
194, 274632619, 0.47064826, 0.3516469, -0.5809785, 0.56329286, 9.361627578735352, -3.1848056316375732, 0.4567748010158539, -0.6538858413696289, 0.3519185185432434, 0.1098528653383255, -0.635009765625, 0.4033203125, -0.68212890625, 0, 
195, 274649286, 0.47063404, 0.35144535, -0.58125633, 0.5631441, 9.330706596374512, -3.2398648262023926, 0.4455723762512207, -1.3005553483963013, 0.5232802629470825, 0.307813435792923, -0.634033203125, 0.4013671875, -0.679931640625, 0, 
196, 274665953, 0.4705645, 0.35133505, -0.581513, 0.563006, 9.332642555236816, -3.294977903366089, 0.4089285731315613, -0.7458097338676453, 0.05036737024784088, 0.14366161823272705, -0.634765625, 0.3994140625, -0.681884765625, 0, 
197, 274682620, 0.47048005, 0.35130453, -0.58163935, 0.5629649, 9.387604713439941, -3.335456132888794, 0.46511778235435486, 0.44453397393226624, 0.34856319427490234, -0.11768394708633423, -0.636474609375, 0.402099609375, -0.679443359375, 0, 
198, 274699287, 0.47037083, 0.3513022, -0.58174527, 0.5629484, 9.384941101074219, -3.3304078578948975, 0.49264413118362427, 0.7748993635177612, 0.271340936422348, -0.10474953800439835, -0.635009765625, 0.401123046875, -0.67822265625, 0, 
199, 274715954, 0.4702727, 0.35128993, -0.5819335, 0.5628434, 9.360600471496582, -3.275387763977051, 0.522680401802063, 0.04491186887025833, -0.1191822960972786, -0.196391761302948, -0.63623046875, 0.4033203125, -0.6796875, 0, 
200, 274732621, 0.4701576, 0.35129756, -0.5821763, 0.5626837, 9.399713516235352, -3.3207051753997803, 0.5398535132408142, -0.2806703448295593, -0.5702731013298035, -0.25286778807640076, -0.632568359375, 0.405029296875, -0.6796875, 0, 
201, 274749288, 0.47000647, 0.35140294, -0.5823175, 0.5625981, 9.434309005737305, -3.327476978302002, 0.5139473080635071, 0.8136386871337891, -0.5837198495864868, -0.5107108354568481, -0.636962890625, 0.4033203125, -0.6806640625, 0, 
202, 274765955, 0.46985152, 0.3515707, -0.58237284, 0.5625652, 9.382545471191406, -3.3395514488220215, 0.5378754734992981, 1.5672796964645386, -0.43145236372947693, -0.7822055220603943, -0.636474609375, 0.402099609375, -0.674560546875, 0, 
203, 274782622, 0.46965542, 0.3518186, -0.5823579, 0.5625897, 9.322094917297363, -3.3729407787323, 0.5614590644836426, 2.4278407096862793, -0.5394226908683777, -0.9301572442054749, -0.63720703125, 0.400146484375, -0.677978515625, 0, 
204, 274799289, 0.4693875, 0.35213587, -0.5822531, 0.56272316, 9.35637092590332, -3.345719337463379, 0.54994136095047, 3.608508825302124, -0.5415740609169006, -0.7991738319396973, -0.638427734375, 0.400390625, -0.679931640625, 0, 
205, 274815956, 0.46906665, 0.35249975, -0.5820273, 0.56299627, 9.377159118652344, -3.360938787460327, 0.5824143290519714, 4.9149489402771, -0.20549708604812622, -0.6255453824996948, -0.635009765625, 0.402099609375, -0.680908203125, 0, 
206, 274832623, 0.4687445, 0.35282466, -0.58184505, 0.56324965, 9.361547470092773, -3.2852368354797363, 0.5968133807182312, 4.543603897094727, -0.24871854484081268, -0.42689329385757446, -0.637451171875, 0.40234375, -0.677001953125, 0, 
207, 274849290, 0.46844795, 0.3531568, -0.5817928, 0.56334215, 9.392985343933105, -3.361741542816162, 0.6311342716217041, 3.3570311069488525, -0.9864283204078674, -0.7566824555397034, -0.636962890625, 0.402587890625, -0.67822265625, 0, 
208, 274865957, 0.46809253, 0.3536245, -0.58153844, 0.56360674, 9.44108772277832, -3.399315357208252, 0.5735344886779785, 5.4049458503723145, -0.6824952960014343, -1.010120153427124, -0.637451171875, 0.4013671875, -0.6787109375, 0, 
209, 274882624, 0.46769232, 0.35427308, -0.58105963, 0.5640253, 9.521112442016602, -3.345980644226074, 0.5513117909431458, 7.58123254776001, -0.4653892517089844, -1.6148360967636108, -0.635986328125, 0.399658203125, -0.680419921875, 0, 
210, 274899291, 0.46731716, 0.3548675, -0.58037335, 0.56466883, 9.564435005187988, -3.29521107673645, 0.4358217716217041, 9.049762725830078, 1.0592901706695557, -1.2770302295684814, -0.636474609375, 0.4013671875, -0.680908203125, 0, 
211, 274915958, 0.46714115, 0.35516548, -0.5797769, 0.56523955, 9.493118286132812, -3.224604845046997, 0.4292135238647461, 6.973942756652832, 2.544865846633911, -0.8796364068984985, -0.6357421875, 0.400390625, -0.682373046875, 0, 
212, 274932625, 0.46707335, 0.35512108, -0.5792761, 0.56583685, 9.475320816040039, -3.305976629257202, 0.42783689498901367, 5.346279621124268, 4.071305274963379, 0.38880079984664917, -0.63427734375, 0.399169921875, -0.6796875, 0, 
213, 274949292, 0.4670275, 0.35496008, -0.57848454, 0.56678474, 9.495790481567383, -3.3890504837036133, 0.5646490454673767, 7.447879791259766, 6.408862113952637, 1.1850358247756958, -0.633544921875, 0.3984375, -0.681640625, 0, 
214, 274965959, 0.46702477, 0.35467884, -0.5774394, 0.5680275, 9.46255111694336, -3.3400096893310547, 0.6443508863449097, 9.118894577026367, 8.582167625427246, 1.8199880123138428, -0.631103515625, 0.398193359375, -0.68701171875, 0, 
215, 274982626, 0.4671456, 0.35409534, -0.5763012, 0.56944597, 9.464717864990234, -3.3355650901794434, 0.6141957640647888, 8.909011840820312, 10.9802885055542, 2.874732732772827, -0.626953125, 0.402099609375, -0.69189453125, 0, 
216, 274999293, 0.46742022, 0.35316992, -0.57503957, 0.57106876, 9.495870590209961, -3.365050792694092, 0.5628102421760559, 8.732324600219727, 13.821711540222168, 3.982816457748413, -0.623779296875, 0.40185546875, -0.69140625, 0, 
217, 275015960, 0.46791148, 0.3518018, -0.5737216, 0.5728339, 9.522953987121582, -3.3230862617492676, 0.6828476786613464, 7.571866035461426, 16.949481964111328, 5.204699516296387, -0.619873046875, 0.402099609375, -0.697998046875, 0, 
218, 275032627, 0.46860683, 0.34995395, -0.57234234, 0.5747735, 9.521062850952148, -3.371053457260132, 0.7343042492866516, 6.467013359069824, 20.26490592956543, 6.710192680358887, -0.614990234375, 0.40576171875, -0.70068359375, 0, 
219, 275049294, 0.46936914, 0.34790328, -0.57107306, 0.5766563, 9.399991035461426, -3.4958767890930176, 0.9969568252563477, 4.999288082122803, 20.840360641479492, 7.3285369873046875, -0.608642578125, 0.4111328125, -0.701416015625, 0, 
220, 275065961, 0.4700235, 0.34600562, -0.56976205, 0.5785583, 9.397869110107422, -3.6384196281433105, 1.2529975175857544, 5.992946624755859, 19.982921600341797, 7.114246845245361, -0.603271484375, 0.411376953125, -0.706787109375, 0, 
221, 275082628, 0.470593, 0.3442825, -0.5683637, 0.58049566, 9.413092613220215, -3.6164867877960205, 1.4046531915664673, 7.241567134857178, 19.30547523498535, 6.665177345275879, -0.599853515625, 0.414306640625, -0.7080078125, 0, 
222, 275099295, 0.47112706, 0.3426223, -0.5671001, 0.58227783, 9.311253547668457, -3.543609857559204, 1.4022581577301025, 6.382719039916992, 18.092323303222656, 6.369951248168945, -0.596923828125, 0.41552734375, -0.710693359375, 0, 
223, 275115962, 0.47161466, 0.34111384, -0.5659408, 0.5838944, 9.220796585083008, -3.63915753364563, 1.3800690174102783, 5.91668176651001, 16.55718421936035, 5.670133590698242, -0.59228515625, 0.417236328125, -0.716064453125, 0, 
224, 275132629, 0.47195655, 0.33989838, -0.56476825, 0.58546025, 9.134160041809082, -3.754523992538452, 1.4928739070892334, 7.061953544616699, 14.722436904907227, 4.910394668579102, -0.587646484375, 0.42041015625, -0.719482421875, 0, 
225, 275149296, 0.47220615, 0.33878246, -0.5637813, 0.5868554, 9.152929306030273, -3.743109941482544, 1.6079316139221191, 6.189417362213135, 12.944964408874512, 4.760060787200928, -0.58544921875, 0.41943359375, -0.7216796875, 0, 
226, 275165963, 0.47246403, 0.33761004, -0.56304723, 0.5880268, 9.193037986755371, -3.7184436321258545, 1.745044469833374, 4.094231605529785, 11.841487884521484, 4.795186996459961, -0.58251953125, 0.423583984375, -0.721435546875, 0, 
227, 275182630, 0.4727049, 0.33639216, -0.5626247, 0.5889353, 9.205456733703613, -3.7398366928100586, 1.795958161354065, 1.7023874521255493, 10.311702728271484, 4.899122714996338, -0.579345703125, 0.421875, -0.726806640625, 0, 
228, 275199297, 0.47287175, 0.3353282, -0.5624256, 0.58959776, 9.120598793029785, -3.939969062805176, 1.9676154851913452, 0.5120748281478882, 8.083075523376465, 4.31068229675293, -0.57470703125, 0.42626953125, -0.725830078125, 0, 
229, 275215964, 0.47274572, 0.33471522, -0.5625189, 0.589958, 9.100866317749023, -4.08116340637207, 2.089113712310791, 0.291293203830719, 3.4430766105651855, 3.4257497787475586, -0.57666015625, 0.425537109375, -0.723388671875, 0, 
230, 275232631, 0.472267, 0.3345439, -0.56252944, 0.59042853, 9.381425857543945, -4.0340962409973145, 1.981372594833374, 3.2906434535980225, 0.7754886150360107, 3.2912707328796387, -0.57373046875, 0.427490234375, -0.725830078125, 0, 
231, 275249298, 0.47157547, 0.33467975, -0.5624138, 0.5910143, 9.387421607971191, -3.852149724960327, 1.7467910051345825, 5.727948188781738, -0.6481358408927917, 3.0333251953125, -0.571533203125, 0.430419921875, -0.724365234375, 0, 
232, 275265965, 0.47072074, 0.33509427, -0.56214243, 0.59171826, 9.425131797790527, -3.758929967880249, 1.5309239625930786, 8.090658187866211, -1.6537421941757202, 2.632474184036255, -0.57421875, 0.428466796875, -0.72509765625, 0, 
233, 275282632, 0.46990934, 0.33538485, -0.5617732, 0.5925489, 9.47768497467041, -3.6805641651153564, 1.3634154796600342, 8.475872039794922, -0.3815716505050659, 3.1174886226654053, -0.574462890625, 0.42529296875, -0.72314453125, 0, 
234, 275299299, 0.4692143, 0.33546585, -0.56128854, 0.5935124, 9.514466285705566, -3.5735065937042236, 1.2458155155181885, 8.513446807861328, 1.6000642776489258, 3.615797281265259, -0.57421875, 0.427490234375, -0.726806640625, 0, 
235, 275315966, 0.46873036, 0.33523312, -0.56068003, 0.5946003, 9.529422760009766, -3.503662109375, 1.192171573638916, 8.001269340515137, 4.385510444641113, 4.087544918060303, -0.57470703125, 0.42626953125, -0.727294921875, 0, 
236, 275332633, 0.46845084, 0.33458015, -0.5597728, 0.59604156, 9.517845153808594, -3.498465061187744, 1.1434738636016846, 8.761085510253906, 8.675718307495117, 5.333130359649658, -0.56982421875, 0.42919921875, -0.7314453125, 0, 
237, 275349300, 0.46831754, 0.33362824, -0.55847824, 0.5978913, 9.456028938293457, -3.4817395210266113, 1.240853190422058, 10.625774383544922, 12.660923957824707, 6.3200178146362305, -0.56689453125, 0.42919921875, -0.73291015625, 0, 
238, 275365967, 0.46843874, 0.33221507, -0.55718786, 0.5997843, 9.352949142456055, -3.405846357345581, 1.4177411794662476, 8.710186004638672, 15.627211570739746, 7.206564903259277, -0.560791015625, 0.431884765625, -0.735107421875, 0, 
239, 275382634, 0.4688336, 0.3302875, -0.5561128, 0.6015354, 9.38009262084961, -3.4503188133239746, 1.5718140602111816, 4.997005939483643, 17.778926849365234, 8.096953392028809, -0.55810546875, 0.4345703125, -0.736328125, 0, 
240, 275399301, 0.46943536, 0.3280317, -0.5551939, 0.60314727, 9.430693626403809, -3.5709927082061768, 1.7174561023712158, 2.2917253971099854, 19.105348587036133, 8.416295051574707, -0.552490234375, 0.438232421875, -0.737060546875, 0, 
241, 275415968, 0.4702389, 0.3254838, -0.55422354, 0.6047919, 9.461027145385742, -3.599902868270874, 1.818523645401001, 1.229642391204834, 21.320730209350586, 8.695476531982422, -0.548095703125, 0.439697265625, -0.740478515625, 0, 
242, 275432635, 0.47111887, 0.32284752, -0.55315286, 0.60649794, 9.362668991088867, -3.7333109378814697, 1.8859590291976929, 1.422647476196289, 22.433862686157227, 8.700356483459473, -0.54345703125, 0.4443359375, -0.7421875, 0, 
243, 275449302, 0.47202778, 0.32025683, -0.55190426, 0.60829955, 9.259736061096191, -3.8829689025878906, 2.054292917251587, 2.6109514236450195, 23.13330078125, 8.327194213867188, -0.5380859375, 0.447265625, -0.7470703125, 0, 
244, 275465969, 0.4729415, 0.31770995, -0.5506259, 0.6100814, 9.202902793884277, -3.935882568359375, 2.2084743976593018, 2.789177179336548, 23.00823974609375, 8.009413719177246, -0.530517578125, 0.45068359375, -0.747802734375, 0, 
245, 275482636, 0.47380215, 0.315222, -0.5492396, 0.611951, 9.175175666809082, -3.9839367866516113, 2.213085412979126, 3.8791539669036865, 23.087566375732422, 8.056632995605469, -0.52734375, 0.452392578125, -0.75439453125, 0, 
246, 275499303, 0.47454068, 0.313103, -0.54749113, 0.6140299, 9.258946418762207, -4.164397239685059, 2.2007875442504883, 7.657138347625732, 22.692197799682617, 7.069773197174072, -0.521240234375, 0.456298828125, -0.752197265625, 0, 
247, 275515970, 0.4752644, 0.31136715, -0.5453979, 0.6162118, 9.33591079711914, -3.984081745147705, 2.3590893745422363, 10.783329963684082, 22.354841232299805, 5.274549961090088, -0.5166015625, 0.455810546875, -0.75732421875, 0, 
248, 275532637, 0.47592652, 0.30933207, -0.54365087, 0.6182661, 9.344161987304688, -3.878265142440796, 2.3406012058258057, 7.989295482635498, 21.974613189697266, 6.98311185836792, -0.508544921875, 0.45751953125, -0.763916015625, 0, 
249, 275549304, 0.47670752, 0.30710918, -0.54217035, 0.62006986, 9.261622428894043, -3.979548454284668, 2.338341236114502, 5.049501895904541, 21.80318260192871, 6.932986259460449, -0.50390625, 0.4599609375, -0.76904296875, 0, 
250, 275565971, 0.47747716, 0.3049835, -0.5405126, 0.6219713, 9.155929565429688, -4.156314373016357, 2.3257267475128174, 6.512387752532959, 22.127239227294922, 6.566520690917969, -0.49853515625, 0.464111328125, -0.769775390625, 0, 
251, 275582638, 0.4782358, 0.30283055, -0.5387647, 0.6239539, 9.03736400604248, -4.053945064544678, 2.397707462310791, 7.134816646575928, 22.664262771606445, 6.786764621734619, -0.493408203125, 0.463134765625, -0.776123046875, 0, 
252, 275599305, 0.47901264, 0.30043766, -0.53719336, 0.62586653, 9.050841331481934, -3.9865918159484863, 2.4978225231170654, 5.29318380355835, 23.02960777282715, 7.732158660888672, -0.48974609375, 0.466064453125, -0.77880859375, 0, 
253, 275615972, 0.47989622, 0.29774565, -0.5358183, 0.62765235, 9.035300254821777, -4.025478839874268, 2.5958681106567383, 2.7739768028259277, 23.7954158782959, 8.367393493652344, -0.477294921875, 0.47216796875, -0.783935546875, 0, 
254, 275632639, 0.48088792, 0.295087, -0.53448254, 0.6292857, 8.99380111694336, -4.144359588623047, 2.6938681602478027, 1.930330753326416, 23.601346969604492, 7.356661796569824, -0.475341796875, 0.47509765625, -0.782958984375, 0, 
255, 275649306, 0.4817428, 0.2920361, -0.5331674, 0.6311679, 9.044057846069336, -4.204816818237305, 2.688098430633545, 1.7374931573867798, 25.223989486694336, 10.25180435180664, -0.467529296875, 0.479248046875, -0.79052734375, 0, 
256, 275665973, 0.48263836, 0.28869015, -0.5317305, 0.6332319, 9.121172904968262, -4.082981109619141, 2.7689409255981445, 1.8740997314453125, 27.41586685180664, 11.51129150390625, -0.46240234375, 0.482666015625, -0.790283203125, 0, 
257, 275682640, 0.4836871, 0.2849416, -0.5305732, 0.6350973, 9.179521560668945, -3.9524474143981934, 2.9612011909484863, -1.7089555263519287, 28.402687072753906, 12.218770980834961, -0.45263671875, 0.486328125, -0.795654296875, 0, 
258, 275699307, 0.4849349, 0.28072703, -0.52964234, 0.63679737, 9.241413116455078, -4.013621807098389, 3.0053772926330566, -5.245059013366699, 30.07870864868164, 12.955848693847656, -0.44970703125, 0.49072265625, -0.792724609375, 0, 
259, 275715974, 0.48635408, 0.27616948, -0.5284854, 0.63866633, 9.159156799316406, -4.128705024719238, 3.0663087368011475, -5.116192817687988, 33.2794303894043, 13.595247268676758, -0.4404296875, 0.49658203125, -0.794921875, 0, 
260, 275732641, 0.4879132, 0.2713498, -0.5270359, 0.6407376, 9.026214599609375, -4.099226474761963, 3.1075026988983154, -4.241031169891357, 36.2961311340332, 14.064892768859863, -0.433349609375, 0.5, -0.80078125, 0, 
261, 275749308, 0.48966563, 0.26617935, -0.5254239, 0.6428899, 8.890069007873535, -4.062682628631592, 3.198179006576538, -4.769376754760742, 39.23393630981445, 14.464118957519531, -0.422607421875, 0.50634765625, -0.8017578125, 0, 
262, 275765975, 0.49161378, 0.26053298, -0.5237911, 0.645045, 8.846362113952637, -4.0578813552856445, 3.294616937637329, -6.631451606750488, 42.114078521728516, 15.302456855773926, -0.40966796875, 0.513671875, -0.8076171875, 0, 
263, 275782642, 0.49370122, 0.25454152, -0.5221153, 0.6471977, 8.774932861328125, -4.16965913772583, 3.378485918045044, -7.868202209472656, 44.28203582763672, 15.857234001159668, -0.398193359375, 0.521484375, -0.80859375, 0, 
264, 275799309, 0.49579757, 0.2485114, -0.5201392, 0.64952576, 8.804676055908203, -4.254239559173584, 3.397440195083618, -6.0525431632995605, 45.80678939819336, 16.037370681762695, -0.385986328125, 0.52880859375, -0.814208984375, 0, 
265, 275815976, 0.4979786, 0.24246007, -0.51787615, 0.6519483, 8.785954475402832, -4.327419757843018, 3.4784023761749268, -4.64998197555542, 47.34297180175781, 15.579805374145508, -0.371826171875, 0.53466796875, -0.81689453125, 0, 
266, 275832643, 0.5001667, 0.23658413, -0.515367, 0.65441567, 8.699840545654297, -4.418882846832275, 3.6040568351745605, -2.798436164855957, 47.501651763916016, 14.679534912109375, -0.35791015625, 0.54052734375, -0.822021484375, 0, 
267, 275849310, 0.50237864, 0.23079933, -0.5127483, 0.6568394, 8.635250091552734, -4.440699100494385, 3.6948130130767822, -2.1859540939331055, 47.48036193847656, 13.930508613586426, -0.345703125, 0.546142578125, -0.824462890625, 0, 
268, 275865977, 0.5045593, 0.22508147, -0.5101482, 0.6591728, 8.509570121765137, -4.509673595428467, 3.764650583267212, -2.3076658248901367, 46.861106872558594, 13.563780784606934, -0.334228515625, 0.55029296875, -0.82470703125, 0, 
269, 275882644, 0.50668985, 0.21958011, -0.5073635, 0.6615389, 8.407628059387207, -4.683730602264404, 3.8742802143096924, -0.5273889303207397, 46.39711380004883, 12.867654800415039, -0.320556640625, 0.556884765625, -0.83203125, 0, 
270, 275899311, 0.5087138, 0.21441232, -0.5042586, 0.66405, 8.327902793884277, -4.8036322593688965, 4.0597381591796875, 2.7609810829162598, 45.8432502746582, 12.21351146697998, -0.310546875, 0.563232421875, -0.833251953125, 0, 
271, 275915978, 0.51068234, 0.20931801, -0.5010012, 0.6666249, 8.29132080078125, -4.732336044311523, 4.143941879272461, 4.019381523132324, 45.94185256958008, 12.210797309875488, -0.29443359375, 0.56494140625, -0.8388671875, 0, 
272, 275932645, 0.5126324, 0.20404898, -0.49796173, 0.66903496, 8.179736137390137, -4.733055591583252, 4.199225425720215, 1.8675135374069214, 45.67575454711914, 12.63581657409668, -0.284423828125, 0.57080078125, -0.844970703125, 0, 
273, 275949312, 0.5146484, 0.19878031, -0.49503613, 0.6712408, 8.11651611328125, -4.835019588470459, 4.203996181488037, 0.5558125972747803, 45.21332931518555, 11.775554656982422, -0.267822265625, 0.5771484375, -0.84326171875, 0, 
274, 275965979, 0.51649505, 0.19338553, -0.4920026, 0.6736246, 8.124471664428711, -4.981461048126221, 4.261401653289795, 1.4485634565353394, 45.847930908203125, 13.470913887023926, -0.25390625, 0.581298828125, -0.845947265625, 0, 
275, 275982646, 0.5182315, 0.18813193, -0.48856878, 0.6762725, 8.016674995422363, -5.0618462562561035, 4.365668296813965, 4.852109909057617, 46.60082244873047, 13.908913612365723, -0.239501953125, 0.58447265625, -0.85205078125, 0, 
276, 275999313, 0.51986057, 0.18301494, -0.4849151, 0.6790504, 7.905927658081055, -5.055360794067383, 4.527886867523193, 6.945121765136719, 46.563053131103516, 14.127341270446777, -0.226806640625, 0.5927734375, -0.857177734375, 0, 
277, 276015980, 0.5213952, 0.17783436, -0.48123947, 0.6818594, 7.831447124481201, -4.980116844177246, 4.596945285797119, 7.050211429595947, 46.66544723510742, 14.862715721130371, -0.210205078125, 0.595458984375, -0.862548828125, 0, 
278, 276032647, 0.5228394, 0.17246628, -0.47775078, 0.68458015, 7.8013014793396, -4.919520854949951, 4.6229143142700195, 5.326462268829346, 46.47332000732422, 15.822111129760742, -0.19970703125, 0.599609375, -0.8681640625, 0, 
279, 276049314, 0.5242147, 0.16688153, -0.47437376, 0.6872558, 7.7785820960998535, -4.952212810516357, 4.695059776306152, 3.961935043334961, 46.819541931152344, 16.834617614746094, -0.182861328125, 0.60302734375, -0.8662109375, 0, 
280, 276065981, 0.52552587, 0.16112046, -0.47119683, 0.68981004, 7.653573513031006, -5.020657062530518, 4.76046895980835, 2.0645551681518555, 46.593040466308594, 17.51262855529785, -0.169189453125, 0.61083984375, -0.873046875, 0, 
281, 276082648, 0.5267713, 0.15531059, -0.4679171, 0.6924201, 7.622381210327148, -5.046273231506348, 4.788872718811035, 2.6375679969787598, 47.056175231933594, 18.075759887695312, -0.15087890625, 0.61328125, -0.8720703125, 0, 
282, 276099315, 0.527943, 0.1494631, -0.46456665, 0.6950657, 7.548759460449219, -4.893400192260742, 4.8914008140563965, 3.038872241973877, 47.30513000488281, 18.608797073364258, -0.13623046875, 0.619384765625, -0.8740234375, 0, 
283, 276115982, 0.5291169, 0.14335759, -0.46147335, 0.69751555, 7.471059322357178, -4.81058931350708, 4.974092960357666, 0.2520184814929962, 47.424015045166016, 18.988431930541992, -0.12158203125, 0.62451171875, -0.874755859375, 0, 
284, 276132649, 0.5302791, 0.13729212, -0.4582896, 0.699948, 7.325961589813232, -4.980533599853516, 5.035379409790039, 0.7889936566352844, 47.521121978759766, 18.781606674194336, -0.101806640625, 0.6298828125, -0.8759765625, 0, 
285, 276149316, 0.5314236, 0.13135742, -0.45490265, 0.7024239, 7.133456707000732, -5.006917953491211, 5.157294273376465, 2.403261661529541, 47.63017272949219, 18.433565139770508, -0.085693359375, 0.635009765625, -0.878173828125, 0, 
286, 276165983, 0.5325477, 0.12530349, -0.4516796, 0.70475465, 6.9468584060668945, -4.818366050720215, 5.293035507202148, 0.7453619837760925, 47.424076080322266, 18.533788681030273, -0.07470703125, 0.63916015625, -0.878662109375, 0, 
287, 276182650, 0.53363913, 0.11900375, -0.44901288, 0.7067222, 6.8697004318237305, -4.820621967315674, 5.375020980834961, -3.9501473903656006, 46.172401428222656, 18.61921501159668, -0.059326171875, 0.644775390625, -0.876708984375, 0, 
288, 276199317, 0.53469014, 0.1127234, -0.44659215, 0.7084891, 6.823761463165283, -5.090188503265381, 5.453831672668457, -5.661882400512695, 44.8943977355957, 18.236665725708008, -0.041015625, 0.652587890625, -0.877197265625, 0, 
289, 276215984, 0.53570074, 0.10666129, -0.44382897, 0.71039826, 6.766256809234619, -5.266373634338379, 5.516099452972412, -2.721672773361206, 45.08576965332031, 18.03164291381836, -0.027099609375, 0.65478515625, -0.87548828125, 0, 
290, 276232651, 0.5366778, 0.10058973, -0.44101784, 0.7122944, 6.633138179779053, -5.105583667755127, 5.519850730895996, -2.531062126159668, 45.207550048828125, 18.151206970214844, -0.00830078125, 0.662841796875, -0.872314453125, 0, 
291, 276249318, 0.53763473, 0.09431356, -0.4384932, 0.7139882, 6.482259750366211, -5.120791912078857, 5.57380485534668, -5.287242412567139, 44.96223068237305, 18.3336238861084, 0.004150390625, 0.6650390625, -0.870361328125, 0, 
292, 276265985, 0.53852177, 0.088024996, -0.43606552, 0.7156077, 6.464455604553223, -5.364648342132568, 5.596816539764404, -5.984424591064453, 44.41600036621094, 18.515687942504883, 0.019775390625, 0.67236328125, -0.8681640625, 0, 
293, 276282652, 0.5394417, 0.081773564, -0.4332921, 0.7173389, 6.406060218811035, -5.343586444854736, 5.619858741760254, -3.8238229751586914, 45.69209289550781, 18.45623207092285, 0.03564453125, 0.6796875, -0.8671875, 0, 
294, 276299319, 0.54022664, 0.0752259, -0.43070614, 0.7190201, 6.33778190612793, -5.203213214874268, 5.637911319732666, -5.913263320922852, 46.04291534423828, 19.936603546142578, 0.050537109375, 0.6826171875, -0.862548828125, 0, 
295, 276315986, 0.5409692, 0.068432495, -0.42846593, 0.7204775, 6.201147079467773, -5.3204145431518555, 5.6754279136657715, -9.173291206359863, 45.74741744995117, 20.238689422607422, 0.06884765625, 0.68798828125, -0.86083984375, 0, 
296, 276332653, 0.54166794, 0.061779886, -0.4259317, 0.7220546, 6.0809736251831055, -5.600643634796143, 5.671728610992432, -6.814109802246094, 46.08674621582031, 20.362436294555664, 0.081787109375, 0.6953125, -0.857666015625, 0, 
297, 276349320, 0.5423905, 0.055369362, -0.42288673, 0.7238197, 5.834259986877441, -5.516063690185547, 5.719429969787598, -2.8252673149108887, 46.953041076660156, 20.028600692749023, 0.100830078125, 0.70068359375, -0.854248046875, 0, 
298, 276365987, 0.5430583, 0.04897303, -0.41994518, 0.7254908, 5.582143306732178, -5.384707927703857, 5.772603511810303, -3.530569553375244, 46.31462860107422, 19.959312438964844, 0.11669921875, 0.703125, -0.848876953125, 0, 
299, 276382654, 0.5436097, 0.0425962, -0.4173657, 0.7269674, 5.4960479736328125, -5.5181074142456055, 5.853265285491943, -5.781329154968262, 44.47319793701172, 19.889469146728516, 0.13134765625, 0.70947265625, -0.844970703125, 0, 
300, 276399321, 0.5440767, 0.03643546, -0.4148648, 0.728383, 5.435701370239258, -5.729100227355957, 5.883723735809326, -5.510224342346191, 42.850006103515625, 19.495424270629883, 0.14697265625, 0.713623046875, -0.842041015625, 0, 
301, 276415988, 0.54449576, 0.03077892, -0.41198376, 0.7299643, 5.370601177215576, -5.905136585235596, 5.9121575355529785, -1.2260185480117798, 41.66185760498047, 18.83007049560547, 0.1640625, 0.716796875, -0.83642578125, 0, 
302, 276432655, 0.5448374, 0.025391264, -0.40891513, 0.73164016, 5.22932767868042, -5.766884803771973, 5.949822902679443, 1.0210574865341187, 40.8289680480957, 18.77501106262207, 0.177490234375, 0.720458984375, -0.8359375, 0, 
303, 276449322, 0.54505235, 0.019918537, -0.4062688, 0.7331224, 5.069712162017822, -5.703616619110107, 5.9620680809021, -1.9337527751922607, 39.29578399658203, 19.00759506225586, 0.19384765625, 0.720703125, -0.8291015625, 0, 
304, 276465989, 0.5451238, 0.014553836, -0.4038689, 0.7345199, 5.051850318908691, -6.0016770362854, 6.004173278808594, -2.979358196258545, 37.4248046875, 19.153772354125977, 0.2041015625, 0.727783203125, -0.826416015625, 0, 
305, 276482656, 0.54508954, 0.0096107265, -0.4010185, 0.7361866, 5.119762897491455, -6.133514881134033, 6.053409099578857, 1.6490323543548584, 36.730255126953125, 19.485132217407227, 0.21923828125, 0.728515625, -0.822509765625, 0, 
306, 276499323, 0.5450061, 0.0049494565, -0.397776, 0.7380512, 5.000184535980225, -5.996018886566162, 6.203073978424072, 5.255898952484131, 36.66594314575195, 19.680381774902344, 0.231689453125, 0.730712890625, -0.819091796875, 0, 
307, 276515990, 0.5448287, 1.5627238E-4, -0.39486516, 0.7397598, 4.9097466468811035, -5.818284511566162, 6.302975654602051, 2.6669511795043945, 35.84311294555664, 19.951412200927734, 0.244384765625, 0.732421875, -0.81591796875, 0, 
308, 276532657, 0.544532, -0.0048773643, -0.39244372, 0.74124926, 4.8232855796813965, -5.884766578674316, 6.391432762145996, -1.311985969543457, 34.92120361328125, 20.404638290405273, 0.260009765625, 0.735107421875, -0.814453125, 0, 
309, 276549324, 0.54422987, -0.009849722, -0.38993, 0.74274683, 4.703305721282959, -6.002011299133301, 6.44774055480957, -0.5844274759292603, 34.95001983642578, 20.310962677001953, 0.273193359375, 0.736328125, -0.806884765625, 0, 
310, 276565991, 0.54392165, -0.014753076, -0.3873746, 0.7442272, 4.596175193786621, -5.883544445037842, 6.512498378753662, -0.15337611734867096, 34.74909973144531, 20.106287002563477, 0.287109375, 0.738037109375, -0.80224609375, 0, 
311, 276582658, 0.54359305, -0.01975183, -0.38507265, 0.7455449, 4.532529354095459, -5.7484846115112305, 6.540127277374268, -2.2385942935943604, 34.26184844970703, 19.841203689575195, 0.30029296875, 0.740478515625, -0.798828125, 0, 
312, 276599325, 0.5432465, -0.024877023, -0.38303682, 0.74669176, 4.454749584197998, -5.810374736785889, 6.503227710723877, -4.529162883758545, 33.90146255493164, 19.608203887939453, 0.3125, 0.743408203125, -0.788330078125, 0, 
313, 276615992, 0.54297453, -0.029803341, -0.38066363, 0.74792194, 4.3371381759643555, -5.985433578491211, 6.480109214782715, -1.8205540180206299, 34.333290100097656, 19.085649490356445, 0.32275390625, 0.745361328125, -0.7861328125, 0, 
314, 276632659, 0.54279566, -0.03455829, -0.37806225, 0.74916553, 4.079923629760742, -5.891352653503418, 6.626946926116943, 0.05190441384911537, 34.55705642700195, 18.267419815063477, 0.3388671875, 0.74951171875, -0.781494140625, 0, 
315, 276649326, 0.5425663, -0.0394605, -0.375842, 0.75020593, 3.984740734100342, -5.776045322418213, 6.678983211517334, -2.9987952709198, 33.81718444824219, 18.071056365966797, 0.34814453125, 0.74853515625, -0.777587890625, 0, 
316, 276665993, 0.5422635, -0.044504564, -0.3738761, 0.7511244, 4.014791965484619, -5.904212474822998, 6.5859246253967285, -5.178088188171387, 33.449459075927734, 18.304950714111328, 0.35986328125, 0.751953125, -0.770751953125, 0, 
317, 276682660, 0.54204124, -0.04931246, -0.37160015, 0.75211346, 3.9185538291931152, -6.084375381469727, 6.604554653167725, -2.489086389541626, 33.58121871948242, 17.6524600982666, 0.370361328125, 0.75341796875, -0.762939453125, 0, 
318, 276699327, 0.54185206, -0.053988177, -0.3693149, 0.7530535, 3.6973888874053955, -6.012180328369141, 6.773487091064453, -2.0568697452545166, 33.0428466796875, 16.975936889648438, 0.385498046875, 0.75390625, -0.758056640625, 0, 
319, 276715994, 0.54159224, -0.058859296, -0.36735362, 0.75383437, 3.664741277694702, -5.9391703605651855, 6.891329288482666, -4.893016338348389, 32.733036041259766, 17.133724212646484, 0.394775390625, 0.756591796875, -0.751953125, 0, 
320, 276732661, 0.54127556, -0.06387743, -0.36592495, 0.754348, 3.560948133468628, -5.966240406036377, 6.830214023590088, -8.903009414672852, 31.4818172454834, 16.601024627685547, 0.406005859375, 0.758056640625, -0.744384765625, 0, 
321, 276749328, 0.5410511, -0.06844674, -0.3642096, 0.75493824, 3.496239185333252, -6.431014537811279, 6.816639423370361, -5.514955043792725, 30.425777435302734, 15.416358947753906, 0.41796875, 0.762939453125, -0.739501953125, 0, 
322, 276765995, 0.5410865, -0.07243488, -0.36149013, 0.7558474, 3.4273064136505127, -6.419082164764404, 6.928954124450684, 2.7866861820220947, 31.651811599731445, 14.278192520141602, 0.42431640625, 0.7607421875, -0.734130859375, 0, 
323, 276782662, 0.5411679, -0.07639016, -0.35884345, 0.75666034, 3.190868377685547, -6.089756488800049, 7.037830829620361, 2.3183813095092773, 31.37993812561035, 13.570585250854492, 0.43603515625, 0.760498046875, -0.72900390625, 0, 
324, 276799329, 0.54110724, -0.08053032, -0.35684928, 0.7572172, 3.0971803665161133, -6.236148834228516, 7.064074516296387, -2.4746508598327637, 29.70003318786621, 13.47852897644043, 0.44970703125, 0.76123046875, -0.72265625, 0, 
325, 276815996, 0.54105705, -0.084526084, -0.35455728, 0.75789404, 3.146775960922241, -6.502316951751709, 6.988614082336426, -0.0882168859243393, 30.018760681152344, 13.686070442199707, 0.458251953125, 0.764404296875, -0.720947265625, 0, 
326, 276832663, 0.54112405, -0.08833005, -0.3517195, 0.7587343, 3.000281572341919, -6.470827579498291, 7.043312072753906, 3.940452814102173, 31.246200561523438, 13.5404634475708, 0.4638671875, 0.7626953125, -0.71533203125, 0, 
327, 276849330, 0.5410567, -0.092396446, -0.34937483, 0.7593808, 2.7529594898223877, -6.271103382110596, 7.167056560516357, -0.15419544279575348, 30.5781192779541, 13.861903190612793, 0.477783203125, 0.762451171875, -0.709228515625, 0, 
328, 276865997, 0.5406828, -0.096935794, -0.34777755, 0.7598145, 2.7766313552856445, -6.36165189743042, 7.146149158477783, -6.524279594421387, 29.665325164794922, 15.335411071777344, 0.487060546875, 0.767578125, -0.7001953125, 0, 
329, 276882664, 0.54031503, -0.10143615, -0.34584624, 0.76036984, 2.8124592304229736, -6.695570945739746, 7.030425548553467, -4.339314937591553, 30.63911247253418, 15.892912864685059, 0.496826171875, 0.767333984375, -0.69384765625, 0, 
330, 276899331, 0.5400936, -0.10555533, -0.34316134, 0.76118267, 2.6696109771728516, -6.7083258628845215, 7.077775955200195, 1.7389819622039795, 31.619876861572266, 15.709798812866211, 0.504638671875, 0.765380859375, -0.688720703125, 0, 
331, 276915998, 0.53982127, -0.10968842, -0.3404636, 0.7620025, 2.5263545513153076, -6.448274612426758, 7.138619422912598, 1.741837501525879, 31.61893653869629, 16.050357818603516, 0.51611328125, 0.765380859375, -0.68212890625, 0, 
332, 276932665, 0.53934115, -0.11421152, -0.33840802, 0.7625932, 2.4496896266937256, -6.34873628616333, 7.161779403686523, -3.761401414871216, 30.968645095825195, 16.723180770874023, 0.52734375, 0.765869140625, -0.680419921875, 0, 
333, 276949332, 0.53875303, -0.11881409, -0.33659747, 0.7631068, 2.474763870239258, -6.557474136352539, 7.034387588500977, -5.6060357093811035, 30.28830337524414, 17.003742218017578, 0.537109375, 0.76806640625, -0.66650390625, 0, 
334, 276965999, 0.53832394, -0.12299839, -0.33415902, 0.76381797, 2.3446614742279053, -6.748911380767822, 7.103055953979492, -0.1706901341676712, 30.632774353027344, 16.455291748046875, 0.547119140625, 0.768310546875, -0.66259765625, 0, 
335, 276982666, 0.53796774, -0.12690754, -0.33137235, 0.76464295, 2.2089734077453613, -6.3754963874816895, 7.075643062591553, 3.007955312728882, 30.551992416381836, 16.16213035583496, 0.553466796875, 0.76904296875, -0.65673828125, 0, 
336, 276999333, 0.53758806, -0.13093643, -0.32879147, 0.7653446, 2.1515450477600098, -6.296392440795898, 7.014078617095947, 1.180532693862915, 30.479446411132812, 15.929874420166016, 0.56787109375, 0.769775390625, -0.650146484375, 0, 
337, 277016000, 0.5371932, -0.13489135, -0.326259, 0.7660186, 2.1123452186584473, -6.271629810333252, 6.865571022033691, 1.1237488985061646, 29.90708351135254, 15.706154823303223, 0.5751953125, 0.767578125, -0.646484375, 0, 
338, 277032667, 0.5368568, -0.13878533, -0.32370827, 0.76664054, 1.9761550426483154, -6.247262477874756, 6.816319942474365, 1.3844999074935913, 29.84090805053711, 15.093276977539062, 0.5859375, 0.765869140625, -0.63720703125, 0, 
339, 277049334, 0.5365812, -0.14255737, -0.3211818, 0.7672038, 1.8444039821624756, -6.199864387512207, 6.86500883102417, 1.6356714963912964, 29.306211471557617, 14.270297050476074, 0.594482421875, 0.7646484375, -0.631591796875, 0, 
340, 277066001, 0.53625786, -0.14631245, -0.31906426, 0.76760644, 1.7787431478500366, -5.998188495635986, 6.935123920440674, -0.8603013157844543, 27.765308380126953, 13.498680114746094, 0.6025390625, 0.765380859375, -0.624755859375, 0, 
341, 277082668, 0.53588545, -0.14995947, -0.31754538, 0.7677924, 1.6224864721298218, -6.145306587219238, 6.946832656860352, -4.150055885314941, 25.10270118713379, 12.127785682678223, 0.610595703125, 0.765869140625, -0.62255859375, 0, 
342, 277099335, 0.5357552, -0.15279466, -0.3155752, 0.76813686, 1.6053428649902344, -6.5084357261657715, 6.949338436126709, 1.8155986070632935, 22.8483943939209, 10.132763862609863, 0.616455078125, 0.765625, -0.6142578125, 0, 
343, 277116002, 0.53593946, -0.15496378, -0.31292823, 0.7686564, 1.480178952217102, -6.305615425109863, 6.905982494354248, 8.55860424041748, 22.32786750793457, 8.387140274047852, 0.623779296875, 0.763916015625, -0.612060546875, 0, 
344, 277132669, 0.5362588, -0.1568239, -0.3102532, 0.7691406, 1.3467750549316406, -6.097962856292725, 6.958691596984863, 9.91579818725586, 21.130813598632812, 6.910999298095703, 0.628173828125, 0.760498046875, -0.607177734375, 0, 
345, 277149336, 0.5364749, -0.1588081, -0.30805767, 0.76946527, 1.1956024169921875, -6.058474063873291, 6.970000743865967, 6.467076301574707, 19.97311019897461, 6.619010925292969, 0.63427734375, 0.760009765625, -0.60546875, 0, 
346, 277166003, 0.5366099, -0.16092807, -0.3062507, 0.7696518, 1.0538771152496338, -6.188425064086914, 6.993417739868164, 3.526489734649658, 19.239044189453125, 6.402940273284912, 0.639404296875, 0.759033203125, -0.601318359375, 0, 
347, 277182670, 0.5367688, -0.16299048, -0.30433756, 0.7698659, 1.1251140832901, -6.291606903076172, 6.897520065307617, 4.38476037979126, 19.34380340576172, 6.37215518951416, 0.64453125, 0.75634765625, -0.59814453125, 0, 
348, 277199337, 0.53708375, -0.16477175, -0.30208704, 0.7701535, 1.1402323246002197, -6.3125224113464355, 6.961328029632568, 7.539648056030273, 19.346046447753906, 5.609638690948486, 0.6513671875, 0.75537109375, -0.593017578125, 0, 
349, 277216004, 0.5374687, -0.16635819, -0.29980165, 0.77043676, 1.0670099258422852, -6.248492240905762, 7.030200958251953, 8.517107009887695, 18.59541130065918, 4.858339786529541, 0.656982421875, 0.751708984375, -0.593505859375, 0, 
350, 277232671, 0.5377442, -0.16803804, -0.29791942, 0.77061015, 0.981852114200592, -6.1560444831848145, 7.0859222412109375, 5.6853485107421875, 17.502986907958984, 4.76482629776001, 0.6611328125, 0.751708984375, -0.59375, 0, 
351, 277249338, 0.5379126, -0.16980098, -0.29642174, 0.77068377, 0.9207714200019836, -6.192037105560303, 6.966799736022949, 3.0115444660186768, 16.418193817138672, 4.691009998321533, 0.66552734375, 0.751953125, -0.586669921875, 0, 
352, 277266005, 0.5379976, -0.17157014, -0.29521158, 0.7706972, 0.8187129497528076, -6.239205360412598, 6.9305524826049805, 1.2460973262786865, 15.288232803344727, 4.587084770202637, 0.67138671875, 0.750244140625, -0.5859375, 0, 
353, 277282672, 0.5380363, -0.17327377, -0.29418924, 0.77067983, 0.6987770199775696, -6.276336669921875, 6.917182922363281, 0.38082271814346313, 14.185989379882812, 4.365432262420654, 0.672607421875, 0.7509765625, -0.582275390625, 0, 
354, 277299339, 0.5380358, -0.1748299, -0.29344195, 0.77061355, 0.5810167789459229, -6.307885646820068, 6.947147846221924, -0.6719560027122498, 12.362143516540527, 3.7643003463745117, 0.677001953125, 0.752197265625, -0.57958984375, 0, 
355, 277316006, 0.5380016, -0.17622338, -0.2928329, 0.7705518, 0.6080878973007202, -6.314820766448975, 6.978580474853516, -0.8302168250083923, 10.909605979919434, 3.4635815620422363, 0.68115234375, 0.751953125, -0.576904296875, 0, 
356, 277332673, 0.53795904, -0.17743595, -0.29247284, 0.7704399, 0.5439159870147705, -6.366779327392578, 7.082599639892578, -1.5869057178497314, 9.069382667541504, 2.6550514698028564, 0.680908203125, 0.751708984375, -0.574951171875, 0, 
357, 277349340, 0.5378416, -0.17846464, -0.29241642, 0.7703058, 0.5002668499946594, -6.418941497802734, 7.127635478973389, -2.6472971439361572, 6.843432903289795, 2.227191209793091, 0.679931640625, 0.75244140625, -0.572509765625, 0, 
358, 277366007, 0.5377712, -0.17915584, -0.2922184, 0.77026945, 0.5447962284088135, -6.5351243019104, 7.141692161560059, -0.3921496570110321, 5.548056602478027, 1.8306550979614258, 0.686279296875, 0.75390625, -0.5693359375, 0, 
359, 277382674, 0.5378198, -0.17945354, -0.29182702, 0.77031463, 0.5656666159629822, -6.501969814300537, 7.153948783874512, 2.403585433959961, 4.313165664672852, 0.9474906921386719, 0.6845703125, 0.751953125, -0.569091796875, 0, 
360, 277399341, 0.5378913, -0.17961736, -0.29142338, 0.7703795, 0.5991970300674438, -6.458917617797852, 7.137566566467285, 3.0364503860473633, 3.6678671836853027, 0.642417848110199, 0.6884765625, 0.751220703125, -0.56884765625, 0, 
361, 277416008, 0.5379576, -0.17978244, -0.29105338, 0.77043456, 0.6522989869117737, -6.346381664276123, 7.071638107299805, 2.83089542388916, 3.5491392612457275, 0.5938945412635803, 0.68701171875, 0.7509765625, -0.5625, 0, 
362, 277432675, 0.538034, -0.17996897, -0.29082426, 0.7704241, 0.6845621466636658, -6.331731796264648, 7.04477596282959, 1.890332579612732, 3.242055892944336, 0.16552208364009857, 0.689208984375, 0.75341796875, -0.566650390625, 0, 
363, 277449342, 0.538086, -0.18014172, -0.2907386, 0.77037984, 0.6569809317588806, -6.3360795974731445, 7.149261474609375, 1.0864009857177734, 2.6313846111297607, -0.0357489213347435, 0.690673828125, 0.751953125, -0.568359375, 0, 
364, 277466009, 0.53813696, -0.18027362, -0.29079756, 0.7702911, 0.6834271550178528, -6.349222660064697, 7.196667194366455, 0.3834989368915558, 1.9316712617874146, -0.4554770290851593, 0.689453125, 0.75048828125, -0.56640625, 0, 
365, 277482676, 0.5381829, -0.18029456, -0.2910103, 0.7701738, 0.6575864553451538, -6.372761249542236, 7.237582683563232, -0.08150600641965866, 0.800268828868866, -0.9476763010025024, 0.688720703125, 0.751953125, -0.564453125, 0, 
366, 277499343, 0.53824425, -0.18021084, -0.29136926, 0.77001476, 0.636347770690918, -6.411142349243164, 7.320457935333252, -0.5325328707695007, -0.21298882365226746, -1.5753283500671387, 0.689453125, 0.752685546875, -0.56591796875, 0, 
367, 277516010, 0.53833324, -0.17993496, -0.29172453, 0.76988256, 0.6864149570465088, -6.473775386810303, 7.328451156616211, 0.28729766607284546, -1.1968878507614136, -2.003239870071411, 0.689208984375, 0.752685546875, -0.56689453125, 0, 
368, 277532677, 0.53846824, -0.179577, -0.29210782, 0.7697265, 0.6734557151794434, -6.464917182922363, 7.366561412811279, 0.45342162251472473, -1.612479567527771, -2.5360991954803467, 0.688232421875, 0.754150390625, -0.564697265625, 0, 
369, 277549344, 0.5385804, -0.17915781, -0.2925906, 0.7695621, 0.6647152900695801, -6.511373043060303, 7.400826454162598, 0.11001934856176376, -2.341071128845215, -2.692810297012329, 0.68505859375, 0.753173828125, -0.565673828125, 0, 
370, 277566011, 0.538661, -0.17877407, -0.29317746, 0.7693715, 0.6759342551231384, -6.5211358070373535, 7.41806697845459, -0.6632601022720337, -2.5720596313476562, -2.6814897060394287, 0.685791015625, 0.752197265625, -0.561279296875, 0, 
371, 277582678, 0.5387058, -0.17842567, -0.29374883, 0.769203, 0.7101123332977295, -6.548009872436523, 7.4208197593688965, -0.7103105187416077, -2.427539587020874, -2.3212852478027344, 0.6865234375, 0.755615234375, -0.565185546875, 0, 
372, 277599345, 0.5387443, -0.17806907, -0.29429737, 0.7690491, 0.6663481593132019, -6.5705952644348145, 7.396509647369385, -0.5362722277641296, -2.4197146892547607, -2.2230474948883057, 0.68310546875, 0.75537109375, -0.56689453125, 0, 
373, 277616012, 0.53879595, -0.1776574, -0.29471293, 0.768949, 0.6914162039756775, -6.621769428253174, 7.374797344207764, 0.4977315664291382, -2.2588930130004883, -2.044437885284424, 0.6826171875, 0.755859375, -0.565673828125, 0, 
374, 277632679, 0.5388653, -0.17719027, -0.2949867, 0.7689032, 0.7276557087898254, -6.609887599945068, 7.418853282928467, 1.5882434844970703, -2.0589599609375, -1.8780064582824707, 0.682861328125, 0.75830078125, -0.567626953125, 0, 
375, 277649346, 0.5388574, -0.17683533, -0.29541838, 0.7688247, 0.7149848937988281, -6.49064826965332, 7.435725688934326, 0.17925047874450684, -2.1701571941375732, -1.5563747882843018, 0.681884765625, 0.758056640625, -0.56689453125, 0, 
376, 277666013, 0.538793, -0.17656326, -0.2959828, 0.7687154, 0.7589870095252991, -6.556402683258057, 7.375524520874023, -0.9598550200462341, -2.3026905059814453, -1.3657139539718628, 0.68212890625, 0.759765625, -0.567138671875, 0, 
377, 277682680, 0.53871626, -0.17623371, -0.29659754, 0.76860785, 0.7459806203842163, -6.58922815322876, 7.410103797912598, -1.0234898328781128, -2.8212196826934814, -1.4737483263015747, 0.678955078125, 0.7578125, -0.568115234375, 0, 
378, 277699347, 0.5386631, -0.17583762, -0.29719254, 0.768506, 0.7460564970970154, -6.625190258026123, 7.405874729156494, -0.6297585964202881, -3.0605061054229736, -1.6908543109893799, 0.677001953125, 0.75830078125, -0.5654296875, 0, 
379, 277716014, 0.53863615, -0.17530738, -0.29771236, 0.7684448, 0.8026426434516907, -6.649218559265137, 7.425310134887695, 0.3807840645313263, -3.4885973930358887, -1.864483118057251, 0.6767578125, 0.759765625, -0.57080078125, 0, 
380, 277732681, 0.5385823, -0.174834, -0.29829225, 0.7683656, 0.8596712946891785, -6.514126777648926, 7.395943641662598, -0.21261747181415558, -3.44551682472229, -1.7447693347930908, 0.674560546875, 0.75927734375, -0.570556640625, 0, 
381, 277749348, 0.5384742, -0.17440943, -0.29903048, 0.7682508, 0.893519401550293, -6.53806209564209, 7.368001461029053, -1.3679167032241821, -3.8422060012817383, -1.6807501316070557, 0.676025390625, 0.759521484375, -0.570556640625, 0, 
382, 277766015, 0.5384158, -0.17397341, -0.29964837, 0.76814985, 0.9871777892112732, -6.578772068023682, 7.3616838455200195, -0.6008164286613464, -3.3714449405670166, -1.771662712097168, 0.676513671875, 0.759765625, -0.57177734375, 0, 
383, 277782682, 0.5384131, -0.17356114, -0.30017444, 0.7680395, 0.9781496524810791, -6.498708248138428, 7.334469318389893, -0.15455341339111328, -2.7785487174987793, -1.9401683807373047, 0.67138671875, 0.76025390625, -0.571044921875, 0, 
384, 277799349, 0.53840727, -0.17319179, -0.30082285, 0.76787335, 0.9157330989837646, -6.530851364135742, 7.3372578620910645, -1.0767643451690674, -2.943161725997925, -2.186882734298706, 0.67236328125, 0.76318359375, -0.5712890625, 0, 
385, 277816016, 0.5383987, -0.17280531, -0.3014703, 0.76771253, 0.9367972016334534, -6.578244209289551, 7.386662006378174, -0.9996702075004578, -3.0428340435028076, -2.187100648880005, 0.67236328125, 0.75927734375, -0.571533203125, 0, 
386, 277832683, 0.5383555, -0.17248064, -0.30217633, 0.76753813, 0.9762970209121704, -6.535889625549316, 7.4070281982421875, -1.6065888404846191, -2.988189458847046, -1.9974642992019653, 0.6689453125, 0.763916015625, -0.57275390625, 0, 
387, 277849350, 0.53832424, -0.17207463, -0.30292106, 0.76735765, 0.927426278591156, -6.637842178344727, 7.411425590515137, -1.5080821514129639, -3.5285146236419678, -2.2973501682281494, 0.668701171875, 0.76416015625, -0.57080078125, 0, 
388, 277866017, 0.53836495, -0.17149977, -0.3034867, 0.76723427, 0.9389585256576538, -6.769942760467529, 7.4355645179748535, 0.26740944385528564, -3.675058126449585, -2.6055996417999268, 0.665283203125, 0.764892578125, -0.57080078125, 0, 
389, 277882684, 0.538397, -0.17095299, -0.30404517, 0.76711285, 0.9146272540092468, -6.638365268707275, 7.4350152015686035, 0.1983959823846817, -3.52168869972229, -2.4863080978393555, 0.662353515625, 0.763427734375, -0.57080078125, 0, 
390, 277899351, 0.5383599, -0.1704725, -0.30471966, 0.7669781, 0.9812757968902588, -6.640050411224365, 7.377882957458496, -0.7665817141532898, -3.732058525085449, -2.1708877086639404, 0.66259765625, 0.763916015625, -0.57421875, 0, 
391, 277916018, 0.5383514, -0.16996422, -0.30525932, 0.7668822, 1.0495790243148804, -6.802497863769531, 7.389017581939697, 0.16328097879886627, -3.366091728210449, -2.078195333480835, 0.662109375, 0.765869140625, -0.5712890625, 0, 
392, 277932685, 0.53835607, -0.16947336, -0.30556905, 0.76686406, 1.04974365234375, -6.748632431030273, 7.371338367462158, 1.494372844696045, -2.4867300987243652, -1.5539798736572266, 0.66015625, 0.76611328125, -0.572021484375, 0, 
393, 277949352, 0.53831124, -0.16909148, -0.30599287, 0.7668109, 1.0342116355895996, -6.675926685333252, 7.379714488983154, 0.3618818521499634, -2.398533344268799, -1.3268595933914185, 0.657470703125, 0.7666015625, -0.5732421875, 0, 
394, 277966019, 0.5382092, -0.16881521, -0.3065109, 0.76673645, 1.1032298803329468, -6.705410480499268, 7.365573883056641, -0.6336902379989624, -2.2866570949554443, -0.9913971424102783, 0.65966796875, 0.76708984375, -0.574951171875, 0, 
395, 277982686, 0.5381246, -0.16854107, -0.3069116, 0.7666958, 1.0998762845993042, -6.788139820098877, 7.367526054382324, 0.06988425552845001, -1.8431731462478638, -0.8163983821868896, 0.656005859375, 0.76904296875, -0.575927734375, 0, 
396, 277999353, 0.5380238, -0.16826782, -0.30725324, 0.76668984, 1.0822675228118896, -6.740093231201172, 7.413430213928223, 0.4370550215244293, -1.6951186656951904, -0.5327633023262024, 0.657958984375, 0.766845703125, -0.570068359375, 0, 
397, 278016020, 0.53789246, -0.16806382, -0.3076951, 0.76664966, 1.0696436166763306, -6.719914436340332, 7.3854570388793945, -0.4525187015533447, -1.7264173030853271, -0.46640080213546753, 0.65576171875, 0.769287109375, -0.573974609375, 0, 
398, 278032687, 0.5377929, -0.16782199, -0.308021, 0.76664156, 1.1059513092041016, -6.841609954833984, 7.3436431884765625, 0.40643513202667236, -1.4678444862365723, -0.4613807201385498, 0.655517578125, 0.768310546875, -0.574951171875, 0, 
399, 278049354, 0.53776354, -0.16746964, -0.30801922, 0.76673985, 1.104520320892334, -6.836917877197266, 7.365138053894043, 2.852755308151245, -0.8139652013778687, -0.2931950092315674, 0.65576171875, 0.77099609375, -0.57373046875, 0, 
400, 278066021, 0.5377255, -0.16716406, -0.30798212, 0.7668481, 1.0641788244247437, -6.702688217163086, 7.3622002601623535, 2.8822736740112305, -0.46765586733818054, -0.07109445333480835, 0.657470703125, 0.767822265625, -0.570068359375, 0, 
401, 278082688, 0.5376086, -0.16705321, -0.3080971, 0.76690805, 1.038217544555664, -6.659510135650635, 7.344970226287842, 1.1698857545852661, -0.11523793637752533, 0.4043348729610443, 0.654052734375, 0.767822265625, -0.576416015625, 0, 
402, 278099355, 0.53747344, -0.16699289, -0.30827862, 0.7669431, 1.0210858583450317, -6.772470951080322, 7.362802982330322, 0.5600472092628479, -0.10772059857845306, 0.4375417232513428, 0.65625, 0.768310546875, -0.578125, 0, 
403, 278116022, 0.5373734, -0.16689602, -0.30832872, 0.767014, 0.983586311340332, -6.791519641876221, 7.371969223022461, 1.5090234279632568, 0.21595346927642822, 0.45851850509643555, 0.653564453125, 0.766357421875, -0.57568359375, 0, 
404, 278132689, 0.5372828, -0.16679949, -0.30826426, 0.7671244, 0.9376384615898132, -6.727114677429199, 7.361631870269775, 2.209965944290161, 0.6130144000053406, 0.6862026453018188, 0.654296875, 0.765625, -0.573974609375, 0, 
405, 278149356, 0.5371471, -0.16678119, -0.30836684, 0.7671821, 0.900120198726654, -6.654613494873047, 7.318606853485107, 0.8794631958007812, 0.36865633726119995, 0.7021721005439758, 0.65576171875, 0.768310546875, -0.57568359375, 0, 
406, 278166023, 0.5369674, -0.1668258, -0.3086466, 0.7671858, 0.8973776698112488, -6.718441963195801, 7.32186222076416, -0.4497910141944885, 0.010475593619048595, 0.6640732884407043, 0.652587890625, 0.7705078125, -0.572998046875, 0, 
407, 278182690, 0.53684235, -0.16677482, -0.30869406, 0.7672654, 0.900347113609314, -6.790474891662598, 7.307535171508789, 1.3557953834533691, 0.3874048590660095, 0.7174245119094849, 0.654296875, 0.767822265625, -0.572265625, 0, 
408, 278199357, 0.53670037, -0.16673195, -0.30877173, 0.7673428, 0.8552601933479309, -6.599296569824219, 7.317336559295654, 1.1461939811706543, 0.28024137020111084, 0.7801628112792969, 0.65478515625, 0.768798828125, -0.5703125, 0, 
409, 278216024, 0.53647, -0.16675523, -0.30913922, 0.7673506, 0.8267164826393127, -6.641639709472656, 7.313448905944824, -0.8737323880195618, -0.5531638860702515, 0.7957737445831299, 0.65576171875, 0.769775390625, -0.57373046875, 0, 
410, 278232691, 0.53629863, -0.16668113, -0.30939963, 0.7673816, 0.8636861443519592, -6.740984916687012, 7.292221546173096, 0.1689029335975647, -0.5788790583610535, 0.48290184140205383, 0.653076171875, 0.766845703125, -0.574462890625, 0, 
411, 278249358, 0.53617513, -0.1665082, -0.309582, 0.7674319, 0.8409518599510193, -6.65536642074585, 7.298786640167236, 1.0457537174224854, -0.7380107045173645, 0.17914801836013794, 0.6572265625, 0.77001953125, -0.569580078125, 0, 
412, 278266025, 0.5360534, -0.16635352, -0.30983418, 0.7674488, 0.8766236305236816, -6.631186485290527, 7.259535312652588, 0.5436167120933533, -0.8632823824882507, 0.003995581064373255, 0.65380859375, 0.769287109375, -0.5712890625, 0, 
413, 278282692, 0.5359302, -0.16618599, -0.31016025, 0.7674395, 0.8921324610710144, -6.674176216125488, 7.288853645324707, 0.14541609585285187, -1.1808671951293945, -0.19959335029125214, 0.6572265625, 0.77099609375, -0.57373046875, 0, 
414, 278299359, 0.5357998, -0.16604148, -0.31047863, 0.767433, 0.8806037902832031, -6.684201240539551, 7.277876853942871, 0.10123419016599655, -1.0548526048660278, -0.09444042295217514, 0.65673828125, 0.7705078125, -0.573974609375, 0, 
415, 278316026, 0.5356774, -0.16595043, -0.3107732, 0.7674189, 0.9203298687934875, -6.642983913421631, 7.244513034820557, 0.026688430458307266, -0.6634649634361267, -0.02554226480424404, 0.655029296875, 0.76953125, -0.572265625, 0, 
416, 278332693, 0.5355381, -0.16590782, -0.31113636, 0.7673782, 0.9576230049133301, -6.635655403137207, 7.218427658081055, -0.5869982242584229, -0.6708413362503052, -0.010481996461749077, 0.6533203125, 0.7734375, -0.57275390625, 0, 
417, 278349360, 0.5353816, -0.1659691, -0.3116362, 0.7672712, 0.9267861247062683, -6.630825996398926, 7.244099140167236, -1.8492558002471924, -0.5908656120300293, -0.0981670543551445, 0.653076171875, 0.77197265625, -0.570556640625, 0, 
418, 278366027, 0.5352314, -0.1660044, -0.31218562, 0.767145, 0.9029556512832642, -6.700386047363281, 7.1643218994140625, -2.047395944595337, -0.8792263865470886, -0.3154523968696594, 0.64990234375, 0.771240234375, -0.57275390625, 0, 
419, 278382694, 0.5352216, -0.16573384, -0.312438, 0.7671077, 0.9440109729766846, -6.866434574127197, 7.174438953399658, 1.0003806352615356, -1.2060185670852661, -1.046067237854004, 0.649658203125, 0.771240234375, -0.5693359375, 0, 
420, 278399361, 0.5353157, -0.16529432, -0.31241897, 0.7671447, 0.9608026146888733, -6.751161575317383, 7.259528636932373, 3.3385517597198486, -0.9642478227615356, -1.3763432502746582, 0.65283203125, 0.7734375, -0.570068359375, 0, 
421, 278416028, 0.53534955, -0.1649112, -0.31262463, 0.7671195, 0.9537732601165771, -6.660191059112549, 7.2316575050354, 1.748246192932129, -1.5557218790054321, -1.4222668409347534, 0.6494140625, 0.770751953125, -0.57373046875, 0, 
422, 278432695, 0.5353947, -0.16446093, -0.31287736, 0.7670817, 0.9988645911216736, -6.7816481590271, 7.233267307281494, 1.734555959701538, -2.0489838123321533, -1.7269554138183594, 0.65087890625, 0.7724609375, -0.572021484375, 0, 
423, 278449362, 0.5355398, -0.16386513, -0.31292963, 0.76708657, 0.995384156703949, -6.81219482421875, 7.20313835144043, 3.5376391410827637, -1.9149529933929443, -2.183476686477661, 0.64892578125, 0.76953125, -0.57421875, 0, 
424, 278466029, 0.5357294, -0.16317548, -0.3128944, 0.7671156, 0.9906962513923645, -6.693116188049316, 7.220364570617676, 4.451667308807373, -2.024357795715332, -2.432713508605957, 0.64794921875, 0.77197265625, -0.576171875, 0, 
425, 278482696, 0.53587747, -0.16254663, -0.3130515, 0.7670817, 0.9835569858551025, -6.668894290924072, 7.2057976722717285, 3.0353870391845703, -2.4339816570281982, -2.533154010772705, 0.64697265625, 0.770263671875, -0.5771484375, 0, 
426, 278499363, 0.536043, -0.16186693, -0.3131834, 0.767056, 1.0328612327575684, -6.748812675476074, 7.214722156524658, 3.396846055984497, -2.584596872329712, -2.6764440536499023, 0.647705078125, 0.771728515625, -0.57861328125, 0, 
427, 278516030, 0.5362365, -0.16117164, -0.31315365, 0.76707906, 1.0433531999588013, -6.724051475524902, 7.188379764556885, 4.447619915008545, -2.0686545372009277, -2.4989607334136963, 0.64453125, 0.77001953125, -0.57666015625, 0, 
428, 278532697, 0.53641367, -0.16051427, -0.31321937, 0.76706624, 1.0221209526062012, -6.685741424560547, 7.267683982849121, 3.714712381362915, -2.2194747924804688, -2.5693318843841553, 0.64599609375, 0.77001953125, -0.575439453125, 0, 
429, 278549364, 0.5364743, -0.1600333, -0.31359276, 0.76697177, 1.0049151182174683, -6.653080940246582, 7.249032020568848, 1.1403416395187378, -2.5886435508728027, -2.216209650039673, 0.646240234375, 0.771484375, -0.57861328125, 0, 
430, 278566031, 0.53646106, -0.15962663, -0.31411064, 0.766854, 1.066186547279358, -6.741049766540527, 7.232091426849365, -0.02387743815779686, -2.867642641067505, -1.913159728050232, 0.64208984375, 0.7724609375, -0.58154296875, 0, 
431, 278582698, 0.5364885, -0.15907809, -0.3144624, 0.7668046, 1.0484970808029175, -6.842513561248779, 7.227014541625977, 1.5725558996200562, -2.9951043128967285, -1.9995900392532349, 0.642578125, 0.772216796875, -0.579345703125, 0, 
432, 278599365, 0.53653353, -0.15842627, -0.31465134, 0.7668306, 1.0504462718963623, -6.79329776763916, 7.236202239990234, 3.001424551010132, -2.988650321960449, -1.860602617263794, 0.64306640625, 0.77197265625, -0.58056640625, 0, 
433, 278616032, 0.53653157, -0.15788054, -0.31499675, 0.7668027, 1.0041030645370483, -6.67995023727417, 7.283751964569092, 1.6232563257217407, -3.054718494415283, -1.7521331310272217, 0.6416015625, 0.77099609375, -0.58349609375, 0, 
434, 278632699, 0.53641474, -0.1574321, -0.31563503, 0.76671404, 1.0543079376220703, -6.752718925476074, 7.228698253631592, -0.5318669676780701, -3.811086893081665, -1.4791269302368164, 0.639892578125, 0.77392578125, -0.585693359375, 0, 
435, 278649366, 0.5363354, -0.1568895, -0.3161161, 0.7666827, 1.169334053993225, -6.871828079223633, 7.25677490234375, 0.813805103302002, -3.7125539779663086, -1.5009617805480957, 0.64111328125, 0.771240234375, -0.582275390625, 0, 
436, 278666033, 0.53632087, -0.15633625, -0.31627592, 0.76674, 1.164459466934204, -6.772288799285889, 7.24778938293457, 2.816295862197876, -2.5434632301330566, -1.1926875114440918, 0.63720703125, 0.773193359375, -0.5830078125, 0, 
437, 278682700, 0.53626823, -0.15596291, -0.31655267, 0.76673853, 1.0698024034500122, -6.687675952911377, 7.2501349449157715, 1.3724310398101807, -2.050123691558838, -0.9427459239959717, 0.63916015625, 0.7744140625, -0.585205078125, 0, 
438, 278699367, 0.53613466, -0.15570115, -0.3170613, 0.7666749, 1.1624529361724854, -6.763560771942139, 7.272876739501953, -0.47856685519218445, -2.431138515472412, -0.7524946928024292, 0.635986328125, 0.773193359375, -0.587646484375, 0, 
439, 278716034, 0.5360506, -0.15542991, -0.31727278, 0.76670116, 1.255416750907898, -6.845641613006592, 7.308248043060303, 1.3762599229812622, -1.3782896995544434, -0.3842737078666687, 0.63671875, 0.772705078125, -0.584716796875, 0, 
440, 278732701, 0.5360667, -0.1552326, -0.3171355, 0.76678663, 1.1847440004348755, -6.700858116149902, 7.262861251831055, 3.183670997619629, 0.44923385977745056, -0.1590612530708313, 0.6376953125, 0.771484375, -0.5859375, 0, 
441, 278749368, 0.53609776, -0.1551587, -0.3171421, 0.76677716, 1.1162751913070679, -6.718656063079834, 7.273290634155273, 1.7822084426879883, 0.6997773051261902, -0.47216367721557617, 0.635986328125, 0.770751953125, -0.586669921875, 0, 
442, 278766035, 0.53619564, -0.15510337, -0.31690484, 0.7668182, 1.2367994785308838, -6.857834339141846, 7.245230674743652, 3.18435001373291, 1.783450722694397, -0.33813247084617615, 0.63427734375, 0.772216796875, -0.5859375, 0, 
443, 278782702, 0.5364064, -0.15504679, -0.31614023, 0.76699775, 1.250606656074524, -6.723623752593994, 7.246554851531982, 6.398066520690918, 3.8157551288604736, 0.13938435912132263, 0.638916015625, 0.772216796875, -0.586669921875, 0, 
444, 278799369, 0.53663844, -0.15521196, -0.31544062, 0.76708984, 1.1277532577514648, -6.59542989730835, 7.3199310302734375, 5.073505401611328, 4.882832050323486, 0.11826667189598083, 0.640380859375, 0.77099609375, -0.58837890625, 0, 
445, 278816036, 0.5367887, -0.15558873, -0.31503016, 0.7670772, 1.1307921409606934, -6.690402030944824, 7.3233489990234375, 2.4551310539245605, 4.8634419441223145, 0.3129744231700897, 0.63916015625, 0.77099609375, -0.5859375, 0, 
446, 278832703, 0.5369061, -0.15608382, -0.3145326, 0.7670987, 1.1329352855682373, -6.722563743591309, 7.324251174926758, 2.5183944702148438, 5.696751594543457, 0.9627175331115723, 0.6416015625, 0.76953125, -0.585205078125, 0, 
447, 278849370, 0.5370041, -0.15649262, -0.31404126, 0.7671482, 1.1098273992538452, -6.644780158996582, 7.365904331207275, 2.8466856479644775, 5.143094539642334, 0.9764841794967651, 0.642333984375, 0.769775390625, -0.5869140625, 0, 
448, 278866037, 0.5370955, -0.15686728, -0.31366554, 0.7671614, 1.111401915550232, -6.6587677001953125, 7.400162696838379, 2.2793385982513428, 4.557101726531982, 0.6789030432701111, 0.646728515625, 0.7705078125, -0.584228515625, 0, 
449, 278882704, 0.5372276, -0.15723911, -0.31325337, 0.7671612, 1.1167559623718262, -6.684858322143555, 7.3469319343566895, 2.4983012676239014, 4.776205539703369, 0.4485296607017517, 0.642578125, 0.769287109375, -0.582763671875, 0, 
450, 278899371, 0.5374141, -0.15765738, -0.3127899, 0.76713365, 1.0795551538467407, -6.650716781616211, 7.249582290649414, 2.5996382236480713, 5.355231761932373, 0.21510830521583557, 0.6484375, 0.770751953125, -0.583251953125, 0, 
451, 278916038, 0.5376173, -0.15812697, -0.31220308, 0.7671336, 1.0634492635726929, -6.638411521911621, 7.186800479888916, 3.141385316848755, 6.082901954650879, 0.4748210906982422, 0.647216796875, 0.767822265625, -0.583740234375, 0, 
452, 278932705, 0.5378342, -0.15882939, -0.31139806, 0.76716393, 1.0880317687988281, -6.612827301025391, 7.186581134796143, 3.515113115310669, 8.109391212463379, 1.2535881996154785, 0.65087890625, 0.767333984375, -0.58154296875, 0, 
453, 278949372, 0.538042, -0.15995188, -0.31056193, 0.7671239, 1.0711278915405273, -6.543561935424805, 7.229358673095703, 1.9691563844680786, 10.49341106414795, 1.9767504930496216, 0.650634765625, 0.76806640625, -0.577880859375, 0, 
454, 278966039, 0.53818864, -0.16164242, -0.30976993, 0.7669868, 1.0570790767669678, -6.565382957458496, 7.238661289215088, -0.6379934549331665, 13.299273490905762, 3.107283115386963, 0.653564453125, 0.76904296875, -0.574951171875, 0, 
455, 278982706, 0.53827703, -0.16395438, -0.30890325, 0.7667836, 1.0944480895996094, -6.614696025848389, 7.270375728607178, -2.7474961280822754, 16.799116134643555, 4.579157829284668, 0.656005859375, 0.769775390625, -0.569580078125, 0, 
456, 278999373, 0.53826845, -0.16678019, -0.30789256, 0.76658654, 1.1518791913986206, -6.669116973876953, 7.3225297927856445, -3.9854896068573, 19.824913024902344, 6.370400428771973, 0.659423828125, 0.7685546875, -0.5654296875, 0, 
457, 279016040, 0.53817225, -0.17013396, -0.30695373, 0.7662937, 1.009518027305603, -6.687528610229492, 7.384505748748779, -6.6213507652282715, 22.264076232910156, 7.518969535827637, 0.6640625, 0.772216796875, -0.5625, 0, 
458, 279032707, 0.5381237, -0.17357925, -0.3058267, 0.76600575, 0.9012457132339478, -6.983948707580566, 7.373125076293945, -5.902722358703613, 23.534574508666992, 7.704009532928467, 0.669921875, 0.76904296875, -0.553466796875, 0, 
459, 279049374, 0.53829676, -0.1769579, -0.3039569, 0.76585525, 0.8817929625511169, -7.116583347320557, 7.386822700500488, -1.1873502731323242, 26.227691650390625, 7.798523902893066, 0.676025390625, 0.7734375, -0.5478515625, 0, 
460, 279066041, 0.53868794, -0.18003322, -0.30130872, 0.7659099, 0.8361639380455017, -7.107288360595703, 7.511984825134277, 4.733240604400635, 27.711435317993164, 7.729243755340576, 0.682373046875, 0.772705078125, -0.543701171875, 0, 
461, 279082708, 0.5391793, -0.18300177, -0.29821962, 0.7660699, 0.7003659605979919, -6.931602954864502, 7.485071182250977, 7.79576301574707, 28.85537338256836, 7.924877166748047, 0.690185546875, 0.770751953125, -0.539794921875, 0, 
462, 279099375, 0.53970194, -0.18591802, -0.29492274, 0.7662756, 0.6169454455375671, -6.956625938415527, 7.586775302886963, 9.2181978225708, 29.354217529296875, 8.088059425354004, 0.695556640625, 0.766845703125, -0.533935546875, 0, 
463, 279116042, 0.54023516, -0.18880177, -0.29135326, 0.7665603, 0.5207957625389099, -6.956486701965332, 7.59389066696167, 10.948394775390625, 30.112119674682617, 8.613863945007324, 0.708251953125, 0.76513671875, -0.530029296875, 0, 
464, 279132709, 0.54074067, -0.19168198, -0.28778273, 0.76683795, 0.4068309962749481, -6.819120407104492, 7.622520923614502, 10.916635513305664, 30.04761505126953, 8.733451843261719, 0.710693359375, 0.760986328125, -0.522216796875, 0, 
465, 279149376, 0.54121774, -0.19457753, -0.2843022, 0.7670703, 0.3190819025039673, -6.744845867156982, 7.595971584320068, 10.256298065185547, 29.794597625732422, 8.63265323638916, 0.7197265625, 0.760009765625, -0.51904296875, 0, 
466, 279166043, 0.541713, -0.19741677, -0.28066155, 0.7673359, 0.2908117175102234, -6.770780086517334, 7.5380096435546875, 11.39738941192627, 30.08252716064453, 8.767966270446777, 0.72802734375, 0.7578125, -0.5166015625, 0, 
467, 279182710, 0.542222, -0.20029153, -0.27684835, 0.76761657, 0.19707582890987396, -6.6377034187316895, 7.538671970367432, 12.223274230957031, 30.915803909301758, 9.060042381286621, 0.736328125, 0.75390625, -0.51220703125, 0, 
468, 279199377, 0.5426721, -0.20328546, -0.27309763, 0.767855, 0.11572710424661636, -6.470097064971924, 7.48744010925293, 11.284785270690918, 31.256729125976562, 9.359803199768066, 0.744873046875, 0.749267578125, -0.5029296875, 0, 
469, 279216044, 0.5431414, -0.20631082, -0.269241, 0.76807815, 0.06560389697551727, -6.515381336212158, 7.434151649475098, 11.721384048461914, 31.874082565307617, 9.411581993103027, 0.752197265625, 0.748779296875, -0.500732421875, 0, 
470, 279232711, 0.54379296, -0.209267, -0.2648283, 0.7683515, 0.0011315643787384033, -6.546926021575928, 7.417280673980713, 15.266039848327637, 33.85023498535156, 9.302657127380371, 0.76025390625, 0.74658203125, -0.49755859375, 0, 
471, 279249378, 0.54452103, -0.21237606, -0.2602225, 0.7685565, -0.170354425907135, -6.374594211578369, 7.466909408569336, 15.698648452758789, 35.6158561706543, 9.20699691772461, 0.768798828125, 0.742919921875, -0.4921875, 0, 
472, 279266045, 0.5451533, -0.21584933, -0.25580773, 0.7686228, -0.28744998574256897, -6.240684509277344, 7.47344970703125, 12.93447494506836, 36.85525894165039, 9.570867538452148, 0.775634765625, 0.73779296875, -0.4853515625, 0, 
473, 279282712, 0.5455862, -0.21979152, -0.25188363, 0.7684945, -0.40412071347236633, -6.255825996398926, 7.507357120513916, 7.939647674560547, 37.43133544921875, 9.994975090026855, 0.787353515625, 0.737060546875, -0.4775390625, 0, 
474, 279299379, 0.54593736, -0.22392264, -0.24809074, 0.7682861, -0.4742591083049774, -6.364423751831055, 7.504960060119629, 6.270574569702148, 37.9140510559082, 10.260390281677246, 0.79150390625, 0.732421875, -0.467529296875, 0, 
475, 279316046, 0.5464042, -0.22808518, -0.24381737, 0.76809794, -0.5179795622825623, -6.538593292236328, 7.559568881988525, 8.898791313171387, 40.04708480834961, 10.524388313293457, 0.800048828125, 0.72900390625, -0.463623046875, 0, 
476, 279332713, 0.547024, -0.232217, -0.23895517, 0.76794654, -0.6256114840507507, -6.45147705078125, 7.543707847595215, 12.425374031066895, 42.2923469543457, 10.734231948852539, 0.8134765625, 0.728759765625, -0.4521484375, 0, 
477, 279349380, 0.54761815, -0.23668386, -0.23385291, 0.76773006, -0.7011594176292419, -6.305241107940674, 7.6516947746276855, 12.281146049499512, 45.02401351928711, 11.567185401916504, 0.8232421875, 0.72314453125, -0.444091796875, 0, 
478, 279366047, 0.54805046, -0.24157408, -0.22881244, 0.76741713, -0.9111227989196777, -6.301921367645264, 7.715752601623535, 9.936367988586426, 46.922576904296875, 12.643589973449707, 0.83203125, 0.72265625, -0.43603515625, 0, 
479, 279382714, 0.54835063, -0.24676822, -0.22364183, 0.7670743, -0.971856415271759, -6.393517017364502, 7.756880283355713, 9.203408241271973, 48.85753631591797, 13.928470611572266, 0.841552734375, 0.717041015625, -0.42578125, 0, 
480, 279399381, 0.5486705, -0.25213152, -0.21773337, 0.7668011, -0.9779653549194336, -6.521951675415039, 7.6559672355651855, 12.592251777648926, 52.44295883178711, 15.606502532958984, 0.85400390625, 0.710205078125, -0.41748046875, 0, 
481, 279416048, 0.549083, -0.25750032, -0.21083358, 0.76664984, -1.1312140226364136, -6.581240177154541, 7.651762962341309, 18.137798309326172, 56.137081146240234, 17.3159122467041, 0.863525390625, 0.70751953125, -0.4052734375, 0, 
482, 279432715, 0.5496141, -0.26280826, -0.20283858, 0.7666253, -1.3117388486862183, -6.528933525085449, 7.754357814788818, 24.530214309692383, 59.89809036254883, 19.03278160095215, 0.877685546875, 0.701904296875, -0.391845703125, 0, 
483, 279449382, 0.5500767, -0.2683178, -0.19429116, 0.7665987, -1.478575587272644, -6.344414710998535, 7.833472728729248, 26.549436569213867, 62.95536422729492, 20.678234100341797, 0.8916015625, 0.69140625, -0.3798828125, 0, 
484, 279466049, 0.5503132, -0.27437449, -0.18557921, 0.76644367, -1.6589992046356201, -6.15187406539917, 7.865320205688477, 24.750661849975586, 66.39932250976562, 22.429309844970703, 0.903564453125, 0.683349609375, -0.370849609375, 0, 
485, 279482716, 0.55024403, -0.28099895, -0.17692904, 0.7661389, -1.8531931638717651, -6.140730857849121, 7.894866943359375, 21.4989070892334, 69.05245971679688, 24.089237213134766, 0.919921875, 0.677734375, -0.354248046875, 0, 
486, 279499383, 0.54994726, -0.28796872, -0.16823201, 0.76572305, -2.0842461585998535, -6.164957523345947, 7.859068870544434, 19.85309600830078, 70.98851013183594, 25.38774871826172, 0.9326171875, 0.668212890625, -0.339111328125, 0, 
487, 279516050, 0.54959714, -0.29505625, -0.15913086, 0.76522136, -2.3277535438537598, -6.2137041091918945, 7.859818935394287, 21.32038688659668, 73.24642944335938, 26.291488647460938, 0.947021484375, 0.659912109375, -0.320556640625, 0, 
488, 279532717, 0.549235, -0.30214247, -0.14975454, 0.76460826, -2.571065902709961, -6.174973011016846, 7.832085132598877, 22.617101669311523, 74.4912109375, 26.502424240112305, 0.961181640625, 0.64892578125, -0.3046875, 0, 
489, 279549384, 0.5487503, -0.3092454, -0.14013031, 0.7639407, -2.758850574493408, -6.009822368621826, 7.82105827331543, 23.537399291992188, 75.50135803222656, 27.4857234954834, 0.973388671875, 0.64404296875, -0.28955078125, 0, 
490, 279566051, 0.54805636, -0.31651053, -0.13048454, 0.7631714, -2.928884983062744, -5.861515522003174, 7.765606880187988, 22.485044479370117, 76.44913482666016, 28.41363525390625, 0.98681640625, 0.630859375, -0.26953125, 0, 
491, 279582718, 0.547087, -0.32404524, -0.12094297, 0.76227605, -3.1116702556610107, -5.754344940185547, 7.675062656402588, 20.19668197631836, 77.5001220703125, 29.407663345336914, 1.0, 0.62548828125, -0.250732421875, 0, 
492, 279599385, 0.54589415, -0.3318261, -0.111322224, 0.761249, -3.276447296142578, -5.7510223388671875, 7.56907844543457, 19.066370010375977, 79.1969223022461, 30.47402000427246, 1.0107421875, 0.6103515625, -0.232177734375, 0, 
493, 279616052, 0.54455364, -0.3397321, -0.101669505, 0.7600712, -3.524068593978882, -5.685842037200928, 7.487497806549072, 18.29854393005371, 80.20318603515625, 30.861759185791016, 1.021728515625, 0.602294921875, -0.20947265625, 0, 
494, 279632719, 0.5431586, -0.34758544, -0.09182187, 0.758771, -3.5889532566070557, -5.59715461730957, 7.3584418296813965, 19.289653778076172, 80.90543365478516, 31.116966247558594, 1.03564453125, 0.589599609375, -0.189697265625, 0, 
495, 279649386, 0.54160666, -0.35554504, -0.081782565, 0.7573396, -3.9207403659820557, -5.465880870819092, 7.308438777923584, 19.422094345092773, 82.39173889160156, 31.983156204223633, 1.04296875, 0.579345703125, -0.168212890625, 0, 
496, 279666053, 0.54001427, -0.36334828, -0.071729794, 0.75579023, -4.234780311584473, -5.379215240478516, 7.21652364730835, 19.896446228027344, 81.89263916015625, 31.710281372070312, 1.055908203125, 0.567626953125, -0.143798828125, 0, 
497, 279682720, 0.5384339, -0.3708822, -0.061470322, 0.75416076, -4.385143756866455, -5.306896209716797, 7.120102405548096, 21.945640563964844, 81.46780395507812, 31.742023468017578, 1.06884765625, 0.556884765625, -0.125, 0, 
498, 279699387, 0.5369412, -0.37802392, -0.050942045, 0.75246173, -4.641458511352539, -5.193178176879883, 7.0176262855529785, 24.972379684448242, 80.64453125, 31.55918312072754, 1.073486328125, 0.54345703125, -0.1025390625, 0, 
499, 279716054, 0.53545284, -0.3848699, -0.040504273, 0.7506841, -4.9406657218933105, -4.981701374053955, 6.817062854766846, 25.566442489624023, 78.98658752441406, 30.91522979736328, 1.08544921875, 0.53271484375, -0.07763671875, 0, 
500, 279732721, 0.5337494, -0.39156687, -0.03053866, 0.74890333, -5.179380416870117, -4.814889430999756, 6.704401016235352, 23.092390060424805, 76.42761993408203, 30.72993278503418, 1.090087890625, 0.519287109375, -0.0595703125, 0, 
501, 279749388, 0.5318684, -0.3980007, -0.021076508, 0.7471739, -5.3964338302612305, -4.749272346496582, 6.593142032623291, 20.984825134277344, 73.04867553710938, 30.423673629760742, 1.09423828125, 0.508544921875, -0.041748046875, 0, 
502, 279766055, 0.53000057, -0.40414557, -0.011945324, 0.74540234, -5.566058158874512, -4.762505531311035, 6.481320381164551, 20.358497619628906, 70.46923065185547, 29.258617401123047, 1.101318359375, 0.49609375, -0.02099609375, 0, 
503, 279782722, 0.52819484, -0.41003418, -0.0031556077, 0.7435549, -5.7823166847229, -4.621998310089111, 6.339513778686523, 19.696130752563477, 68.1244888305664, 27.6989803314209, 1.107666015625, 0.483154296875, -0.001953125, 0, 
504, 279799389, 0.52645564, -0.4157565, 0.0052175615, 0.7415964, -5.87507963180542, -4.561662673950195, 6.184396743774414, 18.34321403503418, 66.07278442382812, 25.78114128112793, 1.111328125, 0.474853515625, 0.01416015625, 0, 
505, 279816056, 0.52468085, -0.42133185, 0.013214809, 0.7396055, -5.965795993804932, -4.508053302764893, 6.0840535163879395, 16.846923828125, 64.05217742919922, 24.781648635864258, 1.1142578125, 0.466064453125, 0.03662109375, 0, 
506, 279832723, 0.5229735, -0.42657334, 0.021003032, 0.73762757, -6.100129127502441, -4.4452667236328125, 5.940253734588623, 17.17025375366211, 61.55258560180664, 23.91585350036621, 1.117431640625, 0.452880859375, 0.051513671875, 0, 
507, 279849390, 0.5213499, -0.4316228, 0.02856367, 0.7355826, -6.265898704528809, -4.262035369873047, 5.882287502288818, 16.9521427154541, 59.940670013427734, 22.61650276184082, 1.121337890625, 0.4453125, 0.06640625, 0, 
508, 279866057, 0.5195981, -0.43683574, 0.03543292, 0.73344284, -6.342916011810303, -4.125467777252197, 5.853144645690918, 12.496868133544922, 58.59211730957031, 20.84220314025879, 1.12255859375, 0.436279296875, 0.0859375, 0, 
509, 279882724, 0.51771593, -0.44203943, 0.041873567, 0.7313135, -6.380500316619873, -4.189220905303955, 5.772175312042236, 9.962550163269043, 57.01211929321289, 20.253124237060547, 1.123779296875, 0.42724609375, 0.10009765625, 0, 
510, 279899391, 0.5159437, -0.44697598, 0.048406243, 0.7291592, -6.439627170562744, -4.218709945678711, 5.681568145751953, 11.7073974609375, 56.039161682128906, 19.970598220825195, 1.123291015625, 0.41943359375, 0.117919921875, 0, 
511, 279916058, 0.51432353, -0.4516983, 0.05502061, 0.7269209, -6.591824531555176, -4.129406929016113, 5.5851149559021, 13.361289024353027, 55.460487365722656, 19.2382869720459, 1.125732421875, 0.410888671875, 0.134033203125, 0, 
512, 279932725, 0.5128508, -0.45624575, 0.061683543, 0.7245831, -6.837157726287842, -4.0300703048706055, 5.515490531921387, 14.708022117614746, 55.00944137573242, 18.370349884033203, 1.127197265625, 0.40283203125, 0.146240234375, 0, 
513, 279949392, 0.5114768, -0.46054167, 0.0684819, 0.722222, -6.9330878257751465, -4.004017353057861, 5.453799247741699, 16.579347610473633, 54.263946533203125, 18.329204559326172, 1.1279296875, 0.394287109375, 0.165771484375, 0, 
