sep=,
DeviceTag:,Xsens_5,,,,,,,,,,,,,,,,,
FirmwareVersion:,2.2.1,,,,,,,,,,,,,,,,,
AppVersion:,2023.0.0,,,,,,,,,,,,,,,,,
StartTime:,2023-07-03 16:03:08.000 +0200,,,,,,,,,,,,,,,,,
© Movella Technologies B. V. 2005-2023,,,,,,,,,,,,,,,,,,,

PacketCounter,SampleTimeFine,Quat_W,Quat_X,Quat_Y,Quat_Z,Acc_X,Acc_Y,Acc_Z,Gyr_X,Gyr_Y,Gyr_Z,Mag_X,Mag_Y,Mag_Z,Status,
0, 2246519677, 0.56365263, 0.6038896, -0.22512303, 0.5166555, 0.0, 0.0, 0.0, 0.0, 0.0, 0.0, -0.442138671875, -0.421142578125, -0.488037109375, 0, 
1, 2246536344, 0.56522226, 0.6042081, -0.23070179, 0.5120871, 7.969090938568115, 4.511132717132568, 2.348510503768921, -22.124704360961914, -65.26322174072266, 26.477876663208008, -0.458251953125, -0.407958984375, -0.479736328125, 0, 
2, 2246553011, 0.56817174, 0.60273415, -0.23671852, 0.507796, 8.410239219665527, 4.1340651512146, 2.3862648010253906, -19.76445960998535, -72.62075805664062, 29.881046295166016, -0.47509765625, -0.398193359375, -0.4697265625, 0, 
3, 2246569678, 0.56870043, 0.60111654, -0.2453868, 0.504999, 8.705345153808594, 3.7006163597106934, 2.203571319580078, -14.594280242919922, -77.54161834716797, 34.09928894042969, -0.494140625, -0.385498046875, -0.459716796875, 0, 
4, 2246586345, 0.56594455, 0.60079247, -0.25622144, 0.50309634, 9.0166654586792, 3.6485233306884766, 2.1143789291381836, -5.129464626312256, -82.48057556152344, 38.058963775634766, -0.510498046875, -0.37548828125, -0.4423828125, 0, 
5, 2246603012, 0.560334, 0.6017272, -0.2669559, 0.5026777, 9.055319786071777, 4.047779083251953, 2.2850160598754883, 3.12801456451416, -81.88916015625, 44.098453521728516, -0.5302734375, -0.3671875, -0.431640625, 0, 
6, 2246619679, 0.5537955, 0.6035417, -0.27713856, 0.5022374, 8.633840560913086, 4.39569616317749, 2.6561851501464844, 10.084510803222656, -83.46280670166016, 49.05204772949219, -0.548828125, -0.35791015625, -0.418212890625, 0, 
7, 2246636346, 0.5474487, 0.6057169, -0.28634074, 0.5014141, 8.882804870605469, 4.306179523468018, 2.629352569580078, 12.904531478881836, -85.61492919921875, 51.78898620605469, -0.565673828125, -0.34912109375, -0.399169921875, 0, 
8, 2246653013, 0.5411235, 0.60810924, -0.29497316, 0.50037944, 8.889671325683594, 4.325385570526123, 2.7307326793670654, 14.626341819763184, -86.09491729736328, 52.5566291809082, -0.58642578125, -0.339111328125, -0.38525390625, 0, 
9, 2246669680, 0.5356474, 0.61026865, -0.30357248, 0.49849582, 8.875621795654297, 4.70805549621582, 2.9570388793945312, 8.304988861083984, -87.94640350341797, 49.92217254638672, -0.602783203125, -0.327392578125, -0.367431640625, 0, 
10, 2246686347, 0.5309423, 0.6124024, -0.3116214, 0.49593946, 9.326147079467773, 4.564011573791504, 2.774480104446411, 5.412839412689209, -88.44822692871094, 46.48565673828125, -0.620849609375, -0.318115234375, -0.3505859375, 0, 
11, 2246703014, 0.52672344, 0.6140461, -0.31927177, 0.4935337, 9.71721363067627, 4.495889186859131, 2.6756365299224854, 2.8803491592407227, -83.37054443359375, 45.93647003173828, -0.634033203125, -0.305908203125, -0.332275390625, 0, 
12, 2246719681, 0.5231713, 0.6151284, -0.32676643, 0.49105245, 9.890727043151855, 4.555280685424805, 2.5858964920043945, -2.0492029190063477, -78.98118591308594, 44.0576171875, -0.65087890625, -0.292724609375, -0.31591796875, 0, 
13, 2246736348, 0.5209447, 0.6146327, -0.33481655, 0.48861146, 9.275640487670898, 4.670462131500244, 2.5824480056762695, -15.6278076171875, -71.57330322265625, 45.66881561279297, -0.66015625, -0.280517578125, -0.297607421875, 0, 
14, 2246753015, 0.51971245, 0.6138316, -0.34337473, 0.48497808, 8.770927429199219, 4.290297985076904, 2.723496913909912, -25.804838180541992, -74.38787841796875, 41.69224548339844, -0.673095703125, -0.264404296875, -0.28076171875, 0, 
15, 2246769682, 0.5185549, 0.6132992, -0.35166526, 0.48093292, 9.086381912231445, 3.9761576652526855, 2.3110158443450928, -25.47113609313965, -75.53690338134766, 38.1993522644043, -0.684326171875, -0.251220703125, -0.267333984375, 0, 
16, 2246786349, 0.5161997, 0.613299, -0.35911998, 0.47794884, 8.50062084197998, 4.424500942230225, 2.8152832984924316, -13.692729949951172, -71.48538970947266, 40.336753845214844, -0.69580078125, -0.23583984375, -0.247802734375, 0, 
17, 2246803016, 0.5124923, 0.6146368, -0.36570817, 0.47521693, 7.974363327026367, 4.796803951263428, 3.451542377471924, 0.09198392927646637, -74.87816619873047, 39.285770416259766, -0.7060546875, -0.22705078125, -0.232666015625, 0, 
18, 2246819683, 0.5091878, 0.61640215, -0.37186816, 0.47168887, 8.835966110229492, 5.185169219970703, 3.4891223907470703, -0.5019062161445618, -77.78076171875, 33.48414993286133, -0.717529296875, -0.2177734375, -0.21240234375, 0, 
19, 2246836350, 0.50775796, 0.61717457, -0.37777346, 0.46750927, 9.705011367797852, 5.96124792098999, 3.5402464866638184, -12.54729175567627, -72.11522674560547, 27.528093338012695, -0.7255859375, -0.2080078125, -0.195068359375, 0, 
20, 2246853017, 0.5091889, 0.6159598, -0.3841291, 0.46234727, 10.005355834960938, 6.5383782386779785, 3.35005521774292, -35.38158416748047, -64.47190856933594, 23.091835021972656, -0.73291015625, -0.197021484375, -0.1806640625, 0, 
21, 2246869684, 0.51256675, 0.6130749, -0.39112443, 0.45654842, 9.481220245361328, 5.390344142913818, 2.7896478176116943, -53.03964614868164, -59.08268737792969, 22.89705467224121, -0.740966796875, -0.1845703125, -0.16259765625, 0, 
22, 2246886351, 0.5167414, 0.6097406, -0.39832225, 0.45003814, 9.47877025604248, 3.352560043334961, 1.4730961322784424, -60.6597900390625, -58.673648834228516, 19.55245018005371, -0.746826171875, -0.171875, -0.145751953125, 0, 
23, 2246903018, 0.5200356, 0.6069163, -0.4038817, 0.44507888, 9.779211044311523, 2.5920238494873047, 0.06487134099006653, -46.447288513183594, -48.5117073059082, 17.2659854888916, -0.750732421875, -0.16064453125, -0.130859375, 0, 
24, 2246919685, 0.5205883, 0.6059851, -0.4072731, 0.4426043, 9.240983009338379, 2.924121379852295, 0.05499617010354996, -15.645883560180664, -40.969181060791016, 17.857486724853516, -0.757080078125, -0.153076171875, -0.1201171875, 0, 
25, 2246936352, 0.5200182, 0.60647136, -0.4095662, 0.44048727, 9.44937515258789, 3.29541277885437, 0.5860727429389954, -2.3106260299682617, -40.54955291748047, 12.585322380065918, -0.7607421875, -0.1484375, -0.109375, 0, 
26, 2246953019, 0.5217422, 0.60511273, -0.41234416, 0.43771678, 9.839706420898438, 3.747880220413208, 0.3816516399383545, -22.284961700439453, -31.314037322998047, 9.548420906066895, -0.76513671875, -0.143310546875, -0.10107421875, 0, 
27, 2246969686, 0.52549064, 0.6017438, -0.41572562, 0.43466794, 8.854422569274902, 3.8750813007354736, 0.31445640325546265, -40.981143951416016, -21.382482528686523, 9.98871898651123, -0.76708984375, -0.138671875, -0.091552734375, 0, 
28, 2246986353, 0.5296289, 0.5982385, -0.4193747, 0.4309629, 8.482233047485352, 2.9494082927703857, -0.19308976829051971, -46.170169830322266, -22.218868255615234, 7.560037612915039, -0.769775390625, -0.126220703125, -0.0859375, 0, 
29, 2247003020, 0.532373, 0.59604084, -0.42173782, 0.42831257, 9.080572128295898, 1.934686303138733, -0.7514201402664185, -29.29393768310547, -19.61211395263672, 5.6806464195251465, -0.769287109375, -0.12158203125, -0.078125, 0, 
30, 2247019687, 0.5329896, 0.595644, -0.42255583, 0.42729065, 9.927664756774902, 1.818010687828064, -0.7803317308425903, -5.244757652282715, -17.150527954101562, 5.126906394958496, -0.771728515625, -0.120361328125, -0.072509765625, 0, 
31, 2247036354, 0.5333812, 0.5951501, -0.4228594, 0.42718965, 10.451335906982422, 2.7781176567077637, -0.4333815276622772, -0.9661372900009155, -10.475241661071777, 6.171299934387207, -0.776123046875, -0.119873046875, -0.07080078125, 0, 
32, 2247053021, 0.53539425, 0.592807, -0.42435247, 0.42644805, 9.809356689453125, 3.4620003700256348, -0.17636966705322266, -20.084375381469727, -6.303321838378906, 8.67024040222168, -0.774658203125, -0.1142578125, -0.065185546875, 0, 
33, 2247069688, 0.53840744, 0.5894613, -0.42705408, 0.42459148, 9.404091835021973, 2.9271552562713623, -0.5165634155273438, -34.90544509887695, -8.664957046508789, 9.277520179748535, -0.7734375, -0.107421875, -0.06201171875, 0, 
34, 2247086355, 0.5416747, 0.58553046, -0.4308612, 0.4220205, 9.30007553100586, 2.8681020736694336, -0.7987468242645264, -43.70920181274414, -12.367199897766113, 11.704793930053711, -0.774658203125, -0.10400390625, -0.057861328125, 0, 
35, 2247103022, 0.5461588, 0.58003396, -0.43700913, 0.4174856, 9.023517608642578, 3.7801566123962402, -0.34007102251052856, -67.33319091796875, -20.007732391357422, 14.541839599609375, -0.774169921875, -0.0927734375, -0.0478515625, 0, 
36, 2247119689, 0.5529362, 0.5721564, -0.44598445, 0.40987402, 8.960554122924805, 3.5821948051452637, -0.25351041555404663, -102.95314025878906, -28.6206111907959, 14.809325218200684, -0.77783203125, -0.080322265625, -0.0361328125, 0, 
37, 2247136356, 0.5616868, 0.5617639, -0.45744324, 0.39959362, 8.955365180969238, 2.6908864974975586, -0.6864287257194519, -135.61964416503906, -34.99232482910156, 16.42937469482422, -0.7802734375, -0.06591796875, -0.014404296875, 0, 
38, 2247153023, 0.57133234, 0.549469, -0.4707588, 0.38736224, 8.767760276794434, 2.5193114280700684, -0.9034681916236877, -157.85292053222656, -41.134037017822266, 19.119077682495117, -0.78173828125, -0.046142578125, 0.008056640625, 0, 
39, 2247169690, 0.5803949, 0.53698754, -0.4844541, 0.37428674, 8.812893867492676, 2.1690804958343506, -1.3636490106582642, -160.3309783935547, -46.65452575683594, 18.935426712036133, -0.783203125, -0.028076171875, 0.03271484375, 0, 
40, 2247186357, 0.5879065, 0.5253652, -0.4977541, 0.36138418, 9.077798843383789, 2.098928928375244, -1.6417157649993896, -149.7871551513672, -51.16065216064453, 18.813541412353516, -0.78369140625, -0.011962890625, 0.061279296875, 0, 
41, 2247203024, 0.59485364, 0.5133999, -0.5110549, 0.34841442, 9.287181854248047, 2.8906679153442383, -1.2386460304260254, -149.58148193359375, -51.812686920166016, 20.6898193359375, -0.78564453125, 0.0, 0.08984375, 0, 
42, 2247219691, 0.60178983, 0.50107217, -0.5238904, 0.33513373, 9.438695907592773, 3.1773767471313477, -1.042922854423523, -151.15228271484375, -49.68768310546875, 18.917781829833984, -0.7861328125, 0.015380859375, 0.11962890625, 0, 
43, 2247236358, 0.6086337, 0.48814696, -0.5368216, 0.321092, 9.64712905883789, 3.2206990718841553, -0.9632688760757446, -156.3795166015625, -51.28060531616211, 18.40257453918457, -0.7861328125, 0.028076171875, 0.148193359375, 0, 
44, 2247253025, 0.6150923, 0.4755257, -0.5488094, 0.30715653, 9.905562400817871, 2.6825509071350098, -1.191524863243103, -151.43394470214844, -48.7535285949707, 15.367331504821777, -0.789306640625, 0.036865234375, 0.174072265625, 0, 
45, 2247269692, 0.6202745, 0.46426442, -0.559366, 0.2946657, 10.009881973266602, 1.864158034324646, -1.2029223442077637, -133.12892150878906, -45.32270431518555, 14.204668045043945, -0.78759765625, 0.044189453125, 0.20263671875, 0, 
46, 2247286359, 0.6242812, 0.45386633, -0.5692005, 0.28335336, 9.80567455291748, 2.4670703411102295, -0.8415896892547607, -119.7941665649414, -44.43292999267578, 15.676713943481445, -0.786376953125, 0.0478515625, 0.227783203125, 0, 
47, 2247303026, 0.6284905, 0.4430527, -0.5787835, 0.2715029, 9.815032005310059, 3.2598297595977783, -0.4488251507282257, -123.89653015136719, -43.22356033325195, 13.694687843322754, -0.78515625, 0.056640625, 0.254638671875, 0, 
48, 2247319693, 0.6329652, 0.43200347, -0.5877204, 0.25944757, 9.780904769897461, 2.5884792804718018, -0.5895091891288757, -125.34712982177734, -39.45878219604492, 11.346307754516602, -0.782958984375, 0.0595703125, 0.27880859375, 0, 
49, 2247336360, 0.637122, 0.4211268, -0.5961041, 0.24776536, 9.467296600341797, 2.065586805343628, -0.7276321053504944, -121.20246124267578, -37.42170715332031, 11.125004768371582, -0.784423828125, 0.06103515625, 0.303955078125, 0, 
50, 2247353027, 0.6409424, 0.4102254, -0.60434216, 0.235963, 9.427526473999023, 2.7554686069488525, -0.46733027696609497, -120.62122344970703, -38.326759338378906, 10.704419136047363, -0.783203125, 0.061767578125, 0.328125, 0, 
51, 2247369694, 0.6443169, 0.40011603, -0.6116794, 0.22496988, 9.371312141418457, 2.5201759338378906, -0.26561179757118225, -111.07039642333984, -35.13458251953125, 9.166016578674316, -0.7802734375, 0.064208984375, 0.352783203125, 0, 
52, 2247386361, 0.6468004, 0.39149526, -0.61801434, 0.21549724, 9.339444160461426, 1.832718849182129, -0.19301314651966095, -94.08515167236328, -32.52604293823242, 8.234573364257812, -0.7802734375, 0.06494140625, 0.3759765625, 0, 
53, 2247403028, 0.6486698, 0.38393557, -0.6235667, 0.20733008, 9.367712020874023, 2.255040168762207, -0.08107947558164597, -81.02133178710938, -29.694189071655273, 8.196761131286621, -0.7783203125, 0.064453125, 0.38818359375, 0, 
54, 2247419695, 0.6502617, 0.37684694, -0.6287274, 0.19961998, 9.360116958618164, 3.2592971324920654, 0.283158540725708, -75.6764144897461, -28.607088088989258, 7.530519962310791, -0.778564453125, 0.06298828125, 0.40625, 0, 
55, 2247436362, 0.6521408, 0.36963195, -0.6335317, 0.19163051, 9.585336685180664, 3.433769941329956, 0.3829447031021118, -77.67703247070312, -26.385831832885742, 5.6329498291015625, -0.77880859375, 0.064208984375, 0.420654296875, 0, 
56, 2247453029, 0.6541309, 0.36239627, -0.63805485, 0.18348804, 9.679466247558594, 2.7587106227874756, 0.2382006198167801, -78.31805419921875, -25.08562660217285, 4.30651330947876, -0.775390625, 0.059326171875, 0.43603515625, 0, 
57, 2247469696, 0.6559202, 0.35579097, -0.6420365, 0.17598547, 9.771858215332031, 2.5698564052581787, -0.010050162672996521, -71.4734115600586, -22.789403915405273, 3.333693504333496, -0.774658203125, 0.05908203125, 0.457275390625, 0, 
58, 2247486363, 0.65740585, 0.3503494, -0.6451965, 0.16968894, 9.634514808654785, 2.650892972946167, 0.02948000095784664, -59.163421630859375, -18.899213790893555, 1.97502863407135, -0.77197265625, 0.056396484375, 0.46630859375, 0, 
59, 2247503030, 0.6590231, 0.3451406, -0.6478975, 0.16369346, 9.479857444763184, 3.0488836765289307, 0.27000346779823303, -56.54730224609375, -15.805996894836426, 1.045811414718628, -0.77099609375, 0.052490234375, 0.474609375, 0, 
60, 2247519697, 0.6610884, 0.33953553, -0.65036446, 0.15717562, 9.367862701416016, 3.336914539337158, 0.22397208213806152, -61.45203399658203, -13.5925931930542, -0.5525504946708679, -0.771728515625, 0.048095703125, 0.48583984375, 0, 
61, 2247536364, 0.6633749, 0.33397132, -0.65248024, 0.15055406, 9.416529655456543, 3.1081109046936035, 0.12465952336788177, -61.84449005126953, -11.32932186126709, -2.166928768157959, -0.770263671875, 0.04541015625, 0.49609375, 0, 
62, 2247553031, 0.6659234, 0.32796323, -0.6545163, 0.1435086, 9.288536071777344, 3.282820701599121, 0.4259955883026123, -66.27645111083984, -10.324759483337402, -2.509277820587158, -0.771240234375, 0.042724609375, 0.505615234375, 0, 
63, 2247569698, 0.6690764, 0.32154575, -0.65608704, 0.13599566, 9.316914558410645, 3.2348580360412598, 0.35486775636672974, -71.13645935058594, -6.179431438446045, -4.380721569061279, -0.77197265625, 0.03662109375, 0.51611328125, 0, 
64, 2247586365, 0.67247415, 0.31568584, -0.65686834, 0.1290157, 9.39981460571289, 2.7537970542907715, 0.15105174481868744, -65.95115661621094, -0.8244727849960327, -6.36184549331665, -0.7705078125, 0.0283203125, 0.521240234375, 0, 
65, 2247603032, 0.67582965, 0.31089088, -0.65682656, 0.123207554, 9.4845609664917, 2.7351155281066895, -0.08512616157531738, -54.90665054321289, 4.382745742797852, -7.510967254638672, -0.7734375, 0.0234375, 0.528564453125, 0, 
66, 2247619699, 0.67889065, 0.3070468, -0.656361, 0.11840618, 9.470876693725586, 3.2387092113494873, 0.32049375772476196, -44.95753479003906, 6.398899555206299, -7.794219970703125, -0.7734375, 0.0205078125, 0.529052734375, 0, 
67, 2247636366, 0.682481, 0.30315778, -0.65530777, 0.11351992, 9.800777435302734, 3.2357966899871826, 0.24883925914764404, -46.180747985839844, 11.37876033782959, -9.607198715209961, -0.77587890625, 0.01513671875, 0.536865234375, 0, 
68, 2247653033, 0.6859934, 0.2997577, -0.65390736, 0.109378785, 9.791341781616211, 2.5998501777648926, -0.05231460556387901, -40.08964920043945, 13.832326889038086, -8.94046688079834, -0.778564453125, 0.0107421875, 0.536865234375, 0, 
69, 2247669700, 0.68896276, 0.29685384, -0.65267587, 0.10593589, 9.877558708190918, 2.7611243724823, -0.012466587126255035, -33.630126953125, 11.705281257629395, -7.161573886871338, -0.7802734375, 0.00732421875, 0.53466796875, 0, 
70, 2247686367, 0.69192445, 0.2942469, -0.65119886, 0.10295358, 9.98324203491211, 2.5676445960998535, -0.06404706835746765, -29.97409439086914, 13.603615760803223, -6.8297929763793945, -0.782958984375, 0.0029296875, 0.536376953125, 0, 
71, 2247703034, 0.6946522, 0.2919354, -0.6497221, 0.100466475, 9.766847610473633, 2.542191505432129, -0.1429269015789032, -25.891151428222656, 13.404325485229492, -5.67593240737915, -0.78466796875, 0.001220703125, 0.532958984375, 0, 
72, 2247719701, 0.69731164, 0.28949022, -0.64835006, 0.097950846, 9.847628593444824, 2.765517473220825, -0.07090561836957932, -26.612550735473633, 12.702293395996094, -4.999025821685791, -0.7841796875, -0.005615234375, 0.532470703125, 0, 
73, 2247736368, 0.7000057, 0.28716138, -0.64681417, 0.09571676, 9.764617919921875, 2.3954524993896484, -0.31192195415496826, -24.775772094726562, 14.187714576721191, -4.535663604736328, -0.789794921875, -0.0087890625, 0.53466796875, 0, 
74, 2247753035, 0.70237017, 0.28506786, -0.6454364, 0.093937986, 9.596661567687988, 2.366338014602661, -0.3191586434841156, -21.09627914428711, 12.796636581420898, -2.9173824787139893, -0.790771484375, -0.01220703125, 0.53076171875, 0, 
75, 2247769702, 0.70459163, 0.28303915, -0.64413506, 0.092354886, 9.569421768188477, 2.347050905227661, -0.33823996782302856, -19.710006713867188, 12.225072860717773, -2.067934513092041, -0.791015625, -0.009765625, 0.536865234375, 0, 
76, 2247786369, 0.7064661, 0.2815196, -0.6428729, 0.09147192, 9.545540809631348, 2.030912160873413, -0.6477763056755066, -13.520740509033203, 11.63235855102539, -0.6837573051452637, -0.7919921875, -0.011474609375, 0.52978515625, 0, 
77, 2247803036, 0.7078872, 0.28072578, -0.6416588, 0.09144947, 9.516064643859863, 1.9930397272109985, -0.5574911832809448, -5.378106117248535, 10.726058959960938, 0.5902257561683655, -0.793212890625, -0.010498046875, 0.53369140625, 0, 
78, 2247819703, 0.708784, 0.28051257, -0.64066154, 0.09214547, 9.410015106201172, 2.134977340698242, -0.4023579955101013, 1.460519790649414, 8.489863395690918, 2.2017133235931396, -0.79345703125, -0.010498046875, 0.524658203125, 0, 
79, 2247836370, 0.70949495, 0.28015292, -0.6399337, 0.09282407, 9.465176582336426, 2.618424654006958, -0.14348824322223663, 0.8327649235725403, 6.512022972106934, 3.348111629486084, -0.79296875, -0.010986328125, 0.5234375, 0, 
80, 2247853037, 0.71018255, 0.2794044, -0.6394274, 0.093310095, 9.489470481872559, 2.419302463531494, -0.06202477589249611, -2.028653860092163, 5.274801254272461, 4.555967807769775, -0.79345703125, -0.009521484375, 0.51904296875, 0, 
81, 2247869704, 0.710699, 0.2784544, -0.63918656, 0.0938655, 9.518943786621094, 2.351322889328003, -0.07985100150108337, -2.5678272247314453, 3.5501832962036133, 6.376763343811035, -0.795654296875, -0.00830078125, 0.521240234375, 0, 
82, 2247886371, 0.7109614, 0.277685, -0.6390968, 0.09476513, 9.495548248291016, 2.518049716949463, 0.027585869655013084, 0.19819748401641846, 2.295788049697876, 7.6908860206604, -0.795166015625, -0.0078125, 0.521728515625, 0, 
83, 2247903038, 0.71110094, 0.27719432, -0.63897777, 0.09594954, 9.550978660583496, 2.5871572494506836, 0.039272114634513855, 3.049429416656494, 2.3107075691223145, 7.87296724319458, -0.795654296875, -0.003662109375, 0.520751953125, 0, 
84, 2247919705, 0.71114117, 0.27711564, -0.63870925, 0.097651765, 9.523289680480957, 2.582720994949341, 0.04295150935649872, 7.611424446105957, 3.3674371242523193, 8.375425338745117, -0.7939453125, -0.00146484375, 0.52001953125, 0, 
85, 2247936372, 0.7109904, 0.27718207, -0.6385634, 0.09949723, 9.434928894042969, 2.891934633255005, 0.3375626504421234, 9.217510223388672, 2.148477792739868, 8.801802635192871, -0.792724609375, 0.0, 0.51611328125, 0, 
86, 2247953039, 0.7108924, 0.27693868, -0.63854486, 0.10098414, 9.48489761352539, 3.0361316204071045, 0.555597722530365, 5.932703018188477, 1.3070995807647705, 8.650287628173828, -0.7900390625, 0.002197265625, 0.5185546875, 0, 
87, 2247969706, 0.71101415, 0.2762404, -0.63855505, 0.10196929, 9.530449867248535, 2.953364133834839, 0.5970909595489502, 1.0639454126358032, 1.494763970375061, 8.141901969909668, -0.789794921875, 0.00390625, 0.51220703125, 0, 
88, 2247986373, 0.7113368, 0.2752717, -0.6384885, 0.10275264, 9.486745834350586, 2.944545269012451, 0.558102548122406, -1.4725641012191772, 2.5589332580566406, 8.093339920043945, -0.789794921875, 0.005615234375, 0.513916015625, 0, 
89, 2248003040, 0.71170056, 0.27440444, -0.6383297, 0.10353684, 9.442851066589355, 2.9421277046203613, 0.552159309387207, -0.9896236658096313, 3.123424530029297, 7.485472679138184, -0.788818359375, 0.005615234375, 0.513427734375, 0, 
90, 2248019707, 0.71206987, 0.2735724, -0.6381561, 0.10426688, 9.444841384887695, 2.9257547855377197, 0.48818856477737427, -1.0598536729812622, 3.098029375076294, 7.074145793914795, -0.790283203125, 0.006591796875, 0.51220703125, 0, 
91, 2248036374, 0.71227014, 0.27318093, -0.6379476, 0.10519646, 9.530221939086914, 2.786198616027832, 0.40292441844940186, 2.3112072944641113, 2.5973267555236816, 6.210267543792725, -0.78759765625, 0.010009765625, 0.50830078125, 0, 
92, 2248053041, 0.71234447, 0.2729729, -0.63778454, 0.10621668, 9.632746696472168, 2.900224208831787, 0.37986722588539124, 3.8045942783355713, 1.877801775932312, 6.050994873046875, -0.785400390625, 0.009521484375, 0.516845703125, 0, 
93, 2248069708, 0.7124265, 0.27280816, -0.6376046, 0.107167326, 9.619226455688477, 3.0176262855529785, 0.3781222701072693, 3.7027711868286133, 1.8511518239974976, 5.5152411460876465, -0.789794921875, 0.013427734375, 0.51171875, 0, 
94, 2248086375, 0.7125338, 0.272694, -0.6373896, 0.10802094, 9.646862030029297, 2.9621706008911133, 0.3937552869319916, 3.4950644969940186, 1.934636116027832, 4.775379657745361, -0.78759765625, 0.014892578125, 0.510498046875, 0, 
95, 2248103042, 0.71270823, 0.27253643, -0.6371371, 0.10875258, 9.594915390014648, 2.8580105304718018, 0.4087952971458435, 2.6447227001190186, 2.236020565032959, 4.28342342376709, -0.785400390625, 0.01220703125, 0.5087890625, 0, 
96, 2248119709, 0.7129166, 0.27234137, -0.63688725, 0.109338574, 9.535881042480469, 2.8877675533294678, 0.4761587381362915, 1.7495973110198975, 2.1442251205444336, 3.743008613586426, -0.787353515625, 0.014892578125, 0.503173828125, 0, 
97, 2248136376, 0.713132, 0.27198997, -0.6367451, 0.10963526, 9.481389045715332, 2.8587684631347656, 0.5866363644599915, -0.3800539970397949, 1.2353196144104004, 3.239039421081543, -0.786865234375, 0.0166015625, 0.505615234375, 0, 
98, 2248153043, 0.7134097, 0.27166757, -0.6365421, 0.10980769, 9.529387474060059, 2.6503336429595947, 0.45575350522994995, -0.8545677661895752, 1.5562468767166138, 2.372241973876953, -0.786865234375, 0.0166015625, 0.5048828125, 0, 
99, 2248169710, 0.7136061, 0.2716709, -0.6362293, 0.11033424, 9.482406616210938, 2.5619330406188965, 0.41238313913345337, 2.523574113845825, 2.166264295578003, 2.554501533508301, -0.78466796875, 0.01708984375, 0.505615234375, 0, 
100, 2248186377, 0.7137159, 0.27169165, -0.63601303, 0.11081923, 9.49509048461914, 2.860546588897705, 0.5293644666671753, 2.5129451751708984, 1.2393280267715454, 2.529503583908081, -0.786865234375, 0.018310546875, 0.503173828125, 0, 
101, 2248203044, 0.714018, 0.27125856, -0.63586366, 0.110790685, 9.59273624420166, 2.8746228218078613, 0.5781899690628052, -2.3757317066192627, 1.1455729007720947, 2.002586841583252, -0.7841796875, 0.0166015625, 0.5048828125, 0, 
102, 2248219711, 0.71444935, 0.27069157, -0.63564444, 0.11065457, 9.583425521850586, 2.540303945541382, 0.3687436878681183, -3.692826271057129, 1.9611197710037231, 1.8609743118286133, -0.78564453125, 0.01611328125, 0.50390625, 0, 
103, 2248236378, 0.71464324, 0.27045792, -0.63549423, 0.110836044, 9.514384269714355, 2.4905693531036377, 0.3458596169948578, -0.2827385663986206, 0.9407737255096436, 2.275233745574951, -0.78515625, 0.018310546875, 0.50390625, 0, 
104, 2248253045, 0.7147899, 0.27033517, -0.6353405, 0.11107044, 9.582062721252441, 2.591510057449341, 0.3478966951370239, 0.5787893533706665, 0.7854070067405701, 2.0832409858703613, -0.78515625, 0.018798828125, 0.502685546875, 0, 
105, 2248269712, 0.7149978, 0.27034226, -0.63503784, 0.11144602, 9.620387077331543, 2.614105463027954, 0.24356120824813843, 1.8287018537521362, 1.9671640396118164, 1.8941551446914673, -0.7841796875, 0.017822265625, 0.5078125, 0, 
106, 2248286379, 0.71519417, 0.27061316, -0.63459355, 0.112057626, 9.564373970031738, 2.543931722640991, 0.2773240804672241, 4.279927730560303, 2.8779137134552, 1.6554193496704102, -0.783935546875, 0.019287109375, 0.50048828125, 0, 
107, 2248303046, 0.71524864, 0.27116686, -0.6341471, 0.11289656, 9.545146942138672, 2.5864267349243164, 0.27309003472328186, 6.919739246368408, 2.500152111053467, 1.6511549949645996, -0.78515625, 0.019287109375, 0.5009765625, 0, 
108, 2248319713, 0.71519923, 0.27168444, -0.63384295, 0.11366996, 9.52267837524414, 2.8122470378875732, 0.4101809859275818, 6.5321807861328125, 1.277875542640686, 1.8393571376800537, -0.784423828125, 0.02099609375, 0.498291015625, 0, 
109, 2248336380, 0.7153139, 0.27176017, -0.6336292, 0.11395832, 9.588912963867188, 2.8518788814544678, 0.46748363971710205, 1.8638681173324585, 1.0059452056884766, 1.4455487728118896, -0.78271484375, 0.019287109375, 0.498291015625, 0, 
110, 2248353047, 0.7155156, 0.27159542, -0.63346034, 0.11402399, 9.6107759475708, 2.6361570358276367, 0.33581796288490295, -0.4900093972682953, 0.9488800764083862, 1.4394402503967285, -0.7861328125, 0.01708984375, 0.49658203125, 0, 
111, 2248369714, 0.71564144, 0.27146518, -0.63335526, 0.11412854, 9.564384460449219, 2.58556866645813, 0.3402124047279358, -0.06536360830068588, 0.36963608860969543, 1.668212890625, -0.78271484375, 0.018798828125, 0.49609375, 0, 
112, 2248386381, 0.71554154, 0.27146548, -0.6334367, 0.11430194, 9.536166191101074, 2.6846697330474854, 0.3922269344329834, 1.146891713142395, -1.484012484550476, 1.9700071811676025, -0.783935546875, 0.0205078125, 0.498291015625, 0, 
113, 2248403048, 0.7154063, 0.27116776, -0.63374513, 0.11414516, 9.549635887145996, 2.908066987991333, 0.48254653811454773, -1.8740299940109253, -3.122328519821167, 2.1095833778381348, -0.784912109375, 0.021484375, 0.4970703125, 0, 
114, 2248419715, 0.71555597, 0.27042192, -0.6339935, 0.11359553, 9.583274841308594, 2.8779191970825195, 0.4066883623600006, -6.277379512786865, -1.9542876482009888, 1.823106050491333, -0.78515625, 0.018310546875, 0.498779296875, 0, 
115, 2248436382, 0.7157714, 0.2698237, -0.63407284, 0.113218434, 9.543072700500488, 2.651293992996216, 0.3484223186969757, -4.792879104614258, -0.616126298904419, 1.6882675886154175, -0.783935546875, 0.019287109375, 0.5, 0, 
116, 2248453049, 0.71587676, 0.26970977, -0.6339879, 0.11329869, 9.478550910949707, 2.5178136825561523, 0.21655583381652832, -0.09029757231473923, 0.20143747329711914, 1.6198943853378296, -0.7822265625, 0.019775390625, 0.5, 0, 
117, 2248469716, 0.71575737, 0.2701557, -0.6338446, 0.11379061, 9.45144271850586, 2.697455644607544, 0.36424675583839417, 4.915980339050293, -0.1380140483379364, 1.2752755880355835, -0.783935546875, 0.0205078125, 0.501708984375, 0, 
118, 2248486383, 0.71567124, 0.27064115, -0.6336631, 0.11419068, 9.435820579528809, 2.9491705894470215, 0.48497098684310913, 4.674978256225586, 0.010994253680109978, 0.5708879232406616, -0.78125, 0.017578125, 0.5, 0, 
119, 2248503050, 0.71575385, 0.27082396, -0.63348925, 0.11420326, 9.4498872756958, 2.9584624767303467, 0.6445520520210266, 1.1743102073669434, 0.23528465628623962, -0.10297585278749466, -0.784423828125, 0.019775390625, 0.49755859375, 0, 
120, 2248519717, 0.71591485, 0.27099502, -0.63325274, 0.11409948, 9.464764595031738, 2.737736940383911, 0.5885016918182373, 0.5114792585372925, 0.6773343086242676, -0.7677151560783386, -0.78173828125, 0.018798828125, 0.499267578125, 0, 
121, 2248536384, 0.71597415, 0.2716648, -0.632853, 0.114352435, 9.495464324951172, 2.5703866481781006, 0.4734176695346832, 4.835351467132568, 1.3129006624221802, -1.3896812200546265, -0.788330078125, 0.019287109375, 0.49658203125, 0, 
122, 2248553051, 0.71581703, 0.27308384, -0.6322564, 0.11525268, 9.501139640808105, 2.619605779647827, 0.5574267506599426, 11.89594554901123, 1.970584511756897, -1.65488862991333, -0.785400390625, 0.018798828125, 0.494384765625, 0, 
123, 2248569718, 0.7154019, 0.27480012, -0.6317713, 0.11640593, 9.447123527526855, 2.8921282291412354, 0.7508668899536133, 14.855255126953125, 0.5430088043212891, -1.2777031660079956, -0.783203125, 0.019775390625, 0.49365234375, 0, 
124, 2248586385, 0.7149936, 0.27594158, -0.63163656, 0.116943486, 9.509138107299805, 3.1943042278289795, 0.9216005206108093, 9.060181617736816, -1.8575999736785889, -1.1246411800384521, -0.785400390625, 0.02099609375, 0.490966796875, 0, 
125, 2248603052, 0.71492124, 0.27632746, -0.6315793, 0.11678368, 9.617897033691406, 2.9553558826446533, 0.7586213946342468, 1.621520757675171, -1.512711524963379, -1.347381591796875, -0.7861328125, 0.01806640625, 0.490966796875, 0, 
126, 2248619719, 0.715048, 0.27654672, -0.63136905, 0.11662572, 9.598152160644531, 2.639370918273926, 0.530235767364502, 0.5572618842124939, 0.23368388414382935, -1.038569450378418, -0.78369140625, 0.017578125, 0.490966796875, 0, 
127, 2248636386, 0.7150135, 0.27718621, -0.63108695, 0.11684541, 9.527767181396484, 2.5550754070281982, 0.3616431653499603, 4.6252899169921875, 0.2712833881378174, -1.0082696676254272, -0.7861328125, 0.017578125, 0.4921875, 0, 
128, 2248653053, 0.7147969, 0.27846438, -0.63062596, 0.11761796, 9.52072811126709, 2.6445119380950928, 0.34529542922973633, 10.651065826416016, 0.917043924331665, -1.2559961080551147, -0.78662109375, 0.015380859375, 0.490966796875, 0, 
129, 2248669720, 0.71455306, 0.2799676, -0.6300469, 0.11863017, 9.502671241760254, 2.7116458415985107, 0.473032683134079, 12.93956184387207, 1.672913670539856, -1.2523592710494995, -0.78662109375, 0.016357421875, 0.48974609375, 0, 
130, 2248686387, 0.71445245, 0.2810705, -0.62953854, 0.119325384, 9.466887474060059, 2.927454710006714, 0.5412634611129761, 9.264379501342773, 1.670121431350708, -1.0456771850585938, -0.787109375, 0.018798828125, 0.487060546875, 0, 
131, 2248703054, 0.71450627, 0.28152034, -0.6292668, 0.11937589, 9.439924240112305, 3.014751434326172, 0.6097341775894165, 2.7715823650360107, 0.47144660353660583, -1.0326272249221802, -0.7880859375, 0.020263671875, 0.48583984375, 0, 
132, 2248719721, 0.7146248, 0.28173882, -0.62907654, 0.11915367, 9.513242721557617, 2.6927242279052734, 0.5225318074226379, 0.2625238001346588, 0.01360674574971199, -1.2378233671188354, -0.789794921875, 0.015869140625, 0.484130859375, 0, 
133, 2248736388, 0.71471566, 0.28218988, -0.62876356, 0.11919308, 9.533090591430664, 2.528855800628662, 0.44467195868492126, 2.689096450805664, 0.816526472568512, -1.1663768291473389, -0.788818359375, 0.01708984375, 0.4853515625, 0, 
134, 2248753055, 0.71471924, 0.2830716, -0.6282699, 0.119682826, 9.5001220703125, 2.6228995323181152, 0.42935141921043396, 7.068830966949463, 1.854865550994873, -1.0993611812591553, -0.787109375, 0.019287109375, 0.4853515625, 0, 
135, 2248769722, 0.7146554, 0.28428495, -0.62764615, 0.1204598, 9.500849723815918, 2.8043763637542725, 0.4963439106941223, 10.174361228942871, 2.4997172355651855, -1.3169671297073364, -0.789306640625, 0.015380859375, 0.4814453125, 0, 
136, 2248786389, 0.71467286, 0.28546932, -0.62694603, 0.121197164, 9.553523063659668, 2.844114303588867, 0.4957291781902313, 9.762226104736328, 3.1798243522644043, -1.5905877351760864, -0.786865234375, 0.01806640625, 0.48095703125, 0, 
137, 2248803056, 0.71479815, 0.28655967, -0.62616175, 0.12193708, 9.607779502868652, 2.7810468673706055, 0.46259474754333496, 9.167959213256836, 4.148637294769287, -1.414064645767212, -0.7890625, 0.015869140625, 0.476806640625, 0, 
138, 2248819723, 0.714844, 0.28776422, -0.62537193, 0.12288121, 9.559941291809082, 2.7524125576019287, 0.4466290771961212, 10.765745162963867, 4.149970054626465, -0.83961021900177, -0.7919921875, 0.017578125, 0.480224609375, 0, 
139, 2248836390, 0.714752, 0.28890368, -0.6247842, 0.12372966, 9.502784729003906, 2.88637113571167, 0.5415089726448059, 10.134455680847168, 2.440295457839966, -0.507759153842926, -0.791748046875, 0.019287109375, 0.475830078125, 0, 
140, 2248853057, 0.7146134, 0.28991854, -0.6243343, 0.12442592, 9.510354995727539, 2.8988749980926514, 0.5277648568153381, 8.839488983154297, 1.3712209463119507, -0.39229699969291687, -0.78955078125, 0.016357421875, 0.47119140625, 0, 
141, 2248869724, 0.7144729, 0.2906933, -0.624033, 0.12493587, 9.445137977600098, 2.9144935607910156, 0.601951003074646, 6.73598051071167, 0.47236868739128113, 0.03562086820602417, -0.791259765625, 0.019775390625, 0.470703125, 0, 
142, 2248886391, 0.714411, 0.2914604, -0.6236422, 0.12545182, 9.44269847869873, 2.7498559951782227, 0.4506571888923645, 6.643185615539551, 1.2693591117858887, -0.1315852552652359, -0.791748046875, 0.01806640625, 0.4697265625, 0, 
143, 2248903058, 0.7143041, 0.2925537, -0.6230838, 0.12628777, 9.429317474365234, 2.6389453411102295, 0.3365558981895447, 9.850027084350586, 2.268101692199707, -0.24999284744262695, -0.7900390625, 0.0185546875, 0.46728515625, 0, 
144, 2248919725, 0.7140815, 0.29356223, -0.6226963, 0.12711526, 9.333638191223145, 3.008225202560425, 0.5233998894691467, 9.478180885314941, 1.005433201789856, 0.5136436223983765, -0.789306640625, 0.01904296875, 0.465576171875, 0, 
145, 2248936392, 0.7139752, 0.2937415, -0.6227402, 0.12708358, 9.39452075958252, 3.2182557582855225, 0.7249560356140137, 1.1143381595611572, -1.6196701526641846, 0.6376857161521912, -0.7900390625, 0.020263671875, 0.468017578125, 0, 
146, 2248953059, 0.7140924, 0.29321668, -0.62298757, 0.12642278, 9.561026573181152, 2.8737664222717285, 0.597328245639801, -5.6638007164001465, -2.323366641998291, 0.8129279613494873, -0.790771484375, 0.0185546875, 0.472900390625, 0, 
147, 2248969726, 0.71424824, 0.2926683, -0.6231782, 0.12587225, 9.62191104888916, 2.5874481201171875, 0.464581161737442, -5.337366580963135, -1.638764500617981, 1.3165761232376099, -0.791748046875, 0.01806640625, 0.468994140625, 0, 
148, 2248986393, 0.71421826, 0.29258558, -0.6232587, 0.1258361, 9.571478843688965, 2.504023790359497, 0.3399364650249481, -0.378927081823349, -1.2573530673980713, 1.7779120206832886, -0.792236328125, 0.0185546875, 0.468994140625, 0, 
149, 2249003060, 0.71404815, 0.29246044, -0.62351656, 0.12581477, 9.52912425994873, 2.7460038661956787, 0.5133612751960754, -0.39594677090644836, -2.6514270305633545, 2.4971678256988525, -0.7900390625, 0.01806640625, 0.471923828125, 0, 
150, 2249019727, 0.7141325, 0.29154542, -0.62398005, 0.12516089, 9.583479881286621, 2.94387149810791, 0.6577612161636353, -7.675320148468018, -3.15584397315979, 2.974153518676758, -0.7890625, 0.016357421875, 0.472412109375, 0, 
151, 2249036394, 0.71439576, 0.289942, -0.6246573, 0.12399918, 9.564244270324707, 2.6220381259918213, 0.5637348294258118, -13.77621078491211, -3.871093511581421, 3.722341299057007, -0.791259765625, 0.01806640625, 0.471923828125, 0, 
152, 2249053061, 0.71464986, 0.28801113, -0.62551063, 0.12272692, 9.604004859924316, 2.329671621322632, 0.43700864911079407, -15.989831924438477, -4.72153902053833, 4.939382076263428, -0.790283203125, 0.020263671875, 0.47802734375, 0, 
153, 2249069728, 0.71482664, 0.28610104, -0.6263832, 0.12171006, 9.564088821411133, 2.2870333194732666, 0.3385501801967621, -14.653704643249512, -4.6573920249938965, 6.185773849487305, -0.787353515625, 0.021484375, 0.48095703125, 0, 
154, 2249086395, 0.7148335, 0.2840226, -0.6275408, 0.120569006, 9.516258239746094, 2.6662611961364746, 0.49037304520606995, -15.918770790100098, -6.885956287384033, 6.980319976806641, -0.78857421875, 0.0224609375, 0.483154296875, 0, 
155, 2249103062, 0.71505594, 0.2811605, -0.6289374, 0.118666194, 9.591056823730469, 2.7423105239868164, 0.6289745569229126, -23.67621612548828, -7.96848726272583, 6.906205177307129, -0.78759765625, 0.019775390625, 0.487548828125, 0, 
156, 2249119729, 0.71542984, 0.27778178, -0.6304132, 0.11651975, 9.602386474609375, 2.252919912338257, 0.3349855840206146, -27.625568389892578, -7.761914253234863, 7.977477550506592, -0.783935546875, 0.019775390625, 0.49267578125, 0, 
157, 2249136396, 0.7155862, 0.2738824, -0.6323667, 0.114181325, 9.450091361999512, 2.536402702331543, 0.5401328206062317, -30.987403869628906, -10.998751640319824, 10.35348129272461, -0.784912109375, 0.0205078125, 0.498291015625, 0, 
158, 2249153063, 0.7158161, 0.26939502, -0.6345561, 0.111230955, 9.469786643981934, 2.574173927307129, 0.5644331574440002, -36.86235046386719, -12.535911560058594, 10.284317970275879, -0.78173828125, 0.023193359375, 0.50390625, 0, 
159, 2249169730, 0.71602625, 0.26493666, -0.6366944, 0.10833053, 9.465949058532715, 2.2301623821258545, 0.3795984089374542, -36.42668914794922, -12.309417724609375, 10.325413703918457, -0.781494140625, 0.0234375, 0.517822265625, 0, 
160, 2249186397, 0.7160094, 0.26104698, -0.63871455, 0.10596775, 9.419886589050293, 2.337190628051758, 0.40979546308517456, -30.770753860473633, -12.163074493408203, 10.420845985412598, -0.777587890625, 0.0205078125, 0.5185546875, 0, 
161, 2249203064, 0.7159403, 0.2577137, -0.6404564, 0.10406269, 9.440171241760254, 2.601820230484009, 0.5326447486877441, -25.72320556640625, -10.606032371520996, 9.760945320129395, -0.775390625, 0.022705078125, 0.52294921875, 0, 
162, 2249219731, 0.7158579, 0.2549248, -0.6419023, 0.1025787, 9.498635292053223, 2.6226019859313965, 0.5381969213485718, -20.954856872558594, -8.855966567993164, 8.93204402923584, -0.77734375, 0.021240234375, 0.52685546875, 0, 
163, 2249236398, 0.71574336, 0.25250074, -0.64318013, 0.10136313, 9.584759712219238, 2.67615008354187, 0.5512106418609619, -17.797868728637695, -7.96156644821167, 8.383721351623535, -0.77392578125, 0.0234375, 0.53125, 0, 
164, 2249253065, 0.7156084, 0.2504192, -0.64430493, 0.100331105, 9.628779411315918, 2.6781976222991943, 0.5932408571243286, -15.158635139465332, -7.222647666931152, 7.535783767700195, -0.771728515625, 0.021728515625, 0.532958984375, 0, 
165, 2249269732, 0.7155969, 0.24855272, -0.6451859, 0.09938843, 9.696420669555664, 2.708148717880249, 0.5736452341079712, -13.748577117919922, -5.47666597366333, 6.53501558303833, -0.77197265625, 0.021728515625, 0.544921875, 0, 
166, 2249286399, 0.7157261, 0.24690533, -0.6458027, 0.09855495, 9.641176223754883, 2.7405247688293457, 0.5607134699821472, -12.245401382446289, -3.522132635116577, 5.570913314819336, -0.7685546875, 0.0234375, 0.539794921875, 0, 
167, 2249303066, 0.7158672, 0.24575195, -0.64617133, 0.09799312, 9.610743522644043, 2.6543056964874268, 0.5414785742759705, -8.460749626159668, -2.1244590282440186, 4.30751371383667, -0.769775390625, 0.02392578125, 0.544189453125, 0, 
168, 2249319733, 0.71597874, 0.24501316, -0.64636695, 0.0977385, 9.526098251342773, 2.746480703353882, 0.6116756200790405, -4.890067100524902, -1.167798399925232, 3.7209560871124268, -0.769287109375, 0.022216796875, 0.54248046875, 0, 
169, 2249336400, 0.7161607, 0.244291, -0.64651656, 0.09722324, 9.59504222869873, 2.8735291957855225, 0.7508636116981506, -6.055662631988525, -1.0840704441070557, 2.265040397644043, -0.770263671875, 0.021240234375, 0.544189453125, 0, 
170, 2249353067, 0.7164422, 0.24379586, -0.64646745, 0.09671743, 9.658759117126465, 2.6015572547912598, 0.6168235540390015, -4.928241729736328, 0.1891690045595169, 0.9337814450263977, -0.77099609375, 0.021728515625, 0.54638671875, 0, 
171, 2249369734, 0.7168039, 0.24376579, -0.64610046, 0.096565515, 9.669527053833008, 2.4762885570526123, 0.5911300778388977, -0.9872671365737915, 2.3909902572631836, 0.03820774331688881, -0.770263671875, 0.021728515625, 0.544189453125, 0, 
172, 2249386401, 0.7172973, 0.2438815, -0.6455158, 0.09651827, 9.582213401794434, 2.583857774734497, 0.7103259563446045, 0.11927194148302078, 4.12354850769043, -0.5385326147079468, -0.770263671875, 0.02294921875, 0.544921875, 0, 
173, 2249403068, 0.7179254, 0.24387728, -0.64485794, 0.09625623, 9.595465660095215, 2.5759928226470947, 0.7574244737625122, -1.6023179292678833, 4.793526649475098, -1.263474702835083, -0.773193359375, 0.02197265625, 0.54541015625, 0, 
174, 2249419735, 0.7184397, 0.2440601, -0.644235, 0.09612713, 9.620702743530273, 2.244654417037964, 0.7109395861625671, 0.07917526364326477, 4.204651355743408, -1.2882932424545288, -0.771240234375, 0.022216796875, 0.53857421875, 0, 
175, 2249436402, 0.71900815, 0.2445957, -0.64336216, 0.096361816, 9.705475807189941, 2.1534464359283447, 0.6370447874069214, 3.509023427963257, 6.0477800369262695, -1.5155930519104004, -0.771484375, 0.020751953125, 0.540283203125, 0, 
176, 2249453069, 0.7196069, 0.24564466, -0.64217883, 0.09711475, 9.6062593460083, 2.268390655517578, 0.7607148885726929, 8.49176025390625, 8.24581241607666, -1.7792125940322876, -0.774658203125, 0.022216796875, 0.531982421875, 0, 
177, 2249469736, 0.72034526, 0.24714561, -0.6406004, 0.09824997, 9.61962604522705, 2.127997636795044, 0.844865620136261, 12.445818901062012, 11.154746055603027, -2.6485095024108887, -0.772216796875, 0.022216796875, 0.5302734375, 0, 
178, 2249486403, 0.72110444, 0.24922495, -0.6386577, 0.100058295, 9.622010231018066, 1.9330748319625854, 0.9002751111984253, 18.486713409423828, 13.793354988098145, -2.50710391998291, -0.776123046875, 0.022216796875, 0.524169921875, 0, 
179, 2249503070, 0.72189873, 0.2513287, -0.6365986, 0.10216901, 9.60606861114502, 2.2766025066375732, 1.2448580265045166, 19.957273483276367, 15.013165473937988, -1.362188696861267, -0.776611328125, 0.02099609375, 0.520751953125, 0, 
180, 2249519737, 0.7227404, 0.25302136, -0.6346438, 0.1041816, 9.66299057006836, 2.3605332374572754, 1.6074808835983276, 17.336685180664062, 14.79483699798584, 0.09440218657255173, -0.777587890625, 0.02392578125, 0.517333984375, 0, 
181, 2249536404, 0.72382694, 0.25393376, -0.63278145, 0.10573558, 9.861930847167969, 2.09698224067688, 1.5601199865341187, 10.974907875061035, 15.119853019714355, 1.207953929901123, -0.778564453125, 0.02490234375, 0.509521484375, 0, 
182, 2249553071, 0.72526073, 0.25433332, -0.6307372, 0.10715428, 9.871994972229004, 2.192229986190796, 1.5871944427490234, 7.369852066040039, 17.63001823425293, 2.1795854568481445, -0.779052734375, 0.025390625, 0.506591796875, 0, 
183, 2249569738, 0.7270473, 0.25450993, -0.6283779, 0.10848118, 9.865442276000977, 2.3577370643615723, 1.6669926643371582, 5.481734752655029, 20.693117141723633, 1.8664196729660034, -0.7822265625, 0.027587890625, 0.499267578125, 0, 
184, 2249586405, 0.729252, 0.25447172, -0.6255921, 0.10986489, 9.7728853225708, 2.4719526767730713, 1.6286532878875732, 4.2473955154418945, 24.850078582763672, 2.018496513366699, -0.781982421875, 0.0263671875, 0.491455078125, 0, 
185, 2249603072, 0.73162115, 0.25433117, -0.62264633, 0.11116637, 9.604192733764648, 2.7338664531707764, 1.7935341596603394, 3.2155601978302, 26.258386611938477, 1.6466251611709595, -0.784912109375, 0.028076171875, 0.48876953125, 0, 
186, 2249619739, 0.7340344, 0.25437927, -0.6195435, 0.112474926, 9.528546333312988, 2.895798444747925, 1.921365737915039, 4.241096496582031, 27.066118240356445, 0.5884469151496887, -0.783447265625, 0.028564453125, 0.478515625, 0, 
187, 2249636406, 0.7365496, 0.25465888, -0.6162234, 0.11363174, 9.576055526733398, 3.120901584625244, 2.0508739948272705, 4.7531352043151855, 28.111494064331055, -1.5927813053131104, -0.787353515625, 0.027587890625, 0.476318359375, 0, 
188, 2249653073, 0.73939466, 0.25496724, -0.61252165, 0.11447528, 9.67361831665039, 3.4378252029418945, 2.2308852672576904, 3.2935032844543457, 30.828632354736328, -4.185231685638428, -0.791015625, 0.02734375, 0.462890625, 0, 
189, 2249669740, 0.7427744, 0.25511792, -0.60828745, 0.11483641, 9.63741397857666, 3.7191503047943115, 2.4748876094818115, -0.05888385698199272, 35.02299880981445, -7.273180961608887, -0.7919921875, 0.02685546875, 0.45556640625, 0, 
190, 2249686407, 0.74659497, 0.25522754, -0.6035708, 0.11470541, 9.607272148132324, 3.6641247272491455, 2.6041336059570312, -2.721223831176758, 38.44814682006836, -10.741003036499023, -0.795166015625, 0.022216796875, 0.445556640625, 0, 
191, 2249703074, 0.7507806, 0.2552696, -0.5984409, 0.11416847, 9.634957313537598, 3.6567137241363525, 2.8317267894744873, -5.0698370933532715, 41.37152862548828, -13.494486808776855, -0.79443359375, 0.02001953125, 0.435302734375, 0, 
192, 2249719741, 0.75515366, 0.25521243, -0.59312433, 0.113194816, 9.580094337463379, 3.7914938926696777, 3.169835329055786, -7.564215183258057, 42.35965347290039, -15.756908416748047, -0.801513671875, 0.015380859375, 0.4287109375, 0, 
193, 2249736408, 0.75978196, 0.25475878, -0.58769023, 0.111577764, 9.58696460723877, 3.9007887840270996, 3.6006035804748535, -12.604035377502441, 43.12112808227539, -17.82436752319336, -0.80908203125, 0.01220703125, 0.416748046875, 0, 
194, 2249753075, 0.7648469, 0.2539669, -0.5818194, 0.10952739, 9.735272407531738, 3.4672226905822754, 3.894094228744507, -16.550514221191406, 46.583953857421875, -19.7586669921875, -0.812255859375, 0.004150390625, 0.404052734375, 0, 
195, 2249769742, 0.77013415, 0.2532693, -0.5754889, 0.107520886, 9.8408784866333, 3.2660324573516846, 3.861499309539795, -15.911347389221191, 49.80434799194336, -20.839580535888672, -0.81591796875, 0.00244140625, 0.396728515625, 0, 
196, 2249786409, 0.77573884, 0.2526658, -0.56855434, 0.10552536, 9.962030410766602, 3.5130536556243896, 3.9887208938598633, -15.467672348022461, 54.13054275512695, -22.421876907348633, -0.81982421875, -0.003662109375, 0.385009765625, 0, 
197, 2249803076, 0.7819229, 0.25179872, -0.56081504, 0.1033476, 9.996628761291504, 3.6722543239593506, 4.183279037475586, -18.00608253479004, 60.48674774169922, -24.15927505493164, -0.82568359375, -0.01220703125, 0.36865234375, 0, 
198, 2249819743, 0.78855354, 0.25110155, -0.552169, 0.10119839, 9.96810531616211, 3.3735392093658447, 4.253179550170898, -17.110036849975586, 66.94129943847656, -26.522130966186523, -0.83154296875, -0.0166015625, 0.35400390625, 0, 
199, 2249836410, 0.7954994, 0.25077778, -0.5426216, 0.099262945, 10.03732967376709, 3.136427879333496, 4.314967632293701, -14.185667991638184, 73.07048034667969, -28.54977035522461, -0.836669921875, -0.024169921875, 0.3349609375, 0, 
200, 2249853077, 0.8027366, 0.25113514, -0.53194094, 0.09789909, 10.222620964050293, 3.14809250831604, 4.250508785247803, -8.049784660339355, 80.82576751708984, -30.1263484954834, -0.845703125, -0.035400390625, 0.3154296875, 0, 
201, 2249869744, 0.8104304, 0.25210744, -0.5197852, 0.09730287, 10.159828186035156, 3.3435099124908447, 4.347893238067627, -1.6422507762908936, 91.51908111572266, -31.009756088256836, -0.84814453125, -0.041748046875, 0.292236328125, 0, 
202, 2249886411, 0.8184276, 0.25393108, -0.5061645, 0.09743149, 10.031598091125488, 3.2628231048583984, 4.499139785766602, 6.144304275512695, 101.43666076660156, -32.76531219482422, -0.853271484375, -0.048095703125, 0.264892578125, 0, 
203, 2249903078, 0.82664025, 0.25664514, -0.4910715, 0.09822397, 10.163594245910645, 2.848484992980957, 4.57717752456665, 14.07107162475586, 111.02571868896484, -34.85924530029297, -0.856689453125, -0.0634765625, 0.230712890625, 0, 
204, 2249919745, 0.8349036, 0.2604109, -0.47447333, 0.09998661, 10.10833740234375, 2.5129549503326416, 4.775274276733398, 24.255525588989258, 120.7622299194336, -35.62887954711914, -0.8603515625, -0.0693359375, 0.193603515625, 0, 
205, 2249936412, 0.84327686, 0.2646682, -0.45645496, 0.10239181, 9.88914966583252, 2.8882803916931152, 5.008708953857422, 29.96915626525879, 130.10577392578125, -36.22098922729492, -0.858642578125, -0.0810546875, 0.15673828125, 0, 
206, 2249953079, 0.8521519, 0.2684326, -0.43677968, 0.10490308, 9.759382247924805, 3.2460827827453613, 5.409743785858154, 27.706071853637695, 141.85118103027344, -37.47559356689453, -0.857421875, -0.0947265625, 0.117431640625, 0, 
207, 2249969746, 0.8613418, 0.27166283, -0.4156292, 0.10743387, 9.677095413208008, 2.866567850112915, 5.603119850158691, 25.12212371826172, 151.88636779785156, -38.74690246582031, -0.853271484375, -0.10986328125, 0.07080078125, 0, 
208, 2249986413, 0.87052006, 0.2744953, -0.39329818, 0.110290304, 9.357534408569336, 2.6721651554107666, 5.728662014007568, 24.610553741455078, 159.78164672851562, -37.943382263183594, -0.84130859375, -0.1240234375, 0.022705078125, 0, 
209, 2250003080, 0.8792931, 0.27764136, -0.36985308, 0.113875754, 8.900080680847168, 2.8683388233184814, 6.097705364227295, 30.093568801879883, 166.53598022460938, -36.297664642333984, -0.83349609375, -0.13623046875, -0.02099609375, 0, 
210, 2250019747, 0.8874616, 0.28132945, -0.34538835, 0.1182062, 8.530986785888672, 2.7253336906433105, 6.459647178649902, 37.245243072509766, 172.20233154296875, -34.7077522277832, -0.81982421875, -0.150390625, -0.07080078125, 0, 
211, 2250036414, 0.89479244, 0.28587842, -0.3201756, 0.122914255, 8.542194366455078, 2.75282621383667, 6.754091262817383, 45.66513442993164, 174.85133361816406, -35.27952194213867, -0.800537109375, -0.16748046875, -0.11962890625, 0, 
212, 2250053081, 0.9020356, 0.28921112, -0.29387853, 0.12776606, 8.352389335632324, 3.438047170639038, 7.0507965087890625, 39.63713836669922, 182.6954803466797, -33.84687805175781, -0.779296875, -0.1845703125, -0.167724609375, 0, 
213, 2250069748, 0.9089467, 0.291553, -0.26689148, 0.1325973, 7.7872185707092285, 3.6517553329467773, 7.382019996643066, 34.74602127075195, 187.19558715820312, -33.117523193359375, -0.756103515625, -0.199951171875, -0.217041015625, 0, 
214, 2250086415, 0.9153608, 0.29311216, -0.23939997, 0.13743287, 7.31546688079834, 3.5325427055358887, 7.496772766113281, 31.357555389404297, 190.22019958496094, -32.25938034057617, -0.72705078125, -0.216064453125, -0.262451171875, 0, 
215, 2250103082, 0.9211661, 0.2941142, -0.2111886, 0.14265047, 6.884419918060303, 3.5851316452026367, 7.722410678863525, 30.428407669067383, 195.11138916015625, -29.86772346496582, -0.695556640625, -0.229736328125, -0.31005859375, 0, 
216, 2250119749, 0.92612815, 0.2949466, -0.1824431, 0.14835036, 6.22709321975708, 3.6070547103881836, 7.870297431945801, 32.327598571777344, 198.47909545898438, -26.873323440551758, -0.660400390625, -0.244140625, -0.354248046875, 0, 
217, 2250136416, 0.93018264, 0.29561108, -0.15358615, 0.1542266, 5.881918430328369, 3.7846453189849854, 8.01194953918457, 33.48432922363281, 198.6463165283203, -24.880138397216797, -0.6240234375, -0.25634765625, -0.396240234375, 0, 
218, 2250153083, 0.9336599, 0.2950408, -0.1248586, 0.1601272, 5.716639041900635, 4.0582733154296875, 8.063051223754883, 26.690692901611328, 198.63589477539062, -22.592565536499023, -0.578369140625, -0.267578125, -0.43603515625, 0, 
219, 2250169750, 0.93631226, 0.2940753, -0.09590291, 0.16625932, 5.057060718536377, 4.013054847717285, 8.129216194152832, 26.318208694458008, 200.39132690429688, -20.35772132873535, -0.5361328125, -0.282470703125, -0.472900390625, 0, 
220, 2250186417, 0.9380037, 0.29293922, -0.066850126, 0.17282033, 4.06365442276001, 4.128597736358643, 8.17756175994873, 27.59588050842285, 201.52886962890625, -16.621997833251953, -0.49267578125, -0.293701171875, -0.5068359375, 0, 
221, 2250203084, 0.938675, 0.29193172, -0.038463917, 0.17940407, 3.698914051055908, 4.345371723175049, 8.151182174682617, 29.735023498535156, 196.7198028564453, -13.999521255493164, -0.446044921875, -0.301513671875, -0.54443359375, 0, 
222, 2250219751, 0.9384713, 0.29077905, -0.010402512, 0.18604083, 3.6416962146759033, 4.603549003601074, 8.212915420532227, 30.194761276245117, 194.7466583251953, -11.909566879272461, -0.3955078125, -0.314208984375, -0.569091796875, 0, 
223, 2250236418, 0.93763113, 0.28871593, 0.017687067, 0.19281723, 2.9346415996551514, 4.7774224281311035, 8.091757774353027, 25.660114288330078, 196.419677734375, -10.210867881774902, -0.348388671875, -0.32470703125, -0.593505859375, 0, 
224, 2250253085, 0.93611306, 0.2860835, 0.045142706, 0.19952728, 2.2105507850646973, 4.899862289428711, 8.047268867492676, 22.51681900024414, 193.12315368652344, -8.565043449401855, -0.295654296875, -0.3330078125, -0.62255859375, 0, 
225, 2250269752, 0.93393993, 0.28314176, 0.071759604, 0.20600405, 1.8391481637954712, 4.793059349060059, 8.017505645751953, 20.74318504333496, 187.95840454101562, -7.632138729095459, -0.2470703125, -0.340576171875, -0.635986328125, 0, 
226, 2250286419, 0.93115026, 0.27995026, 0.09750874, 0.21231917, 1.729999303817749, 4.815276145935059, 7.82604455947876, 19.202754974365234, 182.80384826660156, -6.242123603820801, -0.193359375, -0.347900390625, -0.65771484375, 0, 
227, 2250303086, 0.9276787, 0.27647892, 0.12287961, 0.21879803, 1.2795116901397705, 4.994825839996338, 7.548366069793701, 18.07411766052246, 181.64402770996094, -3.686177968978882, -0.14501953125, -0.3525390625, -0.66552734375, 0, 
228, 2250319753, 0.92371744, 0.2723991, 0.14766134, 0.22525823, 0.6074345111846924, 5.336642265319824, 7.3412065505981445, 14.250807762145996, 179.2672882080078, -2.4758520126342773, -0.095947265625, -0.359375, -0.672607421875, 0, 
229, 2250336420, 0.91927886, 0.2680265, 0.17174523, 0.23149951, 0.17503872513771057, 5.4097981452941895, 7.144217014312744, 12.411953926086426, 175.42750549316406, -2.1407248973846436, -0.044677734375, -0.361572265625, -0.6826171875, 0, 
230, 2250353087, 0.91420954, 0.26388758, 0.19522685, 0.23763672, 0.004178479313850403, 5.291235446929932, 6.8801798820495605, 14.195002555847168, 171.8688201904297, -0.42170608043670654, 0.00390625, -0.368408203125, -0.68701171875, 0, 
231, 2250369754, 0.90849304, 0.25987318, 0.21840857, 0.24373004, -0.36427921056747437, 5.254660606384277, 6.655879020690918, 15.704010009765625, 170.6390838623047, 1.050248622894287, 0.05224609375, -0.375244140625, -0.690185546875, 0, 
232, 2250386421, 0.9023415, 0.2557975, 0.24107048, 0.24946499, -0.8134251236915588, 5.478318214416504, 6.688109397888184, 15.746883392333984, 167.5730743408203, 0.3561481535434723, 0.101806640625, -0.380126953125, -0.69287109375, 0, 
233, 2250403088, 0.8959271, 0.25100765, 0.26304734, 0.25517875, -1.3211300373077393, 5.625360012054443, 6.6820878982543945, 10.624345779418945, 164.99807739257812, 0.6635673642158508, 0.14892578125, -0.38134765625, -0.689453125, 0, 
234, 2250419755, 0.88906705, 0.24608, 0.28450608, 0.26088578, -1.8573366403579712, 5.655126571655273, 6.109158039093018, 9.626367568969727, 162.90260314941406, 2.037893056869507, 0.196044921875, -0.384765625, -0.689453125, 0, 
235, 2250436422, 0.88152874, 0.24200673, 0.305817, 0.26611304, -2.098344564437866, 5.673282623291016, 5.969255447387695, 16.642812728881836, 161.01641845703125, 2.2239513397216797, 0.23974609375, -0.393798828125, -0.67919921875, 0, 
236, 2250453089, 0.87358695, 0.23812605, 0.32677847, 0.2708466, -2.3243494033813477, 5.575384616851807, 6.177515983581543, 18.856468200683594, 158.6090087890625, 0.9346340298652649, 0.28564453125, -0.398193359375, -0.667236328125, 0, 
237, 2250469756, 0.8654624, 0.23375438, 0.34714255, 0.27536553, -2.645138740539551, 5.794774055480957, 5.9818501472473145, 15.56623363494873, 156.03857421875, -0.1599780023097992, 0.328857421875, -0.402587890625, -0.659912109375, 0, 
238, 2250486423, 0.85696375, 0.22891627, 0.36721453, 0.2799363, -3.0819787979125977, 6.088553428649902, 5.428900241851807, 12.699664115905762, 156.20269775390625, 0.19161878526210785, 0.371826171875, -0.4072265625, -0.648681640625, 0, 
239, 2250503090, 0.8479982, 0.22428454, 0.38711315, 0.28414688, -3.412001848220825, 6.155285358428955, 5.111743927001953, 15.200638771057129, 155.4195098876953, -0.26576101779937744, 0.413818359375, -0.410400390625, -0.63330078125, 0, 
240, 2250519757, 0.8387478, 0.21961325, 0.4066388, 0.28795347, -3.4948818683624268, 6.03874397277832, 5.076213836669922, 15.724675178527832, 153.47972106933594, -1.6190056800842285, 0.45458984375, -0.416015625, -0.619140625, 0, 
241, 2250536424, 0.8292769, 0.21435454, 0.42580244, 0.291624, -3.7981951236724854, 5.940578460693359, 4.8181962966918945, 12.314353942871094, 152.99301147460938, -3.0895259380340576, 0.494873046875, -0.418701171875, -0.601806640625, 0, 
242, 2250553091, 0.8195655, 0.20907526, 0.44455805, 0.29490432, -4.3929243087768555, 6.020951271057129, 4.321465492248535, 12.861579895019531, 150.8587646484375, -4.315756320953369, 0.53515625, -0.4228515625, -0.580322265625, 0, 
243, 2250569758, 0.8096531, 0.20459138, 0.4627901, 0.2973715, -4.522822856903076, 6.279514312744141, 4.061558246612549, 19.034561157226562, 145.743896484375, -5.322968482971191, 0.572509765625, -0.425048828125, -0.5634765625, 0, 
244, 2250586425, 0.79948545, 0.200203, 0.48076254, 0.2993483, -4.464563369750977, 6.173354625701904, 3.913591146469116, 20.93025779724121, 144.22845458984375, -6.888853549957275, 0.608642578125, -0.4326171875, -0.54150390625, 0, 
245, 2250603092, 0.7891549, 0.19547023, 0.49829543, 0.30121055, -4.509594440460205, 6.178519248962402, 3.6599526405334473, 18.716379165649414, 142.91464233398438, -7.745931625366211, 0.6416015625, -0.433837890625, -0.515625, 0, 
246, 2250619759, 0.7786314, 0.19043009, 0.5154168, 0.30301014, -4.862228870391846, 6.451302528381348, 3.43278169631958, 16.655208587646484, 141.90689086914062, -8.218344688415527, 0.674072265625, -0.435791015625, -0.494873046875, 0, 
247, 2250636426, 0.7678823, 0.18504843, 0.5321803, 0.30479187, -5.159816741943359, 6.410447120666504, 3.0330331325531006, 14.425450325012207, 141.48777770996094, -8.620089530944824, 0.70751953125, -0.43603515625, -0.469970703125, 0, 
248, 2250653093, 0.75709033, 0.17973389, 0.5482891, 0.3064131, -5.247054576873779, 6.1316304206848145, 2.6402838230133057, 14.035426139831543, 137.84095764160156, -8.328226089477539, 0.736328125, -0.44189453125, -0.44482421875, 0, 
249, 2250669760, 0.74597454, 0.17481357, 0.5641377, 0.30775133, -5.2940993309021, 6.037431240081787, 2.1104962825775146, 16.99431800842285, 136.52096557617188, -7.334911346435547, 0.76806640625, -0.44384765625, -0.417236328125, 0, 
250, 2250686427, 0.73439115, 0.17072424, 0.58000284, 0.30841497, -5.538503170013428, 6.103431224822998, 2.062304735183716, 24.457712173461914, 135.83375549316406, -6.626201152801514, 0.79541015625, -0.44775390625, -0.3896484375, 0, 
251, 2250703094, 0.7227344, 0.16615763, 0.5952052, 0.30947948, -5.708075046539307, 6.0764923095703125, 1.9633712768554688, 19.121976852416992, 134.25045776367188, -5.593696594238281, 0.8203125, -0.448486328125, -0.359375, 0, 
252, 2250719761, 0.711088, 0.16120446, 0.60953724, 0.31117746, -5.9097161293029785, 6.1396636962890625, 1.5285305976867676, 12.744816780090332, 131.4239959716797, -3.072553873062134, 0.846923828125, -0.451416015625, -0.33056640625, 0, 
253, 2250736428, 0.6992469, 0.15714966, 0.6232626, 0.31289294, -6.170919418334961, 6.231163024902344, 0.9936623573303223, 15.980344772338867, 127.35367584228516, 1.851790428161621, 0.86865234375, -0.451416015625, -0.3037109375, 0, 
254, 2250753095, 0.6870945, 0.15392713, 0.6367317, 0.31429422, -6.350396633148193, 5.888729572296143, 0.5749243497848511, 21.107589721679688, 125.29750061035156, 4.839603424072266, 0.890380859375, -0.45751953125, -0.273193359375, 0, 
255, 2250769762, 0.674762, 0.15108909, 0.6497217, 0.31580105, -6.57618522644043, 5.87350606918335, 0.4942956566810608, 21.61123275756836, 123.06808471679688, 7.916491508483887, 0.9091796875, -0.464111328125, -0.24072265625, 0, 
256, 2250786429, 0.66260856, 0.14839678, 0.66180813, 0.3177083, -6.991384983062744, 5.950149059295654, 0.7640078067779541, 18.350255966186523, 118.14566040039062, 10.978955268859863, 0.9287109375, -0.467529296875, -0.21533203125, 0, 
257, 2250803096, 0.65125036, 0.14608805, 0.6723801, 0.32005757, -7.3823957443237305, 6.030477046966553, 0.3714137077331543, 13.97642993927002, 107.22772216796875, 14.556646347045898, 0.9423828125, -0.472412109375, -0.183349609375, 0, 
258, 2250819763, 0.6404968, 0.1448635, 0.6817965, 0.32238522, -7.300492763519287, 6.195132255554199, -0.3798741102218628, 15.785489082336426, 96.83080291748047, 19.318065643310547, 0.956298828125, -0.48095703125, -0.160400390625, 0, 
259, 2250836430, 0.6297108, 0.14419268, 0.6906374, 0.32510442, -6.9613871574401855, 6.238364219665527, -1.0247386693954468, 15.14034366607666, 93.57292175292969, 24.295604705810547, 0.966552734375, -0.486328125, -0.13623046875, 0, 
260, 2250853097, 0.6187196, 0.14389157, 0.69907904, 0.32828328, -7.094351768493652, 6.318408012390137, -0.9534093737602234, 13.855323791503906, 92.39733123779297, 28.90251350402832, 0.97802734375, -0.495849609375, -0.109130859375, 0, 
261, 2250869764, 0.60818636, 0.14386192, 0.70648235, 0.33210853, -7.31232213973999, 6.387635231018066, -0.8490890264511108, 9.09900951385498, 85.76631164550781, 32.959999084472656, 0.987060546875, -0.50634765625, -0.0849609375, 0, 
262, 2250886431, 0.59828985, 0.14480507, 0.71282893, 0.3360894, -7.283693313598633, 6.618241786956787, -1.499344825744629, 9.366209983825684, 76.1572036743164, 37.94221496582031, 0.994873046875, -0.515625, -0.063720703125, 0, 
263, 2250903098, 0.5885393, 0.14697686, 0.71885836, 0.3395029, -7.075745105743408, 6.456295490264893, -2.1702651977539062, 16.312389373779297, 70.68633270263672, 41.61911392211914, 1.0, -0.526123046875, -0.045166015625, 0, 
264, 2250919765, 0.5789819, 0.15007164, 0.72464585, 0.34226763, -6.951336860656738, 6.298947811126709, -2.186816453933716, 22.4665584564209, 65.88081359863281, 43.36353302001953, 1.00244140625, -0.541259765625, -0.026611328125, 0, 
265, 2250936432, 0.56999886, 0.15372051, 0.7298832, 0.3445897, -6.945521831512451, 6.653738975524902, -1.9452639818191528, 24.966854095458984, 59.01242446899414, 43.59599304199219, 1.006591796875, -0.55517578125, -0.011962890625, 0, 
266, 2250953099, 0.5619168, 0.15777114, 0.7341761, 0.34690547, -6.910200119018555, 7.1197404861450195, -2.091553211212158, 23.36982536315918, 49.78773880004883, 44.46257019042969, 1.00830078125, -0.570068359375, 0.005859375, 0, 
267, 2250969766, 0.5543927, 0.16222115, 0.7379071, 0.34903648, -6.746735572814941, 7.377652645111084, -2.4487133026123047, 23.884706497192383, 43.60927963256836, 45.0490837097168, 1.009033203125, -0.58154296875, 0.022216796875, 0, 
268, 2250986433, 0.54736894, 0.16701962, 0.74129206, 0.35068226, -6.817882061004639, 7.322553634643555, -2.3022305965423584, 26.266620635986328, 38.327430725097656, 44.15427017211914, 1.009765625, -0.5966796875, 0.03173828125, 0, 
269, 2251003100, 0.54151976, 0.17208722, 0.7439595, 0.35166317, -6.964020252227783, 7.157769680023193, -2.2456448078155518, 27.573875427246094, 28.19309425354004, 41.022884368896484, 1.008544921875, -0.60986328125, 0.04248046875, 0, 
270, 2251019767, 0.53698504, 0.17707236, 0.74586856, 0.35209772, -6.752895355224609, 7.34404182434082, -2.1561355590820312, 26.660736083984375, 18.171005249023438, 36.301780700683594, 1.006591796875, -0.618896484375, 0.052001953125, 0, 
271, 2251036434, 0.53354615, 0.18147635, 0.74728024, 0.35208994, -6.857579231262207, 7.734506130218506, -1.8856197595596313, 24.234052658081055, 11.563186645507812, 29.65078353881836, 1.00634765625, -0.632080078125, 0.05419921875, 0, 
272, 2251053101, 0.5318424, 0.185027, 0.74783343, 0.3516447, -7.278110980987549, 7.6463942527771, -1.8658033609390259, 19.106111526489258, 1.0153157711029053, 20.539520263671875, 1.00634765625, -0.640625, 0.05712890625, 0, 
273, 2251069768, 0.5320479, 0.18812045, 0.74752617, 0.35034373, -7.234162330627441, 7.378411769866943, -1.9706400632858276, 17.32284927368164, -11.929681777954102, 11.554346084594727, 1.00634765625, -0.6455078125, 0.05712890625, 0, 
274, 2251086435, 0.5336821, 0.19092342, 0.7467357, 0.3480196, -7.061711311340332, 7.025321006774902, -2.068681240081787, 18.500783920288086, -21.66382598876953, 3.5229854583740234, 1.003662109375, -0.647216796875, 0.052001953125, 0, 
275, 2251103102, 0.53698397, 0.19328406, 0.74525386, 0.34479904, -6.892689228057861, 6.822215557098389, -2.1266634464263916, 17.623929977416992, -32.8851203918457, -5.098111629486084, 0.999755859375, -0.646728515625, 0.04541015625, 0, 
276, 2251119769, 0.5414839, 0.195143, 0.74350035, 0.34047332, -6.756824970245361, 7.025736331939697, -1.9351060390472412, 19.183303833007812, -40.31346130371094, -14.204983711242676, 1.0, -0.64453125, 0.0419921875, 0, 
277, 2251136436, 0.5470756, 0.19623828, 0.74138534, 0.33548003, -6.753443717956543, 7.1443328857421875, -1.782853364944458, 17.431468963623047, -46.354061126708984, -22.65183448791504, 0.99853515625, -0.640625, 0.02685546875, 0, 
278, 2251153103, 0.5535973, 0.19675143, 0.73897386, 0.32975253, -6.683859825134277, 7.159474849700928, -1.7973427772521973, 17.037914276123047, -51.8568115234375, -30.11672592163086, 0.994873046875, -0.634033203125, 0.017333984375, 0, 
279, 2251169770, 0.5605787, 0.19705957, 0.7364322, 0.32339895, -6.549137115478516, 7.223639011383057, -1.4047703742980957, 18.513946533203125, -55.074398040771484, -34.40169143676758, 0.996337890625, -0.63037109375, 0.00146484375, 0, 
280, 2251186437, 0.56815976, 0.19629224, 0.7334071, 0.317456, -6.573234558105469, 7.215778350830078, -1.202027440071106, 10.399913787841797, -57.01978302001953, -38.944705963134766, 0.9912109375, -0.61865234375, -0.011474609375, 0, 
281, 2251203104, 0.5764246, 0.19454245, 0.7298372, 0.31181112, -6.681726455688477, 6.968273639678955, -1.3807798624038696, 2.9467086791992188, -60.037452697753906, -43.49652862548828, 0.991455078125, -0.6064453125, -0.0283203125, 0, 
282, 2251219771, 0.5852778, 0.1928309, 0.7260458, 0.30516204, -6.759610176086426, 6.493567943572998, -1.5719369649887085, 6.870280742645264, -65.29093933105469, -48.250911712646484, 0.985107421875, -0.5947265625, -0.041259765625, 0, 
283, 2251236438, 0.5946742, 0.19111781, 0.72213715, 0.29724568, -6.781290531158447, 6.221510410308838, -1.4151394367218018, 12.210948944091797, -70.16387176513672, -54.33671569824219, 0.986083984375, -0.582763671875, -0.060791015625, 0, 
284, 2251253105, 0.604588, 0.18953973, 0.7178845, 0.2884273, -6.957961082458496, 6.326106548309326, -1.0107730627059937, 15.846068382263184, -75.60934448242188, -57.95151901245117, 0.9814453125, -0.56884765625, -0.078125, 0, 
285, 2251269772, 0.6148904, 0.18775105, 0.7131523, 0.2794163, -7.163741588592529, 6.517614841461182, -0.7970671057701111, 14.453701972961426, -79.35374450683594, -59.93522644042969, 0.97705078125, -0.555419921875, -0.098388671875, 0, 
286, 2251286439, 0.6253429, 0.1854789, 0.7080283, 0.27062878, -7.163004398345947, 6.430777549743652, -0.7147684097290039, 10.362271308898926, -80.52452087402344, -61.14389419555664, 0.971435546875, -0.539306640625, -0.115234375, 0, 
287, 2251303106, 0.635957, 0.18330339, 0.70258826, 0.26139712, -7.328848361968994, 5.9923577308654785, -0.3017323911190033, 12.139033317565918, -83.41558074951172, -62.485721588134766, 0.964599609375, -0.52490234375, -0.1376953125, 0, 
288, 2251319773, 0.6468315, 0.18084466, 0.69667333, 0.25209293, -7.827232837677002, 5.555326461791992, -0.12535828351974487, 10.062699317932129, -86.31901550292969, -64.03942108154297, 0.95166015625, -0.510009765625, -0.157958984375, 0, 
289, 2251336440, 0.65826803, 0.17775027, 0.69002306, 0.24280992, -8.044681549072266, 5.348453044891357, -0.06263573467731476, 5.153757095336914, -91.14350891113281, -67.03848266601562, 0.946044921875, -0.494384765625, -0.18115234375, 0, 
290, 2251353107, 0.66999656, 0.17445678, 0.6828064, 0.23333512, -7.995474338531494, 5.2874860763549805, 0.05810866132378578, 3.849442481994629, -94.98622131347656, -68.6335220336914, 0.936767578125, -0.479248046875, -0.2041015625, 0, 
291, 2251369774, 0.6815111, 0.17142653, 0.67552584, 0.22320533, -8.148285865783691, 5.190282821655273, 0.24483762681484222, 8.282975196838379, -95.48114776611328, -69.98505401611328, 0.924560546875, -0.4609375, -0.2294921875, 0, 
292, 2251386441, 0.69251746, 0.16854447, 0.6682765, 0.21311751, -8.24836540222168, 5.010087966918945, 0.7621662020683289, 9.418176651000977, -93.14772033691406, -68.34650421142578, 0.912353515625, -0.446044921875, -0.25537109375, 0, 
293, 2251403108, 0.7030521, 0.16508223, 0.6609108, 0.20411493, -8.421576499938965, 4.996205806732178, 1.241114616394043, 2.039095401763916, -89.4130630493164, -65.01016998291016, 0.898193359375, -0.43310546875, -0.27392578125, 0, 
294, 2251419775, 0.7129789, 0.16120486, 0.6536721, 0.19592659, -8.560675621032715, 4.783045291900635, 1.3493473529815674, -2.804507255554199, -84.50597381591797, -62.24665832519531, 0.884765625, -0.4140625, -0.290771484375, 0, 
295, 2251436442, 0.72204393, 0.1573984, 0.6468453, 0.18833344, -8.693367004394531, 4.241547584533691, 1.1649655103683472, -3.6312918663024902, -78.02699279785156, -58.297237396240234, 0.87255859375, -0.40234375, -0.309814453125, 0, 
296, 2251453109, 0.7299429, 0.15446632, 0.6407832, 0.18088889, -8.879237174987793, 3.793358087539673, 1.276612639427185, 2.2961835861206055, -70.01374053955078, -52.971656799316406, 0.8623046875, -0.38720703125, -0.32666015625, 0, 
297, 2251469776, 0.7367784, 0.15247032, 0.635338, 0.17394331, -8.933011054992676, 3.923596143722534, 1.7641949653625488, 6.685409069061279, -62.86643981933594, -45.651611328125, 0.850341796875, -0.377685546875, -0.34130859375, 0, 
298, 2251486443, 0.74262464, 0.15111999, 0.63045543, 0.16792147, -8.786216735839844, 4.0996413230896, 2.120465040206909, 7.627450942993164, -55.48633575439453, -37.5413818359375, 0.84130859375, -0.370361328125, -0.3525390625, 0, 
299, 2251503110, 0.7472187, 0.15029077, 0.62649363, 0.16304274, -8.570225715637207, 4.131608009338379, 2.2668001651763916, 7.692768573760986, -44.75056838989258, -28.947307586669922, 0.830322265625, -0.366455078125, -0.360595703125, 0, 
300, 2251519777, 0.7505479, 0.14979772, 0.6235659, 0.15938748, -8.669451713562012, 3.8783185482025146, 2.4287476539611816, 6.615021705627441, -33.078548431396484, -20.861005783081055, 0.8232421875, -0.359130859375, -0.3701171875, 0, 
301, 2251536444, 0.752839, 0.14997041, 0.6214289, 0.15674374, -8.72206974029541, 3.7098801136016846, 2.6119115352630615, 7.644855976104736, -24.210371017456055, -12.455375671386719, 0.820068359375, -0.3583984375, -0.3740234375, 0, 
302, 2251553111, 0.7541883, 0.15057953, 0.6201007, 0.15492375, -8.581438064575195, 3.7473933696746826, 2.7938477993011475, 8.22581672668457, -15.591044425964355, -6.135171413421631, 0.81396484375, -0.359619140625, -0.37841796875, 0, 
303, 2251569778, 0.75453025, 0.15125738, 0.6196849, 0.15426046, -8.504570007324219, 3.8687899112701416, 2.938138246536255, 5.666049003601074, -5.4072771072387695, 0.28899455070495605, 0.814697265625, -0.359130859375, -0.387451171875, 0, 
304, 2251586445, 0.75383276, 0.1520372, 0.6202051, 0.15481232, -8.52812671661377, 3.835233211517334, 2.9492557048797607, 3.0905635356903076, 5.074254512786865, 7.1609086990356445, 0.815673828125, -0.360595703125, -0.3779296875, 0, 
305, 2251603112, 0.7523333, 0.15274464, 0.62144, 0.1564486, -8.4921236038208, 3.6583666801452637, 2.8485357761383057, -0.31003570556640625, 13.448974609375, 12.58167839050293, 0.816162109375, -0.363037109375, -0.376708984375, 0, 
306, 2251619779, 0.75024766, 0.15333827, 0.6232077, 0.15883507, -8.512031555175781, 3.52769136428833, 2.6396353244781494, -2.9119913578033447, 19.657773971557617, 16.05375099182129, 0.818359375, -0.367431640625, -0.37353515625, 0, 
307, 2251636446, 0.74765724, 0.15445387, 0.62537843, 0.16141438, -8.5514554977417, 3.5957255363464355, 2.4916460514068604, -0.06999973952770233, 23.56316566467285, 19.422332763671875, 0.825927734375, -0.36962890625, -0.367919921875, 0, 
308, 2251653113, 0.7446006, 0.15575285, 0.6279499, 0.1642868, -8.582809448242188, 3.7474098205566406, 2.4436683654785156, 0.5568161606788635, 27.761594772338867, 21.818830490112305, 0.830322265625, -0.375244140625, -0.361572265625, 0, 
309, 2251669780, 0.7413446, 0.156364, 0.6307047, 0.16784088, -8.665070533752441, 3.9665396213531494, 2.3278591632843018, -5.4845662117004395, 31.094669342041016, 22.376352310180664, 0.83740234375, -0.376953125, -0.3525390625, 0, 
310, 2251686447, 0.73799485, 0.15663749, 0.6335449, 0.17160822, -8.734868049621582, 4.051201343536377, 2.0403895378112793, -7.924025058746338, 32.57890701293945, 22.022314071655273, 0.841552734375, -0.378662109375, -0.345947265625, 0, 
311, 2251703114, 0.7347014, 0.1569393, 0.63633513, 0.17510542, -8.749992370605469, 4.087990760803223, 1.7566277980804443, -6.72189474105835, 31.772964477539062, 20.770450592041016, 0.84765625, -0.3837890625, -0.342529296875, 0, 
312, 2251719781, 0.7314825, 0.15713315, 0.6390426, 0.178515, -8.668521881103516, 4.28911018371582, 1.6399296522140503, -7.059112548828125, 31.070632934570312, 19.863126754760742, 0.855224609375, -0.385498046875, -0.33740234375, 0, 
313, 2251736448, 0.72826856, 0.15692839, 0.6416951, 0.1822799, -8.60529613494873, 4.642667293548584, 1.7041462659835815, -10.695140838623047, 31.652395248413086, 19.958528518676758, 0.8583984375, -0.3876953125, -0.324462890625, 0, 
314, 2251753115, 0.72519153, 0.15620477, 0.6441017, 0.18662918, -8.567529678344727, 4.734451770782471, 1.6757546663284302, -16.322851181030273, 31.110857009887695, 20.689285278320312, 0.862060546875, -0.39111328125, -0.320556640625, 0, 
315, 2251769782, 0.7221312, 0.15522419, 0.64642054, 0.19123974, -8.449665069580078, 4.582090377807617, 1.3537136316299438, -18.88957405090332, 31.22260856628418, 20.927467346191406, 0.869140625, -0.39111328125, -0.312255859375, 0, 
316, 2251786449, 0.7191465, 0.15452072, 0.6486286, 0.19553299, -8.44468879699707, 4.587533950805664, 1.140994906425476, -16.326522827148438, 29.639490127563477, 20.60599708557129, 0.876220703125, -0.3916015625, -0.30419921875, 0, 
317, 2251803116, 0.71620786, 0.15435025, 0.6507379, 0.19940606, -8.290162086486816, 4.677862167358398, 1.0258138179779053, -11.994752883911133, 27.778364181518555, 20.95116424560547, 0.880126953125, -0.39208984375, -0.297607421875, 0, 
318, 2251819783, 0.7131974, 0.15426071, 0.6528376, 0.20336235, -8.150596618652344, 4.856410026550293, 0.9372771978378296, -11.903907775878906, 28.027868270874023, 21.83452033996582, 0.88720703125, -0.3955078125, -0.290771484375, 0, 
319, 2251836450, 0.71017104, 0.15419768, 0.65485346, 0.20747854, -8.12219524383545, 5.047661304473877, 0.8253690600395203, -12.588078498840332, 27.816152572631836, 22.84819984436035, 0.888671875, -0.3994140625, -0.28466796875, 0, 
320, 2251853117, 0.7071931, 0.15432529, 0.6567724, 0.21145196, -8.155694007873535, 5.12484884262085, 0.7385880351066589, -11.202118873596191, 26.694128036499023, 23.040433883666992, 0.89306640625, -0.404541015625, -0.28076171875, 0, 
321, 2251869784, 0.7044043, 0.15457873, 0.6584791, 0.21523446, -8.171880722045898, 5.173268795013428, 0.6576559543609619, -10.235069274902344, 24.414005279541016, 22.627410888671875, 0.89794921875, -0.404541015625, -0.276123046875, 0, 
322, 2251886451, 0.701812, 0.1549199, 0.66001, 0.21873897, -8.275154113769531, 5.3231892585754395, 0.5872699022293091, -9.017815589904785, 22.23788833618164, 21.572813034057617, 0.901611328125, -0.408447265625, -0.268310546875, 0, 
323, 2251903118, 0.6996374, 0.15531641, 0.6611918, 0.22183351, -8.330096244812012, 5.310817718505859, 0.6335008144378662, -7.859667778015137, 18.1276912689209, 19.587322235107422, 0.903076171875, -0.41064453125, -0.26220703125, 0, 
324, 2251919785, 0.6979374, 0.15553534, 0.66198826, 0.22464159, -8.307491302490234, 5.394057750701904, 0.5870487689971924, -8.504745483398438, 14.073513984680176, 17.088903427124023, 0.9052734375, -0.4150390625, -0.261474609375, 0, 
325, 2251936452, 0.6966042, 0.1559194, 0.6625535, 0.22683665, -8.268420219421387, 5.542263031005859, 0.46706053614616394, -5.669519424438477, 10.37358570098877, 14.577095985412598, 0.907958984375, -0.4150390625, -0.25537109375, 0, 
326, 2251953119, 0.6955441, 0.15639426, 0.6629905, 0.22848009, -8.256339073181152, 5.5682454109191895, 0.6173962354660034, -3.2152798175811768, 7.7693939208984375, 12.057500839233398, 0.908447265625, -0.4189453125, -0.2548828125, 0, 
327, 2251969786, 0.6949649, 0.15660694, 0.66307056, 0.22986084, -8.336698532104492, 5.553195953369141, 0.6743133068084717, -4.3492560386657715, 3.992950916290283, 9.23099422454834, 0.911376953125, -0.41845703125, -0.253173828125, 0, 
328, 2251986453, 0.6949332, 0.15665357, 0.6627839, 0.23074917, -8.27569580078125, 5.5340962409973145, 0.5266116261482239, -4.068578720092773, -0.5264691710472107, 5.648197650909424, 0.90966796875, -0.4228515625, -0.25244140625, 0, 
329, 2252003120, 0.69512916, 0.15679376, 0.662434, 0.23106863, -8.197110176086426, 5.578266143798828, 0.4083290696144104, -1.3738715648651123, -2.638267993927002, 3.0616140365600586, 0.907470703125, -0.420654296875, -0.250244140625, 0, 
330, 2252019787, 0.6955488, 0.15700911, 0.66199434, 0.23091923, -8.101560592651367, 5.691854000091553, 0.5266028642654419, 0.7350716590881348, -4.724870681762695, 0.9016309976577759, 0.907470703125, -0.42236328125, -0.253662109375, 0, 
331, 2252036454, 0.69609004, 0.15724485, 0.66149753, 0.23055142, -8.059672355651855, 5.776355743408203, 0.6117409467697144, 1.6036239862442017, -5.830827236175537, -0.18720963597297668, 0.907958984375, -0.4228515625, -0.2548828125, 0, 
332, 2252053121, 0.6966718, 0.15746257, 0.6609644, 0.23017439, -8.07480239868164, 5.772440433502197, 0.5732131600379944, 1.4558131694793701, -6.176240921020508, -0.34530404210090637, 0.9091796875, -0.420166015625, -0.25537109375, 0, 
333, 2252069788, 0.6973454, 0.15789366, 0.6603788, 0.2295191, -8.099218368530273, 5.515046119689941, 0.5328468680381775, 3.558655261993408, -7.49267053604126, -0.802414059638977, 0.90478515625, -0.419677734375, -0.258056640625, 0, 
334, 2252086455, 0.698173, 0.15872222, 0.65973985, 0.22826593, -8.050741195678711, 5.298356056213379, 0.5229524970054626, 7.925316333770752, -9.734809875488281, -2.053377866744995, 0.906494140625, -0.42138671875, -0.260498046875, 0, 
335, 2252103122, 0.69914824, 0.15990974, 0.65901685, 0.22653407, -8.006560325622559, 5.370708465576172, 0.5817115902900696, 11.524406433105469, -11.906580924987793, -2.8641490936279297, 0.904296875, -0.420654296875, -0.26220703125, 0, 
336, 2252119789, 0.70008993, 0.16124554, 0.65833193, 0.22466324, -8.09947681427002, 5.548485279083252, 0.767428994178772, 12.961069107055664, -11.964049339294434, -2.8521432876586914, 0.90380859375, -0.423583984375, -0.264404296875, 0, 
337, 2252136456, 0.7011131, 0.16256881, 0.6575173, 0.2228968, -8.12307357788086, 5.487447261810303, 1.0177714824676514, 12.135279655456543, -12.826508522033691, -2.3934197425842285, 0.898681640625, -0.4228515625, -0.267822265625, 0, 
338, 2252153123, 0.70231104, 0.16365097, 0.65652037, 0.22126672, -8.092453956604004, 5.332653045654297, 1.1449971199035645, 9.880860328674316, -13.967618942260742, -2.89325213432312, 0.89990234375, -0.42529296875, -0.268798828125, 0, 
339, 2252169790, 0.7035952, 0.16452959, 0.65546083, 0.2196702, -8.160100936889648, 5.191023826599121, 1.078957438468933, 8.552043914794922, -14.301529884338379, -3.714216470718384, 0.8994140625, -0.427001953125, -0.272216796875, 0, 
340, 2252186457, 0.7049343, 0.16535327, 0.65442014, 0.21785462, -8.249900817871094, 4.986800670623779, 1.0517457723617554, 9.238582611083984, -14.61774730682373, -5.126092910766602, 0.89453125, -0.42529296875, -0.27490234375, 0, 
341, 2252203124, 0.7063745, 0.16619082, 0.6533158, 0.21585721, -8.240270614624023, 4.909801006317139, 1.2040611505508423, 9.911192893981934, -15.604551315307617, -6.020957946777344, 0.891845703125, -0.42626953125, -0.280029296875, 0, 
342, 2252219791, 0.7079292, 0.16689491, 0.65216225, 0.2136984, -8.210843086242676, 4.950267314910889, 1.2166762351989746, 9.783182144165039, -16.335054397583008, -7.515321254730225, 0.89013671875, -0.4267578125, -0.2822265625, 0, 
343, 2252236458, 0.70951337, 0.1674051, 0.6510433, 0.2114452, -8.210623741149902, 5.01678466796875, 1.2042073011398315, 9.278047561645508, -16.113452911376953, -8.925007820129395, 0.887451171875, -0.424560546875, -0.286865234375, 0, 
344, 2252253125, 0.7111518, 0.16766389, 0.649937, 0.20912744, -8.173001289367676, 4.946554660797119, 1.1854230165481567, 8.293943405151367, -15.998017311096191, -10.458534240722656, 0.883544921875, -0.424560546875, -0.28857421875, 0, 
345, 2252269792, 0.71291125, 0.16763476, 0.64880365, 0.20666477, -8.176591873168945, 4.880099773406982, 1.2522056102752686, 7.3540263175964355, -16.417957305908203, -12.594642639160156, 0.882568359375, -0.42138671875, -0.294677734375, 0, 
346, 2252286459, 0.7148588, 0.16734946, 0.6476026, 0.20391697, -8.206838607788086, 4.841036796569824, 1.2675479650497437, 7.05343770980835, -17.547218322753906, -15.322571754455566, 0.8798828125, -0.419677734375, -0.298095703125, 0, 
347, 2252303126, 0.7171071, 0.1667188, 0.6462201, 0.20090324, -8.27426815032959, 4.900184154510498, 1.2029249668121338, 5.936431407928467, -19.59347152709961, -18.37885093688965, 0.87841796875, -0.416259765625, -0.301513671875, 0, 
348, 2252319793, 0.71969503, 0.16576353, 0.6446013, 0.19761296, -8.25178050994873, 4.874750137329102, 1.1212774515151978, 4.845856189727783, -22.13368797302246, -21.38072395324707, 0.8740234375, -0.412353515625, -0.3076171875, 0, 
349, 2252336460, 0.722514, 0.16463272, 0.6428009, 0.19410533, -8.22899055480957, 4.877622604370117, 1.1273491382598877, 4.427736759185791, -24.06729507446289, -23.34048080444336, 0.86962890625, -0.4072265625, -0.308837890625, 0, 
350, 2252353127, 0.7255502, 0.16341363, 0.6408209, 0.19031961, -8.29089069366455, 4.8821845054626465, 1.1096670627593994, 4.727569103240967, -26.11939239501953, -25.197725296020508, 0.866943359375, -0.4033203125, -0.317626953125, 0, 
351, 2252369794, 0.72889155, 0.1621825, 0.6385443, 0.18621297, -8.34160327911377, 4.896751880645752, 1.0731775760650635, 5.346072673797607, -29.29398536682129, -26.918075561523438, 0.864501953125, -0.396240234375, -0.32275390625, 0, 
352, 2252386461, 0.7324926, 0.16101445, 0.6359591, 0.1818936, -8.334794998168945, 4.903868198394775, 1.0560439825057983, 5.907196998596191, -32.308780670166016, -27.695478439331055, 0.857421875, -0.39111328125, -0.331298828125, 0, 
353, 2252403128, 0.7360258, 0.16015086, 0.63334936, 0.17744473, -8.365620613098145, 4.898323059082031, 1.1671160459518433, 8.047991752624512, -32.67307662963867, -26.90694236755371, 0.849609375, -0.38818359375, -0.33642578125, 0, 
354, 2252419795, 0.73952097, 0.15946665, 0.6306335, 0.17314978, -8.490211486816406, 4.889725685119629, 1.4847548007965088, 8.194136619567871, -33.10383987426758, -25.18454933166504, 0.844970703125, -0.380859375, -0.34521484375, 0, 
355, 2252436462, 0.7431248, 0.15897815, 0.62764746, 0.16896898, -8.40932559967041, 4.834288597106934, 1.6383966207504272, 8.248458862304688, -35.05902099609375, -23.59214973449707, 0.839599609375, -0.377685546875, -0.357177734375, 0, 
356, 2252453129, 0.74652535, 0.15879837, 0.6247224, 0.16493987, -8.263042449951172, 4.637304306030273, 1.5004500150680542, 9.458441734313965, -34.06074523925781, -21.317468643188477, 0.830810546875, -0.374755859375, -0.364990234375, 0, 
357, 2252469796, 0.7495281, 0.15935881, 0.6219958, 0.16103992, -8.199612617492676, 4.450212001800537, 1.53639554977417, 13.36112117767334, -32.03903579711914, -17.24420166015625, 0.828125, -0.3720703125, -0.364501953125, 0, 
358, 2252486463, 0.752046, 0.16072126, 0.619539, 0.1573756, -8.29986572265625, 4.542177200317383, 1.9773926734924316, 17.31118392944336, -29.20998764038086, -12.359707832336426, 0.820556640625, -0.37353515625, -0.372314453125, 0, 
359, 2252503130, 0.7542925, 0.16246659, 0.61718154, 0.15406056, -8.331043243408203, 4.669985771179199, 2.301551103591919, 18.207489013671875, -27.56256866455078, -8.742213249206543, 0.81884765625, -0.37353515625, -0.37744140625, 0, 
360, 2252519797, 0.7562314, 0.1639315, 0.6150787, 0.1513901, -8.288565635681152, 4.333477020263672, 2.0840978622436523, 14.625873565673828, -23.90227508544922, -6.552886962890625, 0.81005859375, -0.37744140625, -0.38232421875, 0, 
361, 2252536464, 0.7577798, 0.16548619, 0.6133446, 0.14897268, -8.417096138000488, 3.9782156944274902, 2.052523612976074, 14.845428466796875, -20.13600730895996, -4.868306636810303, 0.807861328125, -0.3779296875, -0.386962890625, 0, 
362, 2252553131, 0.75908345, 0.16755956, 0.6118098, 0.14630531, -8.493172645568848, 3.9824271202087402, 2.297667980194092, 19.081323623657227, -18.87855339050293, -3.9549694061279297, 0.802001953125, -0.37744140625, -0.391845703125, 0, 
363, 2252569798, 0.76024073, 0.16960777, 0.6104051, 0.14378156, -8.428315162658691, 4.301507472991943, 2.57026743888855, 18.644655227661133, -17.38251495361328, -3.3111729621887207, 0.80078125, -0.384033203125, -0.394287109375, 0, 
364, 2252586465, 0.7611309, 0.17121069, 0.60929596, 0.14186506, -8.401000022888184, 4.4792327880859375, 2.586071252822876, 14.369193077087402, -13.549055099487305, -2.0872652530670166, 0.798095703125, -0.384765625, -0.399169921875, 0, 
365, 2252603132, 0.76181316, 0.17245132, 0.6084276, 0.14041786, -8.506848335266113, 4.279880046844482, 2.610529899597168, 10.98322582244873, -10.492594718933105, -1.2337133884429932, 0.794189453125, -0.386962890625, -0.399169921875, 0, 
366, 2252619799, 0.76242816, 0.17358342, 0.6076565, 0.13901705, -8.526565551757812, 3.965975046157837, 2.4769649505615234, 10.392942428588867, -9.523486137390137, -1.4946812391281128, 0.79638671875, -0.386962890625, -0.39990234375, 0, 
367, 2252636466, 0.76288927, 0.17481852, 0.6070656, 0.137513, -8.559260368347168, 3.9733715057373047, 2.4109482765197754, 11.719009399414062, -8.144493103027344, -1.6699044704437256, 0.791015625, -0.3896484375, -0.402099609375, 0, 
368, 2252653133, 0.7632015, 0.17601225, 0.6066543, 0.13606524, -8.586376190185547, 4.127357482910156, 2.3918871879577637, 11.613996505737305, -6.465513706207275, -1.6186020374298096, 0.793701171875, -0.390869140625, -0.40087890625, 0, 
369, 2252669800, 0.76341486, 0.17703275, 0.6063827, 0.1347491, -8.611690521240234, 4.234818935394287, 2.4648120403289795, 10.4085054397583, -4.989195823669434, -1.7248560190200806, 0.79150390625, -0.395263671875, -0.40478515625, 0, 
370, 2252686467, 0.7635199, 0.17786124, 0.6062522, 0.13364625, -8.64594554901123, 4.156312942504883, 2.48032808303833, 8.771993637084961, -3.3489060401916504, -1.4759385585784912, 0.79052734375, -0.392578125, -0.406005859375, 0, 
371, 2252703134, 0.7636091, 0.1784253, 0.6061545, 0.13282463, -8.676189422607422, 4.047360420227051, 2.4579813480377197, 6.261153221130371, -2.5126640796661377, -1.1254414319992065, 0.79052734375, -0.394775390625, -0.406982421875, 0, 
372, 2252719801, 0.7636759, 0.17875296, 0.60611504, 0.13217854, -8.69705867767334, 4.009095668792725, 2.325350522994995, 4.369731903076172, -1.6718882322311401, -1.2357038259506226, 0.79052734375, -0.39697265625, -0.40771484375, 0, 
373, 2252736468, 0.76373637, 0.1790325, 0.60609627, 0.13153516, -8.732243537902832, 3.996440887451172, 2.2327234745025635, 4.132981300354004, -1.4850181341171265, -1.4375450611114502, 0.79052734375, -0.39599609375, -0.406982421875, 0, 
374, 2252753135, 0.76381004, 0.1793543, 0.6060581, 0.13084273, -8.679125785827637, 4.052628517150879, 2.2081942558288574, 4.527198314666748, -1.7376233339309692, -1.5012052059173584, 0.79052734375, -0.399169921875, -0.409912109375, 0, 
375, 2252769802, 0.7638388, 0.17959216, 0.6060764, 0.1302621, -8.64993667602539, 4.04147481918335, 2.224540948867798, 3.7278003692626953, -1.0397794246673584, -1.2897850275039673, 0.79150390625, -0.39697265625, -0.405517578125, 0, 
376, 2252786469, 0.76387054, 0.1796661, 0.6060938, 0.1298939, -8.64958381652832, 4.08613920211792, 2.1952292919158936, 1.979170322418213, -0.6434614658355713, -0.8542411923408508, 0.79150390625, -0.398193359375, -0.406494140625, 0, 
377, 2252803136, 0.76392174, 0.17972241, 0.60608405, 0.12955986, -8.633039474487305, 4.1532721519470215, 2.20796275138855, 1.6955286264419556, -0.8085800409317017, -0.7286171913146973, 0.788818359375, -0.396484375, -0.406982421875, 0, 
378, 2252819803, 0.76395303, 0.17966074, 0.6061197, 0.12929446, -8.61764907836914, 4.057522773742676, 2.1041979789733887, 0.8564695119857788, -0.2951863706111908, -0.8951383233070374, 0.788330078125, -0.3974609375, -0.409912109375, 0, 
379, 2252836470, 0.76398283, 0.17966276, 0.6061373, 0.12903331, -8.621336936950684, 4.070420265197754, 2.0734000205993652, 1.15994131565094, -0.4350956976413727, -0.5795513391494751, 0.79052734375, -0.396484375, -0.40869140625, 0, 
380, 2252853137, 0.76399505, 0.17976439, 0.6061562, 0.12872867, -8.52267074584961, 4.1260199546813965, 2.181077241897583, 1.889634370803833, -0.49995988607406616, -0.3755461573600769, 0.7900390625, -0.39697265625, -0.41162109375, 0, 
381, 2252869804, 0.7639567, 0.1796347, 0.60624343, 0.12872627, -8.517134666442871, 4.1993937492370605, 2.249202013015747, -0.4605035185813904, 0.6516959071159363, 0.21050436794757843, 0.788818359375, -0.39697265625, -0.405517578125, 0, 
382, 2252886471, 0.7639186, 0.179394, 0.60632735, 0.12889335, -8.577214241027832, 4.169990062713623, 2.1317954063415527, -1.7526769638061523, 0.946856677532196, 0.6435766816139221, 0.789306640625, -0.39404296875, -0.40478515625, 0, 
383, 2252903138, 0.7639095, 0.17924125, 0.6063609, 0.12900208, -8.551473617553711, 4.03794002532959, 2.042968511581421, -1.127227783203125, 0.41125673055648804, 0.7421088218688965, 0.788818359375, -0.395263671875, -0.40478515625, 0, 
384, 2252919805, 0.7639018, 0.17927639, 0.60638934, 0.12886535, -8.510263442993164, 4.0941948890686035, 2.0792882442474365, 0.8788549304008484, -0.09279480576515198, 0.24527359008789062, 0.79150390625, -0.394775390625, -0.406982421875, 0, 
385, 2252936472, 0.7638775, 0.17930946, 0.6064376, 0.12873605, -8.527386665344238, 4.237056732177734, 2.19215989112854, 0.8758454322814941, 0.09108515828847885, 0.268299400806427, 0.788818359375, -0.39306640625, -0.40380859375, 0, 
386, 2252953139, 0.7639592, 0.17903668, 0.6063953, 0.12883009, -8.528345108032227, 4.330861568450928, 2.2353973388671875, -1.8710458278656006, -0.2766939401626587, 0.18514776229858398, 0.792724609375, -0.39306640625, -0.405517578125, 0, 
387, 2252969806, 0.76404536, 0.17856199, 0.6063737, 0.12908003, -8.499970436096191, 4.315820693969727, 2.1590075492858887, -3.5686304569244385, 0.18922023475170135, 0.13270580768585205, 0.787109375, -0.39306640625, -0.40478515625, 0, 
388, 2252986473, 0.76410776, 0.17809893, 0.6063734, 0.12935077, -8.539063453674316, 4.212446689605713, 2.05900239944458, -3.5453357696533203, 0.4174550175666809, 0.28593382239341736, 0.793212890625, -0.392578125, -0.406982421875, 0, 
389, 2253003140, 0.7641349, 0.17794983, 0.6063665, 0.12942773, -8.47342586517334, 4.153956413269043, 2.0194714069366455, -1.0489169359207153, 0.012441369704902172, 0.6175926327705383, 0.792724609375, -0.39306640625, -0.406982421875, 0, 
390, 2253019807, 0.7640486, 0.17795323, 0.6064498, 0.12954241, -8.42546558380127, 4.199376583099365, 2.2015726566314697, -0.18529509007930756, 0.8670218586921692, 1.4441015720367432, 0.792724609375, -0.391357421875, -0.405517578125, 0, 
391, 2253036474, 0.7639938, 0.17790152, 0.60648215, 0.12978539, -8.526866912841797, 4.299969673156738, 2.2160584926605225, -1.092055082321167, 0.6784291863441467, 1.9234882593154907, 0.791015625, -0.390869140625, -0.404296875, 0, 
392, 2253053141, 0.76399237, 0.17785858, 0.60643524, 0.13007095, -8.46561336517334, 4.3040852546691895, 2.0974209308624268, -1.3591763973236084, 0.08687187731266022, 2.2331650257110596, 0.792724609375, -0.39306640625, -0.405517578125, 0, 
393, 2253069808, 0.7638755, 0.17794593, 0.60649234, 0.13037133, -8.439592361450195, 4.224606513977051, 2.1288974285125732, -0.5015863180160522, 1.018405795097351, 2.830517292022705, 0.792724609375, -0.391845703125, -0.404296875, 0, 
394, 2253086475, 0.7637342, 0.17801, 0.6065573, 0.1308084, -8.482309341430664, 4.3168768882751465, 2.2038419246673584, -1.1545823812484741, 1.3491939306259155, 3.46390700340271, 0.793212890625, -0.39013671875, -0.40087890625, 0, 
395, 2253103142, 0.76358324, 0.17807753, 0.6066229, 0.1312942, -8.536123275756836, 4.388465404510498, 2.098517417907715, -1.3269939422607422, 1.4531172513961792, 3.7423417568206787, 0.794189453125, -0.391357421875, -0.402587890625, 0, 
396, 2253119809, 0.7633773, 0.17818165, 0.6067655, 0.13168961, -8.526041984558105, 4.316206932067871, 2.0008654594421387, -0.6192511320114136, 1.943959355354309, 3.375735282897949, 0.79150390625, -0.391845703125, -0.403076171875, 0, 
397, 2253136476, 0.7631655, 0.1784144, 0.6069179, 0.13189976, -8.573721885681152, 4.256048679351807, 2.0545551776885986, 0.8460130095481873, 1.6724835634231567, 2.9337809085845947, 0.793701171875, -0.394287109375, -0.4013671875, 0, 
398, 2253153143, 0.7629872, 0.1786618, 0.6070542, 0.13196854, -8.539746284484863, 4.414520740509033, 2.0663583278656006, 1.4583998918533325, 1.2594659328460693, 2.242788791656494, 0.794189453125, -0.3935546875, -0.402099609375, 0, 
399, 2253169810, 0.762853, 0.17873824, 0.6071764, 0.13207914, -8.486431121826172, 4.454083442687988, 2.0333120822906494, 0.3222654163837433, 1.2082343101501465, 1.72579026222229, 0.793701171875, -0.391357421875, -0.406982421875, 0, 
400, 2253186477, 0.7626984, 0.17873119, 0.6073608, 0.13213389, -8.504738807678223, 4.414897441864014, 2.0230886936187744, 0.1988505721092224, 1.6244531869888306, 1.0257819890975952, 0.7958984375, -0.391357421875, -0.400390625, 0, 
401, 2253203144, 0.7625584, 0.17878868, 0.607534, 0.13206805, -8.579364776611328, 4.347419261932373, 2.055145025253296, 1.0141347646713257, 1.2963738441467285, 0.6623571515083313, 0.79541015625, -0.39208984375, -0.4013671875, 0, 
402, 2253219811, 0.7625253, 0.17878227, 0.6076109, 0.13191432, -8.568921089172363, 4.339434623718262, 1.9803900718688965, 0.8293263912200928, 0.29440516233444214, -0.043291863054037094, 0.794677734375, -0.39306640625, -0.39990234375, 0, 
403, 2253236478, 0.7624935, 0.17880611, 0.6077099, 0.13160878, -8.564026832580566, 4.39589786529541, 2.0309014320373535, 1.6406725645065308, 0.18754898011684418, -0.7413275837898254, 0.79638671875, -0.39208984375, -0.40087890625, 0, 
404, 2253253145, 0.76251996, 0.17881303, 0.6077605, 0.13121155, -8.601614952087402, 4.383276462554932, 2.06951904296875, 1.820525050163269, -0.40922048687934875, -1.286826729774475, 0.79638671875, -0.391845703125, -0.3974609375, 0, 
405, 2253269812, 0.76259, 0.17871775, 0.6077751, 0.13086602, -8.552164077758789, 4.406410217285156, 2.052638530731201, 0.9836364984512329, -0.6244631409645081, -1.437179684638977, 0.798095703125, -0.390869140625, -0.39990234375, 0, 
406, 2253286479, 0.7626435, 0.1785227, 0.6078202, 0.13061191, -8.5281982421875, 4.416469097137451, 1.9947786331176758, 0.12614893913269043, -0.1953224390745163, -1.3980180025100708, 0.79638671875, -0.392578125, -0.398193359375, 0, 
407, 2253303146, 0.7626641, 0.1784045, 0.6078923, 0.13031733, -8.54200267791748, 4.3198957443237305, 2.0143816471099854, 0.7642446160316467, -0.0360562801361084, -1.2933580875396729, 0.79541015625, -0.391357421875, -0.399169921875, 0, 
408, 2253319813, 0.76267326, 0.1785027, 0.6079436, 0.12988938, -8.474794387817383, 4.258447647094727, 1.9988796710968018, 2.452275037765503, -0.45744919776916504, -1.0524579286575317, 0.797607421875, -0.390380859375, -0.39990234375, 0, 
409, 2253336480, 0.76259774, 0.17861474, 0.60808265, 0.12952755, -8.513986587524414, 4.345064163208008, 2.0247902870178223, 2.432124376296997, 0.4237813651561737, -0.6804397702217102, 0.797607421875, -0.3896484375, -0.3974609375, 0, 
410, 2253353147, 0.7625121, 0.17866307, 0.6082286, 0.12927848, -8.512500762939453, 4.37516450881958, 2.0652153491973877, 1.6449693441390991, 0.6962108612060547, -0.35491520166397095, 0.79931640625, -0.390380859375, -0.40478515625, 0, 
411, 2253369814, 0.762462, 0.178692, 0.6083352, 0.12903284, -8.494847297668457, 4.285218238830566, 2.0886623859405518, 1.4558833837509155, 0.36115825176239014, -0.40343841910362244, 0.798095703125, -0.390869140625, -0.398193359375, 0, 
412, 2253386481, 0.7624261, 0.17878287, 0.6084078, 0.12877694, -8.45657730102539, 4.238434791564941, 2.0670535564422607, 1.7723925113677979, 0.05927419662475586, -0.16821140050888062, 0.798095703125, -0.390869140625, -0.399169921875, 0, 
413, 2253403148, 0.7623873, 0.17886934, 0.6084973, 0.12846193, -8.465134620666504, 4.218570232391357, 1.9881665706634521, 2.0147781372070312, 0.09248104691505432, -0.5145207047462463, 0.797607421875, -0.390869140625, -0.398193359375, 0, 
414, 2253419815, 0.76237756, 0.17897508, 0.60855657, 0.12809063, -8.427994728088379, 4.275875568389893, 2.027047872543335, 2.2909600734710693, -0.27657875418663025, -0.7168483138084412, 0.798828125, -0.388671875, -0.40380859375, 0, 
415, 2253436482, 0.76236403, 0.1790446, 0.6086253, 0.12774746, -8.446422576904297, 4.320366859436035, 2.075605869293213, 2.003553628921509, -0.14679278433322906, -0.7310697436332703, 0.798095703125, -0.389892578125, -0.405517578125, 0, 
416, 2253453149, 0.7624155, 0.17899852, 0.6086328, 0.12746966, -8.477371215820312, 4.277042865753174, 2.0590012073516846, 0.9829450249671936, -0.5533111691474915, -0.8538506031036377, 0.7998046875, -0.390380859375, -0.399169921875, 0, 
417, 2253469816, 0.762505, 0.17895399, 0.60859257, 0.12718816, -8.471535682678223, 4.258768081665039, 2.0683798789978027, 0.9133936166763306, -0.9638828039169312, -0.839276909828186, 0.796875, -0.387939453125, -0.398681640625, 0, 
418, 2253486483, 0.76260006, 0.17886384, 0.60855806, 0.12691, -8.488286972045898, 4.246312618255615, 1.9972814321517944, 0.663100004196167, -0.9158524870872498, -1.0263969898223877, 0.7998046875, -0.390869140625, -0.399169921875, 0, 
419, 2253503150, 0.76271003, 0.17871477, 0.60851717, 0.1266547, -8.498273849487305, 4.2621283531188965, 1.9897674322128296, 0.23378632962703705, -0.931623637676239, -1.1575531959533691, 0.7958984375, -0.38916015625, -0.399169921875, 0, 
420, 2253519817, 0.7628393, 0.17860019, 0.6084519, 0.12635052, -8.524434089660645, 4.250802516937256, 2.008485794067383, 0.5739613175392151, -1.231612205505371, -1.256251573562622, 0.80029296875, -0.389892578125, -0.3974609375, 0, 
421, 2253536484, 0.7629773, 0.1785064, 0.6083778, 0.12600645, -8.549986839294434, 4.209871292114258, 2.0031824111938477, 0.8341864943504333, -1.3837388753890991, -1.3750563859939575, 0.79638671875, -0.386962890625, -0.396484375, 0, 
422, 2253553151, 0.7631432, 0.17844853, 0.6082642, 0.1256318, -8.513272285461426, 4.294234275817871, 2.022848606109619, 1.0856903791427612, -1.7802364826202393, -1.3616992235183716, 0.796875, -0.387451171875, -0.398681640625, 0, 
423, 2253569818, 0.7632459, 0.17844203, 0.6082164, 0.12524825, -8.479132652282715, 4.296703338623047, 2.0765769481658936, 1.5304101705551147, -1.2280585765838623, -1.2207077741622925, 0.798095703125, -0.388671875, -0.398681640625, 0, 
424, 2253586485, 0.7633502, 0.17831379, 0.60817975, 0.12497396, -8.5255126953125, 4.292224884033203, 2.051729440689087, 0.43621626496315, -0.9339798092842102, -1.1711277961730957, 0.7998046875, -0.386474609375, -0.39697265625, 0, 
425, 2253603152, 0.7634761, 0.17814305, 0.60812926, 0.124692954, -8.515510559082031, 4.218055248260498, 1.9597831964492798, 0.2142566442489624, -1.074657678604126, -1.388387680053711, 0.79931640625, -0.38525390625, -0.399169921875, 0, 
426, 2253619819, 0.76358724, 0.17809582, 0.6080742, 0.124347694, -8.517176628112793, 4.196977138519287, 2.031148910522461, 1.143062710762024, -1.2224299907684326, -1.1904398202896118, 0.797607421875, -0.3857421875, -0.3974609375, 0, 
427, 2253636486, 0.7637418, 0.1781092, 0.6079628, 0.123923056, -8.511590957641602, 4.282887935638428, 2.010308265686035, 1.6935118436813354, -1.8502167463302612, -1.3221468925476074, 0.798583984375, -0.384033203125, -0.395263671875, 0, 
428, 2253653153, 0.7639133, 0.17824547, 0.6078185, 0.123377025, -8.480375289916992, 4.304638385772705, 2.0106449127197266, 2.7837679386138916, -2.340712785720825, -1.417669653892517, 0.798095703125, -0.384765625, -0.398193359375, 0, 
429, 2253669820, 0.7640969, 0.17839731, 0.60765207, 0.122839645, -8.45073127746582, 4.320657253265381, 2.0057871341705322, 2.790977954864502, -2.5092060565948486, -1.2906432151794434, 0.793701171875, -0.38623046875, -0.399169921875, 0, 
430, 2253686487, 0.7642501, 0.17843276, 0.60753214, 0.12242835, -8.444830894470215, 4.386445045471191, 2.0075273513793945, 1.7664694786071777, -1.9060651063919067, -1.1566375494003296, 0.794189453125, -0.38232421875, -0.39990234375, 0, 
431, 2253703154, 0.7643987, 0.17854688, 0.6073946, 0.12201572, -8.499491691589355, 4.322466850280762, 2.006695508956909, 2.1590611934661865, -2.040198802947998, -0.8082792162895203, 0.79638671875, -0.3857421875, -0.40087890625, 0, 
432, 2253719821, 0.7645822, 0.17882282, 0.6071916, 0.12147119, -8.479047775268555, 4.273129940032959, 2.0276291370391846, 3.4571704864501953, -2.825836658477783, -0.7743872404098511, 0.794921875, -0.386962890625, -0.401611328125, 0, 
433, 2253736488, 0.7647605, 0.17911342, 0.60698324, 0.12096007, -8.460655212402344, 4.307205677032471, 2.0625381469726562, 3.3971469402313232, -2.8058969974517822, -0.5285308957099915, 0.794677734375, -0.384765625, -0.39990234375, 0, 
434, 2253753155, 0.76493955, 0.1794097, 0.6067614, 0.12050148, -8.479426383972168, 4.3101677894592285, 2.0660717487335205, 3.197995185852051, -2.8205342292785645, -0.2149161398410797, 0.793701171875, -0.386962890625, -0.403076171875, 0, 
435, 2253769822, 0.7650626, 0.1798179, 0.6065735, 0.12005682, -8.461087226867676, 4.302591800689697, 2.1187636852264404, 3.8318207263946533, -2.487659454345703, 0.3266836106777191, 0.7958984375, -0.3857421875, -0.400390625, 0, 
436, 2253786489, 0.7651141, 0.1801741, 0.60647506, 0.11969085, -8.50908374786377, 4.244215965270996, 2.1914262771606445, 3.3972105979919434, -1.580994963645935, 0.46938470005989075, 0.794189453125, -0.386474609375, -0.402099609375, 0, 
437, 2253803156, 0.7651595, 0.18040347, 0.60639876, 0.11944165, -8.571317672729492, 4.186331748962402, 2.1890692710876465, 2.243025541305542, -1.1722931861877441, 0.5381932258605957, 0.793212890625, -0.386962890625, -0.402099609375, 0, 
438, 2253819823, 0.7651888, 0.18063578, 0.60634094, 0.11919566, -8.545433044433594, 4.163522243499756, 2.2668471336364746, 2.3009424209594727, -1.0151784420013428, 0.5526067614555359, 0.7958984375, -0.390869140625, -0.4013671875, 0, 
439, 2253836490, 0.7652113, 0.18078543, 0.606299, 0.1190385, -8.513988494873047, 4.149235725402832, 2.2962968349456787, 1.5181864500045776, -0.7191150188446045, 0.661454439163208, 0.793701171875, -0.388671875, -0.402587890625, 0, 
440, 2253853157, 0.7651709, 0.18079723, 0.60635626, 0.118988395, -8.51266098022461, 4.11561393737793, 2.1772594451904297, 0.48368939757347107, 0.32895028591156006, 0.5852053165435791, 0.79443359375, -0.38818359375, -0.405517578125, 0, 
441, 2253869824, 0.765051, 0.18073048, 0.6065203, 0.11902458, -8.561450004577637, 4.14503288269043, 2.1409642696380615, -0.0852774828672409, 1.3869084119796753, 0.639965295791626, 0.79541015625, -0.388671875, -0.403076171875, 0, 
442, 2253886491, 0.7648897, 0.18067898, 0.6067368, 0.11903568, -8.567572593688965, 4.0611491203308105, 2.1168367862701416, 0.18868233263492584, 1.796263337135315, 0.5432260632514954, 0.79541015625, -0.3857421875, -0.40380859375, 0, 
443, 2253903158, 0.76474196, 0.18052886, 0.6069564, 0.11909327, -8.575440406799316, 4.068464756011963, 2.0795648097991943, -0.5128494501113892, 1.883276104927063, 0.35672086477279663, 0.794677734375, -0.387939453125, -0.400390625, 0, 
444, 2253919825, 0.7645493, 0.1805421, 0.6072184, 0.11897422, -8.585159301757812, 4.1049885749816895, 1.9783434867858887, 1.1799193620681763, 1.9368131160736084, 0.09418430179357529, 0.794677734375, -0.387939453125, -0.400390625, 0, 
445, 2253936492, 0.7643142, 0.18066326, 0.60751003, 0.11881338, -8.601951599121094, 4.124238014221191, 2.0180606842041016, 1.9877249002456665, 2.1332690715789795, 0.32674121856689453, 0.80029296875, -0.387451171875, -0.400390625, 0, 
446, 2253953159, 0.7641308, 0.18050916, 0.6077782, 0.11885509, -8.649081230163574, 4.184933185577393, 2.0337092876434326, -0.3363524079322815, 2.2428529262542725, 0.21687553822994232, 0.80029296875, -0.386962890625, -0.3974609375, 0, 
447, 2253969826, 0.7640158, 0.18041863, 0.6079454, 0.11887702, -8.629082679748535, 4.1437554359436035, 2.013784885406494, -0.193491131067276, 1.4033132791519165, 0.474148690700531, 0.798583984375, -0.387451171875, -0.396484375, 0, 
448, 2253986493, 0.7638716, 0.18033767, 0.6081397, 0.11893214, -8.636019706726074, 4.163792610168457, 2.0011351108551025, -0.04787013679742813, 1.6079334020614624, 0.6371607780456543, 0.796875, -0.387939453125, -0.398193359375, 0, 
449, 2254003160, 0.7637697, 0.18028966, 0.60826886, 0.11899901, -8.642329216003418, 4.174121856689453, 1.989639163017273, -0.31298723816871643, 1.2237684726715088, 0.9521970152854919, 0.798583984375, -0.386962890625, -0.398681640625, 0, 
450, 2254019827, 0.76368135, 0.1803723, 0.60834974, 0.11902691, -8.605472564697266, 4.1181159019470215, 1.9704782962799072, 0.7207220792770386, 0.6310265064239502, 1.2856485843658447, 0.799072265625, -0.38525390625, -0.3974609375, 0, 
451, 2254036494, 0.76361173, 0.18044202, 0.6084032, 0.119094506, -8.549432754516602, 4.145147323608398, 1.9679824113845825, 0.3156189024448395, 0.5327889919281006, 1.489410400390625, 0.796875, -0.387939453125, -0.398193359375, 0, 
452, 2254053161, 0.7634975, 0.18047015, 0.60848933, 0.119344406, -8.56252670288086, 4.224818229675293, 1.9939923286437988, -0.3981878459453583, 1.051663875579834, 2.224482297897339, 0.799072265625, -0.387939453125, -0.395263671875, 0, 
453, 2254069828, 0.7633816, 0.18054523, 0.6085642, 0.119590625, -8.611289978027344, 4.226258754730225, 1.9949393272399902, -0.311847448348999, 1.0442363023757935, 2.4570326805114746, 0.799072265625, -0.388671875, -0.3935546875, 0, 
454, 2254086495, 0.7632944, 0.18065949, 0.6085886, 0.11985029, -8.603011131286621, 4.111108779907227, 1.9814614057540894, -0.19265873730182648, 0.6183866858482361, 2.719780683517456, 0.80126953125, -0.38818359375, -0.39697265625, 0, 
455, 2254103162, 0.7632373, 0.180902, 0.6085638, 0.11997339, -8.607985496520996, 4.0645751953125, 2.0142464637756348, 0.82875657081604, 0.03419935703277588, 2.612361192703247, 0.80078125, -0.386474609375, -0.394775390625, 0, 
456, 2254119829, 0.7632258, 0.181039, 0.60850793, 0.12012239, -8.527325630187988, 4.239527225494385, 2.0594942569732666, 0.3468984365463257, -0.3366469442844391, 2.246861457824707, 0.80029296875, -0.387451171875, -0.398681640625, 0, 
457, 2254136496, 0.76318324, 0.18121795, 0.60849977, 0.12016546, -8.48494815826416, 4.309271335601807, 2.0455386638641357, -0.024139972403645515, 0.4636346995830536, 2.0987625122070312, 0.80078125, -0.38525390625, -0.395263671875, 0, 
458, 2254153163, 0.76311, 0.18126956, 0.6085661, 0.12021642, -8.533743858337402, 4.218661308288574, 2.0172319412231445, -0.7428194880485535, 1.164052128791809, 1.5683231353759766, 0.80126953125, -0.388671875, -0.394287109375, 0, 
459, 2254169830, 0.7630382, 0.18109392, 0.6086724, 0.12039867, -8.547684669494629, 4.119781970977783, 2.018073320388794, -0.9966925978660583, 0.9408890008926392, 0.9017271399497986, 0.80029296875, -0.38818359375, -0.394775390625, 0, 
460, 2254186497, 0.76302236, 0.18096328, 0.6087252, 0.120428726, -8.542376518249512, 4.146734237670898, 2.106564998626709, -0.751463770866394, 0.4731241762638092, 0.4377017915248871, 0.802978515625, -0.3857421875, -0.392578125, 0, 
461, 2254203164, 0.7630644, 0.18058752, 0.608742, 0.120640494, -8.558918952941895, 4.244042873382568, 2.0454394817352295, -1.6132029294967651, -0.19384972751140594, 0.05918455123901367, 0.802490234375, -0.382568359375, -0.398681640625, 0, 
462, 2254219831, 0.763241, 0.18045321, 0.6086022, 0.12042986, -8.527617454528809, 4.209028720855713, 1.9819685220718384, -2.2342214584350586, -0.5245224833488464, -0.2523235082626343, 0.80029296875, -0.384033203125, -0.394775390625, 0, 
463, 2254236498, 0.7633576, 0.17998396, 0.60857403, 0.12053615, -8.559931755065918, 4.179585933685303, 1.969459056854248, -2.4518654346466064, -0.4604651629924774, -0.7386831045150757, 0.80029296875, -0.383544921875, -0.395263671875, 0, 
464, 2254253165, 0.7635173, 0.17969191, 0.60847694, 0.12044872, -8.561009407043457, 4.18251371383667, 1.9593908786773682, -1.418303370475769, -1.0774877071380615, -0.8211687207221985, 0.802490234375, -0.384765625, -0.394775390625, 0, 
465, 2254269832, 0.76366454, 0.17930709, 0.6084011, 0.12047294, -8.567826271057129, 4.2748870849609375, 2.0211875438690186, -1.2203168869018555, -1.2898937463760376, -0.9105313420295715, 0.802978515625, -0.383056640625, -0.391845703125, 0, 
466, 2254286499, 0.76391923, 0.17905594, 0.60821205, 0.12018534, -8.590009689331055, 4.318602085113525, 1.9856497049331665, -2.26301646232605, -1.346632480621338, -1.252249836921692, 0.798583984375, -0.384765625, -0.391845703125, 0, 
467, 2254303166, 0.76422846, 0.17907415, 0.6079446, 0.119544774, -8.629844665527344, 4.229571342468262, 1.921879768371582, -2.065164804458618, -1.3454477787017822, -1.3221914768218994, 0.799072265625, -0.380126953125, -0.39306640625, 0, 
468, 2254319833, 0.76443994, 0.17885707, 0.60779357, 0.11928583, -8.674310684204102, 4.168132305145264, 1.8852819204330444, -0.7570602297782898, -1.6743534803390503, -1.298102855682373, 0.80078125, -0.379150390625, -0.3935546875, 0, 
469, 2254336500, 0.76463205, 0.17856428, 0.6076708, 0.11911803, -8.691520690917969, 4.223037242889404, 1.9166533946990967, -0.13406966626644135, -1.9739964008331299, -1.481476902961731, 0.80126953125, -0.3779296875, -0.392578125, 0, 
470, 2254353167, 0.7648729, 0.17837286, 0.60748446, 0.11880851, -8.752852439880371, 4.295483589172363, 1.9747170209884644, -0.49712327122688293, -2.059971570968628, -1.4300144910812378, 0.80029296875, -0.376953125, -0.395263671875, 0, 
471, 2254369834, 0.765163, 0.17813373, 0.607238, 0.118558995, -8.697985649108887, 4.276890277862549, 2.0499355792999268, -0.355465829372406, -2.865471839904785, -1.4673771858215332, 0.802001953125, -0.380126953125, -0.39306640625, 0, 
472, 2254386501, 0.765536, 0.17802347, 0.6068968, 0.11806295, -8.688691139221191, 4.186715126037598, 2.0662500858306885, -0.8896954655647278, -3.0808234214782715, -1.6828566789627075, 0.798095703125, -0.376220703125, -0.396484375, 0, 
473, 2254403168, 0.7658612, 0.17775099, 0.606631, 0.117730625, -8.671955108642578, 4.189582347869873, 2.0391275882720947, -0.7743487358093262, -2.9292988777160645, -1.9211574792861938, 0.80029296875, -0.379150390625, -0.3974609375, 0, 
474, 2254419835, 0.7661424, 0.17752321, 0.6063921, 0.11747367, -8.656394958496094, 4.186921119689941, 2.0600709915161133, 0.17086870968341827, -3.052482843399048, -1.579586386680603, 0.80029296875, -0.3779296875, -0.3974609375, 0, 
475, 2254436502, 0.76646304, 0.17719734, 0.6061261, 0.117247455, -8.576981544494629, 4.160089015960693, 2.1066462993621826, -0.6296498775482178, -3.1893959045410156, -1.8002527952194214, 0.798095703125, -0.3740234375, -0.394287109375, 0, 
476, 2254453169, 0.7668418, 0.1769834, 0.60576767, 0.116947375, -8.523555755615234, 4.105169296264648, 2.13301420211792, -0.9671164751052856, -3.5263636112213135, -1.377009391784668, 0.797607421875, -0.372314453125, -0.399169921875, 0, 
477, 2254469836, 0.7672028, 0.17682496, 0.605412, 0.116658784, -8.49951457977295, 4.020525932312012, 2.105783700942993, -0.07963629812002182, -3.7811074256896973, -1.2291728258132935, 0.79541015625, -0.372802734375, -0.397705078125, 0, 
478, 2254486503, 0.76756585, 0.17679101, 0.6050088, 0.11641356, -8.429443359375, 4.051454067230225, 2.1063907146453857, 0.6980550289154053, -4.276296615600586, -0.5198865532875061, 0.79638671875, -0.373046875, -0.397705078125, 0, 
479, 2254503170, 0.7679988, 0.17684998, 0.604477, 0.11623126, -8.36917781829834, 4.119998931884766, 2.1553893089294434, 0.14206722378730774, -4.935657024383545, 0.45226263999938965, 0.79541015625, -0.371826171875, -0.400390625, 0, 
480, 2254519837, 0.7684473, 0.17688005, 0.6038815, 0.11631723, -8.367531776428223, 4.139313697814941, 2.1809134483337402, -0.6929260492324829, -5.238988876342773, 1.6855015754699707, 0.79443359375, -0.37451171875, -0.40087890625, 0, 
481, 2254536504, 0.76901025, 0.17702058, 0.60309386, 0.1164688, -8.325102806091309, 4.022965908050537, 2.136974811553955, -1.6230897903442383, -6.267326354980469, 2.868206739425659, 0.792236328125, -0.36962890625, -0.401611328125, 0, 
482, 2254553171, 0.7697233, 0.17732559, 0.60206014, 0.11664284, -8.243757247924805, 3.94907808303833, 2.1293468475341797, -1.530371904373169, -8.120417594909668, 3.9382543563842773, 0.793701171875, -0.37451171875, -0.402587890625, 0, 
483, 2254569838, 0.7704529, 0.17771071, 0.6009383, 0.11702465, -8.113898277282715, 3.976184844970703, 2.213937520980835, -0.33772918581962585, -9.354683876037598, 5.007636547088623, 0.79052734375, -0.371826171875, -0.404296875, 0, 
484, 2254586505, 0.77131426, 0.1781722, 0.59961855, 0.117417306, -8.03759479522705, 4.092857837677002, 2.3033454418182373, -2.044790744781494, -10.092227935791016, 5.982418537139893, 0.787841796875, -0.3740234375, -0.408203125, 0, 
485, 2254603172, 0.77223563, 0.17851196, 0.5982116, 0.11801962, -7.970638751983643, 4.102205753326416, 2.3600480556488037, -3.725714921951294, -10.435503005981445, 6.655725955963135, 0.7861328125, -0.37353515625, -0.410400390625, 0, 
486, 2254619839, 0.77314425, 0.17876215, 0.5968002, 0.11883477, -8.038506507873535, 4.037539482116699, 2.3256256580352783, -4.199063777923584, -10.50629711151123, 7.201674938201904, 0.784423828125, -0.375732421875, -0.410400390625, 0, 
487, 2254636506, 0.7740524, 0.17884049, 0.5953861, 0.1198946, -8.02877140045166, 4.074795246124268, 2.343414783477783, -5.098948001861572, -10.603582382202148, 7.516270637512207, 0.783935546875, -0.37353515625, -0.412841796875, 0, 
488, 2254653173, 0.7748983, 0.17877978, 0.59401906, 0.121293694, -8.124072074890137, 4.094476222991943, 2.504603385925293, -5.02402400970459, -10.637894630432129, 8.156848907470703, 0.783447265625, -0.372802734375, -0.413330078125, 0, 
489, 2254669840, 0.7759609, 0.17891563, 0.592375, 0.122335576, -8.228312492370605, 4.124451160430908, 2.4036102294921875, -6.641340255737305, -11.716691970825195, 8.241168022155762, 0.779541015625, -0.3740234375, -0.4150390625, 0, 
490, 2254686507, 0.77697915, 0.17895041, 0.5907815, 0.123521596, -8.249053955078125, 4.164886474609375, 2.3649938106536865, -6.759940147399902, -11.482234954833984, 8.307479858398438, 0.775146484375, -0.375, -0.4189453125, 0, 
491, 2254703174, 0.7779689, 0.17905691, 0.58918905, 0.12473901, -8.421379089355469, 4.202606678009033, 2.4052774906158447, -6.839376926422119, -11.192938804626465, 8.897174835205078, 0.774658203125, -0.3740234375, -0.420654296875, 0, 
492, 2254719841, 0.7789988, 0.17917824, 0.587516, 0.12602082, -8.512564659118652, 4.241959095001221, 2.3779966831207275, -6.665942192077637, -11.966777801513672, 9.225632667541504, 0.771484375, -0.372802734375, -0.42333984375, 0, 
493, 2254736508, 0.78005767, 0.17953722, 0.5857366, 0.12723781, -8.452754974365234, 4.362305164337158, 2.5017213821411133, -5.4656147956848145, -12.836228370666504, 10.005707740783691, 0.769287109375, -0.373291015625, -0.424560546875, 0, 
494, 2254753175, 0.78111017, 0.17995432, 0.58390653, 0.12859578, -8.532011032104492, 4.397739410400391, 2.512925386428833, -6.05844783782959, -12.800947189331055, 11.155271530151367, 0.766357421875, -0.373779296875, -0.4267578125, 0, 
495, 2254769842, 0.7821632, 0.18026781, 0.58206415, 0.13009927, -8.71337890625, 4.36025857925415, 2.2886157035827637, -7.085876941680908, -12.667160987854004, 11.495678901672363, 0.763671875, -0.376220703125, -0.428955078125, 0, 
496, 2254786509, 0.7832731, 0.18091449, 0.5800935, 0.13131936, -8.681916236877441, 4.356127738952637, 2.3584930896759033, -4.3649983406066895, -14.234402656555176, 11.419160842895508, 0.760986328125, -0.37451171875, -0.4306640625, 0, 
497, 2254803176, 0.78446287, 0.18187614, 0.5779558, 0.13231233, -8.490140914916992, 4.388057231903076, 2.616027593612671, -2.0203967094421387, -16.02406883239746, 11.590332984924316, 0.75927734375, -0.376220703125, -0.435302734375, 0, 
498, 2254819843, 0.7856501, 0.18275397, 0.5758087, 0.13341457, -8.434816360473633, 4.564578056335449, 2.677091121673584, -2.8688442707061768, -15.87873363494873, 11.845935821533203, 0.7578125, -0.37841796875, -0.436279296875, 0, 
499, 2254836510, 0.78679657, 0.18340696, 0.57374024, 0.13466802, -8.51512622833252, 4.609153747558594, 2.5850744247436523, -4.589084148406982, -14.882880210876465, 11.719457626342773, 0.75390625, -0.377685546875, -0.443115234375, 0, 
500, 2254853177, 0.78791827, 0.18425815, 0.57165724, 0.13580199, -8.445097923278809, 4.507665157318115, 2.6770689487457275, -3.068162441253662, -15.181832313537598, 11.907622337341309, 0.748291015625, -0.3798828125, -0.440185546875, 0, 
501, 2254869844, 0.78896964, 0.18519622, 0.5696597, 0.136811, -8.38021469116211, 4.422457695007324, 2.81607723236084, -1.9218767881393433, -14.696969032287598, 11.523494720458984, 0.747314453125, -0.381591796875, -0.446533203125, 0, 
502, 2254886511, 0.79001313, 0.18597549, 0.5677285, 0.13775744, -8.342698097229004, 4.567693710327148, 2.825502634048462, -2.4328503608703613, -14.256031036376953, 10.473767280578613, 0.74462890625, -0.38037109375, -0.447021484375, 0, 
503, 2254903178, 0.79095685, 0.18691781, 0.56590885, 0.13855195, -8.296409606933594, 4.661978244781494, 2.908534049987793, -0.7046700119972229, -13.621537208557129, 10.230175971984863, 0.73974609375, -0.3828125, -0.450927734375, 0, 
504, 2254919845, 0.7918366, 0.18775375, 0.5642059, 0.13933879, -8.245033264160156, 4.540573596954346, 2.964047431945801, -1.0852751731872559, -12.63519287109375, 9.691783905029297, 0.7392578125, -0.384521484375, -0.454833984375, 0, 
505, 2254936512, 0.7927164, 0.18852973, 0.5625118, 0.14013591, -8.234082221984863, 4.553977012634277, 2.973726987838745, -1.4484379291534424, -12.513504981994629, 9.506117820739746, 0.7353515625, -0.386474609375, -0.45556640625, 0, 
506, 2254953179, 0.7935945, 0.1894012, 0.56079614, 0.14086492, -8.18541145324707, 4.591038227081299, 3.0193285942077637, -0.6695550084114075, -12.813699722290039, 9.528271675109863, 0.73193359375, -0.386474609375, -0.4599609375, 0, 
507, 2254969846, 0.7946018, 0.19022246, 0.5588787, 0.1416981, -8.0648193359375, 4.522391319274902, 3.134918689727783, -1.7140419483184814, -14.227394104003906, 10.042180061340332, 0.732177734375, -0.388427734375, -0.46728515625, 0, 
508, 2254986513, 0.7956815, 0.19104952, 0.55679053, 0.14274336, -7.952016353607178, 4.511612415313721, 3.0791518688201904, -2.7560198307037354, -15.16494083404541, 11.376119613647461, 0.72705078125, -0.389404296875, -0.46728515625, 0, 
509, 2255003180, 0.79682773, 0.19190517, 0.55451965, 0.14403594, -7.899010181427002, 4.493856906890869, 3.0079729557037354, -3.8049004077911377, -16.1264591217041, 13.009960174560547, 0.724853515625, -0.390380859375, -0.46728515625, 0, 
510, 2255019847, 0.7980486, 0.19294801, 0.5519612, 0.14570001, -7.838797569274902, 4.482512950897217, 3.0849859714508057, -4.618434429168701, -17.65964126586914, 16.08039093017578, 0.720947265625, -0.39208984375, -0.470703125, 0, 
511, 2255036514, 0.7994379, 0.19429101, 0.5489053, 0.1478288, -7.665940284729004, 4.512856483459473, 3.160839319229126, -5.4240946769714355, -20.732044219970703, 20.24814796447754, 0.71728515625, -0.393310546875, -0.4716796875, 0, 
512, 2255053181, 0.80090976, 0.19599353, 0.54547715, 0.15028365, -7.424472332000732, 4.43061637878418, 3.1393439769744873, -5.161683559417725, -23.02113151550293, 23.808347702026367, 0.712158203125, -0.39599609375, -0.4755859375, 0, 
