sep=,
DeviceTag:,Xsens_2,,,,,,,,,,,,,,,,,
FirmwareVersion:,2.2.1,,,,,,,,,,,,,,,,,
AppVersion:,2023.0.0,,,,,,,,,,,,,,,,,
SyncStatus:,Un-synced,,,,,,,,,,,,,,,,,
OutputRate:,60Hz,,,,,,,,,,,,,,,,,
FilterProfile:,General,,,,,,,,,,,,,,,,,
Measurement Mode:,Sensor fusion Mode - Extended (Quaternion),,,,,,,,,,,,,,,,,
StartTime:,2023-07-13 15:15:59.310 +0200,,,,,,,,,,,,,,,,,
© Movella Technologies B. V. 2005-2023,,,,,,,,,,,,,,,,,,,

PacketCounter,SampleTimeFine,Quat_W,Quat_X,Quat_Y,Quat_Z,FreeAcc_X,FreeAcc_Y,FreeAcc_Z,Status
1, 608187377, 0.6371014, 0.3121824, -0.6260933, 0.32349846, -0.19165878, -0.32132736, 0.17190647, 0
2, 608204044, 0.6392562, 0.31083748, -0.6238335, 0.3249052, -0.1431131, -0.2893212, 0.15918255, 0
3, 608220711, 0.6413011, 0.30923912, -0.62188, 0.32614338, 0.013131834, -0.013560754, 0.18444538, 0
4, 608237378, 0.64245707, 0.308236, -0.62092763, 0.32663187, 0.083491474, 0.13553311, 0.17447853, 0
5, 608254045, 0.64309335, 0.30772856, -0.62047786, 0.32671288, 0.0074112425, 0.04842788, 0.1627245, 0
6, 608270712, 0.64353323, 0.3073871, -0.62025476, 0.3265919, -0.07824607, -0.13628031, 0.15013981, 0
7, 608287379, 0.6437436, 0.30711073, -0.6202827, 0.32638404, -0.07597339, -0.16064525, 0.15455532, 0
8, 608304046, 0.64389217, 0.3068831, -0.62032133, 0.32623222, 0.040161703, 0.021675617, 0.16587162, 0
9, 608320713, 0.6441406, 0.30662256, -0.6202345, 0.32615167, 0.09246373, 0.13006711, 0.17172432, 0
10, 608337380, 0.6445034, 0.3063204, -0.62003964, 0.32608902, 0.049119208, 0.049315453, 0.1798296, 0
11, 608354047, 0.6448187, 0.30603245, -0.6199244, 0.32595554, -0.027051773, -0.049753312, 0.15579414, 0
12, 608370714, 0.6449133, 0.3059082, -0.6199607, 0.32581577, -0.035820186, -0.09671227, 0.15952015, 0
13, 608387381, 0.6449012, 0.30581164, -0.6201346, 0.325599, 0.027681185, -0.034701727, 0.15992069, 0
14, 608404048, 0.64493245, 0.3057081, -0.62023926, 0.3254354, 0.07460326, 0.08502254, 0.1745758, 0
15, 608420715, 0.6451665, 0.30549997, -0.6201607, 0.32531625, 0.04627031, 0.10601063, 0.16975784, 0
16, 608437382, 0.6454397, 0.30532452, -0.61998856, 0.32526785, 0.00703887, 0.007941863, 0.14722538, 0
17, 608454049, 0.64561975, 0.30517048, -0.61993796, 0.3251511, -0.02188147, -0.06044662, 0.15940571, 0
18, 608470716, 0.6456558, 0.3050399, -0.62010103, 0.32489103, -0.007231091, -0.052078743, 0.16238403, 0
19, 608487383, 0.645572, 0.30507544, -0.62024546, 0.32474798, 0.054653388, 0.045827307, 0.15576363, 0
20, 608504050, 0.64565533, 0.30504018, -0.6202002, 0.32470232, 0.1088213, 0.13469942, 0.18096161, 0
21, 608520717, 0.6459211, 0.30493587, -0.6199436, 0.32476166, 0.029185427, 0.044220474, 0.16692162, 0
22, 608537384, 0.6461219, 0.30487618, -0.6197327, 0.32482126, -0.024716957, -0.045203038, 0.15548515, 0
23, 608554051, 0.6460703, 0.3049529, -0.6197705, 0.324779, -0.026045518, -0.0736996, 0.15063095, 0
24, 608570718, 0.6459666, 0.30491874, -0.6200445, 0.32449448, 0.04226764, -0.00185404, 0.15458679, 0
25, 608587385, 0.64593947, 0.30497548, -0.62005395, 0.32447693, 0.113577664, 0.13249601, 0.17798615, 0
26, 608604052, 0.6463203, 0.30464438, -0.61990756, 0.32430935, 0.06820319, 0.09302475, 0.16988754, 0
27, 608620719, 0.64659655, 0.3044524, -0.61974806, 0.3242442, -0.08193672, -0.11856848, 0.14746666, 0
28, 608637386, 0.64649886, 0.30441687, -0.6200254, 0.32394165, 0.034549292, -0.008162917, 0.167696, 0
29, 608654053, 0.64648706, 0.30440402, -0.62013155, 0.32377443, 0.12269475, 0.089064546, 0.17438698, 0
30, 608670720, 0.64677256, 0.30412698, -0.6200608, 0.32359964, 0.10401801, 0.10124757, 0.17108631, 0
31, 608687387, 0.6469469, 0.30412552, -0.61981136, 0.3237307, 0.02407011, -0.0064608655, 0.16006565, 0
32, 608704054, 0.64712095, 0.3038853, -0.619889, 0.32345936, -0.012330316, -0.030811485, 0.18099022, 0
33, 608720721, 0.6471018, 0.30383542, -0.6200431, 0.32324907, 0.017436245, 0.006893363, 0.16531467, 0
34, 608737388, 0.6472813, 0.30350068, -0.62024784, 0.32281095, 0.077993505, 0.047426544, 0.16718197, 0
35, 608754055, 0.6474095, 0.30342913, -0.62017375, 0.32276368, 0.08660725, 0.06431943, 0.16841507, 0
36, 608770722, 0.6473967, 0.3036555, -0.6199258, 0.3230526, 0.04286308, 0.018941382, 0.15545082, 0
37, 608787389, 0.6476675, 0.30330214, -0.61999005, 0.3227184, -2.8073226E-4, -0.009540427, 0.16731453, 0
38, 608804056, 0.64772034, 0.30332693, -0.6199243, 0.3227154, 0.014104115, -0.004553406, 0.16485977, 0
39, 608820723, 0.64789593, 0.30300638, -0.62012047, 0.32228673, 0.06620186, -0.0012118872, 0.1649561, 0
40, 608837390, 0.64783436, 0.30311897, -0.6201169, 0.32231146, 0.11001844, 0.060015015, 0.15973473, 0
41, 608854057, 0.6479373, 0.3030679, -0.62005734, 0.32226703, 0.08614368, 0.06691889, 0.1601448, 0
42, 608870724, 0.64815116, 0.3029634, -0.6198863, 0.32226434, 0.021604761, 0.03708348, 0.16618443, 0
43, 608887391, 0.6482841, 0.3029231, -0.61976373, 0.32227054, -0.0026857317, -0.028657267, 0.16661358, 0
44, 608904058, 0.6482789, 0.30287367, -0.6198915, 0.32208166, 0.035071418, -0.05677274, 0.15365887, 0
45, 608920725, 0.6481301, 0.30300468, -0.62000555, 0.32203844, 0.11844533, 0.05637265, 0.16412354, 0
46, 608937392, 0.6481355, 0.30315703, -0.6198384, 0.32220623, 0.14835091, 0.14325549, 0.17205524, 0
47, 608954059, 0.64850575, 0.30288544, -0.61963046, 0.3221163, 0.05227208, 0.02824779, 0.15643501, 0
48, 608970726, 0.64865917, 0.30287683, -0.6194357, 0.32218993, -0.039107613, -0.07285606, 0.15280819, 0
49, 608987393, 0.6486956, 0.30265927, -0.6197307, 0.32175335, 0.016884169, -0.031029632, 0.166502, 0
50, 609004060, 0.64845866, 0.30286035, -0.61990833, 0.3216995, 0.14718194, 0.08006301, 0.15943623, 0
51, 609020727, 0.648526, 0.3029184, -0.61976266, 0.3217897, 0.21006955, 0.1403373, 0.17603588, 0
52, 609037394, 0.648866, 0.30277678, -0.6194293, 0.32187963, 0.08148478, 0.048954032, 0.16445255, 0
53, 609054061, 0.6489879, 0.30282035, -0.619212, 0.32201126, -0.016670043, -0.06853488, 0.14630699, 0
54, 609070728, 0.64879483, 0.30301028, -0.61933464, 0.3219854, 0.018998154, -0.035551522, 0.1664753, 0
55, 609087395, 0.64859045, 0.30319005, -0.61948735, 0.3219343, 0.121541426, 0.054008108, 0.17551517, 0
56, 609104062, 0.64868426, 0.30321518, -0.61935014, 0.32198575, 0.17531954, 0.11323971, 0.17970467, 0
57, 609120729, 0.6489405, 0.30317718, -0.6190198, 0.32214054, 0.077045366, 0.01287524, 0.17059422, 0
58, 609137396, 0.6491264, 0.30306265, -0.61890584, 0.32209238, 0.0068041813, -0.04437492, 0.15185833, 0
59, 609154063, 0.6489691, 0.30324808, -0.6189663, 0.32211873, 0.009358934, -0.031006388, 0.16111565, 0
60, 609170730, 0.64886266, 0.3032571, -0.61917377, 0.32192603, 0.12593435, 0.06235788, 0.16061878, 0
61, 609187397, 0.6488894, 0.30333418, -0.6190691, 0.3220009, 0.16589087, 0.112051964, 0.1734991, 0
62, 609204064, 0.6491298, 0.30325085, -0.6188245, 0.32206517, 0.11840286, 0.034569185, 0.17265797, 0
63, 609220731, 0.649314, 0.3031313, -0.618717, 0.3220122, 0.02764006, -0.017116623, 0.1581726, 0
64, 609237398, 0.6492595, 0.30320004, -0.6187612, 0.3219731, 0.03188904, -0.02601199, 0.16654968, 0
65, 609254065, 0.64911336, 0.30333805, -0.6188565, 0.32195422, 0.09572657, 0.034268558, 0.160038, 0
66, 609270732, 0.64911956, 0.30339438, -0.6188134, 0.32197165, 0.16516669, 0.09263003, 0.1610241, 0
67, 609287399, 0.6492927, 0.30334836, -0.61862177, 0.32203415, 0.12861562, 0.06387106, 0.16630077, 0
68, 609304066, 0.6494265, 0.30333695, -0.6184528, 0.32209957, 0.06704897, 6.7143294E-4, 0.14365959, 0
69, 609320733, 0.64944345, 0.3033666, -0.6184253, 0.3220902, 0.056085657, 0.0013276669, 0.16460896, 0
70, 609337400, 0.6493799, 0.3034267, -0.6184982, 0.32202187, 0.10468497, 0.026803674, 0.16141987, 0
71, 609354067, 0.6493322, 0.30351985, -0.6184955, 0.3220351, 0.14347163, 0.07953664, 0.17146969, 0
72, 609370734, 0.6494025, 0.30356544, -0.6183526, 0.32212475, 0.14826508, 0.054139756, 0.16274929, 0
73, 609387401, 0.6495173, 0.3036071, -0.6181385, 0.32226512, 0.118526235, 0.012682572, 0.15089798, 0
74, 609404068, 0.64956844, 0.30364603, -0.61803013, 0.3223334, 0.055788834, -0.015309967, 0.16127491, 0
75, 609420735, 0.6495703, 0.3036118, -0.6181134, 0.3222025, 0.06621214, 1.13991606E-4, 0.16130829, 0
76, 609437402, 0.6494697, 0.3037182, -0.61816984, 0.32219633, 0.12627946, 0.04832082, 0.15638065, 0
77, 609454069, 0.64949244, 0.30377242, -0.61809266, 0.32224774, 0.18799227, 0.08931198, 0.16755772, 0
78, 609470736, 0.6496368, 0.30377033, -0.6178894, 0.32234806, 0.13878322, 0.06665402, 0.1601944, 0
79, 609487403, 0.6497078, 0.30384716, -0.6176978, 0.3224998, 0.07068866, 0.0078104367, 0.16563797, 0
80, 609504070, 0.64968365, 0.3038999, -0.61770886, 0.32247782, 0.050264042, -0.016829185, 0.16811848, 0
81, 609520737, 0.6495412, 0.30404973, -0.61777925, 0.32248855, 0.11615432, 0.059488866, 0.16106415, 0
82, 609537404, 0.6495078, 0.30414742, -0.6177335, 0.32255155, 0.17707457, 0.11665968, 0.16136742, 0
83, 609554071, 0.64964414, 0.3041437, -0.6175384, 0.32265368, 0.14640635, 0.061932534, 0.17507839, 0
84, 609570738, 0.6497589, 0.30416876, -0.6173425, 0.3227739, 0.08607484, 0.005236685, 0.15369225, 0
85, 609587405, 0.6497089, 0.30427948, -0.61730856, 0.32283518, 0.06395019, -0.014218329, 0.15300274, 0
86, 609604072, 0.6495406, 0.30445072, -0.6173858, 0.32286486, 0.11913911, 0.06441062, 0.14767075, 0
87, 609620739, 0.64949214, 0.30456108, -0.61735994, 0.3229077, 0.18000393, 0.10341095, 0.17089939, 0
88, 609637406, 0.64966875, 0.3044925, -0.6171849, 0.32295156, 0.1646383, 0.07922439, 0.16798687, 0
89, 609654073, 0.64981383, 0.30446196, -0.61701083, 0.32302126, 0.08965954, 0.0053513474, 0.16816902, 0
90, 609670740, 0.6497839, 0.30454925, -0.61698395, 0.32305038, 0.052530013, -0.01019085, 0.1559248, 0
91, 609687407, 0.6496386, 0.30470183, -0.6170625, 0.32304877, 0.12334875, 0.04603875, 0.15716553, 0
92, 609704074, 0.64959633, 0.30480257, -0.6170228, 0.32311448, 0.17474735, 0.10372163, 0.16152573, 0
93, 609720741, 0.6497241, 0.30482042, -0.6168071, 0.3232526, 0.13677697, 0.058167458, 0.17289352, 0
94, 609737408, 0.6498408, 0.3048303, -0.61661327, 0.32337818, 0.085849985, -0.01583768, 0.16217041, 0
95, 609754075, 0.6497859, 0.30494186, -0.6165914, 0.32342544, 0.07328811, 0.0041852803, 0.17436886, 0
96, 609770742, 0.6496239, 0.3050811, -0.6167073, 0.3233981, 0.112062246, 0.05993701, 0.16575527, 0
97, 609787409, 0.64956224, 0.30518767, -0.6166934, 0.32344848, 0.17765033, 0.12757091, 0.16844845, 0
98, 609804076, 0.6496867, 0.3052302, -0.6164516, 0.32361904, 0.18304326, 0.075047605, 0.17274761, 0
99, 609820743, 0.6498489, 0.3051961, -0.6162478, 0.32371372, 0.11146144, -0.01973083, 0.1612072, 0
100, 609837410, 0.6498028, 0.30528858, -0.6162239, 0.32376444, 0.08779321, -0.03553029, 0.14613056, 0
101, 609854077, 0.64960885, 0.30547068, -0.61633253, 0.323775, 0.12978995, 0.060727354, 0.17116356, 0
102, 609870744, 0.6495143, 0.3056297, -0.61631507, 0.3238477, 0.1779941, 0.12213754, 0.15322304, 0
103, 609887411, 0.6496582, 0.30564663, -0.6160849, 0.32398143, 0.16393423, 0.085410334, 0.17006302, 0
104, 609904078, 0.6497906, 0.3056813, -0.61585397, 0.32412243, 0.116144486, 0.00879233, 0.1587429, 0
105, 609920745, 0.649717, 0.30582651, -0.61581653, 0.32420406, 0.076199144, -0.030314839, 0.15687466, 0
106, 609937412, 0.6495343, 0.3059695, -0.6159588, 0.3241646, 0.15166159, 0.033252694, 0.16854382, 0
107, 609954079, 0.64945793, 0.30610606, -0.61593395, 0.32423595, 0.2003825, 0.1383543, 0.1646061, 0
108, 609970746, 0.6495916, 0.30613008, -0.61570555, 0.3243797, 0.18319525, 0.094129354, 0.18277073, 0
109, 609987413, 0.6497232, 0.30613557, -0.6154944, 0.32451114, 0.12856108, -0.0038927016, 0.15915394, 0
110, 610004080, 0.6496815, 0.3062333, -0.61545503, 0.32457745, 0.09346463, -0.034221176, 0.1680212, 0
111, 610020747, 0.64951795, 0.30638295, -0.6155586, 0.32456663, 0.12148018, 0.036560908, 0.16023064, 0
112, 610037414, 0.64943075, 0.30649808, -0.61557174, 0.32460764, 0.1844107, 0.121118985, 0.16476822, 0
113, 610054081, 0.6495417, 0.30648172, -0.61542714, 0.3246751, 0.16699949, 0.09789242, 0.166399, 0
114, 610070748, 0.6496436, 0.30650905, -0.6152383, 0.32480335, 0.13682078, -0.0033086622, 0.1668768, 0
115, 610087415, 0.6496174, 0.30658692, -0.61519474, 0.32486483, 0.114308104, -0.0018066552, 0.1672554, 0
116, 610104082, 0.6494792, 0.30673474, -0.61525023, 0.32489663, 0.14613813, 0.03749184, 0.17452717, 0
117, 610120749, 0.64939046, 0.30684903, -0.6152635, 0.324941, 0.17027977, 0.08019287, 0.16885948, 0
118, 610137416, 0.64943993, 0.3069008, -0.6151226, 0.32505974, 0.18334857, 0.08724426, 0.16875076, 0
119, 610154083, 0.64952666, 0.3069114, -0.61498094, 0.32514474, 0.14848591, 0.029733034, 0.17835903, 0
120, 610170750, 0.64952725, 0.30695146, -0.614947, 0.32516995, 0.15976527, 0.0035583263, 0.15243244, 0
121, 610187417, 0.64943826, 0.30705613, -0.6149868, 0.32517347, 0.15134375, 0.013631161, 0.1599083, 0
122, 610204084, 0.6493301, 0.3072232, -0.61496454, 0.32527387, 0.17329049, 0.07756525, 0.16564274, 0
123, 610220751, 0.64933294, 0.3073021, -0.6148712, 0.32537016, 0.17313313, 0.110840075, 0.16572666, 0
124, 610237418, 0.6493649, 0.3073655, -0.6147308, 0.32551157, 0.15072104, 0.03526252, 0.17023277, 0
125, 610254085, 0.6493536, 0.307465, -0.6146315, 0.32562768, 0.15026374, 0.022700423, 0.15662861, 0
126, 610270752, 0.6492885, 0.30756965, -0.6146088, 0.3257016, 0.15261465, 0.032321986, 0.15388966, 0
127, 610287419, 0.64923465, 0.30765784, -0.6145896, 0.32576174, 0.1554783, 0.08254736, 0.15493965, 0
128, 610304086, 0.6492164, 0.3077454, -0.6145128, 0.32586038, 0.15051317, 0.057740774, 0.16941261, 0
129, 610320753, 0.64921683, 0.30782413, -0.6144258, 0.32594922, 0.16616623, 0.05291848, 0.16555405, 0
130, 610337420, 0.64917886, 0.307925, -0.6143718, 0.32603157, 0.16058378, 0.026912749, 0.17187119, 0
131, 610354087, 0.649111, 0.30808488, -0.61427635, 0.3261955, 0.16162042, 0.05264669, 0.1657629, 0
132, 610370754, 0.6490988, 0.30816156, -0.61420166, 0.3262878, 0.15691862, 0.032201733, 0.16691399, 0
133, 610387421, 0.64906347, 0.3082505, -0.6141481, 0.326375, 0.129182, 0.03144313, 0.16664505, 0
134, 610404088, 0.64900327, 0.30833587, -0.61414146, 0.32642624, 0.13057984, 0.056355663, 0.1596756, 0
135, 610420755, 0.648949, 0.30843407, -0.61410666, 0.32650682, 0.17465615, 0.06999688, 0.16112995, 0
136, 610437422, 0.6489477, 0.30852342, -0.61399746, 0.3266306, 0.17928332, 0.06693096, 0.17011833, 0
137, 610454089, 0.64895934, 0.30858248, -0.6139085, 0.32671866, 0.15362582, 0.026679624, 0.17236614, 0
138, 610470756, 0.6488794, 0.30871248, -0.6138773, 0.32681328, 0.13325395, 0.031882558, 0.1616497, 0
139, 610487423, 0.64877707, 0.3088366, -0.61389846, 0.32685953, 0.14575459, 0.07011646, 0.16386509, 0
140, 610504090, 0.6487413, 0.30893272, -0.6138411, 0.32694727, 0.19135928, 0.0984807, 0.17064762, 0
141, 610520757, 0.6487574, 0.30901766, -0.61369264, 0.32711348, 0.16345458, 0.07055656, 0.16510677, 0
142, 610537424, 0.6487246, 0.30916333, -0.61355305, 0.3273029, 0.14314798, 0.03784365, 0.1615057, 0
143, 610554091, 0.64860106, 0.3093589, -0.6135019, 0.3274589, 0.12355573, 0.02530122, 0.15896797, 0
144, 610570758, 0.6484845, 0.30952078, -0.6134806, 0.32757664, 0.1546057, 0.07026197, 0.18294525, 0
145, 610587425, 0.648436, 0.30966276, -0.6133763, 0.32773367, 0.17426814, 0.07536097, 0.15961742, 0
146, 610604092, 0.6484753, 0.3096795, -0.613283, 0.3278148, 0.15934508, 0.03892299, 0.16292763, 0
147, 610620759, 0.64840055, 0.30983007, -0.61320436, 0.32796723, 0.14881493, 0.013184135, 0.17354488, 0
148, 610637426, 0.6482439, 0.31005722, -0.61316055, 0.32814395, 0.15510905, 0.053898137, 0.16658878, 0
149, 610654093, 0.6481419, 0.31022796, -0.6131081, 0.3282822, 0.16565216, 0.07106863, 0.16459179, 0
150, 610670760, 0.64812744, 0.3103374, -0.6129747, 0.3284566, 0.169472, 0.07737527, 0.16529274, 0
151, 610687427, 0.6480923, 0.3104711, -0.6128396, 0.32865146, 0.14039385, 0.032883227, 0.17267895, 0
152, 610704094, 0.6479727, 0.3106477, -0.61280537, 0.32878414, 0.14441799, 0.02657569, 0.16752815, 0
153, 610720761, 0.64780843, 0.31084567, -0.6128146, 0.3289036, 0.18754794, 0.06640503, 0.1481018, 0
154, 610737428, 0.64771664, 0.3110252, -0.61271167, 0.3291065, 0.20674367, 0.102103844, 0.17101574, 0
155, 610754095, 0.64773303, 0.3111255, -0.6125441, 0.3292908, 0.15887837, 0.06577808, 0.17221165, 0
156, 610770762, 0.64770555, 0.31125847, -0.6124074, 0.32947358, 0.14123024, 0.0118763605, 0.15793419, 0
157, 610787429, 0.6475914, 0.31141824, -0.61237586, 0.32960582, 0.13384001, 0.026575914, 0.14640617, 0
158, 610804096, 0.6474223, 0.31162357, -0.6123757, 0.32974416, 0.16141212, 0.05003941, 0.17267418, 0
159, 610820763, 0.6472976, 0.31181702, -0.6123268, 0.3298969, 0.17900929, 0.078179024, 0.17949295, 0
160, 610837430, 0.64726937, 0.31191373, -0.61223066, 0.3300393, 0.17409916, 0.07892578, 0.1763916, 0
161, 610854097, 0.647252, 0.3120336, -0.61209756, 0.33020708, 0.15346488, 0.049327746, 0.16457462, 0
162, 610870764, 0.6471668, 0.3122001, -0.611991, 0.33041412, 0.14536165, 0.04679579, 0.16128254, 0
163, 610887431, 0.64701796, 0.31241137, -0.6119475, 0.33058652, 0.15135492, 0.031883005, 0.1618805, 0
164, 610904098, 0.64687526, 0.3125973, -0.61192805, 0.33072567, 0.17851801, 0.05812633, 0.16210938, 0
165, 610920765, 0.646812, 0.31271654, -0.6118618, 0.33085915, 0.18439953, 0.094873875, 0.17938614, 0
166, 610937432, 0.6467864, 0.31283885, -0.61172825, 0.33104068, 0.15348724, 0.07335896, 0.17205238, 0
167, 610954099, 0.6467501, 0.3129483, -0.611625, 0.33119896, 0.1447671, 0.025147665, 0.17133808, 0
168, 610970766, 0.6466357, 0.3131113, -0.61158866, 0.33133522, 0.14236523, 0.020736415, 0.16696453, 0
169, 610987433, 0.6464676, 0.31329134, -0.6116073, 0.33145884, 0.17035487, 0.08375254, 0.16211891, 0
170, 611004100, 0.64635795, 0.3134547, -0.6115617, 0.33160225, 0.19795515, 0.0905261, 0.16688919, 0
171, 611020767, 0.64634275, 0.31357074, -0.6114076, 0.33180618, 0.15625076, 0.051755767, 0.16483307, 0
172, 611037434, 0.6463217, 0.31368792, -0.6112622, 0.33200413, 0.13052352, 0.031697266, 0.18418312, 0
173, 611054101, 0.6462196, 0.3138257, -0.611237, 0.3321191, 0.12918736, 0.01594966, 0.15162277, 0
174, 611070768, 0.6460408, 0.31400675, -0.61127114, 0.33223325, 0.15612872, 0.03276141, 0.1672039, 0
175, 611087435, 0.6459207, 0.31415302, -0.6112589, 0.33235052, 0.1938653, 0.08509384, 0.16804409, 0
176, 611104102, 0.6459058, 0.31426692, -0.61112493, 0.33251858, 0.17004016, 0.07764237, 0.16870213, 0
177, 611120769, 0.64589655, 0.31436968, -0.6109805, 0.3327043, 0.1300604, 0.049876247, 0.15709782, 0
178, 611137436, 0.645783, 0.31453428, -0.6109242, 0.33287284, 0.11754457, 0.033343885, 0.1649189, 0
179, 611154103, 0.6456051, 0.31471747, -0.6109553, 0.33298784, 0.14276265, 0.049593054, 0.16983795, 0
180, 611170770, 0.6454672, 0.31489688, -0.61093265, 0.333127, 0.18330967, 0.07690701, 0.15790462, 0
181, 611187437, 0.64542264, 0.31501958, -0.6108226, 0.3332989, 0.16476794, 0.08347203, 0.15621853, 0
182, 611204104, 0.6454041, 0.3151186, -0.6106942, 0.3334765, 0.14182165, 0.040511053, 0.16568756, 0
183, 611220771, 0.6453088, 0.31528372, -0.61061746, 0.3336455, 0.12540954, 0.02425585, 0.17010403, 0
184, 611237438, 0.6451672, 0.315444, -0.61063206, 0.3337411, 0.13972287, 0.053991344, 0.16363335, 0
185, 611254105, 0.64506745, 0.31556904, -0.61062974, 0.3338199, 0.18135886, 0.07395373, 0.1651268, 0
186, 611270772, 0.6450291, 0.3156563, -0.61054504, 0.3339661, 0.18287651, 0.07179996, 0.16584873, 0
187, 611287439, 0.6450009, 0.3157561, -0.61042345, 0.3341489, 0.13954629, 0.03895585, 0.16634369, 0
188, 611304106, 0.64490086, 0.31589752, -0.6103749, 0.3342969, 0.12409394, 0.018068563, 0.16418266, 0
189, 611320773, 0.6447514, 0.31606513, -0.610374, 0.3344282, 0.16416535, 0.054343823, 0.16168499, 0
190, 611337440, 0.6446308, 0.31622005, -0.6103377, 0.33458048, 0.1742449, 0.08472773, 0.16092968, 0
191, 611354107, 0.64458513, 0.31633523, -0.6102304, 0.33475524, 0.16433746, 0.06562206, 0.1640768, 0
192, 611370774, 0.6445248, 0.31645933, -0.6101339, 0.33493054, 0.119033165, 0.03719792, 0.15861416, 0
193, 611387441, 0.64440465, 0.31661904, -0.6101042, 0.33506453, 0.12424236, 0.006998861, 0.17853928, 0
194, 611404108, 0.64426404, 0.31676877, -0.610118, 0.3351682, 0.14148012, 0.06020053, 0.16263771, 0
195, 611420775, 0.6441628, 0.31692684, -0.61005145, 0.33533436, 0.16084753, 0.071597904, 0.17377853, 0
196, 611437442, 0.6441094, 0.31705624, -0.6099421, 0.33551338, 0.16166021, 0.04675891, 0.16767311, 0
197, 611454109, 0.64404434, 0.317173, -0.6098683, 0.33566228, 0.1392888, 0.034928147, 0.15817833, 0
198, 611470776, 0.64390266, 0.3173682, -0.6098306, 0.33581808, 0.1212142, 0.027187893, 0.18221855, 0
199, 611487443, 0.6437994, 0.31748188, -0.6098295, 0.3359105, 0.1585288, 0.08290453, 0.1677084, 0
200, 611504110, 0.64373153, 0.31761813, -0.6097434, 0.3360681, 0.14111848, 0.061009202, 0.18069172, 0
201, 611520777, 0.64365673, 0.317773, -0.60962516, 0.33627942, 0.14654672, 0.041683603, 0.17991638, 0
202, 611537444, 0.6435529, 0.31791925, -0.6095833, 0.33641592, 0.14724587, 0.041409574, 0.16175842, 0
203, 611554111, 0.6434084, 0.3180993, -0.6095504, 0.3365815, 0.14243184, 0.04701215, 0.17176533, 0
204, 611570778, 0.6433077, 0.31824046, -0.6095052, 0.33672255, 0.15757127, 0.061951086, 0.16356754, 0
205, 611587445, 0.64323556, 0.31837752, -0.60940576, 0.33691055, 0.15571432, 0.057410195, 0.1655035, 0
206, 611604112, 0.6431517, 0.3185137, -0.60933167, 0.33707586, 0.1384189, 0.043376938, 0.16261768, 0
207, 611620779, 0.6430436, 0.31866372, -0.6092895, 0.33721676, 0.15005855, 0.057377342, 0.15460205, 0
208, 611637446, 0.64290994, 0.31883976, -0.6092535, 0.33737028, 0.14291464, 0.05715763, 0.1671114, 0
209, 611654113, 0.64280254, 0.31902546, -0.6091589, 0.33757, 0.15183593, 0.07634733, 0.1682272, 0
210, 611670780, 0.64273566, 0.31915134, -0.60906804, 0.3377425, 0.13982077, 0.048733424, 0.15221977, 0
211, 611687447, 0.6426293, 0.3193047, -0.609, 0.33792228, 0.12065274, 0.0325636, 0.16062069, 0
212, 611704114, 0.64247435, 0.31950778, -0.60894746, 0.3381201, 0.12389368, 0.037731, 0.17007923, 0
213, 611720781, 0.64234716, 0.31967792, -0.6089016, 0.3382832, 0.12556869, 0.067257285, 0.17749405, 0
214, 611737448, 0.64227253, 0.31979027, -0.6088422, 0.33842555, 0.1413192, 0.055711497, 0.16504669, 0
215, 611754115, 0.64220136, 0.31990784, -0.60876715, 0.33858442, 0.13770187, 0.04859373, 0.15439606, 0
216, 611770782, 0.6420921, 0.32005477, -0.6087122, 0.33875152, 0.14209121, 0.020469764, 0.16822338, 0
217, 611787449, 0.64197487, 0.32020652, -0.6086702, 0.33890608, 0.11594958, 0.04289884, 0.15981197, 0
218, 611804116, 0.6418585, 0.3203652, -0.60862315, 0.33906072, 0.12451951, 0.040163714, 0.16762638, 0
219, 611820783, 0.6417309, 0.32055646, -0.60854167, 0.3392678, 0.13755569, 0.06278211, 0.16675758, 0
220, 611837450, 0.6416341, 0.3207094, -0.60846984, 0.33943507, 0.1546437, 0.072177924, 0.17109013, 0
221, 611854117, 0.641539, 0.32084858, -0.60840553, 0.3395987, 0.12892987, 0.038636897, 0.16162205, 0
222, 611870784, 0.64145136, 0.32097986, -0.60834503, 0.33974853, 0.14109926, 0.04945537, 0.16074467, 0
223, 611887451, 0.6413081, 0.32118103, -0.60828334, 0.33993924, 0.13060667, 0.05222626, 0.15845013, 0
224, 611904118, 0.6411869, 0.32133788, -0.6082414, 0.34009463, 0.14271615, 0.06865692, 0.1824131, 0
225, 611920785, 0.6410838, 0.32149878, -0.6081634, 0.34027654, 0.16321675, 0.07740254, 0.1643486, 0
226, 611937452, 0.640994, 0.32165357, -0.6080718, 0.3404627, 0.1437376, 0.047985326, 0.16004944, 0
227, 611954119, 0.640913, 0.3217748, -0.6080189, 0.34059513, 0.11616326, 0.03855889, 0.15640259, 0
228, 611970786, 0.64080864, 0.3218882, -0.60799956, 0.34071907, 0.12030719, 0.038484015, 0.16322803, 0
229, 611987453, 0.6406968, 0.32203326, -0.60796386, 0.340856, 0.121345185, 0.049095068, 0.17657185, 0
230, 612004120, 0.6405782, 0.32219315, -0.6078961, 0.34104863, 0.1466911, 0.05492183, 0.17412186, 0
231, 612020787, 0.6405037, 0.32232246, -0.60781467, 0.34121162, 0.13970275, 0.024142304, 0.1557293, 0
232, 612037454, 0.6403944, 0.32248506, -0.6077421, 0.3413923, 0.1208168, 0.031786673, 0.1698513, 0
233, 612054121, 0.6402909, 0.32259634, -0.6077412, 0.3414828, 0.13600406, 0.035566498, 0.16930771, 0
234, 612070788, 0.6402385, 0.32261482, -0.60777336, 0.34150624, 0.14195487, 0.05793143, 0.17274189, 0
235, 612087455, 0.6401498, 0.32275254, -0.60769486, 0.34168234, 0.14479437, 0.035964575, 0.18128586, 0
236, 612104122, 0.64006615, 0.3228827, -0.60761046, 0.34186605, 0.12845066, 0.035455413, 0.16730213, 0
237, 612120789, 0.6399639, 0.32301772, -0.6075596, 0.34202042, 0.10560808, 0.028643185, 0.15075397, 0
238, 612137456, 0.6398637, 0.32313156, -0.6075549, 0.3421087, 0.11661208, 0.035036102, 0.17006874, 0
239, 612154123, 0.63971806, 0.32331988, -0.6075136, 0.34227636, 0.12851459, 0.05907693, 0.17195988, 0
240, 612170790, 0.6396216, 0.3234858, -0.60742307, 0.34246054, 0.14948592, 0.06637083, 0.15860558, 0
241, 612187457, 0.6395659, 0.32359663, -0.60733634, 0.3426136, 0.11896209, 0.01878023, 0.17335606, 0
242, 612204124, 0.6394809, 0.3237213, -0.6072817, 0.34275144, 0.10982354, 0.01744161, 0.16651249, 0
243, 612220791, 0.6393259, 0.32390907, -0.6072528, 0.3429145, 0.11109711, 0.037969936, 0.15638447, 0
244, 612237458, 0.63919044, 0.32406336, -0.6072376, 0.34304807, 0.12852308, 0.059776753, 0.14804554, 0
245, 612254125, 0.63911927, 0.32418388, -0.6071666, 0.3431926, 0.12921374, 0.06037733, 0.18184757, 0
246, 612270792, 0.6390782, 0.32428506, -0.60706943, 0.3433452, 0.12373051, 0.039812576, 0.15890598, 0
247, 612287459, 0.6389926, 0.32441783, -0.6070031, 0.34349623, 0.101065405, 0.032012194, 0.16491222, 0
248, 612304126, 0.6388508, 0.32458764, -0.60697746, 0.34364486, 0.11040467, 0.037400648, 0.15331078, 0
249, 612320793, 0.63870203, 0.3247779, -0.6069457, 0.3437977, 0.13698304, 0.070754364, 0.16438293, 0
250, 612337460, 0.6386426, 0.3248752, -0.60687816, 0.3439354, 0.12930806, 0.0747405, 0.1525631, 0
251, 612354127, 0.63857734, 0.32500786, -0.60676944, 0.34412333, 0.106275044, 0.050537396, 0.15442848, 0
252, 612370794, 0.6384548, 0.32516968, -0.60671985, 0.344285, 0.09583699, 0.006250987, 0.15644836, 0
253, 612387461, 0.63827693, 0.3253437, -0.60674155, 0.344412, 0.13562632, 0.054022633, 0.16112804, 0
254, 612404128, 0.6381635, 0.32547104, -0.6067262, 0.3445289, 0.16764767, 0.07920115, 0.15716076, 0
255, 612420795, 0.6381794, 0.32549897, -0.6066257, 0.34465027, 0.14135228, 0.06559233, 0.15323734, 0
256, 612437462, 0.6381276, 0.3256309, -0.60648817, 0.34486353, 0.08186967, 0.024329161, 0.17817307, 0
257, 612454129, 0.63800114, 0.3257672, -0.6064919, 0.34496215, 0.08079636, 0.009841275, 0.15874672, 0
258, 612470796, 0.6377702, 0.32600543, -0.6065264, 0.34510383, 0.1109791, 0.037543025, 0.17156029, 0
259, 612487463, 0.63766605, 0.32612392, -0.60651237, 0.34520894, 0.16747022, 0.10816641, 0.17138958, 0
260, 612504130, 0.6377054, 0.32614055, -0.606393, 0.3453298, 0.124869086, 0.06645353, 0.16951084, 0
261, 612520797, 0.6376871, 0.3262435, -0.6062456, 0.34552562, 0.0762662, 0.004000658, 0.16483688, 0
262, 612537464, 0.6376032, 0.3263177, -0.6062811, 0.34554794, 0.0701178, -0.011000637, 0.16700935, 0
263, 612554131, 0.6373836, 0.3265216, -0.60633427, 0.3456673, 0.11554994, 0.042078994, 0.17495441, 0
264, 612570798, 0.6372419, 0.32670292, -0.6063045, 0.34580934, 0.14596379, 0.08185939, 0.17042065, 0
265, 612587465, 0.6372384, 0.32677147, -0.606173, 0.34598178, 0.15095931, 0.07351967, 0.15908241, 0
266, 612604132, 0.63725483, 0.32678562, -0.6060857, 0.34609097, 0.10400326, 0.032215815, 0.16514015, 0
267, 612620799, 0.6371498, 0.32689688, -0.6060745, 0.3461989, 0.054350752, -0.011127592, 0.16815758, 0
268, 612637466, 0.636961, 0.32706645, -0.60612404, 0.3462993, 0.09404442, 0.046296462, 0.16163158, 0
269, 612654133, 0.63680387, 0.32726106, -0.606098, 0.34645006, 0.14161065, 0.06905679, 0.18863297, 0
270, 612670800, 0.6367637, 0.32736573, -0.60599285, 0.34660912, 0.13196518, 0.040996745, 0.16170788, 0
271, 612687467, 0.6367377, 0.3274469, -0.60587645, 0.3467836, 0.10693977, 0.01186228, 0.17132759, 0
272, 612704134, 0.63663816, 0.32760334, -0.6057944, 0.34696174, 0.07889605, 0.0013705814, 0.15148354, 0
273, 612720801, 0.6364802, 0.3277694, -0.6058077, 0.34707156, 0.09347223, 0.048034277, 0.15899849, 0
274, 612737468, 0.6363787, 0.3278458, -0.60586566, 0.34708428, 0.13493253, 0.070770234, 0.15703869, 0
275, 612754135, 0.63634074, 0.32789838, -0.6058293, 0.347168, 0.13797455, 0.0759906, 0.1785326, 0
276, 612770802, 0.6363116, 0.32801107, -0.6056872, 0.3473627, 0.11769209, 0.033624843, 0.16352463, 0
277, 612787469, 0.63624024, 0.32815063, -0.60557055, 0.34756523, 0.08922995, -8.091169E-5, 0.1530428, 0
278, 612804136, 0.6361045, 0.3282752, -0.6055901, 0.34766182, 0.089002416, 0.013062097, 0.17624855, 0
279, 612820803, 0.6359178, 0.32845405, -0.60562956, 0.3477659, 0.12175198, 0.051243026, 0.1651392, 0
280, 612837470, 0.63582194, 0.32858136, -0.60559183, 0.3478866, 0.14782968, 0.08559004, 0.16492367, 0
281, 612854137, 0.63584125, 0.32861936, -0.60546243, 0.34804025, 0.12392005, 0.04533178, 0.17511463, 0
282, 612870804, 0.6358395, 0.32864383, -0.6053857, 0.3481541, 0.075026594, -0.012224594, 0.16646767, 0
283, 612887471, 0.63570446, 0.32878247, -0.6053897, 0.34826276, 0.089461505, 0.0030420113, 0.15656757, 0
284, 612904138, 0.6355022, 0.32898393, -0.6054332, 0.34836626, 0.09348117, 0.042806532, 0.15689754, 0
285, 612920805, 0.6353484, 0.32918498, -0.6053771, 0.34855434, 0.12885253, 0.089894675, 0.158988, 0
286, 612937472, 0.6354508, 0.32908872, -0.60531336, 0.34856892, 0.12247035, 0.07254806, 0.16313076, 0
287, 612954139, 0.63542026, 0.3291872, -0.6051822, 0.34875974, 0.08054513, 0.018276654, 0.16268253, 0
288, 612970806, 0.6352699, 0.32936332, -0.6051583, 0.34890848, 0.07191976, 0.00959854, 0.14758778, 0
289, 612987473, 0.6350632, 0.32956013, -0.6052104, 0.3490087, 0.09423529, 0.046623908, 0.17231083, 0
290, 613004140, 0.6349464, 0.32969436, -0.60519844, 0.34911534, 0.13650696, 0.0994617, 0.17509651, 0
291, 613020807, 0.6349367, 0.3297777, -0.6050535, 0.34930575, 0.12786148, 0.07916427, 0.15526772, 0
292, 613037474, 0.6348996, 0.32989022, -0.6049069, 0.34952056, 0.06900471, 0.0035601144, 0.18134785, 0
293, 613054141, 0.63478696, 0.33001056, -0.6048951, 0.34963188, 0.06322422, -0.0036180043, 0.1697483, 0
294, 613070808, 0.6346035, 0.33018368, -0.6049459, 0.34971365, 0.09917493, 0.041324195, 0.16312695, 0
295, 613087475, 0.634458, 0.3303584, -0.6049057, 0.34988207, 0.11802021, 0.08248813, 0.17526436, 0
296, 613104142, 0.6344399, 0.33044025, -0.60477674, 0.3500606, 0.11070954, 0.04950052, 0.16700172, 0
297, 613120809, 0.6344084, 0.33054093, -0.6046354, 0.350267, 0.08327422, 0.013172736, 0.15503979, 0
298, 613137476, 0.6343099, 0.3306674, -0.6046135, 0.3503637, 0.07213523, -0.01071074, 0.15889835, 0
299, 613154143, 0.6341006, 0.33088058, -0.6046436, 0.35048932, 0.09833676, 0.035057336, 0.1710558, 0
300, 613170810, 0.6339614, 0.33105305, -0.6046178, 0.35062274, 0.14201432, 0.07791013, 0.17191887, 0
301, 613187477, 0.6339103, 0.33119312, -0.6044647, 0.35084686, 0.1207122, 0.07244614, 0.18412018, 0
302, 613204144, 0.6338671, 0.3313162, -0.6043182, 0.35106125, 0.07527469, 0.013962184, 0.16337967, 0
303, 613220811, 0.6338244, 0.33132452, -0.6043657, 0.3510486, 0.08034531, 0.01703258, 0.16977406, 0
304, 613237478, 0.6336338, 0.3315008, -0.6044121, 0.35114637, 0.110812806, 0.05811136, 0.16887093, 0
305, 613254145, 0.633517, 0.33163464, -0.60439265, 0.35126415, 0.12381679, 0.07661689, 0.17319965, 0
306, 613270812, 0.63349485, 0.33173898, -0.6042533, 0.35144556, 0.105597354, 0.06899487, 0.16561222, 0
307, 613287479, 0.6334738, 0.3318108, -0.6041489, 0.351595, 0.06955142, 0.027132237, 0.16822529, 0
308, 613304146, 0.6333631, 0.33193737, -0.6041297, 0.35170782, 0.055700768, -0.0026957898, 0.15992069, 0
309, 613320813, 0.63315505, 0.33216944, -0.60413224, 0.35185933, 0.09684995, 0.038045928, 0.15927696, 0
310, 613337480, 0.63303775, 0.33230415, -0.60410994, 0.3519815, 0.1258445, 0.06594526, 0.15085793, 0
311, 613354147, 0.63306844, 0.33230007, -0.604027, 0.35207248, 0.07902703, 0.05549335, 0.15609837, 0
312, 613370814, 0.6330449, 0.33236957, -0.6039298, 0.35221577, 0.06859121, 0.0057492005, 0.16026402, 0
313, 613387481, 0.6329244, 0.33251092, -0.60392106, 0.352314, 0.06415716, 0.014239564, 0.15726566, 0
314, 613404148, 0.63273746, 0.33270723, -0.6039419, 0.35242885, 0.087538846, 0.030266337, 0.17122364, 0
315, 613420815, 0.6326127, 0.33289054, -0.6038651, 0.35261133, 0.11161656, 0.07482789, 0.16595268, 0
316, 613437482, 0.6325854, 0.33299765, -0.60372627, 0.35279685, 0.08690005, 0.07049643, 0.172472, 0
317, 613454149, 0.6324974, 0.33315974, -0.60359615, 0.35302398, 0.05336819, -4.1349896E-4, 0.16485119, 0
318, 613470816, 0.6323331, 0.33336365, -0.6035582, 0.35319105, 0.07012138, 6.9087854E-4, 0.16662121, 0
319, 613487483, 0.6321672, 0.3335284, -0.6035723, 0.35330838, 0.09420133, 0.044599775, 0.15577793, 0
320, 613504150, 0.6321059, 0.33361527, -0.60353017, 0.35340804, 0.10316911, 0.058568664, 0.17184734, 0
321, 613520817, 0.63212305, 0.33362338, -0.6034618, 0.35348633, 0.077247865, 0.036228545, 0.15800476, 0
322, 613537484, 0.63203114, 0.333766, -0.60336876, 0.35367495, 0.03436914, 0.006088046, 0.16601658, 0
323, 613554151, 0.6318977, 0.33392057, -0.60334384, 0.35381004, 0.06833104, 2.677685E-4, 0.173069, 0
324, 613570818, 0.6317903, 0.33404344, -0.6033324, 0.35390562, 0.08974314, 0.05119788, 0.17576408, 0
325, 613587485, 0.6317199, 0.3341664, -0.6032606, 0.3540372, 0.07262651, 0.033870928, 0.17348576, 0
326, 613604152, 0.63162005, 0.33432847, -0.60314786, 0.35425442, 0.08918793, 0.04156782, 0.1751337, 0
327, 613620819, 0.6315256, 0.3344731, -0.6030791, 0.35440364, 0.0769497, 0.024522277, 0.17278385, 0
328, 613637486, 0.6314013, 0.33464003, -0.603005, 0.3545936, 0.079166055, 0.011330766, 0.17776108, 0
329, 613654153, 0.6313052, 0.3347695, -0.6029354, 0.35476086, 0.093174055, 0.04709217, 0.1659441, 0
330, 613670820, 0.6311644, 0.3349819, -0.602835, 0.35498154, 0.077609956, 0.020156398, 0.16959667, 0
331, 613687487, 0.6310409, 0.33514374, -0.6027787, 0.35514385, 0.07649105, 0.016971115, 0.18201828, 0
332, 613704154, 0.63084304, 0.335447, -0.60263264, 0.35545677, 0.10038682, 0.04394801, 0.16936588, 0
333, 613720821, 0.63074964, 0.3356105, -0.60251296, 0.35567096, 0.07681425, 0.026958121, 0.17643642, 0
334, 613737488, 0.63063174, 0.33581603, -0.6023812, 0.35590956, 0.05228415, 0.015372327, 0.15757465, 0
335, 613754155, 0.6305595, 0.335903, -0.6023657, 0.35598174, 0.059277423, 0.0032883226, 0.16845703, 0
336, 613770822, 0.6303966, 0.33610588, -0.6023289, 0.35614103, 0.084392235, 0.02280078, 0.17268753, 0
337, 613787489, 0.63029146, 0.3362541, -0.60226583, 0.35629383, 0.09359873, 0.059507642, 0.17250729, 0
338, 613804156, 0.63021827, 0.33640376, -0.6021471, 0.3564824, 0.08870514, 0.054980386, 0.16387463, 0
339, 613820823, 0.6301743, 0.3364811, -0.6020833, 0.35659534, 0.066714145, 0.01719597, 0.1662798, 0
340, 613837490, 0.63005614, 0.3366365, -0.6020337, 0.35674092, 0.0505783, 0.010639887, 0.17005825, 0
341, 613854157, 0.62996674, 0.3367306, -0.6020436, 0.3567933, 0.08201048, 0.045318592, 0.16041756, 0
342, 613870824, 0.62984765, 0.33689618, -0.60197645, 0.3569609, 0.074478984, 0.0376369, 0.1814413, 0
343, 613887491, 0.62981826, 0.3369459, -0.60193044, 0.35704315, 0.06858629, 0.03807655, 0.17016506, 0
344, 613904158, 0.6297471, 0.33707008, -0.60185087, 0.3571856, 0.059297092, 0.027770367, 0.15895176, 0
345, 613920825, 0.6296217, 0.33725572, -0.6017721, 0.35736445, 0.06952639, 0.019699315, 0.16039658, 0
346, 613937492, 0.6295111, 0.3373761, -0.6017511, 0.35748097, 0.06687195, 0.0392643, 0.17582035, 0
347, 613954159, 0.6293902, 0.33754036, -0.60168093, 0.3576568, 0.090044655, 0.05145134, 0.1664505, 0
348, 613970826, 0.6293089, 0.3376735, -0.60157454, 0.35785338, 0.08615329, 0.055452447, 0.1610651, 0
349, 613987493, 0.6292487, 0.33777106, -0.60150003, 0.35799214, 0.06978164, 0.022341685, 0.16492653, 0
350, 614004160, 0.62913996, 0.3379252, -0.60143185, 0.35815248, 0.0633762, 0.026276406, 0.15711308, 0
351, 614020827, 0.6290099, 0.33809394, -0.6013884, 0.35829467, 0.07343965, 0.024810608, 0.16682148, 0
352, 614037494, 0.6289056, 0.33823174, -0.6013481, 0.3584155, 0.08175009, 0.041614983, 0.1736412, 0
353, 614054161, 0.628864, 0.338298, -0.6013103, 0.35848948, 0.09352072, 0.04872113, 0.15967464, 0
354, 614070828, 0.6287981, 0.33842814, -0.6012149, 0.35864186, 0.0662336, 0.034370035, 0.1681118, 0
355, 614087495, 0.6286856, 0.33860987, -0.60112745, 0.3588144, 0.0589426, 0.014777112, 0.16003227, 0
356, 614104162, 0.62858456, 0.3387257, -0.60111, 0.35891157, 0.068171896, 0.033324886, 0.16339588, 0
357, 614120829, 0.62848055, 0.3388629, -0.60106665, 0.35903662, 0.084807076, 0.03343195, 0.15217781, 0
358, 614137496, 0.6283215, 0.33913237, -0.6009003, 0.35933906, 0.06732747, 0.041433044, 0.17001438, 0
359, 614154163, 0.6282585, 0.3392557, -0.6007915, 0.3595147, 0.06201926, 0.028733037, 0.16048622, 0
360, 614170830, 0.62816066, 0.33941546, -0.6006934, 0.35969892, 0.05142139, 0.018392658, 0.16236115, 0
361, 614187497, 0.6280864, 0.33947378, -0.6007227, 0.3597248, 0.05623273, -0.009467338, 0.1540041, 0
362, 614204164, 0.6279329, 0.33966318, -0.6006797, 0.3598857, 0.07385248, 0.038484685, 0.17034912, 0
363, 614220831, 0.6278197, 0.33984092, -0.6005704, 0.36009774, 0.08510524, 0.056947526, 0.16491985, 0
364, 614237498, 0.62776387, 0.33996776, -0.6004351, 0.36030108, 0.05994841, 0.03344782, 0.17478752, 0
365, 614254165, 0.6276828, 0.3400965, -0.6003484, 0.3604649, 0.03769993, -0.014996155, 0.14055443, 0
366, 614270832, 0.62752694, 0.3402856, -0.60031337, 0.36061668, 0.05517909, 0.016450778, 0.14526749, 0
367, 614287499, 0.62738717, 0.3404336, -0.6003061, 0.36073232, 0.08461731, 0.046473037, 0.16375351, 0
368, 614304166, 0.62726134, 0.34063962, -0.6001774, 0.36097056, 0.08510658, 0.06525125, 0.16395378, 0
369, 614320833, 0.627286, 0.34064668, -0.6001085, 0.3610358, 0.07067949, 0.020077946, 0.15295792, 0
370, 614337500, 0.62724787, 0.3407099, -0.60005766, 0.36112684, 0.061145544, 0.01577018, 0.15068722, 0
371, 614354167, 0.6271187, 0.3408503, -0.6000539, 0.361225, 0.046086136, 0.008727287, 0.14870167, 0
372, 614370834, 0.62692446, 0.34108776, -0.6000072, 0.36141574, 0.06850672, 0.038881868, 0.18125534, 0
373, 614387501, 0.62685204, 0.34120834, -0.59992635, 0.36156172, 0.085666925, 0.039683383, 0.14286232, 0
374, 614404168, 0.62687236, 0.34121504, -0.5998567, 0.36163592, 0.06301657, 0.020862252, 0.18132114, 0
375, 614420835, 0.62685955, 0.34122595, -0.59982675, 0.3616976, 0.037334487, 0.010830767, 0.15943813, 0
376, 614437502, 0.62669927, 0.3414252, -0.5997857, 0.36185548, 0.05485008, 0.011286063, 0.15924168, 0
377, 614454169, 0.6265795, 0.3415545, -0.5997769, 0.36195529, 0.09192708, 0.042636663, 0.1629715, 0
378, 614470836, 0.6264839, 0.3416824, -0.59971243, 0.36210707, 0.081229076, 0.04573008, 0.16366577, 0
379, 614487503, 0.6264093, 0.34183192, -0.5995823, 0.36231062, 0.06609278, 0.02561436, 0.17552567, 0
380, 614504170, 0.62631166, 0.34198603, -0.5994732, 0.36251435, 0.0530736, 0.001242285, 0.15842342, 0
381, 614520837, 0.62616223, 0.34218755, -0.599389, 0.36272153, 0.057956014, 0.009750306, 0.17313671, 0
382, 614537504, 0.6260374, 0.34232742, -0.5993761, 0.36282623, 0.05590841, 0.02808105, 0.16748333, 0
383, 614554171, 0.62593, 0.3424695, -0.59931874, 0.3629725, 0.07308136, 0.037641816, 0.16508484, 0
384, 614570838, 0.6258826, 0.34255415, -0.599252, 0.3630845, 0.06923045, 0.032357078, 0.19006824, 0
385, 614587505, 0.6258151, 0.34268385, -0.59915, 0.3632469, 0.03373302, 0.020307269, 0.15789318, 0
386, 614604172, 0.6256086, 0.34300733, -0.5989711, 0.36359212, 0.0429127, -0.0043786187, 0.1797638, 0
387, 614620839, 0.6255212, 0.34309277, -0.598978, 0.3636507, 0.058161646, 0.02082269, 0.17962456, 0
388, 614637506, 0.62544173, 0.34317002, -0.59897155, 0.36372492, 0.07283639, 0.04371891, 0.17932606, 0
389, 614654173, 0.6253458, 0.34333578, -0.59886795, 0.36390433, 0.06975549, 0.045587927, 0.17211437, 0
390, 614670840, 0.62533575, 0.3433782, -0.5987977, 0.36399716, 0.060372412, 0.019097393, 0.17312622, 0
391, 614687507, 0.625255, 0.34350973, -0.59870726, 0.3641606, 0.034720726, 3.7639582E-4, 0.16606998, 0
392, 614704174, 0.6250348, 0.3438209, -0.59857774, 0.36445782, 0.05600162, 0.01441368, 0.16814137, 0
393, 614720841, 0.6248998, 0.34398562, -0.59853625, 0.3646021, 0.046330884, 0.024490986, 0.15856361, 0
394, 614737508, 0.6248396, 0.34408122, -0.59847903, 0.3647092, 0.077661365, 0.05212367, 0.17336369, 0
395, 614754175, 0.6247716, 0.34421146, -0.5983502, 0.36491406, 0.04774393, 0.027258746, 0.16323853, 0
396, 614770842, 0.62472165, 0.34430024, -0.59828746, 0.36501834, 0.056004077, -1.8953899E-4, 0.1682539, 0
397, 614787509, 0.6246431, 0.34437314, -0.5982967, 0.36506918, 0.042934157, 0.0123046115, 0.17184258, 0
398, 614804176, 0.62453127, 0.344506, -0.59827346, 0.36517304, 0.05931609, 0.03448045, 0.17056179, 0
399, 614820843, 0.6244753, 0.34459493, -0.5982133, 0.36528328, 0.067715935, 0.036809903, 0.17388248, 0
400, 614837510, 0.6244268, 0.3447005, -0.5981142, 0.3654288, 0.03291765, 0.009579989, 0.17368221, 0
401, 614854177, 0.6243045, 0.3448789, -0.59801286, 0.36563492, 0.034994975, 0.0069188434, 0.15700626, 0
402, 614870844, 0.624164, 0.34504506, -0.5979867, 0.36576077, 0.045207284, 0.02209582, 0.16424084, 0
403, 614887511, 0.6240547, 0.3451682, -0.5979622, 0.36587113, 0.061486848, 0.021188805, 0.16208935, 0
404, 614904178, 0.6240587, 0.34518272, -0.59792525, 0.36591122, 0.06319337, 0.023677845, 0.17144012, 0
405, 614920845, 0.6239907, 0.3453245, -0.5977954, 0.3661054, 0.051236544, 0.014850648, 0.17663956, 0
406, 614937512, 0.6239234, 0.34542656, -0.5977459, 0.36620426, 0.049557514, 0.008027244, 0.16374397, 0
407, 614954179, 0.62371576, 0.345704, -0.59765214, 0.36644936, 0.048602894, 0.003744289, 0.16978836, 0
408, 614970846, 0.62365335, 0.34577307, -0.5976446, 0.3665025, 0.08889893, 0.046853457, 0.17518902, 0
409, 614987513, 0.623606, 0.34588996, -0.5975262, 0.36666557, 0.061123416, 0.023404488, 0.16274261, 0
410, 615004180, 0.6236557, 0.34582293, -0.5975242, 0.3666474, 0.05731297, -6.781383E-4, 0.16548347, 0
411, 615020847, 0.62358844, 0.34591594, -0.59751415, 0.36669046, 0.027436215, 0.012992361, 0.15839767, 0
412, 615037514, 0.6234359, 0.34609643, -0.59747225, 0.36684737, 0.035715137, 0.026093349, 0.16892242, 0
413, 615054181, 0.62332463, 0.34625772, -0.59739566, 0.36700928, 0.06475729, 0.039247982, 0.15767384, 0
414, 615070848, 0.6233098, 0.34630218, -0.59732383, 0.3671094, 0.06396807, 0.029454313, 0.16684628, 0
415, 615087515, 0.6232692, 0.34637582, -0.59726375, 0.36720636, 0.03662081, -0.006569269, 0.15870667, 0
416, 615104182, 0.6231709, 0.34648955, -0.597252, 0.3672849, 0.031243311, -0.025572788, 0.17023277, 0
417, 615120849, 0.62314695, 0.34648284, -0.5973038, 0.3672475, 0.04937088, 0.028698169, 0.16251755, 0
418, 615137516, 0.6231852, 0.34642935, -0.59730387, 0.3672332, 0.06319427, 0.05313104, 0.17556858, 0
419, 615154183, 0.6231713, 0.34647122, -0.5972478, 0.3673083, 0.051449552, 0.032488726, 0.16282272, 0
420, 615170850, 0.62293017, 0.34685177, -0.59703076, 0.36771047, 0.031195257, 0.008298812, 0.16026974, 0
421, 615187517, 0.62277114, 0.34704855, -0.59697956, 0.36787748, 0.052191168, 0.033236824, 0.1621561, 0
422, 615204184, 0.6226847, 0.3471527, -0.59695625, 0.36796302, 0.061858773, 0.039663043, 0.1686678, 0
423, 615220851, 0.62266266, 0.34720472, -0.59689265, 0.36805463, 0.048252422, 0.036810126, 0.18145561, 0
424, 615237518, 0.6226419, 0.3472577, -0.59682447, 0.36815, 0.037308335, 0.010974486, 0.16759205, 0
425, 615254185, 0.62254953, 0.3473852, -0.5967712, 0.36827224, 0.030478226, -0.008766625, 0.15630722, 0
426, 615270852, 0.6224813, 0.34745178, -0.59678215, 0.3683069, 0.04893235, 0.03094045, 0.1586914, 0
427, 615287519, 0.62239975, 0.34756222, -0.5967394, 0.36840972, 0.07023001, 0.05685052, 0.16180038, 0
428, 615304186, 0.6223466, 0.34766412, -0.5966646, 0.36852458, 0.050600205, 0.015947202, 0.15594196, 0
429, 615320853, 0.62237585, 0.34762192, -0.5966767, 0.36849537, 0.0362167, -6.133196E-4, 0.16082191, 0
430, 615337520, 0.6222941, 0.3477236, -0.59664595, 0.36858702, 0.04935524, 0.017843934, 0.17644882, 0
431, 615354187, 0.622129, 0.3479465, -0.59656084, 0.36879307, 0.049370434, 0.048887648, 0.17403507, 0
432, 615370854, 0.6220233, 0.34810036, -0.5964835, 0.36895108, 0.054226924, 0.02202899, 0.16068172, 0
433, 615387521, 0.6219974, 0.34815615, -0.5964317, 0.36902595, 0.041787982, 0.017335664, 0.17907524, 0
434, 615404188, 0.6219161, 0.3482861, -0.5963575, 0.36916018, 0.04269209, 0.0074186185, 0.16296768, 0
435, 615420855, 0.62195426, 0.34820697, -0.5964171, 0.369074, 0.04254234, 0.0074961777, 0.15216827, 0
436, 615437522, 0.62191635, 0.34824893, -0.5964108, 0.3691085, 0.05846853, 0.024977125, 0.17068958, 0
437, 615454189, 0.6218637, 0.3483103, -0.59638464, 0.3691815, 0.03839796, 0.01703951, 0.16073799, 0
438, 615470856, 0.62198544, 0.34810904, -0.5965006, 0.3689788, 0.05227655, 0.027834293, 0.15890026, 0
439, 615487523, 0.62195045, 0.34817618, -0.5964555, 0.36904752, 0.04145875, 0.004563017, 0.16115856, 0
440, 615504190, 0.621996, 0.3480884, -0.59652007, 0.3689489, 0.035517104, 0.0053808508, 0.16549492, 0
441, 615520857, 0.62197465, 0.34808928, -0.5965467, 0.36894074, 0.041355483, 0.002572187, 0.18001747, 0
442, 615537524, 0.6219095, 0.34815094, -0.59654814, 0.36898988, 0.04741984, 0.040710203, 0.17019176, 0
443, 615554191, 0.621857, 0.34823376, -0.5964953, 0.36908582, 0.08544677, 0.041393034, 0.16108227, 0
444, 615570858, 0.62180245, 0.3483392, -0.59639716, 0.36923674, 0.04245718, 0.021026088, 0.16682339, 0
445, 615587525, 0.621771, 0.3484056, -0.5963449, 0.36931133, 0.03486936, 0.0023075477, 0.17573166, 0
446, 615604192, 0.62166756, 0.34853256, -0.5963196, 0.36940673, 0.039032515, 0.020525418, 0.17059994, 0
447, 615620859, 0.6216383, 0.34853008, -0.5963773, 0.36936498, 0.05256287, 0.02828467, 0.17603016, 0
448, 615637526, 0.62170565, 0.34841716, -0.5964286, 0.36927524, 0.056322806, 0.030007731, 0.15634632, 0
449, 615654193, 0.621632, 0.34857076, -0.5962969, 0.36946666, 0.045980193, 0.027211808, 0.15450287, 0
450, 615670860, 0.621627, 0.34855527, -0.59631044, 0.36946777, 0.037107844, 0.0010035732, 0.1684618, 0
451, 615687527, 0.6215832, 0.34858015, -0.5963456, 0.36946133, 0.042730313, 0.0142058125, 0.18387127, 0
452, 615704194, 0.62156725, 0.3485776, -0.5963758, 0.36944178, 0.06929706, 0.033158816, 0.16148186, 0
453, 615720861, 0.6215159, 0.34865576, -0.59631777, 0.36954802, 0.049259797, 0.026924593, 0.17271996, 0
454, 615737528, 0.62146604, 0.34873855, -0.5962528, 0.3696583, 0.042430583, 0.01659472, 0.16212368, 0
455, 615754195, 0.62145174, 0.3487382, -0.5962659, 0.3696618, 0.05548173, 0.022241104, 0.17164898, 0
456, 615770862, 0.62140507, 0.34878567, -0.59626013, 0.36970466, 0.051523536, 0.011106582, 0.17561913, 0
457, 615787529, 0.62131035, 0.34892744, -0.59617776, 0.36986274, 0.04809954, 0.009296351, 0.16859436, 0
458, 615804196, 0.6212139, 0.34907502, -0.5960938, 0.37002063, 0.041739926, 0.00895527, 0.16922474, 0
459, 615820863, 0.6210947, 0.3492421, -0.59602267, 0.37017766, 0.0301852, 0.021089341, 0.16583061, 0
460, 615837530, 0.6209657, 0.3494302, -0.5959174, 0.37038594, 0.045555517, 0.0304599, 0.16525841, 0
461, 615854197, 0.620916, 0.34951937, -0.595834, 0.37051946, 0.05663371, 0.017358016, 0.16138554, 0
462, 615870864, 0.6208656, 0.3495954, -0.59578544, 0.37060994, 0.034540128, 0.013082214, 0.15193367, 0
463, 615887531, 0.6207975, 0.34967443, -0.5957842, 0.3706515, 0.029786007, 0.007888666, 0.15874863, 0
464, 615904198, 0.6206052, 0.34993684, -0.5956856, 0.37088415, 0.04218427, 0.031192798, 0.16558361, 0
465, 615920865, 0.6205687, 0.3500041, -0.59563124, 0.3709688, 0.05651525, 0.059047207, 0.16078281, 0
466, 615937532, 0.62044203, 0.35023114, -0.59545296, 0.3712529, 0.032847017, 0.0090046665, 0.16501522, 0
467, 615954199, 0.6203137, 0.35042995, -0.59533995, 0.3714607, 0.017214073, 0.005010937, 0.1525116, 0
468, 615970866, 0.6203661, 0.35029432, -0.5954862, 0.3712666, 0.05224973, 0.031239064, 0.15788364, 0
469, 615987533, 0.6202692, 0.3504145, -0.5954386, 0.37139136, 0.056871753, 0.041385658, 0.1676712, 0
470, 616004200, 0.620189, 0.35056388, -0.59530735, 0.3715944, 0.04386911, 0.019720996, 0.16143227, 0
471, 616020867, 0.6201533, 0.35064325, -0.5952198, 0.37171972, 0.035043254, 0.008115755, 0.16498184, 0
472, 616037534, 0.62012917, 0.350647, -0.5952536, 0.37170213, 0.029819086, -0.007938957, 0.17379189, 0
473, 616054201, 0.6200589, 0.350696, -0.59528226, 0.37172717, 0.046162356, 0.018872093, 0.16075039, 0
474, 616070868, 0.62003416, 0.35071734, -0.595278, 0.37175497, 0.06715916, 0.042385656, 0.15466404, 0
475, 616087535, 0.6200013, 0.35079184, -0.595192, 0.37187707, 0.04489928, 0.019525869, 0.15826035, 0
476, 616104202, 0.61995184, 0.3508827, -0.59512115, 0.37198728, 0.039854594, 0.0271756, 0.17563534, 0
477, 616120869, 0.6198769, 0.35096127, -0.59511435, 0.37204853, 0.019442275, 0.007120676, 0.1673336, 0
478, 616137536, 0.6199257, 0.35085052, -0.5952308, 0.37188542, 0.041500546, 0.021616831, 0.17081165, 0
479, 616154203, 0.6198493, 0.35096365, -0.5951629, 0.37201467, 0.04916011, 0.016689712, 0.17924309, 0
480, 616170870, 0.6198025, 0.35106573, -0.59507203, 0.37214175, 0.03481393, 0.027770143, 0.17515278, 0
481, 616187537, 0.6198634, 0.35096568, -0.59513205, 0.37203875, 0.03315658, 0.014719445, 0.18091774, 0
482, 616204204, 0.6198126, 0.35101393, -0.59513295, 0.3720765, 0.03329382, 0.021521168, 0.17226219, 0
483, 616220871, 0.619755, 0.3511039, -0.59509194, 0.37215286, 0.04499696, 0.009689957, 0.18249989, 0
484, 616237538, 0.6196979, 0.35118768, -0.59503573, 0.37225848, 0.038504355, 0.02403703, 0.1665411, 0
485, 616254205, 0.6195916, 0.35135826, -0.59492177, 0.37245682, 0.03555577, 0.0038408467, 0.16419697, 0
486, 616270872, 0.61972576, 0.35113254, -0.59507155, 0.372207, 0.031116802, 0.01088374, 0.17070103, 0
487, 616287539, 0.6196873, 0.3511721, -0.5950623, 0.37224853, 0.0400866, 0.02926075, 0.1631136, 0
488, 616304206, 0.61950535, 0.35146058, -0.5948872, 0.37255856, 0.051987324, 0.022521613, 0.15676212, 0
489, 616320873, 0.6197182, 0.35112685, -0.59507793, 0.3722147, 0.040881637, 0.02240248, 0.15829659, 0
490, 616337540, 0.6198466, 0.35090762, -0.59522367, 0.37197447, 0.026030095, 0.0072194682, 0.15997982, 0
491, 616354207, 0.6197764, 0.35099256, -0.59519815, 0.37205216, 0.038945343, 0.02705155, 0.17235279, 0
492, 616370874, 0.6197514, 0.3510249, -0.5951828, 0.3720877, 0.043560218, 0.02072144, 0.1639967, 0
493, 616387541, 0.6197429, 0.35102966, -0.59517777, 0.3721054, 0.038480215, 0.0129469875, 0.16203594, 0
494, 616404208, 0.6198689, 0.35083255, -0.5952883, 0.3719047, 0.04259643, 0.015021859, 0.16375732, 0
495, 616420875, 0.6199199, 0.35073793, -0.59534794, 0.37181315, 0.0038927016, -0.0034045493, 0.16587162, 0
496, 616437542, 0.61994684, 0.35066497, -0.59540516, 0.3717454, 0.019144332, 0.026970414, 0.16341496, 0
497, 616454209, 0.6199523, 0.35062957, -0.59543765, 0.37171766, 0.024765236, 0.036144726, 0.18368816, 0
498, 616470876, 0.61990786, 0.35068908, -0.5954116, 0.37177753, 0.041329782, 0.02846594, 0.1689682, 0
499, 616487543, 0.61996543, 0.3505942, -0.59546465, 0.37168565, 0.03879425, 0.018120866, 0.16278744, 0
500, 616504210, 0.61990845, 0.35069352, -0.59538996, 0.37180668, 0.037450712, 0.01667809, 0.16470051, 0
501, 616520877, 0.619943, 0.35061952, -0.5954487, 0.3717248, 0.014102103, 0.010117537, 0.16331863, 0
502, 616537544, 0.61982673, 0.35078213, -0.59537685, 0.37188032, 0.029525615, 0.022140747, 0.16128159, 0
503, 616554211, 0.6197161, 0.35094026, -0.59529614, 0.37204453, 0.04653987, 0.04308324, 0.1638794, 0
504, 616570878, 0.61988014, 0.3506777, -0.5954424, 0.37178475, 0.055033807, 0.057510555, 0.16212654, 0
505, 616587545, 0.61998165, 0.3505345, -0.5954987, 0.37166026, 0.008694654, -9.0343936E-4, 0.16690254, 0
506, 616604212, 0.619894, 0.35066727, -0.59542733, 0.3717958, 0.027758744, 0.0015549796, 0.15463066, 0
507, 616620879, 0.6198803, 0.35065073, -0.59548134, 0.37174726, 0.028439341, 0.029214932, 0.1526289, 0
508, 616637546, 0.61978257, 0.35078573, -0.59542876, 0.37186712, 0.028486056, 0.0057576937, 0.17190456, 0
509, 616654213, 0.6197601, 0.35084015, -0.5953723, 0.37194362, 0.037616782, 0.014561422, 0.1705122, 0
510, 616670880, 0.61992085, 0.35060745, -0.5954817, 0.37172014, 0.036990725, -0.0018873434, 0.16592693, 0
511, 616687547, 0.6198344, 0.35072473, -0.5954314, 0.37183425, 0.01941903, 0.0027959235, 0.1646061, 0
512, 616704214, 0.61979455, 0.35075155, -0.5954675, 0.37181723, 0.025576811, 0.010644805, 0.17152882, 0
513, 616720881, 0.61971986, 0.35085186, -0.59542954, 0.37190777, 0.039657902, 0.04588028, 0.17287636, 0
514, 616737548, 0.6198097, 0.35073894, -0.59546477, 0.37180826, 0.02999745, 0.012196432, 0.16574955, 0
515, 616754215, 0.61993307, 0.35054576, -0.59556717, 0.37162068, 0.029049532, 0.009618433, 0.16837311, 0
516, 616770882, 0.61983716, 0.35066026, -0.59554267, 0.37171182, 0.028518464, 0.0075084707, 0.1767397, 0
517, 616787549, 0.61982214, 0.35064122, -0.59559155, 0.37167653, 0.039299164, 0.043326646, 0.18057156, 0
518, 616804216, 0.61978227, 0.3507158, -0.59553164, 0.37176886, 0.057556823, 0.041237693, 0.1680355, 0
519, 616820883, 0.619752, 0.35077214, -0.59546816, 0.37186715, 0.023168236, 0.008603461, 0.17610168, 0
520, 616837550, 0.6197075, 0.35083458, -0.5954437, 0.37192175, 0.02620667, 0.005467574, 0.17003727, 0
521, 616854217, 0.61975294, 0.35073057, -0.59554684, 0.3717793, 0.031013317, 0.007613075, 0.17292881, 0
522, 616870884, 0.61985725, 0.350558, -0.59566057, 0.3715855, 0.045991592, 0.038897514, 0.14674282, 0
523, 616887551, 0.6198539, 0.35056496, -0.5956414, 0.3716154, 0.032768115, 0.008557641, 0.16709328, 0
524, 616904218, 0.61986214, 0.3505504, -0.59563583, 0.3716242, 0.026790263, -0.00810972, 0.16678333, 0
525, 616920885, 0.6198215, 0.35061252, -0.59561133, 0.3716726, 0.028373629, 0.019127568, 0.1563015, 0
526, 616937552, 0.6198315, 0.35057253, -0.5956609, 0.37161425, 0.022963721, 0.0045321723, 0.16281223, 0
527, 616954219, 0.6197847, 0.35063732, -0.595621, 0.37169516, 0.021784468, -0.008782495, 0.15549183, 0
528, 616970886, 0.61983293, 0.3505517, -0.5956702, 0.37161657, 0.020032348, 0.0050236774, 0.1753664, 0
529, 616987553, 0.6198464, 0.35050723, -0.5957134, 0.37156692, 0.024929294, 0.010175874, 0.16193771, 0
530, 617004220, 0.6198495, 0.35049355, -0.5957346, 0.37154037, 0.034754924, 0.012142118, 0.17385578, 0
531, 617020887, 0.6198177, 0.35054642, -0.5957057, 0.37158996, 0.033937536, 0.026390174, 0.17051888, 0
532, 617037554, 0.619849, 0.35049352, -0.59572834, 0.37155128, 0.018117066, 0.010182356, 0.16130733, 0
533, 617054221, 0.6198152, 0.35051227, -0.5957467, 0.3715606, 0.02515437, -0.007620674, 0.15843391, 0
534, 617070888, 0.61976427, 0.35056418, -0.5957346, 0.37161577, 0.023612132, 0.022591572, 0.17338562, 0
535, 617087555, 0.6197682, 0.35054824, -0.59573644, 0.3716215, 0.027222537, 0.010843284, 0.16735458, 0
536, 617104222, 0.6197993, 0.3505091, -0.59572107, 0.37163118, 0.037870917, 0.0134443045, 0.16762924, 0
537, 617120889, 0.61976224, 0.35056436, -0.595697, 0.37167934, 0.020847501, -2.2507754E-4, 0.16616535, 0
538, 617137556, 0.61965525, 0.35069668, -0.595667, 0.37178078, 0.023414323, -3.3258728E-4, 0.16340351, 0
539, 617154223, 0.6196362, 0.35069665, -0.5956936, 0.3717702, 0.025854861, 0.04244444, 0.17181206, 0
540, 617170890, 0.61973447, 0.35056084, -0.5957443, 0.3716531, 0.014319134, 0.006104809, 0.16237831, 0
541, 617187557, 0.61988443, 0.3503337, -0.5958499, 0.37144783, 0.022119066, -0.0029823333, 0.16835785, 0
542, 617204224, 0.6197853, 0.35045165, -0.5958195, 0.37155056, 0.027052667, 0.006321617, 0.17397213, 0
543, 617220891, 0.6196882, 0.35056272, -0.5958218, 0.37160403, 0.035487376, 0.0145019675, 0.16888332, 0
544, 617237558, 0.6198058, 0.35035658, -0.59594923, 0.37139782, 0.03668339, 0.029428387, 0.16369629, 0
545, 617254225, 0.6198362, 0.35033247, -0.59592175, 0.37141407, 0.042111628, 0.0030739736, 0.17202663, 0
546, 617270892, 0.6197214, 0.3505146, -0.5958068, 0.37161815, 0.026674036, -2.4161751E-4, 0.15835094, 0
547, 617287559, 0.6198178, 0.35033357, -0.5959571, 0.37138698, 0.04417644, 0.022554692, 0.15952492, 0
548, 617304226, 0.6199642, 0.3500654, -0.5961518, 0.37108293, 0.041315924, 0.017927527, 0.16094398, 0
549, 617320893, 0.6200241, 0.34995964, -0.5962074, 0.3709932, 0.035486035, 0.009377039, 0.1674099, 0
550, 617337560, 0.6200652, 0.34989992, -0.59623146, 0.3709419, 0.033449385, 0.018882599, 0.1638422, 0
551, 617354227, 0.61995107, 0.35007626, -0.59613085, 0.37112802, 0.046808977, 0.014984979, 0.15695095, 0
552, 617370894, 0.62000847, 0.34999323, -0.5961821, 0.371028, 0.027385924, 0.006010263, 0.15925407, 0
553, 617387561, 0.62019706, 0.34969524, -0.596345, 0.3707322, 0.03347196, 0.017887518, 0.17363167, 0
554, 617404228, 0.62010354, 0.3498343, -0.5962671, 0.37088236, 0.02863335, -0.004060113, 0.1705904, 0
555, 617420895, 0.62031466, 0.34946263, -0.59651977, 0.37047327, 0.024254061, 0.010364072, 0.17021751, 0
556, 617437562, 0.62039363, 0.34932798, -0.5966001, 0.37033865, 0.03754459, 0.025822228, 0.15743256, 0
557, 617454229, 0.620293, 0.34953007, -0.59642583, 0.37059703, 0.040730543, 0.01450532, 0.15453339, 0
558, 617470896, 0.6203251, 0.34948176, -0.596456, 0.37054035, 0.012250298, -4.0724062E-4, 0.1669054, 0
559, 617487563, 0.62029654, 0.3494706, -0.5965257, 0.3704861, 0.006725952, 5.301727E-4, 0.1629057, 0
560, 617504230, 0.6202836, 0.3494485, -0.5965867, 0.37043038, 0.04640576, 0.0382909, 0.18123913, 0
561, 617520897, 0.620319, 0.349405, -0.5965809, 0.3704218, 0.043224946, 0.026203541, 0.1556902, 0
562, 617537564, 0.6206334, 0.3489508, -0.59678686, 0.36999118, 0.002623148, -0.014304829, 0.16874504, 0
563, 617554231, 0.6206703, 0.34886974, -0.5968631, 0.36988264, 0.019743793, -0.018949652, 0.15964794, 0
564, 617570898, 0.6207763, 0.34864268, -0.59708893, 0.36955425, 0.029260304, 0.01799458, 0.15806007, 0
565, 617587565, 0.6207773, 0.34863004, -0.5971029, 0.36954176, 0.04447282, 0.04539794, 0.15526104, 0
566, 617604232, 0.62086755, 0.3485564, -0.597056, 0.36953557, 0.025837427, 0.017159313, 0.15449047, 0
567, 617620899, 0.6209102, 0.34850827, -0.59704965, 0.36951932, 0.012535277, -0.01959538, 0.17003441, 0
568, 617637566, 0.6208263, 0.34858397, -0.59707135, 0.36955386, 0.024371183, -0.010252092, 0.16881847, 0
569, 617654233, 0.6208337, 0.3485138, -0.59717494, 0.3694403, 0.036130197, 0.023399124, 0.16258717, 0
570, 617670900, 0.6210006, 0.34826285, -0.59729517, 0.3692021, 0.03144447, 0.049711965, 0.17261505, 0
571, 617687567, 0.62104064, 0.34824207, -0.59725195, 0.36922395, 0.03550861, 0.0020491667, 0.16900158, 0
572, 617704234, 0.6210388, 0.34823236, -0.59725773, 0.36922693, 0.017254753, -0.0014407645, 0.16933346, 0
573, 617720901, 0.6209436, 0.34834513, -0.59725493, 0.3692853, 0.011504882, 0.009182136, 0.16726303, 0
574, 617737568, 0.6209804, 0.3482705, -0.5973185, 0.36919102, 0.034899313, 0.037068505, 0.16937923, 0
575, 617754235, 0.6211389, 0.34803802, -0.59742224, 0.36897546, 0.015753193, -0.0023732607, 0.1775074, 0
576, 617770902, 0.62116635, 0.34799716, -0.59743094, 0.3689539, 0.031236159, 0.00924092, 0.15900326, 0
577, 617787569, 0.62119055, 0.3479181, -0.59751356, 0.36885366, 0.02382067, 0.0059894766, 0.16453934, 0
578, 617804236, 0.62116444, 0.34793982, -0.59751236, 0.36887914, 0.032218944, 0.019889524, 0.1749506, 0
579, 617820903, 0.6213713, 0.34761646, -0.59767914, 0.36856523, 0.015340365, 0.01372526, 0.17131329, 0
580, 617837570, 0.6214166, 0.34753415, -0.5977342, 0.36847693, 0.005948574, -0.0038178249, 0.167449, 0
581, 617854237, 0.62143856, 0.3474617, -0.597804, 0.36839518, 0.020901814, 0.0072786994, 0.16283512, 0
582, 617870904, 0.6214953, 0.34735745, -0.5978785, 0.3682767, 0.047248404, 0.020998819, 0.16883755, 0
583, 617887571, 0.62163174, 0.347142, -0.59798723, 0.36807323, 0.02525294, 0.015331647, 0.16435051, 0
584, 617904238, 0.6217293, 0.3469909, -0.5980468, 0.36795408, 0.004941201, 0.004859619, 0.16798973, 0
585, 617920905, 0.62186164, 0.34675485, -0.59819734, 0.36770797, 0.024516912, -1.0482757E-4, 0.1682806, 0
586, 617937572, 0.622056, 0.34641078, -0.59844047, 0.36730772, 0.03161792, 0.0066383346, 0.17595863, 0
587, 617954239, 0.6221133, 0.34630665, -0.5985012, 0.36720973, 0.03997574, 0.038066044, 0.16601467, 0
588, 617970906, 0.62207264, 0.34641123, -0.598394, 0.36735478, 0.027298307, 0.018748937, 0.17626762, 0
589, 617987573, 0.6221079, 0.346363, -0.59840864, 0.36731675, 0.012040867, -0.0033319076, 0.16625786, 0
590, 618004240, 0.6220569, 0.34639373, -0.5984483, 0.36730924, 0.017037721, 0.006910797, 0.16226196, 0
591, 618020907, 0.6222144, 0.34610456, -0.59865236, 0.36698243, 0.03230008, 0.016588908, 0.16883278, 0
592, 618037574, 0.62245053, 0.34574366, -0.5988381, 0.36661932, 0.041779935, 0.025582623, 0.16142273, 0
593, 618054241, 0.6225596, 0.34558886, -0.59889513, 0.36648658, 0.03979447, 0.0014000852, 0.16839504, 0
594, 618070908, 0.62262785, 0.3454701, -0.59896857, 0.36636266, 0.016529454, -0.015908534, 0.16673756, 0
595, 618087575, 0.6227538, 0.3452302, -0.59914917, 0.36607903, 0.014822708, 0.0067907707, 0.16778183, 0
596, 618104242, 0.6228138, 0.34511545, -0.59922844, 0.36595538, 0.031205092, 0.03582242, 0.16293049, 0
597, 618120909, 0.62284136, 0.3450805, -0.5992422, 0.36591917, 0.036113657, 0.025167558, 0.16566086, 0
598, 618137576, 0.6227827, 0.34518313, -0.5991797, 0.3660244, 0.030268349, 0.009451692, 0.17230892, 0
599, 618154243, 0.6228068, 0.34515002, -0.5991986, 0.3659835, 0.008428003, -0.020024525, 0.16778374, 0
600, 618170910, 0.62283164, 0.3451176, -0.5992086, 0.36595532, 0.012328528, 0.009037076, 0.15398979, 0
601, 618187577, 0.622941, 0.3449293, -0.599337, 0.3657366, 0.015872773, -0.018336108, 0.16339588, 0
602, 618204244, 0.62307066, 0.34469542, -0.5995103, 0.3654519, 0.02764453, 0.0028343678, 0.15641975, 0
603, 618220911, 0.62310725, 0.34462675, -0.5995716, 0.36535364, 0.04127435, 0.040497866, 0.17123508, 0
604, 618237578, 0.6231583, 0.3445856, -0.5995462, 0.365347, 0.040514182, 0.01567094, 0.16880512, 0
605, 618254245, 0.6232923, 0.3444021, -0.59960335, 0.36519775, 0.009663359, -0.005414378, 0.15545177, 0
606, 618270912, 0.62337756, 0.34424382, -0.59971064, 0.36502516, 0.016341032, -0.009638772, 0.17121315, 0
607, 618287579, 0.6233121, 0.34426227, -0.59979624, 0.364979, 0.0276528, 0.001613987, 0.1725483, 0
608, 618304246, 0.6235274, 0.34387654, -0.6000559, 0.3645476, 0.04927075, 0.04500791, 0.17492867, 0
609, 618320913, 0.62365043, 0.34375405, -0.6000398, 0.36447918, 0.025758974, 0.010694648, 0.1760912, 0
610, 618337580, 0.6237985, 0.34359932, -0.6000385, 0.36437365, 2.5435776E-4, -0.025264787, 0.16573906, 0
611, 618354247, 0.6238675, 0.34346113, -0.6001608, 0.36418462, -0.01472101, -0.033747103, 0.17542362, 0
612, 618370914, 0.6238469, 0.34340551, -0.6003201, 0.36400962, -0.0011756781, -0.0071734246, 0.1891098, 0
613, 618387581, 0.6239783, 0.3431546, -0.6005121, 0.3637043, 0.05633577, 0.070846006, 0.1668415, 0
614, 618404248, 0.62418294, 0.34289113, -0.6005588, 0.3635243, 0.047410227, 0.019134944, 0.17539024, 0
615, 618420915, 0.6242424, 0.34286192, -0.60048133, 0.36357754, 0.016623553, -0.044458292, 0.14990234, 0
616, 618437582, 0.6241839, 0.34291765, -0.6004945, 0.3636038, -0.008673197, -0.042851456, 0.16809464, 0
617, 618454249, 0.62414324, 0.34288692, -0.6006324, 0.36347452, 0.025750034, 0.020551123, 0.1736908, 0
618, 618470916, 0.6243741, 0.34249172, -0.6008844, 0.36303413, 0.05803335, 0.06567928, 0.16051865, 0
619, 618487583, 0.624569, 0.34224793, -0.6009282, 0.362856, 0.038444005, 0.028445153, 0.15260792, 0
620, 618504250, 0.6246601, 0.34215516, -0.60092074, 0.3627989, 0.0032065168, -0.037881423, 0.16048908, 0
621, 618520917, 0.62483275, 0.34183362, -0.6011413, 0.3624392, 0.003928911, -0.027382797, 0.16418076, 0
622, 618537584, 0.6249874, 0.34150878, -0.60141087, 0.36203137, 0.019151038, 0.013930892, 0.17293358, 0
623, 618554251, 0.62497854, 0.34151736, -0.6014161, 0.3620297, 0.03372095, 0.023139626, 0.17067814, 0
624, 618570918, 0.62510043, 0.34136298, -0.60144395, 0.36191854, 0.025003947, 0.012815339, 0.1682806, 0
625, 618587585, 0.62516695, 0.34127754, -0.6014538, 0.36186802, 0.011370998, -0.011907653, 0.15965271, 0
626, 618604252, 0.62516576, 0.34124285, -0.60150516, 0.36181745, 0.0120621, -0.011039975, 0.16165543, 0
627, 618620919, 0.62520385, 0.34113166, -0.60161346, 0.361676, 0.029357532, 0.00754915, 0.18104267, 0
628, 618637586, 0.62537044, 0.34084234, -0.60178584, 0.36137393, 0.03803833, 0.03841629, 0.17647171, 0
629, 618654253, 0.6254654, 0.34069857, -0.6018392, 0.36125636, 0.035813034, 0.017613491, 0.15605927, 0
630, 618670920, 0.6256501, 0.34040126, -0.6019811, 0.36098024, 0.010873011, -0.0031443802, 0.17620087, 0
631, 618687587, 0.6257157, 0.3402712, -0.602076, 0.36083066, 0.0020956574, -0.014022532, 0.18344879, 0
632, 618704254, 0.62571084, 0.34024352, -0.6021338, 0.36076885, 0.018425515, 0.0034179601, 0.16288376, 0
633, 618720921, 0.6258248, 0.3400462, -0.60226667, 0.36053535, 0.029268574, 0.011210069, 0.16049671, 0
634, 618737588, 0.6258689, 0.33999142, -0.6022717, 0.36050197, 0.033117022, 0.012529912, 0.17092514, 0
635, 618754255, 0.6259029, 0.33993632, -0.6022847, 0.36047295, 0.02207548, -0.0017894447, 0.168046, 0
636, 618770922, 0.6260367, 0.33971062, -0.60241205, 0.36024055, 0.0077398065, -0.0053893444, 0.16448307, 0
637, 618787589, 0.62609893, 0.3395674, -0.60252404, 0.36008012, 0.032028064, 0.018257655, 0.17776299, 0
638, 618804256, 0.6261044, 0.33952564, -0.6025665, 0.3600388, 0.0305198, 0.02741051, 0.17055702, 0
639, 618820923, 0.6262476, 0.33929983, -0.6026794, 0.3598137, 0.04611117, 0.03502068, 0.16662693, 0
640, 618837590, 0.6263223, 0.33920202, -0.60271025, 0.35972407, 0.018159086, 0.007876596, 0.17247677, 0
641, 618854257, 0.62626237, 0.339311, -0.6026437, 0.35983685, 0.01877643, -0.0025527414, 0.1681633, 0
642, 618870924, 0.62630564, 0.3392214, -0.60272, 0.35971832, 0.011218116, -0.007809766, 0.18397999, 0
643, 618887591, 0.62634736, 0.33912057, -0.60280436, 0.35959926, 0.012137648, 0.0056640417, 0.1632204, 0
644, 618904258, 0.6264636, 0.33892226, -0.60292095, 0.35938823, 0.022907395, 0.024887273, 0.16604137, 0
645, 618920925, 0.6264313, 0.33897522, -0.6028758, 0.3594705, 0.02477641, 0.007974495, 0.16704464, 0
646, 618937592, 0.6264976, 0.33887327, -0.6029243, 0.35936913, 0.010531483, -0.006493722, 0.16419697, 0
647, 618954259, 0.62664634, 0.33861622, -0.6030775, 0.35909545, 0.021330288, 0.018223012, 0.16189003, 0
648, 618970926, 0.626702, 0.33850807, -0.60315794, 0.358965, 0.024594024, -0.0033806334, 0.16032696, 0
649, 618987593, 0.62680584, 0.33831185, -0.60328805, 0.3587497, 0.036034312, 0.033389036, 0.18071842, 0
650, 619004260, 0.6267992, 0.33832785, -0.60327184, 0.3587735, 0.03465613, 0.010020756, 0.15272808, 0
651, 619020927, 0.62694025, 0.3381104, -0.60337394, 0.35856012, 0.02375138, 0.0033967264, 0.1649723, 0
652, 619037594, 0.6269505, 0.33809778, -0.6033649, 0.35856944, 0.03693194, 0.0071794596, 0.17726135, 0
653, 619054261, 0.6269, 0.33816442, -0.6033431, 0.35863146, 0.012137648, 0.0031416982, 0.16442108, 0
654, 619070928, 0.62704515, 0.33789113, -0.6035227, 0.35833302, 0.026513554, 0.0012632952, 0.17222118, 0
655, 619087595, 0.6272176, 0.33759466, -0.6036883, 0.35803142, 0.019541739, 0.0031117473, 0.16094017, 0
656, 619104262, 0.62726897, 0.3375224, -0.60371816, 0.35795924, 0.018302582, -7.349106E-4, 0.16624355, 0
657, 619120929, 0.6274583, 0.3372058, -0.6038946, 0.35762793, 0.018125113, -0.014508002, 0.16479206, 0
658, 619137596, 0.62744176, 0.33722493, -0.6039001, 0.3576296, 0.023269935, -0.0072056106, 0.16542149, 0
659, 619154263, 0.6274397, 0.3372089, -0.6039236, 0.3576087, 0.020687018, 0.01649615, 0.17877483, 0
660, 619170930, 0.62743646, 0.33720624, -0.6039365, 0.3575952, 0.025407165, 0.017310854, 0.1701479, 0
661, 619187597, 0.6274605, 0.3371636, -0.60396063, 0.35755217, 0.0150983, 0.017551132, 0.17140293, 0
662, 619204264, 0.62756854, 0.33698976, -0.60405344, 0.35736972, 0.03079338, 0.015826728, 0.18846989, 0
663, 619220931, 0.62768096, 0.33681604, -0.60413885, 0.35719153, 0.023209585, 0.011773545, 0.16941452, 0
664, 619237598, 0.62780964, 0.3365893, -0.6042706, 0.35695624, 0.013938715, -0.0046041436, 0.15746403, 0
665, 619254265, 0.6278569, 0.33647284, -0.6043734, 0.35680872, 0.017811747, -1.2293212E-4, 0.15593338, 0
666, 619270932, 0.6279647, 0.33627078, -0.6045062, 0.35658455, 0.018865388, 0.025250481, 0.1617651, 0
667, 619287599, 0.6280517, 0.33613873, -0.6045557, 0.3564717, 0.028539028, 0.03778911, 0.16413021, 0
668, 619304266, 0.62804544, 0.33618468, -0.6044881, 0.35655376, 0.01915372, 8.629835E-4, 0.1707468, 0
669, 619320933, 0.6280908, 0.3361098, -0.60453475, 0.35646552, 0.021038828, -0.0058508986, 0.16405106, 0
670, 619337600, 0.62810963, 0.33602437, -0.6046285, 0.35635373, 0.019660646, -0.012464424, 0.16876602, 0
671, 619354267, 0.62815607, 0.33593678, -0.60471165, 0.3562133, 0.008259698, 0.015082431, 0.16213512, 0
672, 619370934, 0.62819046, 0.33590066, -0.6047074, 0.35619375, 0.026027637, 0.019591358, 0.16316986, 0
673, 619387601, 0.6282921, 0.3357498, -0.604758, 0.3560706, 0.01442955, -0.0044865757, 0.162117, 0
674, 619404268, 0.62830174, 0.3357311, -0.6047703, 0.35605055, -0.008248969, -0.029573893, 0.17029858, 0
675, 619420935, 0.62836426, 0.33559597, -0.6048917, 0.35586143, 0.007861397, 0.0025762103, 0.17258453, 0
676, 619437602, 0.6284404, 0.33545074, -0.60499406, 0.35568962, 0.009014725, 0.031019129, 0.15493107, 0
677, 619454269, 0.6285724, 0.33523643, -0.6051044, 0.35547084, 0.03278622, 0.019871866, 0.17846489, 0
678, 619470936, 0.62864196, 0.33512756, -0.6051488, 0.35537472, 0.0097165555, 0.008093851, 0.15339851, 0
679, 619487603, 0.6286522, 0.33511147, -0.60515064, 0.35536858, 0.013811313, 0.004862301, 0.16051102, 0
680, 619504270, 0.6287404, 0.33494255, -0.6052573, 0.35519, 0.014334333, 4.885993E-4, 0.15375233, 0
681, 619520937, 0.6288519, 0.33474103, -0.6053818, 0.35497043, 0.013511805, 0.003063692, 0.16197205, 0
682, 619537604, 0.62895334, 0.33455768, -0.6054915, 0.35477635, 0.024659738, -4.6624802E-4, 0.1662426, 0
683, 619554271, 0.62901425, 0.33444774, -0.605549, 0.35467365, 0.028468398, 0.008736898, 0.16208935, 0
684, 619570938, 0.62907326, 0.33437046, -0.6055697, 0.35460648, 0.005243167, 0.0047632847, 0.17074966, 0
685, 619587605, 0.6291836, 0.3341967, -0.60565484, 0.3544291, 0.015225703, -0.004095651, 0.16849518, 0
686, 619604272, 0.6292324, 0.33409768, -0.6057213, 0.35432205, 0.021132702, 0.009496171, 0.16786194, 0
687, 619620939, 0.62935144, 0.33389777, -0.6058355, 0.3541039, 0.022972662, 0.014743585, 0.157794, 0
688, 619637606, 0.62944263, 0.3337429, -0.605911, 0.35395855, 0.011333895, 0.0057127676, 0.17823696, 0
689, 619654273, 0.62955034, 0.33355984, -0.6060095, 0.35377073, 0.008095639, 0.0054103546, 0.16879272, 0
690, 619670940, 0.6296173, 0.3334462, -0.60607743, 0.35364237, 0.021246694, 7.9056533E-4, 0.16873932, 0
691, 619687607, 0.62974244, 0.33322057, -0.60621876, 0.35338998, -0.005866321, -0.009814007, 0.16907406, 0
692, 619704274, 0.6298199, 0.3330806, -0.60630375, 0.353238, 0.023258759, 0.009284505, 0.16326904, 0
693, 619720941, 0.6299142, 0.33294427, -0.60636514, 0.35309297, 0.016458154, -0.008203596, 0.15137959, 0
694, 619737608, 0.6299744, 0.3328455, -0.60642534, 0.35297537, 0.015918145, 7.192647E-4, 0.16040039, 0
695, 619754275, 0.6300385, 0.3327177, -0.6065168, 0.35282442, 0.029702637, 0.012221241, 0.17025661, 0
696, 619770942, 0.630131, 0.33255568, -0.60660124, 0.3526668, 0.029855967, 0.026976226, 0.1632967, 0
697, 619787609, 0.6302736, 0.33232817, -0.60669804, 0.3524597, 0.015957484, -6.785853E-4, 0.17234707, 0
698, 619804276, 0.63047004, 0.3319894, -0.6068807, 0.35211286, 0.011899383, 0.0034072315, 0.15242004, 0
699, 619820943, 0.6305319, 0.33185524, -0.6070042, 0.35191572, 0.006363861, -0.015057397, 0.16819668, 0
700, 619837610, 0.6305963, 0.33171466, -0.6071162, 0.35173976, 0.004590509, -0.008020315, 0.16306973, 0
701, 619854277, 0.630676, 0.33159617, -0.6071579, 0.35163686, 0.03704727, -0.0034298063, 0.16477585, 0
702, 619870944, 0.63078326, 0.3314663, -0.60717934, 0.3515295, 0.016100531, -0.01231914, 0.16307735, 0
703, 619887611, 0.63090837, 0.3312413, -0.607302, 0.35130513, -0.0058940365, -0.02717694, 0.16404629, 0
704, 619904278, 0.6309233, 0.33113897, -0.6074234, 0.35116488, 0.011950791, 0.016503973, 0.16659832, 0
705, 619920945, 0.630943, 0.33107007, -0.6074961, 0.35106894, 0.047451355, 0.018620864, 0.17244148, 0
706, 619937612, 0.6310453, 0.33094198, -0.60752165, 0.35096133, 0.04700254, 0.028403133, 0.15428829, 0
707, 619954279, 0.63116413, 0.330793, -0.60754406, 0.3508495, 0.00362538, -0.00608067, 0.16372585, 0
708, 619970946, 0.6312065, 0.3307106, -0.60760504, 0.35074523, -0.0018918137, -0.021768374, 0.16481304, 0
709, 619987613, 0.63123226, 0.33061326, -0.6077164, 0.35059777, 0.029065624, 0.007023671, 0.16920853, 0
710, 620004280, 0.63137496, 0.33035487, -0.6078744, 0.35031047, 0.01990517, -0.013309079, 0.17571545, 0
711, 620020947, 0.6314426, 0.3302705, -0.6078801, 0.35025808, 0.02199725, 0.031804554, 0.15651703, 0
712, 620037614, 0.6315457, 0.33011845, -0.6079247, 0.35013786, 0.017106341, -0.00841504, 0.15860653, 0
713, 620054281, 0.63168776, 0.32984027, -0.6081156, 0.3498122, -2.5927502E-5, -0.0102713145, 0.15961742, 0
714, 620070948, 0.63175565, 0.32969075, -0.6082419, 0.34961092, 0.016979385, 0.008845972, 0.16593075, 0
715, 620087615, 0.6318152, 0.32960755, -0.60827416, 0.34952572, 0.023889959, -0.003267536, 0.17938805, 0
716, 620104282, 0.6319503, 0.32942238, -0.6083209, 0.3493746, 0.032467045, 0.016796775, 0.1738596, 0
717, 620120949, 0.6320716, 0.32923293, -0.6084171, 0.34916627, 0.0011926651, 0.005979866, 0.159585, 0
718, 620137616, 0.63210046, 0.3291381, -0.6085281, 0.34900984, 0.0092006875, -0.015502635, 0.16661549, 0
719, 620154283, 0.6321944, 0.32895604, -0.6086614, 0.34877908, 0.017987428, 0.018672496, 0.1596899, 0
720, 620170950, 0.63231903, 0.3287828, -0.6087096, 0.34863228, 0.007899395, -0.0067118704, 0.16742516, 0
721, 620187617, 0.63246053, 0.32856917, -0.60878044, 0.3484531, -0.006347768, -0.017729271, 0.16367245, 0
722, 620204284, 0.63253945, 0.3284086, -0.6088903, 0.3482691, -0.003673212, -0.031506162, 0.15937805, 0
723, 620220951, 0.63260406, 0.32825744, -0.6090236, 0.34806132, 0.033980675, 0.0054590805, 0.17530346, 0
724, 620237618, 0.63272315, 0.32805225, -0.6091361, 0.34784126, 0.019997705, 0.033011746, 0.17209435, 0
725, 620254285, 0.6328744, 0.32782447, -0.6092127, 0.3476465, 0.030030753, 0.006459301, 0.16627502, 0
726, 620270952, 0.63303405, 0.32757157, -0.60932714, 0.34739366, -0.0057572466, -0.014505544, 0.15829372, 0
727, 620287619, 0.6331262, 0.32737395, -0.60947484, 0.3471528, 0.013132727, -0.004758591, 0.1750822, 0
728, 620304286, 0.63312835, 0.32733592, -0.6095428, 0.3470655, 0.024505513, 0.01825855, 0.15589523, 0
729, 620320953, 0.63335055, 0.3269503, -0.6097443, 0.34666935, 0.020105438, 0.0060413317, 0.16405296, 0
730, 620337620, 0.633396, 0.32690024, -0.60973483, 0.3466502, 0.012405863, -0.0017822923, 0.16595173, 0
731, 620354287, 0.6334883, 0.32673338, -0.60982096, 0.3464873, 0.013709391, -0.008962646, 0.17954063, 0
732, 620370954, 0.6335144, 0.32665002, -0.6099015, 0.34637633, 0.010477393, 9.036629E-4, 0.15741062, 0
733, 620387621, 0.63357174, 0.32652855, -0.6099819, 0.34624434, 0.021700425, 0.022761665, 0.17151833, 0
734, 620404288, 0.6336522, 0.3263947, -0.61003405, 0.34613147, 0.015715197, 7.624027E-4, 0.15566063, 0
735, 620420955, 0.6337837, 0.32617116, -0.61014575, 0.34590453, 0.010693307, -0.027359104, 0.17095757, 0
736, 620437622, 0.63391733, 0.32591832, -0.61029625, 0.34563226, 0.024495678, -0.005182148, 0.15835285, 0
737, 620454289, 0.6340697, 0.32564616, -0.610444, 0.34534845, 0.012279355, -0.01888014, 0.16185093, 0
738, 620470956, 0.63418376, 0.32544437, -0.61054474, 0.34515104, 0.031156365, 0.0017346841, 0.16584778, 0
739, 620487623, 0.63436514, 0.3251074, -0.6107376, 0.34479406, 0.018540846, -0.023109227, 0.17787933, 0
740, 620504290, 0.63443255, 0.32494846, -0.61085093, 0.34461913, 0.03104729, 0.016157752, 0.16395855, 0
741, 620520957, 0.63460684, 0.3246268, -0.611036, 0.34427288, 0.02044473, -0.0018267714, 0.16950798, 0
742, 620537624, 0.63465357, 0.32456258, -0.6110443, 0.34423265, 0.018786712, 0.003174778, 0.18187714, 0
743, 620554291, 0.634701, 0.32447582, -0.6110844, 0.34415585, 0.010138548, -0.022674272, 0.16690826, 0
744, 620570958, 0.63477606, 0.3243355, -0.6111724, 0.3439934, 0.006969134, -0.01562065, 0.17292023, 0
745, 620587625, 0.63486385, 0.32416925, -0.6112814, 0.3437942, 0.023083078, 0.004925555, 0.16568565, 0
746, 620604292, 0.63495916, 0.32400692, -0.6113621, 0.3436279, 0.0019029893, -0.005343748, 0.15783119, 0
747, 620620959, 0.63508, 0.32380164, -0.61145073, 0.34344038, 0.011856021, -0.012811539, 0.15383816, 0
748, 620637626, 0.63514507, 0.32366744, -0.61153847, 0.34329018, 0.018733067, 0.0018656626, 0.16366577, 0
749, 620654293, 0.6352144, 0.3234998, -0.6116571, 0.34310848, 0.023015128, 0.002027039, 0.15510082, 0
750, 620670960, 0.63527316, 0.32339054, -0.61172116, 0.3429883, 0.025394201, -9.231085E-5, 0.1713438, 0
751, 620687627, 0.63534456, 0.3233015, -0.61173785, 0.34291044, 0.018674508, 0.0058587217, 0.1713562, 0
752, 620704294, 0.63539064, 0.32323474, -0.61175734, 0.342853, 0.013008901, -0.0031052656, 0.15826035, 0
753, 620720961, 0.6354389, 0.32311893, -0.61184317, 0.3427198, 0.0106267, -0.0013444304, 0.17144871, 0
754, 620737628, 0.63545626, 0.32305014, -0.6119051, 0.34264162, 0.02254888, 0.012121778, 0.17981243, 0
755, 620754295, 0.635522, 0.32293117, -0.61195976, 0.34253436, 0.017244024, 0.0024539488, 0.16671658, 0
756, 620770962, 0.6355791, 0.32285637, -0.611966, 0.34248784, 0.015526104, -0.008961529, 0.15876102, 0
757, 620787629, 0.6356379, 0.32274255, -0.6120266, 0.34237754, 0.013102329, -0.0020952104, 0.16768742, 0
758, 620804296, 0.63568467, 0.3226456, -0.6120896, 0.34226942, 0.002518544, -0.018306158, 0.16580772, 0
759, 620820963, 0.63575506, 0.3225124, -0.6121594, 0.3421396, 0.025501935, 0.009430906, 0.16761875, 0
760, 620837630, 0.6358409, 0.3223926, -0.61220294, 0.3420147, 0.015926192, 0.0067559024, 0.16551113, 0
761, 620854297, 0.6359337, 0.32223183, -0.6122784, 0.34185869, 0.023075478, -0.0018944958, 0.16143227, 0
762, 620870964, 0.63605, 0.322032, -0.6123851, 0.34163973, 0.025722764, 0.0077664047, 0.17162418, 0
763, 620887631, 0.6361174, 0.32189927, -0.61246735, 0.34149176, 0.021545755, 0.0025838097, 0.16656208, 0
764, 620904298, 0.6361969, 0.32176125, -0.61254054, 0.34134203, 0.016991455, 0.0059964056, 0.16804314, 0
765, 620920965, 0.6362694, 0.32163474, -0.61259896, 0.34122145, 0.013138538, -0.010705153, 0.17576599, 0
766, 620937632, 0.6363142, 0.321541, -0.6126629, 0.34111148, 0.012117531, -0.014447654, 0.17563152, 0
767, 620954299, 0.63634, 0.32144934, -0.61274457, 0.341003, 0.019271733, -3.4733914E-4, 0.16256905, 0
768, 620970966, 0.6364464, 0.3212433, -0.61285627, 0.34079763, 0.035549287, 0.018618405, 0.17452812, 0
769, 620987633, 0.63662463, 0.3209635, -0.6129576, 0.34054613, 0.002623148, -0.0018895785, 0.17299366, 0
770, 621004300, 0.63677424, 0.32070917, -0.61307216, 0.34029996, 0.0033951618, -0.014935359, 0.16389465, 0
771, 621020967, 0.6368248, 0.32057548, -0.61319166, 0.34011552, 0.015992353, -0.031068971, 0.1642971, 0
772, 621037634, 0.63682395, 0.32051697, -0.6132841, 0.34000543, 0.030031648, 0.008205831, 0.17122364, 0
773, 621054301, 0.63692576, 0.32035634, -0.61335623, 0.3398364, 0.03696368, 0.026566973, 0.17453575, 0
774, 621070968, 0.6370283, 0.32023537, -0.6133593, 0.33975282, 0.025727682, -0.00393651, 0.15748024, 0
775, 621087635, 0.6370782, 0.32016075, -0.6133841, 0.3396846, 0.0031604732, -0.025468854, 0.16913033, 0
776, 621104302, 0.63702816, 0.32021177, -0.61340636, 0.3396903, 0.0034537222, -0.023737524, 0.17652798, 0
777, 621120969, 0.63703483, 0.32015076, -0.61348534, 0.33959246, 0.02494047, 0.005161138, 0.17713165, 0
778, 621137636, 0.63711834, 0.3200264, -0.6135158, 0.3394979, 0.014552034, 0.025025629, 0.16524792, 0
779, 621154303, 0.63728225, 0.31978178, -0.6135931, 0.33928105, 0.013748729, 0.0034973072, 0.15580845, 0
780, 621170970, 0.63737696, 0.3195974, -0.6136996, 0.33908433, 0.011073726, -0.022211377, 0.15946293, 0
781, 621187637, 0.63736206, 0.3195618, -0.61377496, 0.33900937, 0.02211169, 0.0011332107, 0.15994167, 0
782, 621204304, 0.63740236, 0.3194758, -0.6138346, 0.33890656, 0.03456315, 0.009270647, 0.16631031, 0
783, 621220971, 0.6374801, 0.3193708, -0.6138538, 0.33882448, 0.0013276669, -0.0051604672, 0.1583929, 0
784, 621237638, 0.63760966, 0.3191699, -0.61393875, 0.3386163, 0.0039079003, -0.010740021, 0.16187954, 0
785, 621254305, 0.63763297, 0.3190957, -0.6140015, 0.3385285, 0.014651721, -0.021029664, 0.16201687, 0
786, 621270972, 0.6376533, 0.31902027, -0.61407477, 0.3384282, 0.014287842, -0.0041776807, 0.15943527, 0
787, 621287639, 0.63772863, 0.31889838, -0.61412394, 0.3383119, 0.011097418, -0.0041631525, 0.1658001, 0
788, 621304306, 0.6377899, 0.31881973, -0.6141449, 0.33823258, -0.0011425982, -0.0053256433, 0.17061806, 0
789, 621320973, 0.6379232, 0.31858045, -0.61427265, 0.33797464, 0.007388891, -0.010894468, 0.17861938, 0
790, 621337640, 0.6379544, 0.31850642, -0.6143309, 0.33787954, 0.026473321, -0.026782887, 0.16820145, 0
791, 621354307, 0.6380001, 0.31841272, -0.61439544, 0.3377643, 6.486346E-4, -0.008095192, 0.17540932, 0
792, 621370974, 0.6380942, 0.31824452, -0.61448103, 0.33758911, 0.009519864, 0.0141747445, 0.16015625, 0
793, 621387641, 0.63814574, 0.31815675, -0.61451274, 0.3375166, 0.0103835175, 0.0074865664, 0.16938114, 0
794, 621404308, 0.63818157, 0.3180909, -0.6145471, 0.3374485, -0.0013468891, -0.016421944, 0.17223549, 0
795, 621420975, 0.6382344, 0.31798154, -0.6146078, 0.337341, 0.0042409347, -0.014746938, 0.16873455, 0
796, 621437642, 0.63828975, 0.3178692, -0.6146731, 0.3372232, -0.0010670508, -0.020271508, 0.18341637, 0
797, 621454309, 0.63833153, 0.31777468, -0.6147402, 0.33711106, 0.018367847, 0.0068111103, 0.16404247, 0
798, 621470976, 0.6383871, 0.3176619, -0.6147991, 0.33700454, 0.030852387, 0.018514026, 0.16724491, 0
799, 621487643, 0.6384894, 0.31750068, -0.6148543, 0.33686194, 0.009089378, -0.010403858, 0.16479301, 0
800, 621504310, 0.6385401, 0.31742766, -0.61487824, 0.33679113, 0.0106611205, -0.0096850395, 0.16364765, 0
801, 621520977, 0.6386032, 0.31730434, -0.6149703, 0.33661968, 0.007397832, -0.0014541753, 0.16195393, 0
802, 621537644, 0.6386148, 0.31726384, -0.6150148, 0.33655447, 0.018573033, 0.0026271713, 0.15997696, 0
803, 621554311, 0.63869905, 0.3171166, -0.6150844, 0.33640596, 0.031365573, -0.0017100977, 0.16077042, 0
804, 621570978, 0.6388004, 0.31695494, -0.6151439, 0.33625716, 0.012827856, -0.0086843725, 0.17661762, 0
805, 621587645, 0.6388393, 0.316888, -0.6151752, 0.33618888, 0.020113483, -0.007538198, 0.16116905, 0
806, 621604312, 0.63888586, 0.3167561, -0.61527133, 0.3360489, 0.012755438, -0.0012210513, 0.1795435, 0
807, 621620979, 0.6389475, 0.316638, -0.61534303, 0.33591193, 0.025444714, -0.016221676, 0.17555046, 0
808, 621637646, 0.6390201, 0.31650662, -0.6154028, 0.3357879, 0.0015744253, -0.014665132, 0.17460728, 0
809, 621654313, 0.63913006, 0.31631058, -0.6154876, 0.33560798, -0.008857371, -0.0049304725, 0.16362667, 0
810, 621670980, 0.6391702, 0.31623724, -0.6155265, 0.33552915, 0.009050934, -0.012633623, 0.15465546, 0
811, 621687647, 0.63926494, 0.31605107, -0.6156388, 0.33531803, 0.018154169, 0.002067942, 0.17742634, 0
812, 621704314, 0.6392993, 0.31598353, -0.61567456, 0.3352507, -0.013456374, -0.019605886, 0.15681171, 0
813, 621720981, 0.6393848, 0.31580824, -0.61577946, 0.33505964, 0.0124116745, 0.007974719, 0.16336346, 0
814, 621737648, 0.6394308, 0.315746, -0.61580193, 0.33498943, 0.018298559, -0.0026061612, 0.15455818, 0
815, 621754315, 0.6395023, 0.31562114, -0.6158581, 0.33486757, 0.0139610665, -0.0031300755, 0.16792679, 0
816, 621770982, 0.63958323, 0.3154877, -0.6159214, 0.3347218, 0.009072838, -0.0066866134, 0.16427898, 0
817, 621787649, 0.6395924, 0.3154403, -0.6159703, 0.3346591, 0.018522518, -0.0114049725, 0.17312813, 0
818, 621804316, 0.6396409, 0.31531733, -0.6160575, 0.33452177, 0.023005294, 0.0017400484, 0.16415405, 0
819, 621820983, 0.6397089, 0.31519437, -0.6161153, 0.33440128, 0.017967312, 0.013033935, 0.16814995, 0
820, 621837650, 0.6397778, 0.31511718, -0.6161202, 0.3343332, 0.023764791, -0.017634055, 0.16079998, 0
821, 621854317, 0.6398133, 0.31505495, -0.6161429, 0.33428186, -0.0032404908, -0.013118646, 0.1707182, 0
822, 621870984, 0.6398285, 0.31498244, -0.6162229, 0.33417365, -0.003415278, -0.013905635, 0.16548347, 0
823, 621887651, 0.63985074, 0.31489554, -0.61630446, 0.33406255, 0.0165337, 0.021808159, 0.16809273, 0
824, 621904318, 0.63991946, 0.31479257, -0.61633533, 0.33397114, 0.0067022596, 0.0018710269, 0.14928055, 0
825, 621920985, 0.63999593, 0.3146975, -0.6163435, 0.3338992, 0.0025449186, -0.010723257, 0.17090511, 0
826, 621937652, 0.6400532, 0.31458643, -0.6164048, 0.33378097, -8.2744495E-4, -0.034893725, 0.15408707, 0
827, 621954319, 0.6401341, 0.31441188, -0.61653453, 0.33355036, 0.015800579, -0.0031758957, 0.17655277, 0
828, 621970986, 0.64018357, 0.31431678, -0.616594, 0.333435, 0.011986106, 0.0075636785, 0.16865635, 0
829, 621987653, 0.64026624, 0.31419212, -0.61662316, 0.33333984, 0.023666445, -0.0073401653, 0.16595268, 0
830, 622004320, 0.6403275, 0.3141075, -0.6166489, 0.33325425, 0.015252524, -0.023181647, 0.1573801, 0
831, 622020987, 0.64031583, 0.31410152, -0.6166771, 0.3332301, 0.025830945, -0.0055706133, 0.15606213, 0
832, 622037654, 0.64034975, 0.31400734, -0.6167446, 0.33312884, 0.014093833, 0.017344382, 0.1542387, 0
833, 622054321, 0.6404294, 0.31388706, -0.61678976, 0.33300543, 0.020613706, 0.0035174233, 0.16880226, 0
834, 622070988, 0.6404478, 0.3138755, -0.6167854, 0.33298934, 0.01856588, -0.00792264, 0.16659927, 0
835, 622087655, 0.6405357, 0.31369293, -0.6168956, 0.3327877, 0.009027688, -0.012964198, 0.16650105, 0
836, 622104322, 0.6405859, 0.31358558, -0.6169605, 0.33267194, 0.044246178, 9.9463265E-5, 0.17034721, 0
837, 622120989, 0.64066046, 0.31348547, -0.61698043, 0.33258596, 0.020556934, -0.005360511, 0.16406822, 0
838, 622137656, 0.6407276, 0.3133789, -0.6170135, 0.33249584, 0.012367866, -0.015831646, 0.16154289, 0
839, 622154323, 0.6407382, 0.31331328, -0.61708355, 0.332407, 0.0172476, -0.013450116, 0.16832924, 0
840, 622170990, 0.64077795, 0.3132191, -0.6171531, 0.33229005, 0.034937758, 0.011960626, 0.16459179, 0
841, 622187657, 0.64084536, 0.31311435, -0.6171919, 0.33218658, 0.034653895, -0.0053144675, 0.16537094, 0
842, 622204324, 0.6409503, 0.3129787, -0.6172147, 0.33206943, 0.031104064, 0.0012704476, 0.15373039, 0
843, 622220991, 0.6409631, 0.3129487, -0.6172324, 0.33204046, 0.0022851964, -0.018421045, 0.15652561, 0
844, 622237658, 0.6409656, 0.3128848, -0.6173215, 0.33193007, 0.0092512015, -0.013436258, 0.17103958, 0
845, 622254325, 0.6409922, 0.31279874, -0.6173958, 0.33182153, 0.04014874, 0.021140749, 0.1683321, 0
846, 622270992, 0.64109063, 0.31265917, -0.6174315, 0.3316963, 0.05053449, 0.021314867, 0.18149662, 0
847, 622287659, 0.6411693, 0.3125852, -0.61741394, 0.3316466, 0.022214506, -0.013433799, 0.17325115, 0
848, 622304326, 0.64118594, 0.3125573, -0.617431, 0.33160925, 0.0086463755, -0.026150346, 0.15340233, 0
849, 622320993, 0.6411866, 0.31249627, -0.6175162, 0.33150685, -0.011876137, -0.019918581, 0.16180229, 0
850, 622337660, 0.64120835, 0.3124334, -0.6175635, 0.33143595, 0.016277108, -0.010985662, 0.17109299, 0
851, 622354327, 0.6413142, 0.31228265, -0.6176031, 0.33129933, 0.017613268, 0.0054566218, 0.15891933, 0
852, 622370994, 0.6413558, 0.31222636, -0.617618, 0.33124405, 0.0031068302, -0.0129720215, 0.17425632, 0
853, 622387661, 0.6413631, 0.31218624, -0.61766297, 0.33118397, 0.00833301, -0.021853756, 0.16161823, 0
854, 622404328, 0.6413783, 0.31213367, -0.6177089, 0.33111826, 0.022375882, 0.0052961395, 0.15562248, 0
855, 622420995, 0.64146644, 0.31196362, -0.617797, 0.33094352, 0.033436645, 0.014766383, 0.1723938, 0
856, 622437662, 0.6415129, 0.3118913, -0.61782277, 0.3308738, 0.011649942, -0.0155044235, 0.15687752, 0
857, 622454329, 0.64154917, 0.31182352, -0.6178651, 0.33078817, -0.008918614, -0.014143229, 0.17343426, 0
858, 622470996, 0.6415589, 0.31179303, -0.6178952, 0.3307418, 0.016641434, -0.006241152, 0.15217113, 0
859, 622487663, 0.6415768, 0.31175816, -0.61790884, 0.33071434, 0.027627096, 0.0028502373, 0.15546131, 0
860, 622504330, 0.64163494, 0.3116793, -0.6179277, 0.33064052, 0.010757678, 4.3048596E-4, 0.17255688, 0
861, 622520997, 0.64167887, 0.31160334, -0.61797374, 0.33054084, 0.015850645, 0.0037597115, 0.17496681, 0
862, 622537664, 0.6417088, 0.31153998, -0.6180176, 0.33046043, 0.021479595, -0.004196232, 0.18303394, 0
863, 622554331, 0.64172906, 0.31150135, -0.61803025, 0.3304336, 0.006845755, -0.024598941, 0.18693066, 0
864, 622570998, 0.6417874, 0.3114177, -0.618056, 0.33035135, 0.014472464, 7.1479444E-4, 0.16089249, 0
865, 622587665, 0.6418092, 0.31136364, -0.6181006, 0.33027655, 0.0069458885, -0.0041745515, 0.16809464, 0
866, 622604332, 0.6418209, 0.31132025, -0.6181472, 0.33020726, 0.011263712, -0.009279364, 0.15543652, 0
867, 622620999, 0.6418896, 0.3111745, -0.6182206, 0.33007368, 0.016247604, -0.010859377, 0.1775837, 0
868, 622637666, 0.6419688, 0.31106216, -0.6182309, 0.33000636, 0.008288754, -0.029253375, 0.17038155, 0
869, 622654333, 0.6420319, 0.31095725, -0.61826944, 0.32991004, 0.009632515, -0.016910544, 0.17237663, 0
870, 622671000, 0.6420497, 0.3108523, -0.6183848, 0.32975852, 0.0058386056, -0.015715867, 0.16064167, 0
871, 622687667, 0.6420673, 0.3107842, -0.61845344, 0.32965967, 0.033523813, -0.00803015, 0.17783165, 0
872, 622704334, 0.642147, 0.31069767, -0.6184461, 0.32959953, 0.040604256, 0.01721966, 0.18018246, 0
873, 622721001, 0.6422105, 0.31064782, -0.6184091, 0.3295923, 0.016083099, -0.024396887, 0.16156483, 0
874, 622737668, 0.6422023, 0.31062812, -0.61845475, 0.32954106, -0.024508195, -0.04154927, 0.1704483, 0
875, 622754335, 0.6421875, 0.3105863, -0.6185494, 0.32943165, 0.02351088, -0.0014816674, 0.16074085, 0
876, 622771002, 0.6422199, 0.31051934, -0.618587, 0.32936093, 0.04187292, 0.027581498, 0.15940285, 0
877, 622787669, 0.6422935, 0.31045595, -0.6185526, 0.32934174, 0.017643219, -0.0075024357, 0.16946316, 0
878, 622804336, 0.6423391, 0.3104013, -0.6185469, 0.329315, -0.003278935, -0.020779552, 0.1577034, 0
879, 622821003, 0.64233166, 0.31036583, -0.618614, 0.32923698, 0.010221248, -0.0049675754, 0.17281246, 0
880, 622837670, 0.6423239, 0.31034416, -0.61866933, 0.3291688, 0.03210585, 0.02627283, 0.1665945, 0
881, 622854337, 0.6423757, 0.31027502, -0.6186745, 0.32912314, 0.015309744, 0.005841735, 0.17571163, 0
882, 622871004, 0.6424501, 0.31018767, -0.6186703, 0.329068, -0.009669171, -0.011951014, 0.16335297, 0
883, 622887671, 0.6424869, 0.31011504, -0.61871564, 0.32897946, 0.0119203925, -0.031518456, 0.15939331, 0
884, 622904338, 0.6424715, 0.31008244, -0.6187928, 0.328895, 0.012933801, -0.025179181, 0.15487862, 0
885, 622921005, 0.6424957, 0.31000805, -0.61884904, 0.32881197, 0.03855375, 0.007854693, 0.16755676, 0
886, 622937672, 0.64255553, 0.309943, -0.61883515, 0.32878253, -0.0012798352, 0.0037411598, 0.16422462, 0
887, 622954339, 0.6426138, 0.30987075, -0.61884385, 0.3287205, -0.006725058, -0.023521386, 0.1731062, 0
888, 622971006, 0.6426367, 0.3098013, -0.6189033, 0.32862923, 0.012341044, 0.008922637, 0.15537262, 0
889, 622987673, 0.6426419, 0.30974936, -0.6189674, 0.3285473, 0.013395132, -0.017186359, 0.16140461, 0
890, 623004340, 0.64268255, 0.30966398, -0.61901754, 0.32845396, 0.0135878, -3.759488E-4, 0.16865253, 0
891, 623021007, 0.6426915, 0.30965874, -0.61899865, 0.3284769, 0.0020786705, -0.028154362, 0.15520954, 0
892, 623037674, 0.6427114, 0.30963933, -0.618999, 0.32845554, -0.003777816, -0.023296308, 0.17050171, 0
893, 623054341, 0.6427382, 0.3095802, -0.6190225, 0.32841483, 0.0021345487, -0.01883253, 0.17069244, 0
894, 623071008, 0.64279604, 0.30947974, -0.61908233, 0.3282833, 0.011043328, 0.0011157767, 0.15651989, 0
895, 623087675, 0.6427942, 0.30947417, -0.61910397, 0.32825136, 0.014240011, -0.008108156, 0.18468285, 0
896, 623104342, 0.64281017, 0.30945027, -0.6191102, 0.3282309, 0.027717842, -0.007281158, 0.16715813, 0
897, 623121009, 0.64286274, 0.3093776, -0.61912125, 0.3281757, 0.005283399, -0.0024512666, 0.17242718, 0
898, 623137676, 0.6429443, 0.30925065, -0.61915755, 0.32806692, 0.0050661447, -0.01999301, 0.17390728, 0
899, 623154343, 0.6429608, 0.30920467, -0.61919063, 0.32801527, -0.0045757573, -0.012548464, 0.15594578, 0
900, 623171010, 0.6429489, 0.30918998, -0.6192354, 0.32796833, 0.02169372, 0.0047927885, 0.1744461, 0
901, 623187677, 0.64296585, 0.30914214, -0.619266, 0.32792237, 0.01724313, -0.008334574, 0.16207981, 0
902, 623204344, 0.64300424, 0.30912644, -0.6192362, 0.32791784, -5.2212627E-4, -0.0084818695, 0.1631031, 0
903, 623221011, 0.6430294, 0.30909505, -0.6192301, 0.3279096, 0.0064769583, -0.030479344, 0.15396404, 0
904, 623237678, 0.6430217, 0.3090911, -0.61926496, 0.3278629, -0.01192978, -0.04690509, 0.15934086, 0
905, 623254345, 0.64300245, 0.30908033, -0.61931044, 0.3278246, 0.0033214025, -0.0062474106, 0.15870762, 0
906, 623271012, 0.64307135, 0.30896515, -0.6193541, 0.32771555, 0.04394935, 0.039032962, 0.15479851, 0
907, 623287679, 0.643125, 0.30891266, -0.61933756, 0.3276912, 0.026903808, -0.0057082972, 0.17191601, 0
908, 623304346, 0.6431586, 0.30886886, -0.6193422, 0.3276576, 0.003988365, -0.007329437, 0.16800308, 0
909, 623321013, 0.6431804, 0.3088025, -0.6194082, 0.3275528, 0.006545353, -0.004853584, 0.1610794, 0
910, 623337680, 0.643171, 0.30879495, -0.6194366, 0.32752457, 0.024992324, 0.020104544, 0.1653347, 0
911, 623354347, 0.6432254, 0.3087044, -0.61947197, 0.32743606, 0.021751387, 0.0066508516, 0.1579237, 0
912, 623371014, 0.6432768, 0.30863026, -0.6194814, 0.3273872, 0.007329884, -0.0032749118, 0.1676035, 0
913, 623387681, 0.6432884, 0.30861577, -0.6194797, 0.32738122, -0.0060835755, -0.035420768, 0.1675005, 0
914, 623404348, 0.643298, 0.30858475, -0.6195188, 0.32731792, 0.022942264, -0.0062185773, 0.16717339, 0
915, 623421015, 0.64331836, 0.30852732, -0.6195729, 0.32722953, 0.001034865, -0.00864414, 0.18322563, 0
916, 623437682, 0.6433523, 0.3084653, -0.61959255, 0.32718396, 0.022022285, 0.011607251, 0.1578703, 0
917, 623454349, 0.64340526, 0.3083845, -0.6196127, 0.3271174, 0.012067464, -9.181912E-4, 0.17514324, 0
918, 623471016, 0.64342743, 0.30833524, -0.619643, 0.327063, 0.020809503, -0.0029269021, 0.15411091, 0
919, 623487683, 0.6434282, 0.30830958, -0.61967117, 0.32703206, 0.014588243, -0.0017261906, 0.1632576, 0
920, 623504350, 0.6434592, 0.30824965, -0.61970526, 0.32696316, 0.018034814, -0.0034534987, 0.16210747, 0
921, 623521017, 0.64346886, 0.30822623, -0.6197165, 0.32694498, 0.0153459525, 0.0040556425, 0.1780901, 0
922, 623537684, 0.6434981, 0.30819175, -0.61971897, 0.32691512, -0.0019803247, -0.019814424, 0.16767406, 0
923, 623554351, 0.643522, 0.30815, -0.6197302, 0.32688606, 0.0014778677, -0.005976066, 0.1657629, 0
924, 623571018, 0.6435279, 0.30813152, -0.6197542, 0.32684645, -0.006216789, -0.018956134, 0.17443371, 0
925, 623587685, 0.6435277, 0.30810198, -0.6197942, 0.32679898, -3.62538E-4, -0.0030413407, 0.16826439, 0
926, 623604352, 0.6435254, 0.30811328, -0.61978465, 0.3268108, 0.017562307, 0.0030513988, 0.16811371, 0
927, 623621019, 0.6435778, 0.30805376, -0.6197772, 0.32677788, 0.009243155, -0.009480526, 0.1599083, 0
928, 623637686, 0.6436112, 0.30801308, -0.61977386, 0.32675683, -0.006585139, -0.023808377, 0.15302849, 0
929, 623654353, 0.64363366, 0.3079484, -0.6198299, 0.32666737, 0.014815779, -0.021091353, 0.16071129, 0
930, 623671020, 0.64363647, 0.3079089, -0.6198842, 0.32659623, 0.012656645, -0.017874107, 0.15820026, 0
931, 623687687, 0.6436593, 0.30787683, -0.6198891, 0.32657194, 0.034548398, 0.0043607377, 0.16912174, 0
932, 623704354, 0.64369553, 0.30785474, -0.61985695, 0.32658213, 0.023206009, -0.011189505, 0.18020535, 0
933, 623721021, 0.64371556, 0.30783582, -0.61985195, 0.32657018, 0.007417501, -0.013943185, 0.16090298, 0
934, 623737688, 0.6437241, 0.30779496, -0.6199012, 0.32649848, 0.0051604672, -6.177898E-4, 0.1551094, 0
935, 623754355, 0.643721, 0.30777556, -0.61993855, 0.32645178, 0.0073406124, -0.014135406, 0.16885567, 0
936, 623771022, 0.6437581, 0.30770922, -0.61995524, 0.3264093, 0.02226636, 0.004307318, 0.17320251, 0
937, 623787689, 0.64379126, 0.3076809, -0.6199407, 0.32639828, 0.009847534, -0.016366066, 0.16177559, 0
938, 623804356, 0.64380217, 0.30764544, -0.61996686, 0.3263605, 0.0047755777, -0.03263602, 0.16731644, 0
939, 623821023, 0.64379704, 0.30763173, -0.61998594, 0.32634738, 0.039745968, -0.0035545265, 0.15971565, 0
940, 623837690, 0.6438143, 0.3076021, -0.6199964, 0.32632136, 0.024986513, -0.010906091, 0.16138744, 0
941, 623854357, 0.64385104, 0.30756366, -0.6199927, 0.32629222, 0.015121099, -0.0030663742, 0.15681744, 0
942, 623871024, 0.64386696, 0.3075246, -0.62001616, 0.3262533, 0.021100517, -0.015492801, 0.17035198, 0
943, 623887691, 0.64386505, 0.30749634, -0.62005, 0.32621893, -0.009942303, -0.029986722, 0.1705122, 0
944, 623904358, 0.6438957, 0.30744013, -0.6200774, 0.32615978, 0.02129855, 0.0136403255, 0.18238258, 0
945, 623921025, 0.6439325, 0.3073843, -0.6200909, 0.3261139, 0.027833622, -0.007535516, 0.18873692, 0
946, 623937692, 0.6439531, 0.30735308, -0.62009585, 0.32609317, 0.013953914, -0.019915676, 0.16271973, 0
947, 623954359, 0.64393765, 0.30736142, -0.6201145, 0.3260802, 0.02649612, -0.012150835, 0.16221428, 0
948, 623971026, 0.6439563, 0.30731684, -0.6201476, 0.32602268, 0.003793909, -0.007070162, 0.15956306, 0
949, 623987693, 0.64398897, 0.30726597, -0.6201668, 0.32596973, 0.013336571, -0.02089265, 0.17264175, 0
950, 624004360, 0.64399344, 0.3072546, -0.62017035, 0.32596475, 0.009374133, -9.836805E-4, 0.17177296, 0
951, 624021027, 0.64401066, 0.3072079, -0.62019736, 0.32592323, 0.0036615892, -0.030065622, 0.1600666, 0
952, 624037694, 0.6440093, 0.30720443, -0.6202099, 0.32590568, 0.017005313, -0.024873415, 0.16743279, 0
953, 624054361, 0.6440106, 0.30719966, -0.62021244, 0.3259023, 0.0037992732, -0.015788509, 0.17692757, 0
954, 624071028, 0.64403623, 0.30716845, -0.62021327, 0.32587942, 0.0034716032, -0.013708049, 0.16484737, 0
955, 624087695, 0.64405483, 0.3071228, -0.62024355, 0.3258284, 0.017615056, 0.005770434, 0.16180706, 0
956, 624104362, 0.64405054, 0.30710673, -0.62026906, 0.32580355, 0.026927946, -0.01575744, 0.18087578, 0
957, 624121029, 0.64407, 0.30708346, -0.62027186, 0.32578132, 0.019103205, -0.015016271, 0.15326595, 0
958, 624137696, 0.6440888, 0.3070583, -0.6202769, 0.32575837, 0.014761243, -0.011305062, 0.17429256, 0
959, 624154363, 0.6441206, 0.30700564, -0.62029797, 0.3257053, 0.007643696, 0.012360937, 0.1663723, 0
960, 624171030, 0.6441609, 0.3069443, -0.62031597, 0.32564893, 0.016924849, -0.021142537, 0.16744518, 0
961, 624187697, 0.64417, 0.30692664, -0.6203214, 0.32563728, 0.012359372, -0.021438468, 0.16936588, 0
962, 624204364, 0.6441868, 0.30688298, -0.6203497, 0.3255912, 0.016095167, -0.014882834, 0.15421677, 0
963, 624221031, 0.64419234, 0.30687574, -0.62035686, 0.32557347, 0.013700897, -0.008998855, 0.17050266, 0
964, 624237698, 0.64421165, 0.3068507, -0.6203692, 0.32553542, 0.016502855, 0.008114861, 0.1840601, 0
965, 624254365, 0.6442481, 0.30680424, -0.6203746, 0.32549676, 0.0091913, -0.002642817, 0.16313648, 0
966, 624271032, 0.6442958, 0.30673248, -0.6203888, 0.32544288, 0.011093395, -0.013758563, 0.15985489, 0
967, 624287699, 0.64429104, 0.30672908, -0.6203984, 0.32543707, 0.0020590012, -0.033715587, 0.17209053, 0
968, 624304366, 0.6442761, 0.30671775, -0.6204455, 0.3253875, 0.020279331, -0.022023626, 0.16998482, 0
969, 624321033, 0.6442706, 0.30671465, -0.62045807, 0.32537737, 0.0323982, 0.005008478, 0.16809654, 0
970, 624337700, 0.6443192, 0.30667648, -0.62043756, 0.32535648, 0.02108666, -0.005609728, 0.14877987, 0
971, 624354367, 0.6443547, 0.30663595, -0.6204306, 0.32533753, 0.0070639034, -0.0154344635, 0.15547752, 0
972, 624371034, 0.64435816, 0.30661216, -0.6204655, 0.32528633, 0.00744924, -0.026444042, 0.16316509, 0
973, 624387701, 0.6443497, 0.3065935, -0.620515, 0.32522643, 0.030484037, 0.005978301, 0.17187119, 0
974, 624404368, 0.6443629, 0.3065623, -0.62053573, 0.32519004, 0.034725867, 0.010119549, 0.1572113, 0
975, 624421035, 0.64439344, 0.30656156, -0.6205041, 0.32519042, 0.03216575, 0.010747397, 0.14868927, 0
976, 624437702, 0.6444268, 0.3065101, -0.62051785, 0.32514673, 0.015366516, -0.015748722, 0.1764059, 0
977, 624454369, 0.6444505, 0.30643982, -0.62057304, 0.32506058, -8.551606E-4, -0.015666246, 0.16329575, 0
978, 624471036, 0.64443386, 0.30642584, -0.62062246, 0.32501253, 0.011174306, -0.011855574, 0.15731335, 0
979, 624487703, 0.644449, 0.3064034, -0.620634, 0.3249817, 0.026973544, -0.005115094, 0.16182041, 0
980, 624504370, 0.64450103, 0.3063452, -0.6206268, 0.32494727, 0.021388402, -0.01701336, 0.1674385, 0
981, 624521037, 0.64453363, 0.30630004, -0.6206364, 0.32490668, 0.004157341, -0.017956585, 0.16399288, 0
982, 624537704, 0.64452857, 0.30628994, -0.62065613, 0.32488853, 0.010278914, -3.7013745E-4, 0.17455673, 0
983, 624554371, 0.64452094, 0.30628115, -0.62068546, 0.324856, 0.021964619, -0.020471776, 0.15673542, 0
984, 624571038, 0.6445385, 0.30626217, -0.6206864, 0.3248371, 0.028757177, 0.0038196128, 0.16109753, 0
985, 624587705, 0.6445836, 0.3062132, -0.62067574, 0.32481438, 0.0051349867, -2.1859567E-4, 0.16457748, 0
986, 624604372, 0.64460665, 0.30615062, -0.6207072, 0.32476717, 0.018456805, -0.0020263684, 0.16069317, 0
987, 624621039, 0.6445965, 0.30613583, -0.62074447, 0.32473034, 0.0026365588, -0.02376658, 0.15656662, 0
988, 624637706, 0.64460725, 0.30608055, -0.6208029, 0.3246493, 0.023248924, 0.009209628, 0.16589928, 0
989, 624654373, 0.64462465, 0.30605558, -0.6208034, 0.32463747, 0.014350425, 0.0038495637, 0.17167282, 0
990, 624671040, 0.6446453, 0.3060423, -0.62077904, 0.32465568, 0.03521357, -0.0063301106, 0.18091011, 0
991, 624687707, 0.64466274, 0.3060154, -0.6207797, 0.32464468, 0.016864052, -0.017611256, 0.16530323, 0
992, 624704374, 0.64466596, 0.30598986, -0.62081003, 0.32460454, 0.0029396424, -0.009763046, 0.15552998, 0
993, 624721041, 0.64465827, 0.30598336, -0.6208326, 0.32458258, 0.006677226, -0.0074981893, 0.16770458, 0
994, 624737708, 0.64468175, 0.30593583, -0.6208587, 0.32453105, 0.016116625, 0.0016171163, 0.16152, 0
995, 624754375, 0.644701, 0.3059201, -0.6208517, 0.32452103, 0.025129562, -0.0067711016, 0.17185307, 0
996, 624771042, 0.64472765, 0.3059015, -0.6208367, 0.32451412, 0.023059385, -0.027680961, 0.15871906, 0
997, 624787709, 0.64474547, 0.30588233, -0.62084204, 0.32448652, 0.0058591687, -0.036771458, 0.16603756, 0
998, 624804376, 0.64474005, 0.30587, -0.62086797, 0.3244593, 0.005455504, -0.01594899, 0.16719437, 0
999, 624821043, 0.6447416, 0.30583614, -0.6209119, 0.32440427, 0.015922168, -0.010782265, 0.15438843, 0
1000, 624837710, 0.64475703, 0.3057997, -0.6209271, 0.32437903, 0.037176017, 0.015922839, 0.17542362, 0
1001, 624854377, 0.64481014, 0.30575347, -0.6209072, 0.32435516, 0.0059637725, -0.014995932, 0.16836071, 0
1002, 624871044, 0.64485276, 0.30571228, -0.6208952, 0.3243319, -0.012337916, -0.011531928, 0.16993427, 0
1003, 624887711, 0.6448475, 0.30567753, -0.6209487, 0.32427284, 0.0080165155, -0.024544405, 0.163764, 0
1004, 624904378, 0.64480954, 0.30567652, -0.6210103, 0.32423133, 0.029112563, -0.0066204537, 0.17082882, 0
1005, 624921045, 0.6448444, 0.30563056, -0.6210116, 0.32420307, 0.040472385, 0.019685457, 0.16004086, 0
1006, 624937712, 0.64492893, 0.30555555, -0.6209741, 0.3241773, 0.020263685, -0.0067757955, 0.16423035, 0
1007, 624954379, 0.64497215, 0.30550763, -0.620967, 0.3241498, -0.0010719681, -0.035194125, 0.16620731, 0
1008, 624971046, 0.6449602, 0.30546653, -0.6210377, 0.3240772, 0.016934682, -0.024974443, 0.16383743, 0
1009, 624987713, 0.6449468, 0.3054423, -0.621108, 0.32399172, 0.038809, 0.0238314, 0.16782284, 0
1010, 625004380, 0.64497274, 0.30541393, -0.6211031, 0.32397616, 0.035369135, 0.00994208, 0.16631031, 0
1011, 625021047, 0.6450447, 0.30535612, -0.6210673, 0.32395622, 0.020887285, -0.014593831, 0.15428448, 0
1012, 625037714, 0.64506495, 0.30533794, -0.62105405, 0.32395828, 0.009362957, -0.015582653, 0.16289711, 0
1013, 625054381, 0.6450344, 0.30534583, -0.62109405, 0.3239351, 0.0077997083, -0.014942512, 0.15790749, 0
1014, 625071048, 0.64501745, 0.30534515, -0.62112886, 0.32390258, 0.0272507, 0.018320687, 0.14610481, 0
1015, 625087715, 0.64503807, 0.30531698, -0.6211362, 0.32387412, 0.036049064, 0.0056566657, 0.16809654, 0
1016, 625104382, 0.64508444, 0.30526975, -0.62112147, 0.3238544, 0.01602856, 0.002569952, 0.18084908, 0
1017, 625121049, 0.6451097, 0.30524698, -0.62111133, 0.3238449, 0.00454223, -0.024101626, 0.15079308, 0
1018, 625137716, 0.6450966, 0.3052318, -0.6211505, 0.3238104, 0.014030355, -0.01003752, 0.14928055, 0
1019, 625154383, 0.64506525, 0.30523714, -0.62119657, 0.32377952, 0.0179767, -0.0056211273, 0.14747238, 0
1020, 625171050, 0.64507073, 0.3052198, -0.6212096, 0.32376, 0.042651635, 0.004571734, 0.15927029, 0
1021, 625187717, 0.6451036, 0.30520514, -0.62117916, 0.32376656, 0.0333155, 0.015733523, 0.15464306, 0
1022, 625204384, 0.6451326, 0.30517676, -0.62116367, 0.32376528, 0.022100067, -0.017898023, 0.16765976, 0
1023, 625221051, 0.64513355, 0.30516103, -0.6211899, 0.3237279, -0.0013491242, -0.026220528, 0.15756416, 0
1024, 625237718, 0.6451091, 0.3051671, -0.6212301, 0.3236936, 0.025031216, 0.0044204155, 0.1595459, 0
1025, 625254385, 0.6451221, 0.3051315, -0.6212525, 0.32365847, 0.030704869, -9.3473116E-4, 0.16768551, 0
1026, 625271052, 0.6451466, 0.30510128, -0.6212479, 0.3236469, 0.014109479, -0.002612196, 0.15587997, 0
1027, 625287719, 0.64518106, 0.30505183, -0.6212589, 0.32360378, 0.019379467, -0.010105467, 0.17734241, 0
1028, 625304386, 0.6451833, 0.30504432, -0.621264, 0.32359645, 0.010479628, -0.017521627, 0.15421772, 0
1029, 625321053, 0.6451772, 0.3050331, -0.62127775, 0.32359314, 0.017540403, -0.0044539426, 0.15684795, 0
1030, 625337720, 0.6451888, 0.30498633, -0.6213147, 0.3235429, 0.008484105, -0.016520737, 0.17735004, 0
1031, 625354387, 0.64520663, 0.30495027, -0.62133336, 0.3235055, 0.01264234, -0.00980529, 0.15486908, 0
1032, 625371054, 0.6452231, 0.3049099, -0.6213628, 0.32345435, 0.012456377, -0.010858706, 0.16620255, 0
1033, 625387721, 0.6452312, 0.30489478, -0.62137324, 0.32343203, 0.011127369, -0.008963093, 0.16056633, 0
1034, 625404388, 0.6452609, 0.3048538, -0.6213811, 0.3233963, 0.008568592, -0.019493459, 0.1646223, 0
1035, 625421055, 0.6452863, 0.3048044, -0.621401, 0.32335374, 0.00594008, -0.0066036903, 0.15221119, 0
1036, 625437722, 0.6452756, 0.3047937, -0.6214281, 0.3233336, 0.023874313, -0.005654878, 0.16117096, 0
1037, 625454389, 0.6452717, 0.30479, -0.62143654, 0.32332852, 0.042340506, -0.0040341853, 0.15467358, 0
1038, 625471056, 0.6452904, 0.30475926, -0.62144107, 0.3233116, 0.017638749, -0.012860041, 0.15830803, 0
1039, 625487723, 0.64531124, 0.30473158, -0.62143904, 0.32329988, 0.011359375, -0.010936042, 0.16759968, 0
1040, 625504390, 0.64530027, 0.30472672, -0.6214638, 0.32327884, 0.0031349927, -0.01721184, 0.16884613, 0
1041, 625521057, 0.6452794, 0.3047304, -0.6215004, 0.32324675, 0.0028068756, -0.010389776, 0.16592693, 0
1042, 625537724, 0.6452787, 0.30473226, -0.6214947, 0.32325715, 0.027525174, 0.020829396, 0.15912724, 0
1043, 625554391, 0.64532334, 0.3047028, -0.6214684, 0.3232462, 0.023690585, -0.017064543, 0.14792824, 0
1044, 625571058, 0.645347, 0.30467138, -0.62146425, 0.32323653, 0.00934016, -0.021587329, 0.15968895, 0
1045, 625587725, 0.64533335, 0.30465576, -0.6215126, 0.32318565, -0.0012480963, -0.00886743, 0.14195919, 0
1046, 625604392, 0.6453384, 0.30462703, -0.62154657, 0.32313722, 0.013555613, -0.0046756677, 0.16757679, 0
1047, 625621059, 0.6453711, 0.30460507, -0.6215296, 0.32312554, 0.030457217, -0.0013837687, 0.15530396, 0
1048, 625637726, 0.64539707, 0.3045946, -0.62149704, 0.32314605, 0.015396019, -0.013152396, 0.15717983, 0
1049, 625654393, 0.64539766, 0.30457184, -0.62153256, 0.3230981, -0.0031273933, -0.034838293, 0.16147995, 0
1050, 625671060, 0.6453732, 0.3045774, -0.6215732, 0.3230634, 0.024811726, -0.003603923, 0.16324711, 0
1051, 625687727, 0.6453845, 0.30456486, -0.62157154, 0.32305583, 0.009261035, -0.009491031, 0.15477657, 0
1052, 625704394, 0.64543504, 0.3045137, -0.6215522, 0.3230402, 0.009697333, -0.019973118, 0.17296886, 0
1053, 625721061, 0.64545345, 0.30449522, -0.6215551, 0.32301524, 0.0049244375, -0.025588881, 0.15559769, 0
1054, 625737728, 0.6454122, 0.304516, -0.6216005, 0.3229908, 0.001087614, -0.038559783, 0.17314053, 0
1055, 625754395, 0.64539987, 0.30449855, -0.6216364, 0.32296318, 0.025601622, 0.018439148, 0.15016842, 0
1056, 625771062, 0.64543957, 0.30447048, -0.62161285, 0.3229552, 0.026296299, -0.0067632785, 0.15886593, 0
1057, 625787729, 0.645471, 0.30443522, -0.62159956, 0.32295159, 0.002500216, -0.017499052, 0.1636858, 0
1058, 625804396, 0.6454655, 0.30439985, -0.6216465, 0.32290566, -0.013964643, -0.023590898, 0.16645813, 0
1059, 625821063, 0.6454455, 0.30439305, -0.6216916, 0.3228645, 0.031739734, 0.017459491, 0.176548, 0
1060, 625837730, 0.6454758, 0.3043593, -0.6216843, 0.32284993, 0.02965391, 0.0033339192, 0.17095852, 0
1061, 625854397, 0.64551425, 0.30433017, -0.62166536, 0.32283735, 0.01619843, 0.0017626232, 0.15672588, 0
1062, 625871064, 0.6455202, 0.30430347, -0.6216844, 0.32281375, 0.015052256, -0.015034376, 0.17715168, 0
1063, 625887731, 0.6454962, 0.3043202, -0.62171364, 0.32278985, 0.011678105, -0.0036347676, 0.16375637, 0
1064, 625904398, 0.64548326, 0.3043198, -0.6217345, 0.32277593, 0.034967262, -0.0049034273, 0.16976261, 0
1065, 625921065, 0.6455217, 0.30426702, -0.6217286, 0.32276008, 0.02186359, 0.0076086046, 0.17008781, 0
1066, 625937732, 0.6455367, 0.30425212, -0.6217234, 0.32275426, 0.0023866713, -0.014021638, 0.17206097, 0
1067, 625954399, 0.64553994, 0.30421597, -0.62176675, 0.32269815, 0.0014349532, -0.033447374, 0.17036343, 0
1068, 625971066, 0.64553195, 0.30420607, -0.62179244, 0.32267383, 0.015782697, 0.004796588, 0.1588211, 0
1069, 625987733, 0.64556926, 0.30417177, -0.62177753, 0.32266062, 0.025076812, 0.009079319, 0.17206097, 0
1070, 626004400, 0.64560866, 0.3041434, -0.6217567, 0.32264873, 0.0042726737, -0.0019470213, 0.15988922, 0
1071, 626021067, 0.64561296, 0.30412707, -0.6217727, 0.3226245, 0.006019651, -0.01945278, 0.16791725, 0
1072, 626037734, 0.6455719, 0.30414826, -0.62180793, 0.3226187, 0.0022936899, -0.028265448, 0.16366768, 0
1073, 626054401, 0.64557344, 0.30412906, -0.6218158, 0.32261884, 0.030977555, 0.01554935, 0.15603924, 0
1074, 626071068, 0.6456497, 0.30406106, -0.6217843, 0.32259056, 0.015620873, -0.004471153, 0.15212154, 0
1075, 626087735, 0.64568776, 0.3040204, -0.62177885, 0.3225636, -0.001069286, -0.040915612, 0.15752316, 0
1076, 626104402, 0.64567345, 0.30400017, -0.62182426, 0.32252377, -0.021704895, -0.035579685, 0.17730331, 0
1077, 626121069, 0.6456356, 0.3040173, -0.6218602, 0.32251394, 0.026008861, 0.022015356, 0.17272949, 0
1078, 626137736, 0.6456792, 0.30396867, -0.6218508, 0.32249075, 0.045522884, 0.024946729, 0.16190338, 0
1079, 626154403, 0.64574903, 0.30391943, -0.6217988, 0.32249752, 0.021549331, -0.015726147, 0.16436481, 0
1080, 626171070, 0.6457985, 0.30388874, -0.6217664, 0.32248998, 0.020167574, -0.027459908, 0.16672516, 0
1081, 626187737, 0.6457918, 0.3038763, -0.6217959, 0.32245815, -0.0027840773, -0.03168408, 0.16745949, 0
1082, 626204404, 0.6457839, 0.30387112, -0.6218184, 0.32243547, 0.036614105, -0.007451475, 0.16116524, 0
1083, 626221071, 0.6458138, 0.30385104, -0.6217965, 0.3224366, 0.02354128, 0.001415731, 0.15918541, 0
1084, 626237738, 0.6458607, 0.3038286, -0.6217517, 0.3224503, -0.015790297, -0.02158353, 0.1615305, 0
1085, 626254405, 0.64586914, 0.30381587, -0.6217633, 0.32242292, -0.01639244, -0.024305245, 0.17247105, 0
1086, 626271072, 0.64585465, 0.303814, -0.6217996, 0.32238382, 0.0060236743, -0.023152366, 0.1612835, 0
1087, 626287739, 0.64583457, 0.30380836, -0.62183595, 0.32235914, 0.0347965, 0.005922199, 0.15917397, 0
1088, 626304406, 0.64585525, 0.30378255, -0.6218322, 0.3223493, 0.019226585, 0.001964679, 0.16500187, 0
1089, 626321073, 0.6459028, 0.30375242, -0.6218015, 0.3223417, 0.019248936, -0.006828097, 0.1763382, 0
1090, 626337740, 0.64593834, 0.3037235, -0.6217823, 0.32233503, -0.001603929, -0.01471654, 0.15491581, 0
1091, 626354407, 0.64592516, 0.30371267, -0.6218197, 0.32229954, -0.013753199, -0.042312343, 0.17073727, 0
1092, 626371074, 0.64589244, 0.30371416, -0.6218617, 0.32228246, 0.01967808, 0.0023184998, 0.17642117, 0
1093, 626387741, 0.6458952, 0.3037024, -0.6218562, 0.32229856, 0.013052262, -4.3048596E-4, 0.1620493, 0
1094, 626404408, 0.64594746, 0.30365586, -0.62182784, 0.3222924, 0.016751401, -0.0037565823, 0.15371418, 0
1095, 626421075, 0.6459857, 0.30361372, -0.6218204, 0.32226974, 0.0044961865, -0.030658824, 0.16697884, 0
1096, 626437742, 0.6459666, 0.30361405, -0.62184966, 0.3222514, -0.01769865, -0.033860873, 0.16107845, 0
1097, 626454409, 0.6459373, 0.30361447, -0.621891, 0.32222998, 0.0070469165, -0.025327595, 0.16844654, 0
1098, 626471076, 0.64594984, 0.3035861, -0.6219052, 0.32220435, 0.025923926, 0.006618889, 0.17178535, 0
1099, 626487743, 0.6459931, 0.3035657, -0.62186223, 0.32221952, 0.008533725, -0.027461696, 0.15804195, 0
1100, 626504410, 0.6460263, 0.303536, -0.6218574, 0.3221903, -0.011659777, -0.034549963, 0.14539814, 0
1101, 626521077, 0.64599144, 0.30355093, -0.62189466, 0.32217416, 0.011964649, -0.013412565, 0.17071533, 0
1102, 626537744, 0.6459545, 0.3035532, -0.62194973, 0.32213992, 0.021625325, -0.006740033, 0.18123055, 0
1103, 626554411, 0.6459841, 0.3035335, -0.62193686, 0.32212394, 0.041296702, 0.015531468, 0.16967106, 0
1104, 626571078, 0.6460555, 0.30346534, -0.6219011, 0.32211387, 0.0068234033, -0.023106992, 0.16294956, 0
1105, 626587745, 0.64607203, 0.30345646, -0.62187886, 0.32213196, -0.025025405, -0.033508837, 0.15744305, 0
1106, 626604412, 0.6460479, 0.30345026, -0.62191266, 0.32212096, -0.004366549, -0.027477788, 0.16665173, 0
1107, 626621079, 0.6460148, 0.30345783, -0.6219498, 0.3221088, 0.010748291, 0.019545538, 0.17759609, 0
1108, 626637746, 0.64601094, 0.30345473, -0.62195784, 0.32210353, 0.014944524, 0.0080536185, 0.16143799, 0
1109, 626654413, 0.6460266, 0.3034405, -0.6219435, 0.32211336, 0.025377214, 0.0027798307, 0.15674019, 0
1110, 626671080, 0.6460542, 0.30341455, -0.6219318, 0.322105, -0.008501092, -0.045928784, 0.15759373, 0
1111, 626687747, 0.6460433, 0.30341518, -0.62193674, 0.3221166, 0.0016101873, -0.028324679, 0.17411709, 0
1112, 626704414, 0.64602244, 0.30342072, -0.62197113, 0.32208696, 0.011325848, 0.0067664078, 0.17033291, 0
1113, 626721081, 0.6460132, 0.3033958, -0.6220174, 0.32203972, 0.011022765, 0.0116997855, 0.16794777, 0
1114, 626737748, 0.64603674, 0.30340168, -0.62197816, 0.3220626, 0.02238527, 0.00729211, 0.17242336, 0
1115, 626754415, 0.6460752, 0.30338195, -0.62194324, 0.3220715, 0.009004443, -0.032990735, 0.16420937, 0
1116, 626771082, 0.64607364, 0.30337498, -0.6219622, 0.32204458, -7.76484E-4, -0.032106742, 0.16291237, 0
1117, 626787749, 0.6460199, 0.30337992, -0.62203497, 0.3220074, 0.006865424, -0.020102309, 0.17586136, 0
1118, 626804416, 0.6459919, 0.30339128, -0.62206066, 0.32200295, 0.028257402, 0.01902721, 0.15771675, 0
1119, 626821083, 0.64604145, 0.30335563, -0.62202257, 0.32201082, 0.036422778, 0.033942677, 0.165946, 0
1120, 626837750, 0.64609975, 0.3033267, -0.62195617, 0.3220494, -0.0048417374, -0.02839464, 0.1643629, 0
1121, 626854417, 0.6461073, 0.30331314, -0.6219566, 0.32204646, -0.032103613, -0.05344955, 0.1680336, 0
1122, 626871084, 0.6460557, 0.30332592, -0.62203145, 0.32199302, -0.0055677076, -0.021326935, 0.15165806, 0
1123, 626887751, 0.6460425, 0.3033016, -0.6220998, 0.3219103, 0.03564808, 0.028142069, 0.16718674, 0
1124, 626904418, 0.64610547, 0.3032488, -0.622069, 0.32189316, 0.025858661, 0.020663327, 0.16854477, 0
1125, 626921085, 0.6461671, 0.30323595, -0.6219867, 0.32194066, -4.814469E-4, -0.024388617, 0.16830921, 0
1126, 626937752, 0.64618033, 0.30321088, -0.62199014, 0.32193094, -0.0036280623, -0.06945196, 0.16742039, 0
1127, 626954419, 0.6461327, 0.30321068, -0.6220663, 0.3218796, 0.007708515, -0.034508165, 0.16159344, 0
1128, 626971086, 0.64611036, 0.3032097, -0.62210566, 0.32184973, 0.022047319, 0.009768634, 0.18891716, 0
1129, 626987753, 0.6461454, 0.30318823, -0.622074, 0.32186058, 0.032353055, 0.028853958, 0.16942501, 0
1130, 627004420, 0.6462069, 0.3031387, -0.62202156, 0.3218848, 0.0035493858, -0.015896019, 0.16672707, 0
1131, 627021087, 0.64622575, 0.30312485, -0.6220008, 0.3219002, -0.010209178, -0.030016448, 0.16096401, 0
1132, 627037754, 0.6462158, 0.3030988, -0.6220494, 0.32185084, 0.0034814377, -0.012293659, 0.16383743, 0
1133, 627054421, 0.6461876, 0.3031102, -0.62208766, 0.32182282, 0.009412577, 0.003099007, 0.17469406, 0
1134, 627071088, 0.64621216, 0.30309954, -0.62207, 0.3218178, 0.047769636, 0.02028559, 0.17550945, 0
1135, 627087755, 0.6462708, 0.30305818, -0.6220315, 0.32181337, 0.017280234, 0.009945433, 0.1588955, 0
1136, 627104422, 0.6463221, 0.30301476, -0.6220012, 0.32180998, -0.011553384, -0.04535212, 0.17065716, 0
1137, 627121089, 0.6462843, 0.30300358, -0.6220821, 0.32173994, -0.007539986, -0.044555742, 0.13466358, 0
1138, 627137756, 0.64614844, 0.3030579, -0.62224036, 0.32165563, 0.05182997, 0.05167262, 0.15750885, 0
1139, 627154423, 0.6462845, 0.3029766, -0.62212235, 0.32168713, 0.08269577, 0.0696026, 0.16923332, 0
1140, 627171090, 0.6466105, 0.30281496, -0.6217931, 0.32182083, -0.036775034, -0.06083665, 0.16290951, 0
1141, 627187757, 0.6465099, 0.30284533, -0.6219046, 0.32177904, -0.1720196, -0.18316463, 0.15105438, 0
1142, 627204424, 0.646114, 0.3030222, -0.6223324, 0.3215801, 0.06061135, 0.020647904, 0.17588711, 0
1143, 627221091, 0.64605105, 0.30304462, -0.6224046, 0.32154605, 0.17871694, 0.17516263, 0.17905045, 0
1144, 627237758, 0.64644474, 0.30285254, -0.6220129, 0.32169354, 0.026603853, 0.06469806, 0.16225338, 0
1145, 627254425, 0.6467079, 0.3027226, -0.6217455, 0.3218037, -0.18683001, -0.21110106, 0.14160919, 0
1146, 627271092, 0.6463714, 0.30286875, -0.6221056, 0.32164648, -0.026511319, -0.11721556, 0.16765785, 0
1147, 627287759, 0.6461131, 0.3029929, -0.6223793, 0.3215193, 0.13307291, 0.077866994, 0.17195034, 0
1148, 627304426, 0.64624286, 0.30291617, -0.62226087, 0.32155973, 0.11546814, 0.1564955, 0.18245411, 0
1149, 627321093, 0.64653295, 0.3027686, -0.6219729, 0.3216726, -0.025338322, -0.02197043, 0.1660366, 0
1150, 627337760, 0.64663, 0.30271146, -0.62187517, 0.32172075, -0.090075724, -0.14055099, 0.15547943, 0
1151, 627354427, 0.646476, 0.3027668, -0.62206715, 0.32160658, -0.05782593, -0.0582553, 0.16975784, 0
1152, 627371094, 0.64625347, 0.30287474, -0.62229824, 0.3215053, 0.03031685, 0.015978942, 0.16831589, 0
1153, 627387761, 0.6462405, 0.30287847, -0.62231565, 0.32149395, 0.11733268, 0.06385184, 0.1710558, 0
1154, 627404428, 0.64644945, 0.3027742, -0.6221057, 0.32157865, 0.05494351, 0.025196392, 0.17100143, 0
1155, 627421095, 0.6466215, 0.3026738, -0.6219472, 0.32163334, -0.07625726, -0.04535726, 0.16397476, 0
1156, 627437762, 0.64655197, 0.3027134, -0.6220102, 0.32161424, -0.09439667, -0.08493872, 0.15835476, 0
1157, 627454429, 0.64635205, 0.30279115, -0.62223876, 0.3215008, 0.023458133, -0.055278778, 0.16751099, 0
1158, 627471096, 0.6462279, 0.30283225, -0.6223815, 0.32143533, 0.12430718, 0.056308277, 0.18314838, 0
1159, 627487763, 0.6463369, 0.30279446, -0.6222519, 0.3215026, 0.055471893, 0.088861376, 0.17487335, 0
1160, 627504430, 0.6465375, 0.3027074, -0.6220384, 0.32159442, -0.02693644, -0.024090227, 0.15131187, 0
1161, 627521097, 0.6465993, 0.3026659, -0.621985, 0.32161254, -0.059394546, -0.11736196, 0.1663847, 0
