sep=,
DeviceTag:,Xsens_1,,,,,,,,,,,,,,,,,
FirmwareVersion:,2.2.1,,,,,,,,,,,,,,,,,
AppVersion:,2023.0.0,,,,,,,,,,,,,,,,,
StartTime:,2023-07-05 00:40:26.000 +0200,,,,,,,,,,,,,,,,,
© Movella Technologies B. V. 2005-2023,,,,,,,,,,,,,,,,,,,

PacketCounter,SampleTimeFine,Quat_W,Quat_X,Quat_Y,Quat_Z,Acc_X,Acc_Y,Acc_Z,Gyr_X,Gyr_Y,Gyr_Z,Mag_X,Mag_Y,Mag_Z,Status,
0, 95303564, 0.79091924, -0.23351009, -0.41229266, -0.3872138, 0.0, 0.0, 0.0, 0.0, 0.0, 0.0, -1.055908203125, 0.408447265625, -0.165283203125, 0, 
1, 95320231, 0.7908967, -0.23440784, -0.41172433, -0.38732222, 8.201827049255371, -0.5405431389808655, 5.4857563972473145, -5.586475849151611, 1.2612910270690918, 0.5512813925743103, -1.0546875, 0.408935546875, -0.161376953125, 0, 
2, 95336898, 0.7909329, -0.2352853, -0.4107919, -0.38770637, 8.214630126953125, -0.48109564185142517, 5.461746692657471, -5.861762523651123, 1.1504523754119873, 0.4210408926010132, -1.056884765625, 0.409423828125, -0.1630859375, 0, 
3, 95353565, 0.7908328, -0.23585519, -0.41017953, -0.38821197, 8.220356941223145, -0.5011336207389832, 5.451320648193359, -5.273015022277832, 0.7968047261238098, 0.6147240996360779, -1.0576171875, 0.407958984375, -0.161376953125, 0, 
4, 95370232, 0.7905618, -0.23646092, -0.40974486, -0.38885394, 8.217514038085938, -0.546475887298584, 5.46060848236084, -4.830721378326416, 0.24941006302833557, 0.5283322930335999, -1.056884765625, 0.412841796875, -0.161865234375, 0, 
5, 95386899, 0.7904278, -0.23696817, -0.40947852, -0.38909814, 8.188962936401367, -0.5481720566749573, 5.492774963378906, -4.705578804016113, -0.26232531666755676, 0.41580304503440857, -1.0556640625, 0.409423828125, -0.1591796875, 0, 
6, 95403566, 0.7902196, -0.23755185, -0.40917656, -0.38948286, 8.211725234985352, -0.5289421081542969, 5.4885430335998535, -4.176804065704346, -0.752193808555603, 0.5602970123291016, -1.05810546875, 0.41015625, -0.1591796875, 0, 
7, 95420233, 0.7900176, -0.23807253, -0.40894458, -0.38981798, 8.210381507873535, -0.5274192690849304, 5.469443321228027, -3.677266836166382, -0.9985240697860718, 0.6716355681419373, -1.05517578125, 0.413330078125, -0.15966796875, 0, 
8, 95436900, 0.78991485, -0.23845705, -0.40884036, -0.38990065, 8.214706420898438, -0.5460391044616699, 5.482563495635986, -3.3776493072509766, -1.1921815872192383, 0.7656980752944946, -1.058349609375, 0.412841796875, -0.15625, 0, 
9, 95453567, 0.7897616, -0.23888843, -0.40868917, -0.39010587, 8.234619140625, -0.5304563641548157, 5.500942230224609, -3.0809004306793213, -1.036827802658081, 0.8714144229888916, -1.057861328125, 0.41064453125, -0.1591796875, 0, 
10, 95470234, 0.78965855, -0.23926896, -0.40851623, -0.3902618, 8.254270553588867, -0.5129921436309814, 5.492412090301514, -2.7431201934814453, -0.7039010524749756, 1.189344882965088, -1.05615234375, 0.412109375, -0.157470703125, 0, 
11, 95486901, 0.78960556, -0.23958918, -0.40836948, -0.39032638, 8.245863914489746, -0.5241203904151917, 5.509673118591309, -2.454720973968506, -0.5789750218391418, 1.4718657732009888, -1.057861328125, 0.412841796875, -0.156982421875, 0, 
12, 95503568, 0.78955805, -0.2399125, -0.40823504, -0.39036483, 8.224656105041504, -0.5238702893257141, 5.53262186050415, -2.246182680130005, -0.6948853731155396, 1.737379789352417, -1.056884765625, 0.4111328125, -0.156494140625, 0, 
13, 95520235, 0.78953826, -0.24021867, -0.4080678, -0.39039084, 8.23365592956543, -0.5077261328697205, 5.556941509246826, -1.927266001701355, -0.5208213925361633, 2.0712413787841797, -1.056640625, 0.41064453125, -0.1552734375, 0, 
14, 95536902, 0.78952175, -0.24052586, -0.40787762, -0.39043418, 8.254226684570312, -0.5327311158180237, 5.5277228355407715, -1.8027242422103882, -0.4729384779930115, 2.257061719894409, -1.056640625, 0.41259765625, -0.153564453125, 0, 
15, 95553569, 0.7895181, -0.24081935, -0.4076912, -0.3904551, 8.284133911132812, -0.5048210024833679, 5.489596366882324, -1.6714975833892822, -0.42150822281837463, 2.324871063232422, -1.057861328125, 0.412841796875, -0.15478515625, 0, 
16, 95570236, 0.7895044, -0.2410881, -0.40758273, -0.39043015, 8.256088256835938, -0.5461060404777527, 5.486411094665527, -1.3716366291046143, -0.7434597611427307, 2.3037021160125732, -1.05615234375, 0.414306640625, -0.157470703125, 0, 
17, 95586903, 0.7895518, -0.2412957, -0.4075247, -0.3902668, 8.252412796020508, -0.5518423914909363, 5.434040546417236, -1.516707181930542, -0.7547934055328369, 2.1781229972839355, -1.055419921875, 0.415283203125, -0.154296875, 0, 
18, 95603570, 0.78954375, -0.24155219, -0.4074943, -0.39015618, 8.265461921691895, -0.547417402267456, 5.3852763175964355, -1.6683088541030884, -1.000316858291626, 1.9664084911346436, -1.05615234375, 0.41650390625, -0.156982421875, 0, 
19, 95620237, 0.78948665, -0.24183555, -0.40750742, -0.39008233, 8.250652313232422, -0.5293678641319275, 5.445084095001221, -1.5856436491012573, -1.2496050596237183, 1.798133134841919, -1.0556640625, 0.41650390625, -0.156494140625, 0, 
20, 95636904, 0.7894437, -0.24207713, -0.40752667, -0.38999936, 8.233817100524902, -0.5473962426185608, 5.473853588104248, -1.3416190147399902, -1.1031646728515625, 1.730951189994812, -1.054443359375, 0.415283203125, -0.1552734375, 0, 
21, 95653571, 0.78937453, -0.24235933, -0.40752873, -0.38996184, 8.262627601623535, -0.5852606892585754, 5.496574878692627, -1.6294798851013184, -1.1384716033935547, 1.631394386291504, -1.05712890625, 0.41552734375, -0.154052734375, 0, 
22, 95670238, 0.7893331, -0.24259272, -0.40749198, -0.389939, 8.309635162353516, -0.565742552280426, 5.34196662902832, -1.5193198919296265, -0.702492356300354, 1.454474925994873, -1.054931640625, 0.414306640625, -0.153076171875, 0, 
23, 95686905, 0.7892216, -0.24286734, -0.40752366, -0.38996065, 8.28011417388916, -0.5623533725738525, 5.44650936126709, -1.4718081951141357, -1.1965869665145874, 1.2125244140625, -1.05615234375, 0.414306640625, -0.153076171875, 0, 
24, 95703572, 0.7890805, -0.24316753, -0.40756437, -0.39001644, 8.245868682861328, -0.5928841233253479, 5.4611592292785645, -1.7594645023345947, -1.3241381645202637, 0.9668858647346497, -1.05615234375, 0.41650390625, -0.153564453125, 0, 
25, 95720239, 0.7889598, -0.24344288, -0.40759847, -0.39005354, 8.274528503417969, -0.5731901526451111, 5.444619178771973, -1.8941487073898315, -1.1868796348571777, 0.7940897345542908, -1.051513671875, 0.4189453125, -0.151123046875, 0, 
26, 95736906, 0.78880465, -0.24376267, -0.4075903, -0.39017582, 8.295707702636719, -0.5478148460388184, 5.474515438079834, -2.167346477508545, -1.054295539855957, 0.6640284657478333, -1.05322265625, 0.41748046875, -0.148681640625, 0, 
27, 95753573, 0.7887255, -0.24396764, -0.40752771, -0.39027327, 8.284967422485352, -0.5448797941207886, 5.491002082824707, -1.963226079940796, -0.252041757106781, 0.4700762629508972, -1.054931640625, 0.41650390625, -0.150390625, 0, 
28, 95770240, 0.7885484, -0.24422586, -0.4076401, -0.3903523, 8.245763778686523, -0.5766831636428833, 5.456604957580566, -1.6450139284133911, -1.691321849822998, 0.33026936650276184, -1.054931640625, 0.415283203125, -0.152587890625, 0, 
29, 95786907, 0.78840864, -0.24449235, -0.40769988, -0.39040515, 8.255048751831055, -0.6048423647880554, 5.442047119140625, -2.061873435974121, -1.3509418964385986, 0.4247417747974396, -1.05712890625, 0.419189453125, -0.150146484375, 0, 
30, 95803574, 0.7882968, -0.24476449, -0.40773523, -0.3904235, 8.313117980957031, -0.5661123394966125, 5.373666286468506, -2.073040723800659, -1.2124156951904297, 0.6676398515701294, -1.05810546875, 0.418212890625, -0.148681640625, 0, 
31, 95820241, 0.7881576, -0.24509169, -0.40778133, -0.39045143, 8.301310539245605, -0.59123694896698, 5.39227294921875, -1.931402325630188, -1.4784033298492432, 0.9899116158485413, -1.055908203125, 0.4169921875, -0.149169921875, 0, 
32, 95836908, 0.787995, -0.24546286, -0.40791845, -0.39040273, 8.304957389831543, -0.5882164239883423, 5.376794815063477, -1.8896024227142334, -2.2521629333496094, 1.1992826461791992, -1.057373046875, 0.41748046875, -0.146484375, 0, 
33, 95853575, 0.7878335, -0.24579749, -0.4081227, -0.39030492, 8.280729293823242, -0.6257348656654358, 5.379916191101074, -1.2240947484970093, -2.5860114097595215, 1.3339284658432007, -1.05419921875, 0.4169921875, -0.147216796875, 0, 
34, 95870242, 0.7877438, -0.24601583, -0.40827346, -0.39019063, 8.330592155456543, -0.6324536204338074, 5.357507228851318, -0.6922856569290161, -1.7924407720565796, 1.2713056802749634, -1.057373046875, 0.41748046875, -0.144775390625, 0, 
35, 95886909, 0.7876221, -0.24628127, -0.40833429, -0.39020514, 8.332289695739746, -0.5950708985328674, 5.343942642211914, -1.2006720304489136, -1.3122538328170776, 1.0044596195220947, -1.055908203125, 0.4169921875, -0.14697265625, 0, 
36, 95903576, 0.78754056, -0.24646705, -0.40846908, -0.39011148, 8.373005867004395, -0.5249096155166626, 5.351326942443848, -0.7979379892349243, -1.497638463973999, 0.947163999080658, -1.05517578125, 0.41650390625, -0.144775390625, 0, 
37, 95920243, 0.787489, -0.24659425, -0.4084987, -0.3901044, 8.363325119018555, -0.5569405555725098, 5.404019832611084, -0.8045845627784729, -0.5306823253631592, 0.6995404362678528, -1.056396484375, 0.4169921875, -0.144775390625, 0, 
38, 95936910, 0.78747785, -0.24667948, -0.40846008, -0.39011344, 8.333869934082031, -0.5729273557662964, 5.377535820007324, -0.6870734691619873, 0.0889977216720581, 0.7569640278816223, -1.05810546875, 0.418212890625, -0.146484375, 0, 
39, 95953577, 0.7874756, -0.24678148, -0.4083797, -0.39013734, 8.32802677154541, -0.5560463070869446, 5.344602108001709, -0.7735674977302551, 0.3109637498855591, 0.9131311178207397, -1.05419921875, 0.414794921875, -0.1455078125, 0, 
40, 95970244, 0.78747517, -0.24686487, -0.40827653, -0.39019346, 8.35429859161377, -0.5843737125396729, 5.340921401977539, -0.6516894698143005, 0.5406776666641235, 0.8449821472167969, -1.056884765625, 0.41748046875, -0.144287109375, 0, 
41, 95986911, 0.78749186, -0.24694875, -0.40810144, -0.3902898, 8.349513053894043, -0.5738346576690674, 5.367128849029541, -0.8833435773849487, 1.054199457168579, 0.8234034776687622, -1.05859375, 0.41748046875, -0.145263671875, 0, 
42, 96003578, 0.787544, -0.24698438, -0.40786564, -0.39040855, 8.367793083190918, -0.5852338075637817, 5.302125930786133, -0.8201954364776611, 1.6591458320617676, 0.7425312995910645, -1.056884765625, 0.419677734375, -0.145263671875, 0, 
43, 96020245, 0.78758734, -0.2470586, -0.40767944, -0.3904688, 8.31965160369873, -0.6049432754516602, 5.304828643798828, -1.0855430364608765, 1.2136896848678589, 0.835415780544281, -1.056884765625, 0.41748046875, -0.14794921875, 0, 
44, 96036912, 0.7875898, -0.24714293, -0.40760365, -0.3904897, 8.260732650756836, -0.6048985719680786, 5.358575344085693, -0.6997004747390747, 0.41319045424461365, 0.8355438113212585, -1.056396484375, 0.419189453125, -0.144287109375, 0, 
45, 96053579, 0.7876347, -0.2472093, -0.4074685, -0.39049828, 8.27934741973877, -0.5702431201934814, 5.384241104125977, -0.7022233605384827, 0.8790470361709595, 1.025846242904663, -1.056396484375, 0.41748046875, -0.146484375, 0, 
46, 96070246, 0.78767335, -0.24730778, -0.40732786, -0.39050433, 8.318676948547363, -0.6003689169883728, 5.365671634674072, -0.8206436634063721, 0.7849332094192505, 1.173797845840454, -1.052978515625, 0.41748046875, -0.1455078125, 0, 
47, 96086913, 0.7876869, -0.24743466, -0.4072714, -0.39045554, 8.2892427444458, -0.6056106686592102, 5.341948986053467, -0.6864460110664368, 0.09565704315900803, 1.3024506568908691, -1.05517578125, 0.41845703125, -0.1474609375, 0, 
48, 96103580, 0.7876877, -0.24760133, -0.40722194, -0.39039987, 8.294391632080078, -0.5792716145515442, 5.396816730499268, -1.186431646347046, -0.06910306215286255, 1.1992442607879639, -1.0556640625, 0.41845703125, -0.145263671875, 0, 
49, 96120247, 0.78765684, -0.24780175, -0.40717268, -0.3903865, 8.30778694152832, -0.5626481175422668, 5.437247276306152, -1.2188060283660889, -0.21215000748634338, 1.1912147998809814, -1.05419921875, 0.419189453125, -0.146484375, 0, 
50, 96136914, 0.78762317, -0.24797197, -0.4071362, -0.39038438, 8.319826126098633, -0.5646324157714844, 5.420949935913086, -1.1667354106903076, -0.19213365018367767, 0.9495972394943237, -1.0537109375, 0.41748046875, -0.148681640625, 0, 
51, 96153581, 0.7875655, -0.24816184, -0.4070808, -0.3904379, 8.318696975708008, -0.5847067832946777, 5.410669326782227, -1.3330641984939575, -0.13987095654010773, 0.8025035262107849, -1.057373046875, 0.415771484375, -0.142578125, 0, 
52, 96170248, 0.78743666, -0.24842453, -0.40697363, -0.39064223, 8.298981666564941, -0.567193865776062, 5.412848949432373, -1.4820404052734375, -0.08420175313949585, 0.6923176646232605, -1.0546875, 0.420166015625, -0.146484375, 0, 
53, 96186915, 0.78738236, -0.24860314, -0.40689746, -0.3907174, 8.31723403930664, -0.5735926032066345, 5.426133155822754, -1.6188764572143555, 0.05632873252034187, 0.5516271591186523, -1.05419921875, 0.4169921875, -0.147216796875, 0, 
54, 96203582, 0.7873137, -0.2488015, -0.40678373, -0.39084795, 8.296910285949707, -0.5694438219070435, 5.420140743255615, -1.699377179145813, 0.22616656124591827, 0.5367846488952637, -1.0546875, 0.420654296875, -0.144775390625, 0, 
55, 96220249, 0.78726244, -0.2489802, -0.40668705, -0.39093816, 8.31546401977539, -0.5873550176620483, 5.417938709259033, -1.7473622560501099, 0.18872077763080597, 0.5001711845397949, -1.056396484375, 0.415283203125, -0.14697265625, 0, 
56, 96236916, 0.7871724, -0.24920477, -0.40654904, -0.39111966, 8.309128761291504, -0.6049116253852844, 5.399460315704346, -1.8490575551986694, 0.27937692403793335, 0.47827231884002686, -1.057861328125, 0.419189453125, -0.14404296875, 0, 
57, 96253583, 0.78711057, -0.24940115, -0.40644982, -0.39122212, 8.321290969848633, -0.6206785440444946, 5.389041900634766, -1.8971452713012695, 0.13668856024742126, 0.46018970012664795, -1.05419921875, 0.41796875, -0.144775390625, 0, 
58, 96270250, 0.7870253, -0.24959807, -0.4063358, -0.3913867, 8.33216381072998, -0.6163902878761292, 5.400362014770508, -1.7925684452056885, 0.22357963025569916, 0.32140734791755676, -1.0546875, 0.419189453125, -0.14990234375, 0, 
59, 96286917, 0.78698105, -0.24974479, -0.4062464, -0.3914747, 8.319026947021484, -0.6142565011978149, 5.401815414428711, -1.78001868724823, 0.263906866312027, 0.263112872838974, -1.05810546875, 0.4208984375, -0.146240234375, 0, 
60, 96303584, 0.78690964, -0.24991916, -0.4061479, -0.39160925, 8.303234100341797, -0.608542799949646, 5.409818172454834, -1.780556559562683, 0.20908288657665253, 0.25797751545906067, -1.055908203125, 0.41748046875, -0.14599609375, 0, 
61, 96320251, 0.78683025, -0.25008196, -0.40605292, -0.39176306, 8.288944244384766, -0.6200293898582458, 5.408874988555908, -1.6126266717910767, 0.2119002640247345, 0.2010916918516159, -1.0556640625, 0.419189453125, -0.145263671875, 0, 
62, 96336918, 0.7867746, -0.25021082, -0.40595797, -0.39189094, 8.292298316955566, -0.6118858456611633, 5.404205322265625, -1.557392954826355, 0.34271711111068726, 0.15191534161567688, -1.055908203125, 0.41796875, -0.14599609375, 0, 
63, 96353585, 0.78671604, -0.2503304, -0.40585837, -0.39203528, 8.318187713623047, -0.6082956790924072, 5.371111869812012, -1.4995979070663452, 0.4025740325450897, 0.0824664905667305, -1.05810546875, 0.416015625, -0.1435546875, 0, 
64, 96370252, 0.7865979, -0.25051185, -0.40572858, -0.39229068, 8.318708419799805, -0.5975377559661865, 5.360363960266113, -1.5337141752243042, 0.35321834683418274, 0.06595911085605621, -1.0546875, 0.41845703125, -0.14697265625, 0, 
65, 96386919, 0.78651357, -0.25064763, -0.40568146, -0.3924218, 8.328990936279297, -0.5829651951789856, 5.390445709228516, -1.6446937322616577, 0.003899533534422517, -0.08107699453830719, -1.056884765625, 0.41796875, -0.145751953125, 0, 
66, 96403586, 0.78640056, -0.2508092, -0.40565535, -0.39257202, 8.306488037109375, -0.5746996402740479, 5.388579845428467, -1.670831561088562, -0.24107955396175385, -0.1155644953250885, -1.05517578125, 0.41650390625, -0.1455078125, 0, 
67, 96420253, 0.7862585, -0.25099587, -0.40563083, -0.39276254, 8.30878734588623, -0.5759135484695435, 5.38584566116333, -1.7540087699890137, -0.3492291271686554, -0.20044498145580292, -1.05517578125, 0.41748046875, -0.14697265625, 0, 
68, 96436920, 0.78614986, -0.25114113, -0.40561226, -0.39290658, 8.310441017150879, -0.5620642304420471, 5.3726911544799805, -1.7512553930282593, -0.2177591621875763, -0.2550640404224396, -1.056884765625, 0.414794921875, -0.143798828125, 0, 
69, 96453587, 0.7860228, -0.25131646, -0.40550098, -0.39316306, 8.33664608001709, -0.5431604981422424, 5.403450012207031, -2.146818161010742, 0.3109189569950104, -0.4241335391998291, -1.0537109375, 0.415771484375, -0.147216796875, 0, 
70, 96470254, 0.7859165, -0.2514359, -0.40539193, -0.39341164, 8.34364128112793, -0.5240440368652344, 5.375720024108887, -1.9247814416885376, 0.5070993900299072, -0.5671035647392273, -1.057373046875, 0.415771484375, -0.142578125, 0, 
71, 96486921, 0.78571486, -0.25164247, -0.40542057, -0.3936529, 8.313949584960938, -0.5618802309036255, 5.379190444946289, -1.8906142711639404, -0.7750018835067749, -0.5870431065559387, -1.057373046875, 0.4169921875, -0.144287109375, 0, 
72, 96503588, 0.7855249, -0.251858, -0.40540808, -0.39390695, 8.318915367126465, -0.6000937819480896, 5.348042964935303, -2.169485330581665, -0.5125997066497803, -0.587183952331543, -1.059814453125, 0.414306640625, -0.145263671875, 0, 
73, 96520255, 0.7853187, -0.2521221, -0.40536982, -0.39418843, 8.32153606414795, -0.5577457547187805, 5.352094650268555, -2.2347464561462402, -0.5335893630981445, -0.3571307063102722, -1.0576171875, 0.4169921875, -0.146484375, 0, 
74, 96536922, 0.78518736, -0.25238073, -0.4053245, -0.3943309, 8.335257530212402, -0.560843825340271, 5.384486675262451, -2.7315430641174316, -0.4161423444747925, -0.06468487530946732, -1.057861328125, 0.416015625, -0.142578125, 0, 
75, 96553589, 0.78497046, -0.25274912, -0.40533212, -0.39451882, 8.326200485229492, -0.5931329727172852, 5.4072041511535645, -2.774354934692383, -1.2227630615234375, 0.12328032404184341, -1.06005859375, 0.413818359375, -0.140380859375, 0, 
76, 96570256, 0.7847384, -0.25309235, -0.40537152, -0.39472, 8.325765609741211, -0.6227946281433105, 5.38328218460083, -2.2584638595581055, -1.381472110748291, 0.1223454549908638, -1.057861328125, 0.414794921875, -0.140380859375, 0, 
77, 96586923, 0.78453845, -0.25336158, -0.4054049, -0.39491042, 8.326059341430664, -0.5954844951629639, 5.3347649574279785, -2.1981074810028076, -1.0407848358154297, -0.19269713759422302, -1.056884765625, 0.414794921875, -0.139892578125, 0, 
78, 96603590, 0.78435355, -0.25363016, -0.40537968, -0.39513108, 8.344330787658691, -0.5615975856781006, 5.301973342895508, -2.3846704959869385, -0.6275239586830139, -0.19358079135417938, -1.0595703125, 0.414794921875, -0.138671875, 0, 
79, 96620257, 0.7841726, -0.25388524, -0.40535864, -0.3953479, 8.374069213867188, -0.5567380785942078, 5.329596519470215, -2.2877392768859863, -0.6036145091056824, -0.20067550241947174, -1.056640625, 0.415283203125, -0.138671875, 0, 
80, 96636924, 0.7840388, -0.25408322, -0.40530834, -0.39553756, 8.352437973022461, -0.5799165964126587, 5.337483882904053, -2.062462568283081, -0.18599942326545715, -0.12863977253437042, -1.05859375, 0.41162109375, -0.140380859375, 0, 
81, 96653591, 0.7839057, -0.2542577, -0.40525714, -0.3957421, 8.324640274047852, -0.5679787993431091, 5.352413177490234, -1.8634775876998901, -0.09766122698783875, -0.18934187293052673, -1.05810546875, 0.409912109375, -0.1416015625, 0, 
82, 96670258, 0.78379977, -0.25442353, -0.4052189, -0.39588442, 8.303367614746094, -0.587814450263977, 5.326203346252441, -1.870789885520935, -0.14865611493587494, -0.020067550241947174, -1.061279296875, 0.413330078125, -0.137451171875, 0, 
83, 96686925, 0.7836811, -0.25461036, -0.4051634, -0.39605603, 8.319523811340332, -0.5742093920707703, 5.344722270965576, -1.7299458980560303, -0.1336342692375183, 0.14386016130447388, -1.056884765625, 0.410888671875, -0.139892578125, 0, 
84, 96703592, 0.78358537, -0.25480458, -0.40507337, -0.3962125, 8.352840423583984, -0.5583425760269165, 5.345153331756592, -1.9301087856292725, 0.08350379019975662, 0.280516654253006, -1.061279296875, 0.412109375, -0.13916015625, 0, 
85, 96720259, 0.7834909, -0.25500774, -0.40492174, -0.39642367, 8.381258964538574, -0.5833873748779297, 5.341464519500732, -1.9380360841751099, 0.4577053487300873, 0.3641805350780487, -1.05859375, 0.413818359375, -0.140380859375, 0, 
86, 96736926, 0.78344387, -0.25515434, -0.40476578, -0.39658117, 8.384532928466797, -0.5932997465133667, 5.315695762634277, -1.7888931035995483, 0.7137426137924194, 0.3983990550041199, -1.06005859375, 0.41162109375, -0.139892578125, 0, 
87, 96753593, 0.78340286, -0.25528458, -0.40465975, -0.39668673, 8.373791694641113, -0.6018538475036621, 5.375263690948486, -1.3925368785858154, 0.41759586334228516, 0.5770348906517029, -1.05859375, 0.41162109375, -0.140869140625, 0, 
88, 96770260, 0.78337115, -0.2554298, -0.4045223, -0.3967961, 8.367297172546387, -0.5588192939758301, 5.352053165435791, -1.5580333471298218, 0.5802749991416931, 0.6811378002166748, -1.06005859375, 0.41162109375, -0.135498046875, 0, 
89, 96786927, 0.78333044, -0.2556042, -0.4043945, -0.39689445, 8.320213317871094, -0.5888193845748901, 5.367444038391113, -1.4114904403686523, 0.3793817460536957, 0.9622243642807007, -1.061279296875, 0.412109375, -0.13818359375, 0, 
90, 96803594, 0.78330874, -0.25574946, -0.40430862, -0.3969312, 8.31713581085205, -0.6152102947235107, 5.341130256652832, -1.0692660808563232, 0.19091066718101501, 1.1110597848892212, -1.057861328125, 0.413818359375, -0.1376953125, 0, 
91, 96820261, 0.7833026, -0.2558814, -0.40419915, -0.3969697, 8.307658195495605, -0.600359320640564, 5.334489345550537, -1.2403717041015625, 0.42042607069015503, 1.0244117975234985, -1.057373046875, 0.412109375, -0.13818359375, 0, 
92, 96836928, 0.78330725, -0.25599185, -0.40408927, -0.3970012, 8.331327438354492, -0.5701869130134583, 5.362040042877197, -1.0394786596298218, 0.4950999319553375, 1.0702203512191772, -1.058349609375, 0.414306640625, -0.139892578125, 0, 
93, 96853595, 0.7833244, -0.25606117, -0.40400508, -0.39700833, 8.348121643066406, -0.5642874836921692, 5.357795238494873, -0.7667801976203918, 0.47181788086891174, 1.0163823366165161, -1.056884765625, 0.410400390625, -0.140380859375, 0, 
94, 96870262, 0.7833273, -0.2561148, -0.4039266, -0.39704788, 8.3489990234375, -0.565592348575592, 5.3618669509887695, -0.5636587142944336, 0.4804365932941437, 0.9004849195480347, -1.058349609375, 0.415283203125, -0.13818359375, 0, 
95, 96886929, 0.7833318, -0.25616223, -0.40387207, -0.3970639, 8.325902938842773, -0.5807027220726013, 5.353995323181152, -0.6109780669212341, 0.3545245826244354, 0.846224308013916, -1.05615234375, 0.41259765625, -0.138916015625, 0, 
96, 96903596, 0.78334194, -0.256208, -0.40378657, -0.39710128, 8.329483985900879, -0.5497919917106628, 5.358640670776367, -0.6366292238235474, 0.5689541101455688, 0.8695704340934753, -1.0595703125, 0.416015625, -0.1396484375, 0, 
97, 96920263, 0.78337795, -0.2562325, -0.4036848, -0.39711788, 8.320610046386719, -0.5727561712265015, 5.345118045806885, -0.5918198227882385, 0.7629575133323669, 0.9520432353019714, -1.0556640625, 0.414306640625, -0.139892578125, 0, 
98, 96936930, 0.78341293, -0.25625163, -0.40360156, -0.39712125, 8.31957721710205, -0.5651600360870361, 5.363985538482666, -0.5978772640228271, 0.6643358469009399, 0.9041475653648376, -1.057861328125, 0.41162109375, -0.139892578125, 0, 
99, 96953597, 0.7834253, -0.25629717, -0.40351027, -0.39715993, 8.334979057312012, -0.5624471306800842, 5.352865219116211, -0.6172788143157959, 0.6071298718452454, 0.9337300658226013, -1.0556640625, 0.411376953125, -0.139404296875, 0, 
100, 96970264, 0.783423, -0.25636232, -0.40342513, -0.3972089, 8.316447257995605, -0.5672322511672974, 5.338503837585449, -0.6676974296569824, 0.48981085419654846, 0.9542586803436279, -1.057861328125, 0.416015625, -0.14208984375, 0, 
101, 96986931, 0.78344285, -0.25641385, -0.40336102, -0.3972017, 8.325360298156738, -0.5894149541854858, 5.360359191894531, -0.6601802110671997, 0.41078290343284607, 1.0479116439819336, -1.057861328125, 0.415283203125, -0.142578125, 0, 
102, 97003598, 0.78346044, -0.25646558, -0.40328917, -0.39720652, 8.342262268066406, -0.5742449760437012, 5.348555088043213, -0.771185576915741, 0.47175392508506775, 0.9662455320358276, -1.057861328125, 0.412109375, -0.140869140625, 0, 
103, 97020265, 0.7834592, -0.2565373, -0.40319273, -0.39726067, 8.348583221435547, -0.5801368951797485, 5.341195106506348, -0.8088106513023376, 0.5560709238052368, 0.9572938084602356, -1.06005859375, 0.41748046875, -0.140869140625, 0, 
104, 97036932, 0.7834945, -0.25656855, -0.40312332, -0.39724144, 8.331649780273438, -0.5643423199653625, 5.377529144287109, -0.5932285189628601, 0.5312009453773499, 1.0808110237121582, -1.057861328125, 0.415771484375, -0.13818359375, 0, 
105, 97053599, 0.7835164, -0.25661656, -0.4030478, -0.39724356, 8.32246208190918, -0.5629743933677673, 5.360640048980713, -0.577130913734436, 0.49755874276161194, 1.1314729452133179, -1.05908203125, 0.413818359375, -0.140380859375, 0, 
106, 97070266, 0.78354263, -0.2566449, -0.4029618, -0.39726084, 8.323993682861328, -0.5700602531433105, 5.342442035675049, -0.48045578598976135, 0.6408489346504211, 1.0723716020584106, -1.058349609375, 0.415283203125, -0.13916015625, 0, 
107, 97086933, 0.78357506, -0.25665635, -0.40288162, -0.39727083, 8.325678825378418, -0.5671277046203613, 5.345263481140137, -0.43916818499565125, 0.6722373366355896, 1.0199296474456787, -1.0595703125, 0.415283203125, -0.140380859375, 0, 
108, 97103600, 0.7835878, -0.2567037, -0.40281972, -0.39727768, 8.322165489196777, -0.5586591362953186, 5.349995136260986, -0.588912844657898, 0.4157261252403259, 1.0757654905319214, -1.057373046875, 0.414306640625, -0.139404296875, 0, 
109, 97120267, 0.7835858, -0.25674158, -0.40276974, -0.39730817, 8.333292007446289, -0.5582271814346313, 5.35304069519043, -0.5109349489212036, 0.3715570271015167, 0.928389847278595, -1.057861328125, 0.4130859375, -0.1416015625, 0, 
110, 97136934, 0.78359085, -0.25676978, -0.40273154, -0.39731836, 8.320171356201172, -0.5461694598197937, 5.366662502288818, -0.4769597053527832, 0.33210065960884094, 0.9452301859855652, -1.05859375, 0.416015625, -0.14306640625, 0, 
111, 97153601, 0.78360695, -0.25678334, -0.4026994, -0.39731053, 8.354148864746094, -0.5565193295478821, 5.383449554443359, -0.5070161819458008, 0.3589811325073242, 0.9083479642868042, -1.056884765625, 0.414794921875, -0.139892578125, 0, 
112, 97170268, 0.7836244, -0.2567997, -0.4025941, -0.39737248, 8.346931457519531, -0.5562893152236938, 5.3736677169799805, -0.6986376047134399, 0.8517695665359497, 0.8247865438461304, -1.057861328125, 0.412109375, -0.140869140625, 0, 
113, 97186935, 0.7836649, -0.25679427, -0.40241525, -0.39747754, 8.337605476379395, -0.5319661498069763, 5.439443111419678, -0.7504009008407593, 1.4358799457550049, 0.8102385997772217, -1.056884765625, 0.415283203125, -0.142578125, 0, 
114, 97203602, 0.7836669, -0.25679332, -0.40239707, -0.39749226, 8.292194366455078, -0.5487815737724304, 5.370575904846191, -0.3922840654850006, 0.31618234515190125, 0.7805917859077454, -1.0595703125, 0.416015625, -0.14306640625, 0, 
115, 97220269, 0.7836635, -0.25683504, -0.40236357, -0.39750594, 8.326159477233887, -0.6050366759300232, 5.386958599090576, -0.7208182215690613, 0.2685043513774872, 0.8966942429542542, -1.05859375, 0.414794921875, -0.140869140625, 0, 
116, 97236936, 0.78366596, -0.2568944, -0.40229586, -0.39753124, 8.32583236694336, -0.592614471912384, 5.328858852386475, -0.7572267055511475, 0.4241015315055847, 1.0826168060302734, -1.056884765625, 0.412109375, -0.144287109375, 0, 
117, 97253603, 0.78366804, -0.2569871, -0.4022378, -0.397526, 8.308795928955078, -0.5534026622772217, 5.365363597869873, -0.8973025679588318, 0.23697510361671448, 1.2845473289489746, -1.05859375, 0.413818359375, -0.1435546875, 0, 
118, 97270270, 0.7836039, -0.25718763, -0.4022829, -0.39747715, 8.289205551147461, -0.5881180763244629, 5.430476665496826, -1.1619969606399536, -0.8760182857513428, 1.4871948957443237, -1.056396484375, 0.415771484375, -0.14208984375, 0, 
119, 97286937, 0.78353924, -0.25734618, -0.40242422, -0.3973591, 8.283308982849121, -0.5935556292533875, 5.409299850463867, -0.6858697533607483, -1.3855831623077393, 1.449173092842102, -1.0595703125, 0.4169921875, -0.142578125, 0, 
120, 97303604, 0.78348315, -0.25743866, -0.40252042, -0.39731225, 8.33923053741455, -0.6052153706550598, 5.334665298461914, -0.5293633341789246, -0.8257406949996948, 1.0659430027008057, -1.056396484375, 0.414306640625, -0.14208984375, 0, 
121, 97320271, 0.78343815, -0.25752053, -0.40252882, -0.3973395, 8.360542297363281, -0.5600082278251648, 5.315820693969727, -0.7796505689620972, -0.1712721288204193, 0.90912926197052, -1.055908203125, 0.41162109375, -0.1416015625, 0, 
122, 97336938, 0.7833953, -0.25758758, -0.40253088, -0.39737815, 8.355005264282227, -0.5363386869430542, 5.337237358093262, -0.6709118485450745, -0.07440489530563354, 0.8832859396934509, -1.056884765625, 0.415283203125, -0.1416015625, 0, 
123, 97353605, 0.78336316, -0.25761583, -0.40255064, -0.397403, 8.314159393310547, -0.559187650680542, 5.356022357940674, -0.5736860036849976, -0.03065839782357216, 0.7229760885238647, -1.0556640625, 0.415283203125, -0.139404296875, 0, 
124, 97370272, 0.78332126, -0.2576285, -0.4025685, -0.3974593, 8.284881591796875, -0.5576810240745544, 5.352484703063965, -0.597403347492218, 0.050322555005550385, 0.5016182661056519, -1.056396484375, 0.414306640625, -0.1416015625, 0, 
125, 97386939, 0.7832774, -0.257653, -0.40256765, -0.39753065, 8.293922424316406, -0.548937201499939, 5.331480026245117, -0.70771723985672, 0.13483163714408875, 0.5248746275901794, -1.058349609375, 0.41650390625, -0.1376953125, 0, 
126, 97403606, 0.78322893, -0.2577087, -0.40254724, -0.3976107, 8.338390350341797, -0.5583850145339966, 5.342113971710205, -0.8557971119880676, 0.1480477899312973, 0.6689716577529907, -1.056884765625, 0.414794921875, -0.140869140625, 0, 
127, 97420273, 0.78319687, -0.2577758, -0.40248168, -0.39769676, 8.35095500946045, -0.5555759072303772, 5.340970039367676, -1.187071681022644, 0.4346923232078552, 0.7028701305389404, -1.05615234375, 0.414794921875, -0.139892578125, 0, 
128, 97436940, 0.78316003, -0.2578601, -0.40238836, -0.39780927, 8.357404708862305, -0.5598986744880676, 5.397166728973389, -1.4131296873092651, 0.5701580047607422, 0.6720964312553406, -1.060302734375, 0.414306640625, -0.141845703125, 0, 
129, 97453607, 0.783131, -0.25792947, -0.40226746, -0.39794382, 8.357905387878418, -0.5681869387626648, 5.370706558227539, -1.4382811784744263, 0.8186652064323425, 0.6053625345230103, -1.06005859375, 0.41552734375, -0.140380859375, 0, 
130, 97470274, 0.78308696, -0.25800404, -0.40219516, -0.3980553, 8.345749855041504, -0.5985927581787109, 5.355882167816162, -1.285258173942566, 0.4603050649166107, 0.6372888088226318, -1.057861328125, 0.415283203125, -0.139892578125, 0, 
131, 97486941, 0.78303045, -0.2581091, -0.40210927, -0.3981851, 8.32436466217041, -0.560097873210907, 5.375792503356934, -1.6117560863494873, 0.45688575506210327, 0.5874080657958984, -1.05859375, 0.41650390625, -0.141357421875, 0, 
132, 97503608, 0.7829802, -0.25823414, -0.40203068, -0.398282, 8.309517860412598, -0.574186384677887, 5.370457649230957, -1.7209428548812866, 0.3332788348197937, 0.7573482990264893, -1.057861328125, 0.41650390625, -0.140380859375, 0, 
133, 97520275, 0.7829208, -0.25836408, -0.4019921, -0.39835364, 8.287282943725586, -0.6039718985557556, 5.355147838592529, -1.5482877492904663, 0.030165357515215874, 0.844175398349762, -1.05859375, 0.414306640625, -0.141357421875, 0, 
134, 97536942, 0.7828306, -0.25852567, -0.40196383, -0.39845473, 8.281476974487305, -0.5888693332672119, 5.3715643882751465, -1.7414073944091797, -0.15365058183670044, 0.7357695698738098, -1.060302734375, 0.413330078125, -0.1435546875, 0, 
135, 97553609, 0.7827332, -0.25869587, -0.4019118, -0.39858773, 8.318950653076172, -0.5670990347862244, 5.388399124145508, -1.8092682361602783, -0.028839897364377975, 0.7128846049308777, -1.058349609375, 0.41748046875, -0.140869140625, 0, 
136, 97570276, 0.7826862, -0.25879455, -0.4019017, -0.39862633, 8.331892967224121, -0.565828263759613, 5.398523807525635, -1.5263248682022095, -0.028839901089668274, 0.7307495474815369, -1.058837890625, 0.416015625, -0.138671875, 0, 
137, 97586943, 0.7826359, -0.25886866, -0.40186056, -0.3987184, 8.35177230834961, -0.5649669766426086, 5.365023612976074, -1.3079252243041992, 0.256082147359848, 0.6449982523918152, -1.056396484375, 0.414794921875, -0.14208984375, 0, 
138, 97603610, 0.7825706, -0.25894922, -0.4018294, -0.39882547, 8.33574104309082, -0.598158061504364, 5.348607540130615, -1.3290685415267944, 0.166220024228096, 0.5706445574760437, -1.05908203125, 0.416015625, -0.13916015625, 0, 
139, 97620277, 0.7825166, -0.2590149, -0.4017742, -0.3989444, 8.323848724365234, -0.5852208733558655, 5.385097503662109, -1.3190412521362305, 0.3888712227344513, 0.555225670337677, -1.0595703125, 0.413330078125, -0.13916015625, 0, 
140, 97636944, 0.78247833, -0.25907013, -0.40169, -0.3990685, 8.322073936462402, -0.5864015817642212, 5.380788326263428, -1.200671911239624, 0.611381471157074, 0.6857735514640808, -1.058349609375, 0.414306640625, -0.1376953125, 0, 
141, 97653611, 0.7824447, -0.2591247, -0.40158653, -0.3992033, 8.32753849029541, -0.583467423915863, 5.379871368408203, -1.1609468460083008, 0.7371143102645874, 0.7565031051635742, -1.056396484375, 0.4130859375, -0.1416015625, 0, 
142, 97670278, 0.78243643, -0.25916708, -0.40146843, -0.39931044, 8.341971397399902, -0.5824822187423706, 5.36432409286499, -1.2756661176681519, 0.8987433314323425, 0.8080231547355652, -1.06005859375, 0.414306640625, -0.138671875, 0, 
143, 97686945, 0.78242636, -0.25920582, -0.4013486, -0.39942577, 8.331635475158691, -0.5734089612960815, 5.367259502410889, -1.1909008026123047, 0.917337954044342, 0.8242486715316772, -1.05908203125, 0.413818359375, -0.14208984375, 0, 
144, 97703612, 0.78242743, -0.25923818, -0.40124917, -0.39950222, 8.313011169433594, -0.596807599067688, 5.378834247589111, -1.1729849576950073, 0.8080999851226807, 0.8909955024719238, -1.061279296875, 0.41650390625, -0.140869140625, 0, 
145, 97720279, 0.78243244, -0.25927573, -0.4011393, -0.39957833, 8.320526123046875, -0.5801212191581726, 5.3709917068481445, -1.2156298160552979, 0.8608620166778564, 0.9502502083778381, -1.05908203125, 0.414306640625, -0.140869140625, 0, 
146, 97736946, 0.7824402, -0.25929624, -0.4010156, -0.3996741, 8.340559005737305, -0.59449702501297, 5.378778457641602, -1.1408921480178833, 1.0169203281402588, 0.8860265612602234, -1.05908203125, 0.415283203125, -0.1435546875, 0, 
147, 97753613, 0.7824699, -0.25930148, -0.40085292, -0.39977577, 8.339469909667969, -0.6217215657234192, 5.380041122436523, -1.1012051105499268, 1.3377704620361328, 0.9793975949287415, -1.056640625, 0.415771484375, -0.138671875, 0, 
148, 97770280, 0.78250426, -0.25930345, -0.4006948, -0.39986584, 8.322860717773438, -0.616814911365509, 5.366230487823486, -1.1178662776947021, 1.3238242864608765, 0.987119734287262, -1.05859375, 0.416015625, -0.141357421875, 0, 
149, 97786947, 0.7825471, -0.2592949, -0.4005277, -0.39995492, 8.309789657592773, -0.5885596871376038, 5.386191368103027, -1.1570408344268799, 1.4331649541854858, 0.9524402022361755, -1.057861328125, 0.414794921875, -0.142578125, 0, 
150, 97803614, 0.78258175, -0.25927907, -0.40037552, -0.40004984, 8.314830780029297, -0.5864725112915039, 5.374484062194824, -1.0353292226791382, 1.3530868291854858, 0.9095005393028259, -1.058349609375, 0.41748046875, -0.140380859375, 0, 
151, 97820281, 0.78260446, -0.25925598, -0.40023732, -0.40015864, 8.313309669494629, -0.5783607959747314, 5.36049222946167, -0.9363747835159302, 1.282472848892212, 0.8193311095237732, -1.056884765625, 0.4130859375, -0.1416015625, 0, 
152, 97836948, 0.7826069, -0.2592646, -0.40012622, -0.4002591, 8.305072784423828, -0.6020887494087219, 5.361809253692627, -0.9860761165618896, 0.973750114440918, 0.8967070579528809, -1.057373046875, 0.413818359375, -0.14306640625, 0, 
153, 97853615, 0.7825958, -0.25930932, -0.40002766, -0.40035036, 8.306612968444824, -0.5714636445045471, 5.381746768951416, -1.2260288000106812, 0.7630087733268738, 0.9412219524383545, -1.05908203125, 0.413818359375, -0.140869140625, 0, 
154, 97870282, 0.78258574, -0.25934213, -0.39991328, -0.40046316, 8.31729793548584, -0.5688462853431702, 5.386843204498291, -1.1872128248214722, 0.9153531193733215, 0.8836830258369446, -1.05419921875, 0.415283203125, -0.143798828125, 0, 
155, 97886949, 0.7826114, -0.25934443, -0.39977968, -0.4005447, 8.32543659210205, -0.5706327557563782, 5.4235992431640625, -1.2801353931427002, 1.1845166683197021, 0.8802507519721985, -1.057373046875, 0.41650390625, -0.14306640625, 0, 
156, 97903616, 0.7826591, -0.25934446, -0.3995666, -0.40066418, 8.314532279968262, -0.5582054853439331, 5.444355487823486, -1.410158395767212, 1.7304389476776123, 0.9755685329437256, -1.056396484375, 0.415771484375, -0.14306640625, 0, 
157, 97920283, 0.78272873, -0.25929865, -0.39933527, -0.40078852, 8.297344207763672, -0.566279947757721, 5.439493179321289, -1.2267842292785645, 2.0260093212127686, 0.902405858039856, -1.057373046875, 0.4169921875, -0.14306640625, 0, 
158, 97936950, 0.78273976, -0.2593002, -0.39923123, -0.40086967, 8.259899139404297, -0.6065706014633179, 5.420399188995361, -1.1225661039352417, 0.9715472459793091, 0.88482266664505, -1.05908203125, 0.4169921875, -0.145263671875, 0, 
159, 97953617, 0.78276956, -0.2593007, -0.39910874, -0.40093303, 8.305291175842285, -0.6468517780303955, 5.386625289916992, -1.1861752271652222, 1.1020054817199707, 1.0027433633804321, -1.055908203125, 0.41748046875, -0.145263671875, 0, 
160, 97970284, 0.78281856, -0.25929204, -0.3989797, -0.40097138, 8.31778621673584, -0.6149368286132812, 5.329452037811279, -1.0998988151550293, 1.1786003112792969, 1.1494145393371582, -1.0576171875, 0.415283203125, -0.14697265625, 0, 
161, 97986951, 0.7828543, -0.2593288, -0.39885804, -0.40099886, 8.302902221679688, -0.6151591539382935, 5.4255876541137695, -1.2799818515777588, 0.958254337310791, 1.3153337240219116, -1.056396484375, 0.41650390625, -0.144287109375, 0, 
162, 98003618, 0.78282017, -0.25946444, -0.39887848, -0.40095752, 8.240949630737305, -0.6361756324768066, 5.466659069061279, -1.3630309104919434, -0.3930012583732605, 1.512500286102295, -1.056396484375, 0.41650390625, -0.144775390625, 0, 
163, 98020285, 0.78278357, -0.25951874, -0.39901653, -0.40085655, 8.244966506958008, -0.6550405025482178, 5.430898666381836, -0.38835257291793823, -0.9243111610412598, 1.4353421926498413, -1.055908203125, 0.4130859375, -0.14599609375, 0, 
164, 98036952, 0.7827312, -0.25953683, -0.39909506, -0.40086895, 8.308088302612305, -0.667949378490448, 5.359996795654297, -0.4822743237018585, -0.37183234095573425, 0.9335635900497437, -1.05859375, 0.41748046875, -0.142578125, 0, 
165, 98053619, 0.78269947, -0.25954145, -0.39913765, -0.40088513, 8.341703414916992, -0.5850957036018372, 5.371738433837891, -0.6157292723655701, -0.05919094756245613, 0.9123178720474243, -1.057373046875, 0.41748046875, -0.14306640625, 0, 
166, 98070286, 0.78269756, -0.2594966, -0.39916432, -0.40089118, 8.346957206726074, -0.5825514197349548, 5.389002799987793, -0.4138115644454956, 0.24153414368629456, 0.8842079639434814, -1.055908203125, 0.4130859375, -0.142578125, 0, 
167, 98086953, 0.7826876, -0.25943592, -0.39914957, -0.40096453, 8.327610969543457, -0.5876984000205994, 5.3980326652526855, -0.3331444263458252, 0.5743199586868286, 0.7437736988067627, -1.056884765625, 0.418701171875, -0.145263671875, 0, 
168, 98103620, 0.7827155, -0.25933683, -0.39913172, -0.40099218, 8.269927978515625, -0.5859944820404053, 5.391950607299805, -0.42426154017448425, 0.7736380100250244, 0.6838910579681396, -1.057373046875, 0.4169921875, -0.145751953125, 0, 
169, 98120287, 0.78273, -0.2592598, -0.39911523, -0.40103012, 8.268777847290039, -0.5648408532142639, 5.37339973449707, -0.4502456486225128, 0.6715073585510254, 0.7504456639289856, -1.060791015625, 0.416015625, -0.146240234375, 0, 
170, 98136954, 0.78272784, -0.25922292, -0.3990893, -0.40108398, 8.266051292419434, -0.5898540616035461, 5.357321739196777, -0.6066880226135254, 0.5784564018249512, 0.8604009747505188, -1.05419921875, 0.415771484375, -0.14599609375, 0, 
171, 98153621, 0.78272724, -0.25920257, -0.39905712, -0.40113032, 8.311003684997559, -0.5832737684249878, 5.414663791656494, -0.8520063757896423, 0.5775343775749207, 0.861207902431488, -1.057861328125, 0.415283203125, -0.141357421875, 0, 
172, 98170288, 0.78271127, -0.25920394, -0.39898568, -0.40123168, 8.324851989746094, -0.5709651708602905, 5.419703483581543, -1.024635910987854, 0.7583471536636353, 0.8142980933189392, -1.055908203125, 0.415283203125, -0.144287109375, 0, 
173, 98186955, 0.7827076, -0.25918677, -0.39890912, -0.40132606, 8.341063499450684, -0.5972126722335815, 5.387688159942627, -1.0671274662017822, 0.8777280449867249, 0.7408537268638611, -1.05419921875, 0.4169921875, -0.1455078125, 0, 
174, 98203622, 0.78272337, -0.259118, -0.39887094, -0.4013776, 8.3175687789917, -0.6048460602760315, 5.40612268447876, -0.8265987038612366, 0.8256701827049255, 0.6264930963516235, -1.05810546875, 0.4169921875, -0.145263671875, 0, 
175, 98220289, 0.7827245, -0.25907964, -0.3987693, -0.40150118, 8.311111450195312, -0.5633341073989868, 5.4266133308410645, -1.1439783573150635, 1.1454447507858276, 0.5639981031417847, -1.056884765625, 0.41796875, -0.1435546875, 0, 
176, 98236956, 0.7827351, -0.2590318, -0.39871326, -0.4015671, 8.286029815673828, -0.5972922444343567, 5.417397975921631, -1.0234578847885132, 0.8746928572654724, 0.6489936709403992, -1.05859375, 0.4169921875, -0.145263671875, 0, 
177, 98253623, 0.7827131, -0.25900948, -0.39867443, -0.40166304, 8.287239074707031, -0.6164056658744812, 5.397136211395264, -1.0236884355545044, 0.651273250579834, 0.5934270024299622, -1.05908203125, 0.416015625, -0.142578125, 0, 
178, 98270290, 0.78265965, -0.25901982, -0.3986381, -0.40179628, 8.260510444641113, -0.5915603041648865, 5.4089436531066895, -1.3135985136032104, 0.5228639841079712, 0.4222573935985565, -1.0576171875, 0.415283203125, -0.146484375, 0, 
179, 98286957, 0.7826259, -0.25900078, -0.3986083, -0.40190384, 8.27995491027832, -0.5931803584098816, 5.415531158447266, -1.14499032497406, 0.5904431939125061, 0.45105886459350586, -1.055908203125, 0.415771484375, -0.14697265625, 0, 
180, 98303624, 0.78259075, -0.25897518, -0.39859393, -0.40200314, 8.293127059936523, -0.583726704120636, 5.425267696380615, -1.0221259593963623, 0.5042691826820374, 0.47112637758255005, -1.056884765625, 0.415283203125, -0.14599609375, 0, 
181, 98320291, 0.7825625, -0.25892282, -0.39857033, -0.40211517, 8.320036888122559, -0.6002330780029297, 5.413756370544434, -0.94600510597229, 0.6713793277740479, 0.3567529022693634, -1.057373046875, 0.41650390625, -0.145263671875, 0, 
182, 98336958, 0.78256714, -0.25884655, -0.39853042, -0.40219477, 8.312161445617676, -0.6045556664466858, 5.444450378417969, -0.8848932385444641, 0.8760120272636414, 0.48012927174568176, -1.056884765625, 0.415283203125, -0.145263671875, 0, 
183, 98353625, 0.78257656, -0.25877547, -0.39846712, -0.40228495, 8.295673370361328, -0.5943081378936768, 5.444509029388428, -0.8695254921913147, 1.0061501264572144, 0.5814530253410339, -1.056884765625, 0.414306640625, -0.146484375, 0, 
184, 98370292, 0.7825944, -0.25870886, -0.39838877, -0.40237075, 8.270744323730469, -0.5952847599983215, 5.4373345375061035, -0.8317340016365051, 1.0808751583099365, 0.7225151062011719, -1.056640625, 0.4130859375, -0.149169921875, 0, 
185, 98386959, 0.78262526, -0.25864786, -0.3983215, -0.40241665, 8.278843879699707, -0.5844570994377136, 5.431671142578125, -0.8819348216056824, 0.9879522919654846, 0.8546893000602722, -1.0576171875, 0.413818359375, -0.145263671875, 0, 
186, 98403626, 0.7826267, -0.25860202, -0.39826784, -0.40249646, 8.270665168762207, -0.5794681906700134, 5.421916961669922, -0.7238532900810242, 0.8169362545013428, 0.8419470191001892, -1.05810546875, 0.4169921875, -0.149169921875, 0, 
187, 98420293, 0.78267145, -0.25852856, -0.3982591, -0.4024653, 8.271398544311523, -0.5805233716964722, 5.40636682510376, -0.6580542922019958, 0.6351885795593262, 1.0186618566513062, -1.055908203125, 0.415771484375, -0.147705078125, 0, 
188, 98436960, 0.7827121, -0.25845316, -0.39823183, -0.40246165, 8.290796279907227, -0.5710177421569824, 5.419287204742432, -0.5890024304389954, 0.7575660347938538, 1.0199296474456787, -1.0576171875, 0.413818359375, -0.149169921875, 0, 
189, 98453627, 0.78274304, -0.25839722, -0.39820683, -0.40246207, 8.301963806152344, -0.5818169116973877, 5.425971508026123, -0.5083479881286621, 0.65227210521698, 1.1645516157150269, -1.0546875, 0.4169921875, -0.147705078125, 0, 
190, 98470294, 0.7827826, -0.25832653, -0.39819005, -0.40244704, 8.295945167541504, -0.5897462964057922, 5.42616605758667, -0.5910642743110657, 0.6714432835578918, 1.0607050657272339, -1.0576171875, 0.4169921875, -0.1474609375, 0, 
191, 98486961, 0.78281355, -0.2582682, -0.3981718, -0.4024422, 8.298052787780762, -0.562736451625824, 5.412744998931885, -0.584865927696228, 0.6277864575386047, 1.1016085147857666, -1.0537109375, 0.415771484375, -0.1494140625, 0, 
192, 98503628, 0.7828502, -0.2581766, -0.39817086, -0.4024306, 8.283852577209473, -0.5697991847991943, 5.406538486480713, -0.6065727472305298, 0.6605835556983948, 0.8558675646781921, -1.055908203125, 0.4169921875, -0.1513671875, 0, 
193, 98520295, 0.78286904, -0.25810397, -0.3981601, -0.40245125, 8.253302574157715, -0.57293701171875, 5.414027214050293, -0.6918118000030518, 0.6543340086936951, 0.8140931725502014, -1.05712890625, 0.416015625, -0.148193359375, 0, 
194, 98536962, 0.78287256, -0.2580472, -0.39814037, -0.40250024, 8.274333953857422, -0.5702362060546875, 5.42357873916626, -0.7891913056373596, 0.6536296606063843, 0.7642893195152283, -1.056640625, 0.415283203125, -0.150390625, 0, 
195, 98553629, 0.7828711, -0.2579852, -0.39814425, -0.40253899, 8.288531303405762, -0.5591645240783691, 5.421783447265625, -0.8070945143699646, 0.524349570274353, 0.666884183883667, -1.0576171875, 0.416015625, -0.148681640625, 0, 
196, 98570296, 0.7828425, -0.25796267, -0.39815503, -0.40259853, 8.280281066894531, -0.5648137331008911, 5.426886081695557, -0.9870365262031555, 0.32845085859298706, 0.6600841283798218, -1.0537109375, 0.415283203125, -0.148681640625, 0, 
197, 98586963, 0.78279674, -0.25796282, -0.39819747, -0.40264526, 8.28452205657959, -0.5683510303497314, 5.419854640960693, -1.166223168373108, 0.041498977690935135, 0.5936447978019714, -1.0546875, 0.420166015625, -0.148681640625, 0, 
198, 98603630, 0.7827932, -0.2579403, -0.39825282, -0.40261182, 8.281824111938477, -0.5647359490394592, 5.427671432495117, -1.2451869249343872, 0.06392289698123932, 0.707365095615387, -1.055419921875, 0.41796875, -0.147705078125, 0, 
199, 98620297, 0.7827531, -0.25794625, -0.3983, -0.40263936, 8.286416053771973, -0.5762619972229004, 5.463717937469482, -1.2798283100128174, -0.0014983429573476315, 0.6239701509475708, -1.0546875, 0.4169921875, -0.14697265625, 0, 
200, 98636964, 0.78273433, -0.25793344, -0.39829096, -0.40269294, 8.30142879486084, -0.5638136267662048, 5.452851295471191, -1.3864922523498535, 0.4580383002758026, 0.5837582945823669, -1.05712890625, 0.416015625, -0.148681640625, 0, 
201, 98653631, 0.7827287, -0.25790566, -0.398225, -0.4027868, 8.30393123626709, -0.5651196837425232, 5.472726821899414, -1.3708045482635498, 0.8948885798454285, 0.5877154469490051, -1.056396484375, 0.418701171875, -0.1474609375, 0, 
202, 98670298, 0.7827123, -0.2578555, -0.39824986, -0.40282652, 8.267909049987793, -0.5656110644340515, 5.40762996673584, -1.1122442483901978, 0.36553800106048584, 0.4706653654575348, -1.0576171875, 0.414306640625, -0.145263671875, 0, 
203, 98686965, 0.78263444, -0.2578948, -0.3982834, -0.40291944, 8.254535675048828, -0.618904709815979, 5.4658403396606445, -1.4067645072937012, -0.043682459741830826, 0.5266930460929871, -1.05810546875, 0.416015625, -0.1474609375, 0, 
204, 98703632, 0.7825802, -0.25794324, -0.39828798, -0.40298936, 8.299930572509766, -0.5930154919624329, 5.360456466674805, -1.5852981805801392, 0.12328032404184341, 0.6886935234069824, -1.0576171875, 0.415283203125, -0.149658203125, 0, 
205, 98720299, 0.782549, -0.25796756, -0.3982942, -0.40302828, 8.28679084777832, -0.5350077748298645, 5.45405912399292, -1.4526113271713257, 0.2061886340379715, 0.768656313419342, -1.059326171875, 0.41650390625, -0.149169921875, 0, 
206, 98736966, 0.78247124, -0.25808018, -0.3984192, -0.40298337, 8.272067070007324, -0.5844690799713135, 5.470885753631592, -1.5477497577667236, -0.9443529844284058, 1.06413733959198, -1.055419921875, 0.41650390625, -0.149169921875, 0, 
207, 98753633, 0.78236145, -0.25822708, -0.3986777, -0.40284693, 8.272234916687012, -0.6000016927719116, 5.430333137512207, -1.36058509349823, -1.990311622619629, 1.1999614238739014, -1.056884765625, 0.414794921875, -0.146484375, 0, 
208, 98770300, 0.7822652, -0.2582886, -0.39888188, -0.4027923, 8.295731544494629, -0.6305310726165771, 5.381101131439209, -0.8141124248504639, -1.3235361576080322, 0.953592836856842, -1.056396484375, 0.415283203125, -0.146484375, 0, 
209, 98786967, 0.78218675, -0.25833684, -0.39900476, -0.40279168, 8.325560569763184, -0.566135585308075, 5.358834743499756, -1.263615369796753, -0.684563398361206, 0.7010515928268433, -1.05810546875, 0.415283203125, -0.1435546875, 0, 
210, 98803634, 0.7820896, -0.25839198, -0.39916372, -0.4027876, 8.333891868591309, -0.5487791299819946, 5.387071132659912, -1.0523617267608643, -0.9696327447891235, 0.7421215772628784, -1.056884765625, 0.4169921875, -0.14697265625, 0, 
211, 98820301, 0.78202116, -0.25840306, -0.39932084, -0.4027576, 8.3339262008667, -0.5681697130203247, 5.4075927734375, -0.9489120841026306, -0.7756550312042236, 0.679946780204773, -1.0556640625, 0.41796875, -0.144287109375, 0, 
212, 98836968, 0.7820081, -0.25835526, -0.39946023, -0.4026754, 8.308066368103027, -0.5785859823226929, 5.394659042358398, -0.917933464050293, -0.4101617634296417, 0.67510586977005, -1.056396484375, 0.415771484375, -0.14697265625, 0, 
213, 98853635, 0.7819727, -0.2583424, -0.3995659, -0.40264758, 8.313840866088867, -0.5896037817001343, 5.367274284362793, -1.0113813877105713, -0.3265107274055481, 0.726779580116272, -1.05712890625, 0.415283203125, -0.148193359375, 0, 
214, 98870302, 0.7819248, -0.2583589, -0.3996618, -0.40263498, 8.319775581359863, -0.5740604996681213, 5.35981559753418, -1.1310824155807495, -0.3734331727027893, 0.7946276068687439, -1.05859375, 0.414306640625, -0.14794921875, 0, 
215, 98886969, 0.7818766, -0.25839108, -0.39972165, -0.40264842, 8.325703620910645, -0.5716562867164612, 5.39710807800293, -1.2279624938964844, -0.19058412313461304, 0.8688404560089111, -1.055908203125, 0.418701171875, -0.1474609375, 0, 
216, 98903636, 0.781843, -0.25841814, -0.39977702, -0.4026414, 8.342093467712402, -0.5571712851524353, 5.419580459594727, -1.399247169494629, -0.12007232755422592, 0.8366708159446716, -1.052490234375, 0.415771484375, -0.142333984375, 0, 
217, 98920303, 0.7818218, -0.25843042, -0.39982304, -0.40262902, 8.3402099609375, -0.5809239149093628, 5.411906719207764, -1.3929082155227661, 0.003246409585699439, 0.8283724188804626, -1.056396484375, 0.4169921875, -0.14599609375, 0, 
218, 98936970, 0.78181213, -0.25840873, -0.39986682, -0.40261823, 8.339977264404297, -0.5895117521286011, 5.377495765686035, -1.2737195491790771, 0.15241476893424988, 0.7143574357032776, -1.05859375, 0.418212890625, -0.145751953125, 0, 
219, 98953637, 0.78178215, -0.25840297, -0.39992797, -0.40261915, 8.320725440979004, -0.60135418176651, 5.4177422523498535, -1.3865691423416138, -0.017903277650475502, 0.6058235764503479, -1.05517578125, 0.41650390625, -0.146484375, 0, 
220, 98970304, 0.7817532, -0.25842172, -0.39995414, -0.4026374, 8.330066680908203, -0.5864165425300598, 5.374404430389404, -1.6024458408355713, 0.12996524572372437, 0.6845698952674866, -1.0595703125, 0.418212890625, -0.145263671875, 0, 
221, 98986971, 0.78171366, -0.25844902, -0.4000368, -0.40261436, 8.293427467346191, -0.6233395934104919, 5.395244598388672, -1.296783685684204, -0.3081335425376892, 0.8694487810134888, -1.0546875, 0.414794921875, -0.144287109375, 0, 
222, 99003638, 0.7816673, -0.25849047, -0.4001228, -0.4025928, 8.28024673461914, -0.6284769773483276, 5.357203960418701, -1.5504518747329712, -0.36408448219299316, 0.7629318237304688, -1.05859375, 0.416015625, -0.1435546875, 0, 
223, 99020305, 0.7816131, -0.25855663, -0.40018553, -0.40259296, 8.292580604553223, -0.6070377230644226, 5.400071620941162, -1.6185816526412964, -0.30972158908843994, 0.866087019443512, -1.055908203125, 0.4169921875, -0.144775390625, 0, 
224, 99036972, 0.781594, -0.25857523, -0.40028495, -0.40251946, 8.325591087341309, -0.5887783169746399, 5.369278907775879, -1.2910208702087402, -0.3819877803325653, 0.9694470763206482, -1.057373046875, 0.4169921875, -0.144775390625, 0, 
225, 99053639, 0.7816028, -0.25856227, -0.40037578, -0.40242007, 8.334352493286133, -0.6056730151176453, 5.376461029052734, -1.1317483186721802, -0.20500406622886658, 1.0459010601043701, -1.059814453125, 0.414794921875, -0.145751953125, 0, 
226, 99070306, 0.7815671, -0.2585807, -0.4004419, -0.40241182, 8.353507995605469, -0.598716676235199, 5.362366199493408, -1.132081389427185, -0.17430724203586578, 0.934908390045166, -1.05908203125, 0.41650390625, -0.144775390625, 0, 
227, 99086973, 0.7815849, -0.25855288, -0.400512, -0.4023253, 8.332745552062988, -0.5920094847679138, 5.384852886199951, -1.0055032968521118, -0.012960026040673256, 1.0811185836791992, -1.05419921875, 0.41748046875, -0.144287109375, 0, 
228, 99103640, 0.781641, -0.25848392, -0.40056834, -0.40220484, 8.315122604370117, -0.6063750982284546, 5.4041242599487305, -0.881755530834198, 0.24227695167064667, 1.1349307298660278, -1.0556640625, 0.415771484375, -0.1416015625, 0, 
229, 99120307, 0.7816766, -0.25843555, -0.4005861, -0.40214872, 8.293195724487305, -0.5965192914009094, 5.3966498374938965, -0.830991268157959, 0.40238192677497864, 1.174848198890686, -1.054443359375, 0.4189453125, -0.14111328125, 0, 
230, 99136974, 0.7817429, -0.25836566, -0.40060973, -0.4020411, 8.32169246673584, -0.6058765053749084, 5.360577583312988, -0.8153035640716553, 0.45443975925445557, 1.2619569301605225, -1.052490234375, 0.41845703125, -0.144287109375, 0, 
231, 99153641, 0.78182435, -0.25827864, -0.40066168, -0.4018868, 8.328927040100098, -0.595023512840271, 5.370321750640869, -0.7276567816734314, 0.33281779289245605, 1.3017462491989136, -1.05419921875, 0.414794921875, -0.14208984375, 0, 
232, 99170308, 0.78188086, -0.25820944, -0.40070364, -0.4017796, 8.310670852661133, -0.5988200902938843, 5.384616374969482, -0.5929723978042603, 0.3105347454547882, 1.3317513465881348, -1.0556640625, 0.41748046875, -0.143798828125, 0, 
233, 99186975, 0.78194517, -0.25813308, -0.40075034, -0.401657, 8.318299293518066, -0.6186746954917908, 5.381102085113525, -0.6019753217697144, 0.311674565076828, 1.330125093460083, -1.0546875, 0.416259765625, -0.14208984375, 0, 
234, 99203642, 0.7819977, -0.25806406, -0.40079075, -0.40155876, 8.315865516662598, -0.619544267654419, 5.386668682098389, -0.5321678519248962, 0.3151194453239441, 1.338897466659546, -1.0556640625, 0.41748046875, -0.144775390625, 0, 
235, 99220309, 0.7820758, -0.2579645, -0.4008388, -0.40142274, 8.331538200378418, -0.6242287755012512, 5.384873390197754, -0.4848868250846863, 0.39079219102859497, 1.325566053390503, -1.05810546875, 0.415283203125, -0.144775390625, 0, 
236, 99236976, 0.7821297, -0.25787762, -0.4008795, -0.4013329, 8.323871612548828, -0.6077672839164734, 5.372504234313965, -0.3719348609447479, 0.37486106157302856, 1.3024506568908691, -1.057861328125, 0.418701171875, -0.144775390625, 0, 
237, 99253643, 0.78222346, -0.25775936, -0.400939, -0.4011667, 8.305706024169922, -0.6070651412010193, 5.372984409332275, -0.3451567590236664, 0.38210946321487427, 1.391595721244812, -1.0556640625, 0.4169921875, -0.14306640625, 0, 
238, 99270310, 0.7823022, -0.2576371, -0.40097106, -0.40105936, 8.318632125854492, -0.6127510666847229, 5.369050979614258, -0.2808496057987213, 0.5741854906082153, 1.270761251449585, -1.0556640625, 0.41650390625, -0.143798828125, 0, 
239, 99286977, 0.78237134, -0.25752023, -0.40098488, -0.40098572, 8.3057279586792, -0.592987596988678, 5.393729209899902, -0.3390609323978424, 0.6795497536659241, 1.196747064590454, -1.0546875, 0.41748046875, -0.143310546875, 0, 
240, 99303644, 0.7824535, -0.2573928, -0.40100804, -0.400884, 8.310770034790039, -0.5855379700660706, 5.374378204345703, -0.42613130807876587, 0.6705980896949768, 1.1613374948501587, -1.05517578125, 0.41796875, -0.1455078125, 0, 
241, 99320311, 0.7825214, -0.25729224, -0.4010728, -0.40075117, 8.305469512939453, -0.5827915668487549, 5.378027439117432, -0.6000543236732483, 0.2989834249019623, 1.1562020778656006, -1.0546875, 0.419189453125, -0.146484375, 0, 
242, 99336978, 0.78256315, -0.2572165, -0.4011583, -0.4006327, 8.295182228088379, -0.5930395126342773, 5.402487754821777, -0.6656228303909302, 0.06213000789284706, 1.1024028062820435, -1.057373046875, 0.419677734375, -0.144287109375, 0, 
243, 99353645, 0.78260124, -0.25714028, -0.40125048, -0.400515, 8.313894271850586, -0.5993201732635498, 5.417228698730469, -0.748191773891449, 0.027828199788928032, 1.0132255554199219, -1.056884765625, 0.418701171875, -0.14306640625, 0, 
244, 99370312, 0.78262895, -0.25706175, -0.40131992, -0.40044162, 8.323012351989746, -0.6142603158950806, 5.413636684417725, -0.7266578674316406, 0.18604424595832825, 0.9209495186805725, -1.057373046875, 0.418701171875, -0.144775390625, 0, 
245, 99386979, 0.7826733, -0.25697085, -0.40135014, -0.40038314, 8.31177806854248, -0.6104846596717834, 5.416575908660889, -0.8973281979560852, 0.5125421285629272, 0.8431892991065979, -1.056884765625, 0.419677734375, -0.144287109375, 0, 
246, 99403646, 0.78273845, -0.25687587, -0.40131754, -0.40034953, 8.305597305297852, -0.5813900232315063, 5.449995994567871, -1.0634393692016602, 0.9614815711975098, 0.8774207234382629, -1.055908203125, 0.41796875, -0.14599609375, 0, 
247, 99420313, 0.7827919, -0.2567547, -0.40139377, -0.40024588, 8.2701416015625, -0.58509761095047, 5.38835334777832, -0.6406248211860657, 0.3077045679092407, 0.8321757912635803, -1.053466796875, 0.419677734375, -0.14599609375, 0, 
248, 99436980, 0.7828005, -0.25668716, -0.4015386, -0.4001273, 8.293212890625, -0.6277865767478943, 5.405719757080078, -0.9512493014335632, -0.34343430399894714, 0.7036193013191223, -1.053466796875, 0.420166015625, -0.144775390625, 0, 
249, 99453647, 0.782838, -0.25661302, -0.401634, -0.40000573, 8.305736541748047, -0.6363482475280762, 5.322886943817139, -1.0358288288116455, 0.018485967069864273, 0.8392834067344666, -1.0556640625, 0.41796875, -0.144775390625, 0, 
250, 99470314, 0.782864, -0.25658613, -0.40166628, -0.3999397, 8.333218574523926, -0.5798671245574951, 5.377375602722168, -1.1600632667541504, 0.2508699893951416, 1.0610765218734741, -1.05615234375, 0.41845703125, -0.14306640625, 0, 
251, 99486981, 0.7828151, -0.25667852, -0.4017881, -0.39985374, 8.287186622619629, -0.62345951795578, 5.462986946105957, -1.5666521787643433, -0.8052121996879578, 1.177435040473938, -1.056884765625, 0.4169921875, -0.1416015625, 0, 
252, 99503648, 0.7827191, -0.25680685, -0.40203276, -0.39971337, 8.263177871704102, -0.6247063875198364, 5.422550201416016, -1.1888903379440308, -1.8110997676849365, 1.3313034772872925, -1.0556640625, 0.419677734375, -0.145263671875, 0, 
253, 99520315, 0.78269285, -0.25678733, -0.4022876, -0.39952105, 8.28429889678955, -0.6649237275123596, 5.393553733825684, -0.6652386784553528, -1.3071441650390625, 1.0042548179626465, -1.057373046875, 0.41748046875, -0.142578125, 0, 
254, 99536982, 0.78266823, -0.256738, -0.40241942, -0.39946812, 8.334829330444336, -0.6164813041687012, 5.366730213165283, -0.7676637768745422, -0.35715627670288086, 0.6902814507484436, -1.0556640625, 0.420654296875, -0.144775390625, 0, 
255, 99553649, 0.78271407, -0.2566071, -0.4025794, -0.39930096, 8.349864959716797, -0.5780176520347595, 5.338057518005371, -0.7313833236694336, -0.20283976197242737, 0.6202946901321411, -1.053955078125, 0.420654296875, -0.144775390625, 0, 
256, 99570316, 0.7827953, -0.25639158, -0.4026626, -0.39919633, 8.337906837463379, -0.5591166615486145, 5.381830215454102, -0.2899870276451111, 0.622266948223114, 0.48471397161483765, -1.057861328125, 0.419677734375, -0.14404296875, 0, 
257, 99586983, 0.78281987, -0.2562764, -0.40277803, -0.39910585, 8.302884101867676, -0.593634843826294, 5.367877960205078, -0.7111109495162964, 0.02657957747578621, 0.5851541757583618, -1.05615234375, 0.42138671875, -0.14208984375, 0, 
258, 99603650, 0.7828507, -0.25616676, -0.4029127, -0.39897993, 8.307833671569824, -0.5771979093551636, 5.353921890258789, -0.8729447722434998, -0.11039073020219803, 0.583028256893158, -1.05615234375, 0.420654296875, -0.141357421875, 0, 
259, 99620317, 0.78286636, -0.25609416, -0.40302557, -0.39888147, 8.295146942138672, -0.590820848941803, 5.369735240936279, -0.9445067644119263, -0.11462964117527008, 0.7261008620262146, -1.05517578125, 0.419189453125, -0.14208984375, 0, 
260, 99636984, 0.7828701, -0.2560328, -0.40312755, -0.39881033, 8.31342601776123, -0.5779250860214233, 5.3914875984191895, -1.0888983011245728, -0.07622339576482773, 0.6237909197807312, -1.05517578125, 0.41845703125, -0.143798828125, 0, 
261, 99653651, 0.78290784, -0.25594723, -0.40321445, -0.39870337, 8.329397201538086, -0.6044635772705078, 5.376281261444092, -1.1542234420776367, 0.12973472476005554, 0.6659877896308899, -1.0556640625, 0.41796875, -0.142578125, 0, 
262, 99670318, 0.78291935, -0.2559239, -0.40325445, -0.39865535, 8.325249671936035, -0.6168209910392761, 5.433530807495117, -1.647037386894226, 0.22731910645961761, 0.6468679308891296, -1.05517578125, 0.41748046875, -0.142578125, 0, 
263, 99686985, 0.7829178, -0.25587124, -0.40329713, -0.39864895, 8.32848072052002, -0.6273713111877441, 5.374292850494385, -1.175213098526001, 0.2862411439418793, 0.5885606408119202, -1.0556640625, 0.420166015625, -0.144287109375, 0, 
264, 99703652, 0.78291947, -0.25582314, -0.40342426, -0.39854795, 8.320093154907227, -0.6269460320472717, 5.395644664764404, -1.0493203401565552, -0.3070642650127411, 0.7433446049690247, -1.056640625, 0.421875, -0.142578125, 0, 
265, 99720319, 0.7829579, -0.25575858, -0.40351027, -0.39842692, 8.306465148925781, -0.5896193385124207, 5.374310493469238, -1.3154106140136719, 0.05856344476342201, 0.7419230937957764, -1.0556640625, 0.41796875, -0.14306640625, 0, 
266, 99736986, 0.78298515, -0.2557306, -0.4035988, -0.3983018, 8.313142776489258, -0.6262392997741699, 5.416716575622559, -1.0625426769256592, -0.13500453531742096, 1.1208820343017578, -1.0556640625, 0.419189453125, -0.14208984375, 0, 
267, 99753653, 0.78301984, -0.25570443, -0.40369153, -0.39815646, 8.28714370727539, -0.6415514945983887, 5.370443344116211, -1.1482043266296387, -0.16394688189029694, 1.145150065422058, -1.05615234375, 0.41845703125, -0.142578125, 0, 
268, 99770320, 0.7830197, -0.25569475, -0.403822, -0.39803037, 8.255048751831055, -0.5929921865463257, 5.376325607299805, -1.1925785541534424, -0.48201826214790344, 0.9582543969154358, -1.05517578125, 0.419677734375, -0.144287109375, 0, 
269, 99786987, 0.7830651, -0.25561306, -0.4040069, -0.39780605, 8.327552795410156, -0.5991584658622742, 5.412738800048828, -0.969799280166626, -0.564042866230011, 0.8837725520133972, -1.05419921875, 0.420166015625, -0.144775390625, 0, 
270, 99803654, 0.7830917, -0.2555315, -0.4041527, -0.39765754, 8.323948860168457, -0.5729292035102844, 5.382206439971924, -0.9648303985595703, -0.30780065059661865, 0.724051833152771, -1.0556640625, 0.4169921875, -0.139892578125, 0, 
271, 99820321, 0.7830696, -0.2554991, -0.40426278, -0.39761004, 8.336135864257812, -0.5941222310066223, 5.360264301300049, -0.937642514705658, -0.27729588747024536, 0.7364867329597473, -1.0556640625, 0.420654296875, -0.1416015625, 0, 
272, 99836988, 0.7831129, -0.2554059, -0.4043945, -0.39745072, 8.325772285461426, -0.5755571126937866, 5.369094371795654, -0.9874207973480225, -0.16322974860668182, 0.7529557347297668, -1.053955078125, 0.4189453125, -0.14111328125, 0, 
273, 99853655, 0.7831397, -0.25534588, -0.40447983, -0.39734957, 8.314334869384766, -0.5989595651626587, 5.373795986175537, -1.0194238424301147, 0.00980326160788536, 0.8695448040962219, -1.05615234375, 0.41796875, -0.1416015625, 0, 
274, 99870322, 0.7831588, -0.25529808, -0.4045219, -0.39730003, 8.30666446685791, -0.6020768284797668, 5.382989883422852, -1.1612799167633057, 0.258425772190094, 0.8056795001029968, -1.057861328125, 0.41748046875, -0.140380859375, 0, 
275, 99886989, 0.7831713, -0.2552632, -0.40454713, -0.39727217, 8.3170804977417, -0.6028389930725098, 5.39894437789917, -1.2568151950836182, 0.32519805431365967, 0.7980597615242004, -1.05859375, 0.418701171875, -0.1435546875, 0, 
276, 99903656, 0.783222, -0.25518826, -0.4045764, -0.39719066, 8.320901870727539, -0.6071672439575195, 5.391474723815918, -1.1208884716033936, 0.45072585344314575, 0.8704283237457275, -1.054443359375, 0.420654296875, -0.1416015625, 0, 
277, 99920323, 0.7833, -0.25508627, -0.4046366, -0.39704108, 8.322254180908203, -0.6090299487113953, 5.372221946716309, -1.1550559997558594, 0.3589555621147156, 0.8570969104766846, -1.0556640625, 0.421875, -0.1416015625, 0, 
278, 99936990, 0.783387, -0.2549792, -0.40468714, -0.39688638, 8.337506294250488, -0.6350489854812622, 5.363470077514648, -1.1109124422073364, 0.4386879503726959, 0.9199762344360352, -1.0556640625, 0.420654296875, -0.14306640625, 0, 
279, 99953657, 0.78347373, -0.2548683, -0.4047302, -0.39674255, 8.325713157653809, -0.6342754364013672, 5.387777328491211, -1.1525585651397705, 0.509391725063324, 0.8529477119445801, -1.056640625, 0.419677734375, -0.138671875, 0, 
280, 99970324, 0.7835273, -0.25480202, -0.40474772, -0.3966614, 8.322358131408691, -0.6205628514289856, 5.381404876708984, -1.1454384326934814, 0.4933966398239136, 0.9465749859809875, -1.057373046875, 0.418701171875, -0.142578125, 0, 
281, 99986991, 0.7835684, -0.25474468, -0.4047542, -0.39661053, 8.322484016418457, -0.6213891506195068, 5.38559627532959, -1.1179687976837158, 0.5263090133666992, 0.9288253784179688, -1.057373046875, 0.419189453125, -0.141357421875, 0, 
282, 100003658, 0.78361285, -0.2546909, -0.40475866, -0.39655268, 8.308633804321289, -0.600699782371521, 5.372516632080078, -1.208176612854004, 0.5309960246086121, 0.9285563230514526, -1.05615234375, 0.420166015625, -0.142578125, 0, 
283, 100020325, 0.78368175, -0.2545873, -0.40480337, -0.39643753, 8.301158905029297, -0.6090582013130188, 5.365309715270996, -0.9781233072280884, 0.44955408573150635, 0.8647230863571167, -1.0556640625, 0.420654296875, -0.145263671875, 0, 
284, 100036992, 0.7837686, -0.25444445, -0.40486658, -0.39629284, 8.31948471069336, -0.6066910028457642, 5.416141033172607, -0.8477420210838318, 0.47565987706184387, 0.7724982500076294, -1.05615234375, 0.421875, -0.141357421875, 0, 
285, 100053659, 0.7838582, -0.25429133, -0.40489057, -0.39618948, 8.32221794128418, -0.6155886650085449, 5.360598087310791, -0.7669594883918762, 0.7721269130706787, 0.75319904088974, -1.05517578125, 0.419189453125, -0.1416015625, 0, 
286, 100070326, 0.7839178, -0.25417048, -0.4049067, -0.39613235, 8.32322883605957, -0.6115797162055969, 5.363979816436768, -0.8897340297698975, 0.7010003924369812, 0.6893850564956665, -1.05615234375, 0.419189453125, -0.142578125, 0, 
287, 100086993, 0.7839707, -0.25407103, -0.4049326, -0.3960649, 8.323116302490234, -0.610712468624115, 5.386995792388916, -0.9952199459075928, 0.5569161772727966, 0.7456305623054504, -1.05615234375, 0.42236328125, -0.141357421875, 0, 
288, 100103660, 0.7840343, -0.2539455, -0.40496728, -0.39598414, 8.317084312438965, -0.6053853034973145, 5.396484851837158, -1.0025514364242554, 0.6057531833648682, 0.6103122234344482, -1.054443359375, 0.421875, -0.142578125, 0, 
289, 100120327, 0.7841243, -0.25379983, -0.4050067, -0.3958591, 8.318275451660156, -0.6056941747665405, 5.372326850891113, -0.9955143928527832, 0.6554609537124634, 0.6722756624221802, -1.060791015625, 0.4169921875, -0.14404296875, 0, 
290, 100136994, 0.78414005, -0.25372243, -0.40501508, -0.3958689, 8.32068920135498, -0.6078724265098572, 5.395084381103516, -1.0089867115020752, 0.5830539464950562, 0.5942082405090332, -1.0546875, 0.420166015625, -0.143310546875, 0, 
291, 100153661, 0.7842096, -0.2536127, -0.40500343, -0.39581338, 8.306568145751953, -0.5968743562698364, 5.398176670074463, -1.2670344114303589, 0.8701081871986389, 0.614314079284668, -1.0556640625, 0.420166015625, -0.14306640625, 0, 
292, 100170328, 0.78429097, -0.25347418, -0.40495875, -0.3957866, 8.30980110168457, -0.5932746529579163, 5.4196038246154785, -1.156567096710205, 1.1993083953857422, 0.5349788665771484, -1.05517578125, 0.41748046875, -0.144775390625, 0, 
293, 100186995, 0.78429973, -0.25338158, -0.40505084, -0.39573428, 8.270984649658203, -0.600755512714386, 5.391360759735107, -0.9655346274375916, 0.07916244864463806, 0.44205597043037415, -1.0546875, 0.420654296875, -0.144775390625, 0, 
294, 100203662, 0.7843497, -0.25327015, -0.40513304, -0.3956223, 8.319997787475586, -0.6451628804206848, 5.3987298011779785, -1.1202610731124878, 0.23269779980182648, 0.5383597612380981, -1.05517578125, 0.419677734375, -0.14697265625, 0, 
295, 100220329, 0.78442425, -0.25316024, -0.40515342, -0.39552394, 8.311957359313965, -0.626894474029541, 5.347744941711426, -1.1917332410812378, 0.6446908116340637, 0.7049446702003479, -1.0556640625, 0.419189453125, -0.14306640625, 0, 
296, 100236996, 0.7844703, -0.25312552, -0.40517807, -0.39542946, 8.32207202911377, -0.6140328645706177, 5.384675025939941, -1.4459010362625122, 0.32915523648262024, 0.9349212050437927, -1.05517578125, 0.420166015625, -0.14208984375, 0, 
297, 100253663, 0.7844449, -0.25320655, -0.40533227, -0.39526996, 8.263252258300781, -0.6456770300865173, 5.422748565673828, -1.7253612279891968, -0.9923768639564514, 1.1467894315719604, -1.056396484375, 0.419189453125, -0.144287109375, 0, 
298, 100270330, 0.78440493, -0.2532431, -0.4055749, -0.39507726, 8.274553298950195, -0.6465086936950684, 5.397270202636719, -1.0342919826507568, -1.461678385734558, 1.09935462474823, -1.05615234375, 0.41845703125, -0.142578125, 0, 
299, 100286997, 0.7843635, -0.25323424, -0.4057714, -0.39496344, 8.304765701293945, -0.6586868166923523, 5.350095272064209, -0.9089563488960266, -0.9778416752815247, 0.7648784518241882, -1.05517578125, 0.419677734375, -0.14306640625, 0, 
300, 100303664, 0.7843608, -0.25320473, -0.40592673, -0.39482778, 8.348490715026855, -0.6071661114692688, 5.325648307800293, -1.2096110582351685, -0.5910002589225769, 0.7235267758369446, -1.056640625, 0.41845703125, -0.140380859375, 0, 
301, 100320331, 0.78432465, -0.25319308, -0.40608236, -0.3947472, 8.363935470581055, -0.5912920236587524, 5.355323314666748, -1.075105905532837, -0.67643141746521, 0.6685619950294495, -1.0556640625, 0.419189453125, -0.142578125, 0, 
302, 100336998, 0.7843188, -0.25314158, -0.4062297, -0.3946404, 8.33157730102539, -0.597770094871521, 5.351728439331055, -1.016235113143921, -0.4608493447303772, 0.6263778209686279, -1.056640625, 0.419677734375, -0.140869140625, 0, 
303, 100353665, 0.784319, -0.2530812, -0.4063551, -0.39454955, 8.325745582580566, -0.6120115518569946, 5.353806018829346, -1.0177206993103027, -0.2776672840118408, 0.599215567111969, -1.057373046875, 0.419677734375, -0.142578125, 0, 
304, 100370332, 0.784328, -0.25302458, -0.40646985, -0.39444986, 8.31431770324707, -0.611996591091156, 5.350435256958008, -1.0841342210769653, -0.21650414168834686, 0.6623123288154602, -1.05517578125, 0.419189453125, -0.143798828125, 0, 
305, 100386999, 0.78434753, -0.2529768, -0.40658215, -0.3943259, 8.341167449951172, -0.601738452911377, 5.352694511413574, -1.1528403759002686, -0.23180773854255676, 0.7842288017272949, -1.057373046875, 0.423583984375, -0.14306640625, 0, 
306, 100403666, 0.78438103, -0.2529309, -0.40667254, -0.39419517, 8.353479385375977, -0.603625476360321, 5.346036434173584, -1.4832185506820679, -0.06581182777881622, 0.7064046859741211, -1.054931640625, 0.420654296875, -0.140380859375, 0, 
307, 100420333, 0.78441715, -0.25289258, -0.40673795, -0.3940805, 8.339579582214355, -0.616672158241272, 5.375844478607178, -1.5007504224777222, 0.07478267699480057, 0.7712559700012207, -1.05224609375, 0.41796875, -0.14111328125, 0, 
308, 100437000, 0.7844514, -0.25285202, -0.40677962, -0.3939953, 8.347624778747559, -0.6309160590171814, 5.377687931060791, -1.4944753646850586, 0.24182872474193573, 0.7351293563842773, -1.0546875, 0.419677734375, -0.142578125, 0, 
309, 100453667, 0.7844983, -0.25277987, -0.40684342, -0.39388245, 8.356870651245117, -0.64603191614151, 5.321606159210205, -1.2633464336395264, 0.20276933908462524, 0.7252684235572815, -1.057861328125, 0.420654296875, -0.141845703125, 0, 
310, 100470334, 0.78449804, -0.2527592, -0.40694192, -0.39379454, 8.323076248168945, -0.6295469999313354, 5.366324424743652, -1.2772349119186401, -0.2395363599061966, 0.7523730397224426, -1.056640625, 0.42138671875, -0.13916015625, 0, 
311, 100487001, 0.7845282, -0.25275144, -0.40699103, -0.39368865, 8.321059226989746, -0.6144745349884033, 5.328479766845703, -1.5443370342254639, 0.06123996898531914, 0.943584680557251, -1.058349609375, 0.42138671875, -0.1396484375, 0, 
312, 100503668, 0.7845497, -0.25274712, -0.40708783, -0.39354837, 8.317049026489258, -0.6567805409431458, 5.363981246948242, -1.2161935567855835, -0.3014358878135681, 1.1187565326690674, -1.058349609375, 0.42138671875, -0.13916015625, 0, 
313, 100520335, 0.78455347, -0.2527543, -0.40717208, -0.39344898, 8.292328834533691, -0.6401034593582153, 5.349515438079834, -1.4803757667541504, -0.24157901108264923, 0.8856936097145081, -1.05615234375, 0.421142578125, -0.13916015625, 0, 
314, 100537002, 0.7845393, -0.25277218, -0.40727082, -0.39336362, 8.320858001708984, -0.6103517413139343, 5.35491943359375, -1.4868685007095337, -0.3833581209182739, 0.8155404925346375, -1.055419921875, 0.421875, -0.1376953125, 0, 
315, 100553669, 0.78453267, -0.25276604, -0.40739435, -0.39325294, 8.337076187133789, -0.6126641035079956, 5.365153789520264, -1.3923064470291138, -0.4589923918247223, 0.7441962361335754, -1.0556640625, 0.41845703125, -0.139404296875, 0, 
316, 100570336, 0.78451157, -0.25274974, -0.4074932, -0.39320323, 8.351221084594727, -0.5946617126464844, 5.355781555175781, -1.3188363313674927, -0.2580735683441162, 0.5694791674613953, -1.056640625, 0.419677734375, -0.13818359375, 0, 
317, 100587003, 0.78446823, -0.252747, -0.40760836, -0.3931716, 8.364433288574219, -0.6001478433609009, 5.343598365783691, -1.4078021049499512, -0.41619357466697693, 0.4410187005996704, -1.058837890625, 0.4208984375, -0.1396484375, 0, 
318, 100603670, 0.7844466, -0.25272894, -0.40770286, -0.3931287, 8.347888946533203, -0.5830540657043457, 5.353157043457031, -1.4993033409118652, -0.20591329038143158, 0.4310937225818634, -1.056640625, 0.420654296875, -0.1376953125, 0, 
319, 100620337, 0.7844448, -0.25270098, -0.40776086, -0.3930901, 8.321002960205078, -0.5879129767417908, 5.372473239898682, -1.471251130104065, 0.07623620331287384, 0.5298883318901062, -1.054931640625, 0.419677734375, -0.135986328125, 0, 
320, 100637004, 0.784436, -0.25269085, -0.40779364, -0.39308032, 8.347179412841797, -0.583074152469635, 5.356470108032227, -1.5310823917388916, 0.17597205936908722, 0.5750947594642639, -1.058837890625, 0.420166015625, -0.13916015625, 0, 
321, 100653671, 0.7844439, -0.2526696, -0.40783852, -0.39303112, 8.327603340148926, -0.598644495010376, 5.352939128875732, -1.6698521375656128, 0.151985764503479, 0.5423874258995056, -1.05615234375, 0.420654296875, -0.138671875, 0, 
322, 100670338, 0.78446174, -0.2526483, -0.40788767, -0.3929583, 8.33413314819336, -0.59858638048172, 5.338837623596191, -1.66008722782135, 0.12194846570491791, 0.6367509365081787, -1.05615234375, 0.4169921875, -0.1376953125, 0, 
323, 100687005, 0.784425, -0.25267547, -0.40791905, -0.39298156, 8.331668853759766, -0.5953578352928162, 5.341460704803467, -1.7246952056884766, 0.04760761186480522, 0.523286759853363, -1.054931640625, 0.421630859375, -0.135498046875, 0, 
324, 100703672, 0.7844416, -0.2526431, -0.40797234, -0.392914, 8.327315330505371, -0.5949509739875793, 5.32341194152832, -1.6629300117492676, 0.13944192230701447, 0.5285628437995911, -1.05712890625, 0.420654296875, -0.13818359375, 0, 
325, 100720339, 0.7844306, -0.25264424, -0.40802348, -0.39288214, 8.343671798706055, -0.5873458981513977, 5.311196327209473, -1.7356446981430054, 0.02153387852013111, 0.5265395045280457, -1.0556640625, 0.41796875, -0.13720703125, 0, 
326, 100737006, 0.7844075, -0.25266644, -0.40805, -0.39288646, 8.333600997924805, -0.5733994245529175, 5.3454999923706055, -1.8390814065933228, 0.11106306314468384, 0.5249642729759216, -1.056640625, 0.42236328125, -0.13818359375, 0, 
327, 100753673, 0.78440267, -0.25265858, -0.40810758, -0.39284137, 8.342486381530762, -0.5677964687347412, 5.33747673034668, -1.8892436027526855, 0.027706531807780266, 0.4043412208557129, -1.058837890625, 0.420166015625, -0.137451171875, 0, 
328, 100770340, 0.7843779, -0.25266233, -0.4081579, -0.3928363, 8.333016395568848, -0.5507971048355103, 5.331409931182861, -1.8601222038269043, 0.02793705090880394, 0.3445740342140198, -1.05615234375, 0.41748046875, -0.135009765625, 0, 
329, 100787007, 0.7843302, -0.25268394, -0.4081862, -0.3928883, 8.34568977355957, -0.566145658493042, 5.333630084991455, -1.847161889076233, 0.10263647884130478, 0.2992779314517975, -1.057861328125, 0.419189453125, -0.139892578125, 0, 
330, 100803674, 0.78430253, -0.25267714, -0.40822494, -0.39290768, 8.340112686157227, -0.5552271604537964, 5.339071750640869, -1.8108818531036377, 0.14320699870586395, 0.26020580530166626, -1.058349609375, 0.418701171875, -0.138671875, 0, 
331, 100820341, 0.7842579, -0.2526961, -0.4082699, -0.39293757, 8.356451988220215, -0.571412980556488, 5.3367390632629395, -1.8896149396896362, 0.0024268031120300293, 0.2852293848991394, -1.056640625, 0.42236328125, -0.140380859375, 0, 
332, 100837008, 0.7842691, -0.25266358, -0.4083767, -0.39282525, 8.336358070373535, -0.5504058599472046, 5.350061893463135, -1.8587006330490112, -0.20485034584999084, 0.37154421210289, -1.0556640625, 0.421875, -0.140869140625, 0, 
333, 100853675, 0.7842834, -0.25264108, -0.40845767, -0.39272708, 8.352971076965332, -0.541341245174408, 5.368039608001709, -1.8641947507858276, -0.0740463063120842, 0.4745200276374817, -1.055908203125, 0.42333984375, -0.1376953125, 0, 
334, 100870342, 0.7842822, -0.25261784, -0.40852708, -0.39267233, 8.361832618713379, -0.5654218792915344, 5.315313339233398, -1.7110053300857544, -0.008144838735461235, 0.43207988142967224, -1.05615234375, 0.419677734375, -0.13720703125, 0, 
335, 100887009, 0.784289, -0.25259796, -0.4085691, -0.3926275, 8.36843204498291, -0.561866819858551, 5.345839977264404, -1.5907535552978516, 0.15240196883678436, 0.5961804389953613, -1.05712890625, 0.420166015625, -0.135986328125, 0, 
336, 100903676, 0.78433174, -0.2525399, -0.40856108, -0.39258775, 8.348071098327637, -0.5385823249816895, 5.314589977264404, -1.5356992483139038, 0.6421296000480652, 0.6039155125617981, -1.056640625, 0.420166015625, -0.1376953125, 0, 
337, 100920343, 0.7844184, -0.25244656, -0.4084718, -0.39256775, 8.366082191467285, -0.5418561100959778, 5.404863357543945, -1.5470967292785645, 1.332737684249878, 0.659085214138031, -1.058349609375, 0.420654296875, -0.13818359375, 0, 
338, 100937010, 0.7844855, -0.25233698, -0.4084779, -0.39249775, 8.350940704345703, -0.5265003442764282, 5.287966728210449, -1.0885652303695679, 0.7182248830795288, 0.670034646987915, -1.058837890625, 0.420166015625, -0.13525390625, 0, 
339, 100953677, 0.7845109, -0.25229463, -0.40849084, -0.39246058, 8.341817855834961, -0.558009147644043, 5.359884262084961, -1.387068510055542, 0.42440879344940186, 0.6898075938224792, -1.055908203125, 0.42236328125, -0.135498046875, 0, 
340, 100970344, 0.78459775, -0.25220123, -0.40846723, -0.39237174, 8.356926918029785, -0.5726690292358398, 5.303546905517578, -1.3481628894805908, 0.8727718591690063, 0.8102129101753235, -1.056640625, 0.41796875, -0.135498046875, 0, 
341, 100987011, 0.78467304, -0.25216135, -0.4083934, -0.39232367, 8.36769962310791, -0.5459473729133606, 5.319383144378662, -1.3873629570007324, 0.996513307094574, 1.1240133047103882, -1.05615234375, 0.41748046875, -0.1376953125, 0, 
342, 101003678, 0.7846992, -0.25219753, -0.40839088, -0.3922509, 8.308184623718262, -0.5751828551292419, 5.374507427215576, -1.5888068675994873, 0.22243988513946533, 1.2379064559936523, -1.05615234375, 0.420166015625, -0.138671875, 0, 
343, 101020345, 0.78471655, -0.25222135, -0.40853548, -0.39204994, 8.297845840454102, -0.5874091982841492, 5.367796421051025, -1.1924376487731934, -0.7520272731781006, 1.3522032499313354, -1.054443359375, 0.419677734375, -0.138916015625, 0, 
344, 101037012, 0.78475934, -0.252143, -0.4086945, -0.39184898, 8.330738067626953, -0.6394367814064026, 5.3281941413879395, -0.5186699628829956, -0.48719194531440735, 1.1353020668029785, -1.055419921875, 0.42236328125, -0.1376953125, 0, 
345, 101053679, 0.7848048, -0.25204563, -0.4088188, -0.39169088, 8.365652084350586, -0.5949885249137878, 5.285308837890625, -0.7599544525146484, -0.15622468292713165, 0.8311898112297058, -1.05712890625, 0.420166015625, -0.136474609375, 0, 
346, 101070346, 0.7848546, -0.25194618, -0.40890354, -0.3915668, 8.386695861816406, -0.549631655216217, 5.310579776763916, -0.5483038425445557, 0.10213703662157059, 0.970855712890625, -1.057861328125, 0.419189453125, -0.138671875, 0, 
347, 101087013, 0.78493255, -0.25181845, -0.40897536, -0.3914174, 8.360527038574219, -0.551396369934082, 5.323592185974121, -0.3778897225856781, 0.29078736901283264, 1.0833467245101929, -1.055419921875, 0.420166015625, -0.136474609375, 0, 
348, 101103680, 0.78502846, -0.2516403, -0.40906173, -0.39124945, 8.344273567199707, -0.5876818299293518, 5.3187408447265625, -0.02501079998910427, 0.3699049949645996, 1.0400996208190918, -1.0556640625, 0.421875, -0.139404296875, 0, 
349, 101120347, 0.7851683, -0.2514269, -0.4091465, -0.39101723, 8.340957641601562, -0.6005154252052307, 5.303404331207275, 0.04253629222512245, 0.5171652436256409, 1.1688803434371948, -1.059326171875, 0.421875, -0.134765625, 0, 
350, 101137014, 0.78529847, -0.25124285, -0.40918022, -0.39083886, 8.350003242492676, -0.6005868911743164, 5.293927192687988, 0.008970849215984344, 0.7451823353767395, 1.2950358390808105, -1.055419921875, 0.42333984375, -0.136474609375, 0, 
351, 101153681, 0.785449, -0.25105366, -0.40921617, -0.39062023, 8.346056938171387, -0.5894686579704285, 5.315900802612305, 0.015527701936662197, 0.7493316531181335, 1.4367763996124268, -1.056640625, 0.421142578125, -0.136474609375, 0, 
352, 101170348, 0.7856139, -0.25087774, -0.40918407, -0.3904355, 8.348694801330566, -0.5927675366401672, 5.3388214111328125, -0.16284550726413727, 1.1692131757736206, 1.5369987487792969, -1.0576171875, 0.42138671875, -0.137451171875, 0, 
353, 101187015, 0.78580225, -0.250684, -0.4091127, -0.39025533, 8.376901626586914, -0.5979266166687012, 5.33554220199585, -0.08753140270709991, 1.497901201248169, 1.6279881000518799, -1.055419921875, 0.421142578125, -0.136474609375, 0, 
354, 101203682, 0.78601205, -0.2504476, -0.40903765, -0.39006296, 8.380085945129395, -0.6286463737487793, 5.326160430908203, 0.1437576860189438, 1.678521990776062, 1.5991994142532349, -1.055419921875, 0.421875, -0.136474609375, 0, 
355, 101220349, 0.78621423, -0.25021818, -0.40899593, -0.3898465, 8.342001914978027, -0.6198970079421997, 5.381829261779785, 0.3231874406337738, 1.4100368022918701, 1.714892029762268, -1.05615234375, 0.42236328125, -0.141357421875, 0, 
356, 101237016, 0.7864482, -0.24999882, -0.40889728, -0.38961908, 8.347322463989258, -0.603327214717865, 5.311835289001465, 0.09319820255041122, 1.7694981098175049, 1.9165534973144531, -1.05615234375, 0.421875, -0.139892578125, 0, 
357, 101253683, 0.7866829, -0.24980195, -0.40884414, -0.38932708, 8.340680122375488, -0.6343793272972107, 5.382175922393799, 0.3061806261539459, 1.3537529706954956, 2.2669224739074707, -1.05712890625, 0.424072265625, -0.140380859375, 0, 
358, 101270350, 0.7869004, -0.24960154, -0.40880114, -0.38906124, 8.314539909362793, -0.6336604952812195, 5.333742618560791, 0.3135058581829071, 1.2986729145050049, 2.091475486755371, -1.054443359375, 0.4228515625, -0.1416015625, 0, 
359, 101287017, 0.7871026, -0.24942365, -0.40876287, -0.38880643, 8.309621810913086, -0.6116431951522827, 5.359811305999756, 0.2310841977596283, 1.1816227436065674, 2.0993387699127197, -1.05615234375, 0.425537109375, -0.1396484375, 0, 
360, 101303684, 0.7873071, -0.24923228, -0.4087625, -0.38851526, 8.335169792175293, -0.6147551536560059, 5.367115497589111, 0.3722357749938965, 0.9684866666793823, 2.1093404293060303, -1.0537109375, 0.42431640625, -0.138671875, 0, 
361, 101320351, 0.7875138, -0.24903068, -0.40875456, -0.38823387, 8.34819507598877, -0.6000707149505615, 5.335603713989258, 0.42248785495758057, 1.0579516887664795, 2.0673227310180664, -1.054443359375, 0.425537109375, -0.140380859375, 0, 
362, 101337018, 0.78772926, -0.24882784, -0.40874997, -0.38793153, 8.372979164123535, -0.6149439215660095, 5.330053806304932, 0.3981814384460449, 1.0414316654205322, 2.1211094856262207, -1.053955078125, 0.425537109375, -0.142578125, 0, 
363, 101353685, 0.78794503, -0.24863765, -0.40874445, -0.3876209, 8.357887268066406, -0.5914828777313232, 5.331460952758789, 0.2355664223432541, 1.0111572742462158, 2.127448320388794, -1.05322265625, 0.42724609375, -0.1416015625, 0, 
364, 101370352, 0.78816473, -0.24846466, -0.40868366, -0.387349, 8.364853858947754, -0.5934666991233826, 5.352662563323975, 0.07456497102975845, 1.3266162872314453, 2.18904709815979, -1.053955078125, 0.426025390625, -0.140869140625, 0, 
365, 101387019, 0.7883938, -0.24829477, -0.4085768, -0.38710466, 8.356876373291016, -0.5979174971580505, 5.355942249298096, -0.040109485387802124, 1.6366323232650757, 2.203838348388672, -1.052734375, 0.42919921875, -0.144287109375, 0, 
366, 101403686, 0.7886552, -0.24809769, -0.40846375, -0.38681796, 8.333449363708496, -0.5775643587112427, 5.330997943878174, -0.19438757002353668, 1.8003488779067993, 2.1590416431427, -1.054931640625, 0.425537109375, -0.14306640625, 0, 
367, 101420353, 0.78887695, -0.24795535, -0.4083255, -0.38660276, 8.326151847839355, -0.588167667388916, 5.340877532958984, -0.21658100187778473, 1.7514476776123047, 2.253443479537964, -1.052978515625, 0.42822265625, -0.14599609375, 0, 
368, 101437020, 0.7891244, -0.2478022, -0.4081811, -0.38634825, 8.307737350463867, -0.6093379855155945, 5.352695941925049, -0.3648401200771332, 1.8482956886291504, 2.2954294681549072, -1.054931640625, 0.428955078125, -0.144775390625, 0, 
369, 101453687, 0.7893439, -0.24768604, -0.40802827, -0.38613597, 8.32373046875, -0.6203638911247253, 5.3311262130737305, -0.5568521618843079, 1.7731928825378418, 2.234874725341797, -1.053955078125, 0.42822265625, -0.144775390625, 0, 
370, 101470354, 0.7895643, -0.24756385, -0.40785202, -0.38594946, 8.32254695892334, -0.630499541759491, 5.357110500335693, -0.5659254193305969, 1.9566502571105957, 2.178917169570923, -1.05224609375, 0.430908203125, -0.144775390625, 0, 
371, 101487021, 0.78980035, -0.24742651, -0.40767115, -0.38574556, 8.341099739074707, -0.6310254335403442, 5.340111255645752, -0.7829674482345581, 2.0681169033050537, 2.0417227745056152, -1.050048828125, 0.42822265625, -0.147705078125, 0, 
372, 101503688, 0.7900298, -0.24729751, -0.40744495, -0.3855974, 8.336124420166016, -0.6527389883995056, 5.377482891082764, -0.9809470772743225, 2.358532428741455, 1.9093753099441528, -1.0517578125, 0.429931640625, -0.143798828125, 0, 
373, 101520355, 0.7902356, -0.24721639, -0.40721312, -0.38547266, 8.308642387390137, -0.6252148151397705, 5.388496398925781, -1.2668745517730713, 2.2296621799468994, 1.9219127893447876, -1.05224609375, 0.42919921875, -0.145263671875, 0, 
374, 101537022, 0.7904344, -0.24712616, -0.4069752, -0.38537404, 8.297333717346191, -0.6231175065040588, 5.390100955963135, -1.2006208896636963, 2.3017430305480957, 1.8199682235717773, -1.052490234375, 0.4287109375, -0.149169921875, 0, 
375, 101553689, 0.7906233, -0.24703267, -0.40673614, -0.38529938, 8.295736312866211, -0.6480591297149658, 5.415247440338135, -1.3411577939987183, 2.335097312927246, 1.6099246740341187, -1.053466796875, 0.43212890625, -0.145751953125, 0, 
376, 101570356, 0.790807, -0.24696106, -0.40648594, -0.38523218, 8.291498184204102, -0.6699203848838806, 5.408107280731201, -1.5411417484283447, 2.338176727294922, 1.619907259941101, -1.05224609375, 0.430908203125, -0.14697265625, 0, 
377, 101587023, 0.7909665, -0.24691926, -0.40625706, -0.38517302, 8.283795356750488, -0.6633777618408203, 5.434428691864014, -1.6606379747390747, 2.0861356258392334, 1.5887367725372314, -1.05078125, 0.431884765625, -0.148681640625, 0, 
378, 101603690, 0.7911222, -0.24688078, -0.4060474, -0.38509884, 8.27085018157959, -0.6780123114585876, 5.409897327423096, -1.7391281127929688, 1.9469046592712402, 1.5394705533981323, -1.0517578125, 0.431396484375, -0.148681640625, 0, 
379, 101620357, 0.7912645, -0.2468518, -0.40583962, -0.38504416, 8.261442184448242, -0.6940195560455322, 5.403115749359131, -1.658243179321289, 1.889532208442688, 1.5515213012695312, -1.05224609375, 0.43212890625, -0.148193359375, 0, 
380, 101637024, 0.79138476, -0.24684092, -0.4056599, -0.3849933, 8.25205135345459, -0.7031137347221375, 5.432178497314453, -1.6265729665756226, 1.6253753900527954, 1.5427745580673218, -1.05029296875, 0.431884765625, -0.1513671875, 0, 
381, 101653691, 0.79154855, -0.24677217, -0.40548605, -0.384884, 8.254676818847656, -0.7010044455528259, 5.4262166023254395, -1.3585808277130127, 1.7946563959121704, 1.6062748432159424, -1.052978515625, 0.4326171875, -0.15087890625, 0, 
382, 101670358, 0.7917162, -0.24670923, -0.4052865, -0.38478976, 8.24148941040039, -0.6996747255325317, 5.4877214431762695, -1.2949907779693604, 1.9372997283935547, 1.722511649131775, -1.0517578125, 0.434814453125, -0.15185546875, 0, 
383, 101687025, 0.79191715, -0.24655285, -0.40517172, -0.38459703, 8.249459266662598, -0.7282038927078247, 5.431530952453613, -0.47813791036605835, 1.66960871219635, 1.776336908340454, -1.0478515625, 0.43505859375, -0.15087890625, 0, 
384, 101703692, 0.79207677, -0.24644208, -0.40516773, -0.38434353, 8.219769477844238, -0.784767746925354, 5.435516357421875, -0.3095550835132599, 0.7258831858634949, 1.952283263206482, -1.0517578125, 0.434326171875, -0.15234375, 0, 
385, 101720359, 0.79229313, -0.24630488, -0.40511337, -0.38404286, 8.240511894226074, -0.7825530767440796, 5.367559909820557, -0.017813634127378464, 1.1424353122711182, 2.3991098403930664, -1.05029296875, 0.436279296875, -0.154052734375, 0, 
386, 101737026, 0.7925597, -0.24615586, -0.40505165, -0.38365352, 8.27787971496582, -0.7845776081085205, 5.378997325897217, 0.23692384362220764, 1.2166223526000977, 2.9078032970428467, -1.05078125, 0.43310546875, -0.152587890625, 0, 
387, 101753693, 0.7928009, -0.24604833, -0.40502697, -0.38324943, 8.250489234924316, -0.8245900869369507, 5.475759983062744, 0.5597720146179199, 0.7700650691986084, 3.271747350692749, -1.049560546875, 0.43310546875, -0.152587890625, 0, 
388, 101770360, 0.7930037, -0.24598768, -0.40511551, -0.38277504, 8.267640113830566, -0.8424100875854492, 5.467552185058594, 0.8142021298408508, -0.20461346209049225, 3.5409560203552246, -1.048095703125, 0.436279296875, -0.154296875, 0, 
389, 101787027, 0.7932619, -0.24580686, -0.40526256, -0.3822002, 8.26030158996582, -0.8929079174995422, 5.406503200531006, 1.5717426538467407, -0.18327169120311737, 3.5144786834716797, -1.048583984375, 0.43798828125, -0.153564453125, 0, 
390, 101803694, 0.79353124, -0.24560508, -0.40532193, -0.38170746, 8.262420654296875, -0.8652265071868896, 5.345479965209961, 1.2612911462783813, 0.5197649002075195, 3.185791015625, -1.048583984375, 0.436767578125, -0.152099609375, 0, 
391, 101820361, 0.79380316, -0.2453793, -0.40535772, -0.38124898, 8.268356323242188, -0.7788021564483643, 5.396291255950928, 1.4914401769638062, 0.7551136016845703, 3.142652750015259, -1.049072265625, 0.440185546875, -0.152587890625, 0, 
392, 101837028, 0.7941003, -0.24508183, -0.40544403, -0.3807296, 8.267813682556152, -0.8079407811164856, 5.425590991973877, 2.0448412895202637, 0.6535593271255493, 3.130025863647461, -1.049072265625, 0.43798828125, -0.15576171875, 0, 
393, 101853695, 0.7943937, -0.2447394, -0.4055151, -0.3802615, 8.260963439941406, -0.8298115134239197, 5.434569358825684, 2.2989578247070312, 0.9122859835624695, 2.8691606521606445, -1.049072265625, 0.43896484375, -0.1552734375, 0, 
394, 101870362, 0.7946856, -0.24439928, -0.40556654, -0.3798155, 8.273477554321289, -0.8142794966697693, 5.444378852844238, 2.203319787979126, 1.0431028604507446, 2.8009283542633057, -1.049072265625, 0.441650390625, -0.156982421875, 0, 
395, 101887029, 0.7949786, -0.24404922, -0.4056274, -0.37936223, 8.268148422241211, -0.8270258903503418, 5.451559066772461, 2.041274309158325, 1.0347336530685425, 2.618328332901001, -1.04736328125, 0.440673828125, -0.153076171875, 0, 
396, 101903696, 0.7952407, -0.24371152, -0.40566888, -0.37898514, 8.26462173461914, -0.8500185012817383, 5.454460144042969, 1.9157084226608276, 1.12686288356781, 2.356733560562134, -1.048583984375, 0.440185546875, -0.15576171875, 0, 
397, 101920363, 0.7954835, -0.24339525, -0.4056571, -0.37869114, 8.282198905944824, -0.8448683023452759, 5.459886074066162, 1.541276216506958, 1.4343175888061523, 2.0929994583129883, -1.048583984375, 0.440673828125, -0.157470703125, 0, 
398, 101937030, 0.7957257, -0.24309842, -0.40560967, -0.37842384, 8.290249824523926, -0.8761540055274963, 5.479268550872803, 1.1897804737091064, 1.6291790008544922, 2.0045714378356934, -1.045654296875, 0.443359375, -0.1552734375, 0, 
399, 101953697, 0.7960012, -0.24275137, -0.40553457, -0.37814763, 8.279437065124512, -0.9050828218460083, 5.47744083404541, 1.290297508239746, 2.0062878131866455, 1.9182953834533691, -1.045166015625, 0.439453125, -0.158203125, 0, 
400, 101970364, 0.7962575, -0.24243365, -0.40546665, -0.37788475, 8.24566650390625, -0.8828153610229492, 5.481377124786377, 1.218991756439209, 1.8467077016830444, 1.952424168586731, -1.043701171875, 0.442626953125, -0.15869140625, 0, 
401, 101987031, 0.79652953, -0.24211657, -0.4053716, -0.37761644, 8.247644424438477, -0.8559431433677673, 5.474820137023926, 0.9174533486366272, 2.0542092323303223, 1.882629632949829, -1.048095703125, 0.44287109375, -0.16015625, 0, 
402, 102003698, 0.7967683, -0.24182475, -0.40532643, -0.37734818, 8.231800079345703, -0.8901050090789795, 5.5005412101745605, 1.1126092672348022, 1.5982388257980347, 1.9546267986297607, -1.04736328125, 0.44287109375, -0.157958984375, 0, 
403, 102020365, 0.7969831, -0.24153921, -0.40527713, -0.37713045, 8.229353904724121, -0.9087020754814148, 5.422371864318848, 1.110970139503479, 1.5998910665512085, 1.7836236953735352, -1.046875, 0.442138671875, -0.1591796875, 0, 
404, 102037032, 0.7971826, -0.24128273, -0.40519655, -0.37695956, 8.232657432556152, -0.874472975730896, 5.478763580322266, 0.6230866312980652, 1.7416572570800781, 1.5524177551269531, -1.04541015625, 0.441162109375, -0.160888671875, 0, 
405, 102053699, 0.79736274, -0.24106596, -0.40511736, -0.37680197, 8.250699996948242, -0.8468862175941467, 5.506605625152588, 0.4293457269668579, 1.5911248922348022, 1.593788743019104, -1.04638671875, 0.439453125, -0.160888671875, 0, 
406, 102070366, 0.79753053, -0.2408465, -0.40501592, -0.37669605, 8.253471374511719, -0.8555923104286194, 5.506711006164551, 0.2659814953804016, 1.7675260305404663, 1.3331987857818604, -1.04541015625, 0.443359375, -0.1630859375, 0, 
407, 102087033, 0.7977193, -0.24062464, -0.40484887, -0.37661797, 8.305520057678223, -0.8337203860282898, 5.509105205535889, -0.19671835005283356, 2.261953592300415, 1.1518607139587402, -1.0458984375, 0.440673828125, -0.1591796875, 0, 
408, 102103700, 0.79787654, -0.24043083, -0.40462908, -0.37664518, 8.309450149536133, -0.8172209858894348, 5.516401290893555, -0.386809378862381, 2.5242981910705566, 0.9597205519676208, -1.04541015625, 0.442138671875, -0.16357421875, 0, 
409, 102120367, 0.7980557, -0.24019608, -0.4043813, -0.37668154, 8.251075744628906, -0.829449474811554, 5.52807092666626, -0.4885494112968445, 2.885552167892456, 0.7142357230186462, -1.043701171875, 0.443359375, -0.165283203125, 0, 
410, 102137034, 0.79823506, -0.23994222, -0.40412626, -0.37673673, 8.218738555908203, -0.8305596113204956, 5.500834941864014, -0.5629031658172607, 3.0149030685424805, 0.49256426095962524, -1.047119140625, 0.4423828125, -0.16455078125, 0, 
411, 102153701, 0.79837817, -0.2397034, -0.40388742, -0.37684163, 8.219584465026855, -0.8305066227912903, 5.489521026611328, -0.757066547870636, 2.866650104522705, 0.16908222436904907, -1.045654296875, 0.441162109375, -0.16796875, 0, 
412, 102170368, 0.7984967, -0.23949364, -0.40368745, -0.37693837, 8.220623016357422, -0.8101802468299866, 5.493515968322754, -0.8810769319534302, 2.5002925395965576, 0.13038785755634308, -1.04443359375, 0.442138671875, -0.16796875, 0, 
413, 102187035, 0.79859775, -0.23931527, -0.40350923, -0.37702808, 8.239950180053711, -0.80743408203125, 5.514451026916504, -1.0290414094924927, 2.2422189712524414, 0.1542716920375824, -1.04443359375, 0.44287109375, -0.17138671875, 0, 
414, 102203702, 0.79869497, -0.23915313, -0.40333864, -0.37710762, 8.263869285583496, -0.7952074408531189, 5.5209527015686035, -1.245263934135437, 2.1462483406066895, 0.11495620757341385, -1.045654296875, 0.441162109375, -0.169189453125, 0, 
415, 102220369, 0.79876333, -0.2390247, -0.40314457, -0.37725183, 8.236310958862305, -0.7951763272285461, 5.554725646972656, -1.4603720903396606, 2.1925113201141357, -0.008657093159854412, -1.04443359375, 0.441650390625, -0.1669921875, 0, 
416, 102237036, 0.7987975, -0.23891728, -0.4029672, -0.377437, 8.20820140838623, -0.77840256690979, 5.516307830810547, -1.573593258857727, 2.0057241916656494, -0.20496562123298645, -1.043212890625, 0.442138671875, -0.168212890625, 0, 
417, 102253703, 0.7988356, -0.23880814, -0.4027825, -0.37762254, 8.219347953796387, -0.8177791833877563, 5.564336776733398, -1.7915571928024292, 2.082587957382202, -0.3398421108722687, -1.045166015625, 0.43896484375, -0.168701171875, 0, 
418, 102270370, 0.79885, -0.23872377, -0.40254134, -0.37790233, 8.240711212158203, -0.8322233557701111, 5.577439785003662, -2.021111011505127, 2.3844077587127686, -0.5164929628372192, -1.045166015625, 0.439453125, -0.169677734375, 0, 
419, 102287037, 0.79888576, -0.23870079, -0.40230146, -0.37809682, 8.223039627075195, -0.820263147354126, 5.559722423553467, -2.425675868988037, 2.1692352294921875, -0.06358352303504944, -1.04736328125, 0.439697265625, -0.170654296875, 0, 
420, 102303704, 0.7989044, -0.23870586, -0.40203336, -0.37833917, 8.216373443603516, -0.76157146692276, 5.553096294403076, -2.5096347332000732, 2.2531557083129883, -0.040019843727350235, -1.046875, 0.440673828125, -0.171875, 0, 
421, 102320371, 0.7989223, -0.2387029, -0.40178424, -0.3785679, 8.221960067749023, -0.7847848534584045, 5.549236297607422, -2.5743579864501953, 2.1648108959198, -0.1604379415512085, -1.045166015625, 0.439453125, -0.170166015625, 0, 
422, 102337038, 0.7988978, -0.23873146, -0.40153882, -0.37886152, 8.19956111907959, -0.7996703386306763, 5.536247730255127, -2.830753803253174, 2.0375988483428955, -0.4390656650066376, -1.045166015625, 0.4423828125, -0.17138671875, 0, 
423, 102353705, 0.79889196, -0.23873647, -0.40129948, -0.37912428, 8.18452262878418, -0.7880882024765015, 5.53620719909668, -2.883183240890503, 2.095547914505005, -0.5177479386329651, -1.044677734375, 0.440673828125, -0.17236328125, 0, 
424, 102370372, 0.7988978, -0.23872632, -0.40106374, -0.37936777, 8.182280540466309, -0.7489373683929443, 5.566992282867432, -2.794461250305176, 2.1243622303009033, -0.4836702346801758, -1.04296875, 0.43798828125, -0.173095703125, 0, 
425, 102387039, 0.7989177, -0.23869441, -0.400782, -0.37964365, 8.200557708740234, -0.7511420845985413, 5.561173439025879, -2.621716022491455, 2.5027642250061035, -0.4440217912197113, -1.044677734375, 0.4375, -0.172607421875, 0, 
426, 102403706, 0.7989508, -0.2386838, -0.40042645, -0.37995592, 8.22850513458252, -0.7237146496772766, 5.667103290557861, -2.8485352993011475, 2.9331278800964355, -0.31627199053764343, -1.045654296875, 0.436279296875, -0.17236328125, 0, 
427, 102420373, 0.7989365, -0.23867814, -0.40018895, -0.38023973, 8.165722846984863, -0.705365777015686, 5.581958770751953, -2.4521920680999756, 2.0847582817077637, -0.38452982902526855, -1.049072265625, 0.43798828125, -0.17236328125, 0, 
428, 102437040, 0.7988862, -0.2387165, -0.4000213, -0.3804979, 8.137445449829102, -0.6961849331855774, 5.626801490783691, -2.65771484375, 1.4582144021987915, -0.4393475353717804, -1.0439453125, 0.440673828125, -0.171875, 0, 
429, 102453707, 0.79887694, -0.23871326, -0.39981648, -0.38073415, 8.132843017578125, -0.7286540865898132, 5.541399955749512, -2.5904042720794678, 1.864431619644165, -0.4046550393104553, -1.045166015625, 0.4384765625, -0.174072265625, 0, 
430, 102470374, 0.7988436, -0.23879251, -0.39963183, -0.38094828, 8.115501403808594, -0.6800670027732849, 5.615326881408691, -3.046387195587158, 1.44356369972229, -0.2057339996099472, -1.045654296875, 0.4384765625, -0.174072265625, 0, 
431, 102487041, 0.7987396, -0.23895839, -0.39958173, -0.38111484, 8.11741828918457, -0.700035810470581, 5.647122859954834, -3.113851308822632, 0.1999775767326355, -0.0830363780260086, -1.044189453125, 0.435791015625, -0.173583984375, 0, 
432, 102503708, 0.7985689, -0.23915945, -0.39968085, -0.38124278, 8.125914573669434, -0.7488157153129578, 5.623899936676025, -2.706730604171753, -0.9795512557029724, -0.04518720507621765, -1.044677734375, 0.436767578125, -0.174072265625, 0, 
433, 102520375, 0.79843414, -0.23925667, -0.39977193, -0.38136798, 8.130765914916992, -0.7734764814376831, 5.591786861419678, -2.2107858657836914, -0.5584080815315247, -0.29501989483833313, -1.04296875, 0.436767578125, -0.17431640625, 0, 
434, 102537042, 0.79829806, -0.23938267, -0.39977613, -0.38156945, 8.155511856079102, -0.7159612774848938, 5.579689025878906, -2.8972957134246826, -0.02771293930709362, -0.5615968704223633, -1.045166015625, 0.436767578125, -0.173583984375, 0, 
435, 102553709, 0.7981633, -0.23955025, -0.39980334, -0.38171774, 8.162635803222656, -0.5846863985061646, 5.6157145500183105, -2.8813390731811523, -0.3508939743041992, -0.16203874349594116, -1.0478515625, 0.436279296875, -0.17138671875, 0, 
436, 102570376, 0.7980573, -0.23966554, -0.39981046, -0.38185954, 8.152467727661133, -0.5959993004798889, 5.644581317901611, -2.3576362133026123, -0.05495205149054527, -0.0018441141583025455, -1.04736328125, 0.436279296875, -0.17138671875, 0, 
437, 102587043, 0.79794514, -0.23972806, -0.39982298, -0.38204157, 8.147786140441895, -0.6425251364707947, 5.615216255187988, -2.1253163814544678, 0.09629735350608826, -0.35624703764915466, -1.044677734375, 0.436279296875, -0.172607421875, 0, 
438, 102603710, 0.79783237, -0.23980449, -0.39981315, -0.38223943, 8.168750762939453, -0.6877931356430054, 5.609213352203369, -2.588714122772217, 0.23256970942020416, -0.5684866905212402, -1.048583984375, 0.4375, -0.17333984375, 0, 
439, 102620377, 0.7977173, -0.23990817, -0.39974105, -0.38248995, 8.212214469909668, -0.6403470039367676, 5.583834171295166, -3.0589756965637207, 0.5825415849685669, -0.6936814785003662, -1.046875, 0.4375, -0.171875, 0, 
440, 102637044, 0.7976367, -0.24002185, -0.39957285, -0.3827622, 8.19968032836914, -0.6335805058479309, 5.614995002746582, -3.3639140129089355, 1.2142341136932373, -0.5331091284751892, -1.045654296875, 0.43359375, -0.17138671875, 0, 
441, 102653711, 0.7975654, -0.24015602, -0.39933583, -0.38307363, 8.1893949508667, -0.6196995973587036, 5.618251323699951, -3.529449939727783, 1.6072739362716675, -0.39262354373931885, -1.0458984375, 0.43359375, -0.1748046875, 0, 
442, 102670378, 0.7975205, -0.24029116, -0.39906943, -0.38336, 8.182609558105469, -0.6382945775985718, 5.615601062774658, -3.66294264793396, 1.8113173246383667, -0.2501528263092041, -1.04638671875, 0.43310546875, -0.170166015625, 0, 
443, 102687045, 0.7975039, -0.24040474, -0.39875335, -0.38365233, 8.186111450195312, -0.669795036315918, 5.568763256072998, -3.4689455032348633, 2.211099624633789, -0.05588690564036369, -1.04736328125, 0.434326171875, -0.173583984375, 0, 
444, 102703712, 0.79747343, -0.24055964, -0.39847994, -0.3839025, 8.140337944030762, -0.6722210049629211, 5.661438941955566, -3.6052567958831787, 1.771816372871399, 0.09682241827249527, -1.046875, 0.430419921875, -0.17041015625, 0, 
445, 102720379, 0.79741985, -0.24079311, -0.3981038, -0.38425744, 8.153404235839844, -0.6481168866157532, 5.5914812088012695, -4.409392356872559, 2.215101480484009, 0.012998444028198719, -1.046875, 0.434814453125, -0.169677734375, 0, 
446, 102737046, 0.7973527, -0.24105482, -0.3977838, -0.38456398, 8.151139259338379, -0.6535593271255493, 5.65525484085083, -4.346347808837891, 1.7186508178710938, 0.19185194373130798, -1.049072265625, 0.4326171875, -0.171875, 0, 
447, 102753713, 0.7972705, -0.24132219, -0.3974275, -0.38493493, 8.178892135620117, -0.7058010101318359, 5.583013534545898, -4.624782562255859, 1.9627649784088135, -0.08464998006820679, -1.048095703125, 0.434814453125, -0.1728515625, 0, 
448, 102770380, 0.79717505, -0.24162874, -0.39704922, -0.3853304, 8.160507202148438, -0.6722232103347778, 5.618337631225586, -5.305248737335205, 2.0145606994628906, -0.33982935547828674, -1.048095703125, 0.4326171875, -0.17138671875, 0, 
449, 102787047, 0.7970795, -0.24194661, -0.39668244, -0.38570625, 8.180968284606934, -0.6494767665863037, 5.591323375701904, -5.019231796264648, 1.8633304834365845, -0.028007488697767258, -1.045654296875, 0.43408203125, -0.1708984375, 0, 
450, 102803714, 0.79703, -0.24220975, -0.39631224, -0.38602388, 8.181118965148926, -0.6905224323272705, 5.616002559661865, -4.7053093910217285, 2.0760951042175293, 0.1162240207195282, -1.0458984375, 0.430908203125, -0.171875, 0, 
451, 102820381, 0.79697895, -0.24246761, -0.39593536, -0.38635382, 8.176939010620117, -0.7206534743309021, 5.619967460632324, -4.4572882652282715, 2.117100715637207, 0.23857587575912476, -1.0478515625, 0.43359375, -0.170166015625, 0, 
452, 102837048, 0.7969357, -0.24271445, -0.39558527, -0.38664645, 8.161019325256348, -0.7374499440193176, 5.6131815910339355, -4.323757171630859, 1.9694440364837646, 0.3086010217666626, -1.04736328125, 0.43212890625, -0.1708984375, 0, 
453, 102853715, 0.7969429, -0.24293374, -0.39514259, -0.38694653, 8.144365310668945, -0.7219604849815369, 5.613501071929932, -4.306878089904785, 2.6950771808624268, 0.5178311467170715, -1.048095703125, 0.434326171875, -0.17236328125, 0, 
454, 102870382, 0.7969804, -0.24315639, -0.39464575, -0.38723648, 8.110934257507324, -0.7118117809295654, 5.626086711883545, -4.529747486114502, 3.061467170715332, 0.6514142751693726, -1.046875, 0.434814453125, -0.171875, 0, 
455, 102887049, 0.79700917, -0.24338216, -0.39416167, -0.38752833, 8.084446907043457, -0.7349215745925903, 5.657052516937256, -4.497283458709717, 2.959413528442383, 0.6298355460166931, -1.048095703125, 0.434326171875, -0.17236328125, 0, 
456, 102903716, 0.7970438, -0.24359564, -0.39370704, -0.38778532, 8.101781845092773, -0.7245898246765137, 5.704129695892334, -4.282060146331787, 2.7901647090911865, 0.7309674024581909, -1.046875, 0.4326171875, -0.173583984375, 0, 
457, 102920383, 0.79709184, -0.24374, -0.39327475, -0.3880339, 8.11129093170166, -0.7350159287452698, 5.661340236663818, -3.6523778438568115, 2.8584160804748535, 0.6946805715560913, -1.04638671875, 0.435791015625, -0.171875, 0, 
458, 102937050, 0.79718, -0.24378797, -0.39287114, -0.3882316, 8.121673583984375, -0.7959809303283691, 5.626461982727051, -3.0780701637268066, 3.005016565322876, 0.5994460582733154, -1.046875, 0.43408203125, -0.173095703125, 0, 
459, 102953717, 0.7972491, -0.24383299, -0.39244857, -0.38848895, 8.092281341552734, -0.8135319352149963, 5.677787780761719, -3.0823605060577393, 3.142761468887329, 0.4080295264720917, -1.0458984375, 0.43310546875, -0.1748046875, 0, 
460, 102970384, 0.7973318, -0.24388435, -0.39200786, -0.38873178, 8.077110290527344, -0.7615650296211243, 5.653957843780518, -3.201850175857544, 3.246896743774414, 0.500946044921875, -1.04931640625, 0.433837890625, -0.175048828125, 0, 
461, 102987051, 0.7974131, -0.24395524, -0.39156824, -0.38896334, 8.05896282196045, -0.7287821769714355, 5.708581924438477, -3.1403729915618896, 3.151341676712036, 0.7098495364189148, -1.0498046875, 0.433837890625, -0.1728515625, 0, 
462, 103003718, 0.7974815, -0.2440221, -0.39118317, -0.38916862, 8.06152629852295, -0.7320287823677063, 5.702085494995117, -2.805173635482788, 2.770692825317383, 0.8058396577835083, -1.046875, 0.436279296875, -0.17578125, 0, 
463, 103020385, 0.79758817, -0.24400166, -0.39083338, -0.38931426, 8.070414543151855, -0.7566612362861633, 5.719033241271973, -2.4122235774993896, 2.8547403812408447, 0.6424433588981628, -1.046875, 0.435302734375, -0.17578125, 0, 
464, 103037052, 0.797676, -0.24401692, -0.39048323, -0.3894761, 8.097223281860352, -0.8027507662773132, 5.716736316680908, -2.4353387355804443, 2.7115139961242676, 0.7813026905059814, -1.04638671875, 0.43701171875, -0.1767578125, 0, 
465, 103053719, 0.7977885, -0.24403034, -0.3901723, -0.3895491, 8.101168632507324, -0.7729028463363647, 5.715438365936279, -2.31777024269104, 2.447556257247925, 1.0600266456604004, -1.04541015625, 0.435302734375, -0.177001953125, 0, 
466, 103070386, 0.79792666, -0.24401428, -0.38984808, -0.38960028, 8.09839916229248, -0.7618072628974915, 5.712101936340332, -1.9983415603637695, 2.6220297813415527, 1.2607916593551636, -1.047607421875, 0.4365234375, -0.178466796875, 0, 
467, 103087053, 0.7980687, -0.2439873, -0.38954037, -0.38963434, 8.074164390563965, -0.7842367887496948, 5.750433921813965, -1.7168452739715576, 2.5280566215515137, 1.3985368013381958, -1.044189453125, 0.435791015625, -0.178466796875, 0, 
468, 103103720, 0.79818636, -0.24399903, -0.3892681, -0.38965818, 8.050196647644043, -0.7725979089736938, 5.737390041351318, -1.9377031326293945, 2.1569156646728516, 1.3661493062973022, -1.0458984375, 0.435791015625, -0.178955078125, 0, 
469, 103120387, 0.7982789, -0.24406384, -0.3889791, -0.38971654, 8.018918991088867, -0.7272506952285767, 5.764123439788818, -2.2232589721679688, 2.0763251781463623, 1.4175540208816528, -1.0458984375, 0.436279296875, -0.1806640625, 0, 
470, 103137054, 0.7984164, -0.24407549, -0.3886486, -0.3897574, 8.019604682922363, -0.7176568508148193, 5.826632499694824, -2.0628085136413574, 2.5510952472686768, 1.4562420845031738, -1.044921875, 0.434814453125, -0.1796875, 0, 
471, 103153721, 0.79848856, -0.24407212, -0.38849992, -0.3897598, 8.030280113220215, -0.7356323003768921, 5.771242141723633, -1.2973536252975464, 1.3303109407424927, 1.3017398118972778, -1.043212890625, 0.436767578125, -0.1796875, 0, 
472, 103170388, 0.7985063, -0.24418366, -0.3883854, -0.3897679, 8.033827781677246, -0.7529664039611816, 5.780883312225342, -2.110172748565674, 0.7170402407646179, 1.247568964958191, -1.047119140625, 0.43310546875, -0.178955078125, 0, 
473, 103187055, 0.7985355, -0.24431975, -0.38815364, -0.38985378, 8.040450096130371, -0.7590123414993286, 5.678150177001953, -2.3836464881896973, 1.4125726222991943, 1.3933757543563843, -1.044921875, 0.435302734375, -0.178466796875, 0, 
474, 103203722, 0.79854184, -0.24454655, -0.3879722, -0.38987902, 8.042243957519531, -0.749560534954071, 5.724692344665527, -2.904921770095825, 0.7623491883277893, 1.6136127710342407, -1.042724609375, 0.436279296875, -0.182373046875, 0, 
475, 103220389, 0.7984351, -0.24492998, -0.38798526, -0.38984406, 8.034171104431152, -0.7750138640403748, 5.78717565536499, -3.412207841873169, -1.112148404121399, 1.6199523210525513, -1.043701171875, 0.4375, -0.17919921875, 0, 
476, 103237056, 0.7982743, -0.24531986, -0.38818908, -0.38972497, 8.034926414489746, -0.81740802526474, 5.775816917419434, -2.7769808769226074, -2.4664905071258545, 1.6580959558486938, -1.04541015625, 0.436767578125, -0.1767578125, 0, 
477, 103253723, 0.79812866, -0.2456297, -0.3883509, -0.38966691, 8.040351867675781, -0.9262858629226685, 5.710161209106445, -2.3621695041656494, -1.9056744575500488, 1.3873311281204224, -1.044677734375, 0.436767578125, -0.177490234375, 0, 
478, 103270390, 0.7979779, -0.24599086, -0.38837913, -0.38971964, 8.050542831420898, -0.8313038945198059, 5.667033672332764, -3.405848979949951, -1.1251404285430908, 1.0527139902114868, -1.0419921875, 0.436767578125, -0.1796875, 0, 
479, 103287057, 0.79792714, -0.246272, -0.38837966, -0.38964543, 8.084226608276367, -0.7617090940475464, 5.687373161315918, -2.6956212520599365, -0.6876113414764404, 1.7239203453063965, -1.044189453125, 0.436767578125, -0.177001953125, 0, 
480, 103303724, 0.7979024, -0.24652314, -0.38831264, -0.38960403, 8.080794334411621, -0.825425386428833, 5.720813274383545, -2.5833992958068848, -0.13184137642383575, 1.7802554368972778, -1.044677734375, 0.440185546875, -0.177490234375, 0, 
481, 103320391, 0.7978628, -0.24676983, -0.38821343, -0.38962775, 8.059683799743652, -0.8607802391052246, 5.7449951171875, -3.0972414016723633, 0.15787027776241302, 1.2347049713134766, -1.04248046875, 0.43798828125, -0.177001953125, 0, 
482, 103337058, 0.797797, -0.24701753, -0.38810813, -0.38971066, 8.06177043914795, -0.8615346550941467, 5.731253623962402, -3.1739578247070312, 0.19911311566829681, 0.9619104862213135, -1.044189453125, 0.4384765625, -0.174072265625, 0, 
483, 103353725, 0.79772973, -0.24726531, -0.38802135, -0.38977793, 8.069648742675781, -0.8367043137550354, 5.692803382873535, -3.0181431770324707, 0.058819569647312164, 1.0671275854110718, -1.04248046875, 0.43798828125, -0.176513671875, 0, 
484, 103370392, 0.79768807, -0.24748726, -0.3879006, -0.3898427, 8.063995361328125, -0.8646924495697021, 5.731222629547119, -2.98013973236084, 0.38545191287994385, 1.0892248153686523, -1.043701171875, 0.435791015625, -0.1748046875, 0, 
485, 103387059, 0.7976505, -0.2476799, -0.38776064, -0.389936, 8.058218955993652, -0.8766797184944153, 5.752784252166748, -2.706519603729248, 0.6003808379173279, 1.0761240720748901, -1.04248046875, 0.43994140625, -0.173095703125, 0, 
486, 103403726, 0.79765624, -0.2477954, -0.38765168, -0.38995916, 8.037402153015137, -0.8857629895210266, 5.778776168823242, -2.1662065982818604, 0.6605194211006165, 1.142716884613037, -1.04296875, 0.439453125, -0.17529296875, 0, 
487, 103420393, 0.7976923, -0.24785423, -0.38755244, -0.3899467, 8.08005428314209, -0.8921222686767578, 5.73793888092041, -1.6896443367004395, 0.7787094116210938, 1.2449758052825928, -1.04248046875, 0.43994140625, -0.177001953125, 0, 
488, 103437060, 0.7977215, -0.24793692, -0.38748214, -0.38990432, 8.035418510437012, -0.8878009915351868, 5.7867960929870605, -1.6898876428604126, 0.48931145668029785, 1.3895210027694702, -1.04345703125, 0.436767578125, -0.173583984375, 0, 
489, 103453727, 0.7977163, -0.24809462, -0.38735226, -0.3899437, 8.025879859924316, -0.870527446269989, 5.732517719268799, -2.4297361373901367, 0.644754946231842, 1.2444634437561035, -1.045654296875, 0.440673828125, -0.174560546875, 0, 
490, 103470394, 0.79770905, -0.24822491, -0.38731685, -0.3899107, 8.009029388427734, -0.8799076080322266, 5.804821014404297, -1.795969009399414, 0.06805294752120972, 1.4218506813049316, -1.04638671875, 0.440673828125, -0.17578125, 0, 
491, 103487061, 0.79770225, -0.24831763, -0.38731363, -0.3898688, 8.032052993774414, -0.9576700329780579, 5.707000255584717, -1.5387980937957764, -0.016302483156323433, 1.2719074487686157, -1.044189453125, 0.4375, -0.174072265625, 0, 
492, 103503728, 0.7976419, -0.24847567, -0.38724005, -0.38996473, 8.047150611877441, -0.9146396517753601, 5.797494888305664, -2.3963499069213867, 0.26703161001205444, 0.7810145020484924, -1.045166015625, 0.4384765625, -0.173583984375, 0, 
493, 103520395, 0.7976336, -0.2485979, -0.38712013, -0.39002293, 8.065491676330566, -0.8594286441802979, 5.780847549438477, -2.150493621826172, 0.6911394596099854, 1.0984070301055908, -1.044189453125, 0.440673828125, -0.17578125, 0, 
494, 103537062, 0.7976601, -0.24866372, -0.3869691, -0.3900767, 8.069262504577637, -0.8873682618141174, 5.780395984649658, -1.9714865684509277, 1.1148120164871216, 1.0210438966751099, -1.04248046875, 0.440673828125, -0.17529296875, 0, 
495, 103553729, 0.79765975, -0.24877249, -0.3868372, -0.39013892, 8.03978443145752, -0.9267546534538269, 5.780655860900879, -2.258373975753784, 0.8401285409927368, 0.9599445462226868, -1.0419921875, 0.43994140625, -0.176513671875, 0, 
496, 103570396, 0.79764396, -0.24891137, -0.38667494, -0.39024353, 8.037471771240234, -0.9356684684753418, 5.756102085113525, -2.6382999420166016, 0.9553087949752808, 0.8202275037765503, -1.04345703125, 0.440673828125, -0.1748046875, 0, 
497, 103587063, 0.7976641, -0.24902327, -0.38640964, -0.39039382, 8.05264663696289, -0.9284640550613403, 5.786307334899902, -2.778721570968628, 1.759419560432434, 0.8082663416862488, -1.045166015625, 0.441162109375, -0.175048828125, 0, 
498, 103603730, 0.79774135, -0.24909955, -0.3860835, -0.39051, 8.053522109985352, -0.937372624874115, 5.802403450012207, -2.5920181274414062, 2.28485107421875, 1.1348923444747925, -1.04345703125, 0.43896484375, -0.17529296875, 0, 
499, 103620397, 0.7977878, -0.24915202, -0.38581306, -0.39064863, 8.021039962768555, -0.9419052600860596, 5.809234142303467, -2.361618757247925, 1.990510106086731, 0.82015061378479, -1.0419921875, 0.441650390625, -0.17578125, 0, 
500, 103637064, 0.79785866, -0.24920636, -0.3855153, -0.39076307, 8.017510414123535, -0.9326898455619812, 5.798782825469971, -2.429774522781372, 2.1696581840515137, 0.9915252327919006, -1.04248046875, 0.441162109375, -0.1796875, 0, 
501, 103653731, 0.79794765, -0.2492487, -0.38523793, -0.390828, 8.004324913024902, -0.9592704772949219, 5.817135334014893, -2.2164716720581055, 2.062725305557251, 1.1896650791168213, -1.044189453125, 0.439453125, -0.177001953125, 0, 
502, 103670398, 0.7980186, -0.24930365, -0.38497487, -0.39090735, 8.032490730285645, -0.9389784336090088, 5.815399169921875, -2.1595475673675537, 1.902620553970337, 1.2008963823318481, -1.0419921875, 0.43994140625, -0.176513671875, 0, 
503, 103687065, 0.79810745, -0.24930269, -0.38472447, -0.3909732, 8.020106315612793, -0.9211867451667786, 5.81884241104126, -1.708661675453186, 2.002394437789917, 1.179829716682434, -1.04296875, 0.440673828125, -0.174072265625, 0, 
504, 103703732, 0.7982124, -0.24924031, -0.3844758, -0.3910431, 8.009114265441895, -0.9282242655754089, 5.845437526702881, -1.3251497745513916, 2.200214147567749, 1.060718059539795, -1.0419921875, 0.43994140625, -0.177001953125, 0, 
505, 103720399, 0.7983212, -0.24915119, -0.3842614, -0.3910887, 7.968415260314941, -0.937033474445343, 5.819881916046143, -1.0901405811309814, 2.0626096725463867, 1.0153194665908813, -1.04296875, 0.442138671875, -0.177490234375, 0, 
506, 103737066, 0.79841024, -0.24910168, -0.3840633, -0.39113307, 7.957269668579102, -0.8935754299163818, 5.830948829650879, -1.304595708847046, 1.813423991203308, 1.0332484245300293, -1.045166015625, 0.441162109375, -0.175048828125, 0, 
507, 103753733, 0.7984331, -0.24910939, -0.38392347, -0.39121875, 7.99918794631958, -0.8567598462104797, 5.831168174743652, -1.4863946437835693, 1.2054169178009033, 0.8367348909378052, -1.0419921875, 0.440673828125, -0.1796875, 0, 
