sep=,
DeviceTag:,Xsens_1,,,,,,,,,,,,,,,,,
FirmwareVersion:,2.2.1,,,,,,,,,,,,,,,,,
AppVersion:,2023.0.0,,,,,,,,,,,,,,,,,
StartTime:,2023-07-03 13:36:14.000 +0200,,,,,,,,,,,,,,,,,
© Movella Technologies B. V. 2005-2023,,,,,,,,,,,,,,,,,,,

PacketCounter,SampleTimeFine,Quat_W,Quat_X,Quat_Y,Quat_Z,Acc_X,Acc_Y,Acc_Z,Gyr_X,Gyr_Y,Gyr_Z,Mag_X,Mag_Y,Mag_Z,Status,
0, 363510939, 0.3167141, -0.53560174, -0.25153702, -0.74131787, 0.0, 0.0, 0.0, 0.0, 0.0, 0.0, -0.816650390625, -0.487060546875, 0.32421875, 0, 
1, 363527606, 0.31641433, -0.53585565, -0.25042608, -0.7416386, 9.406183242797852, 0.2358383685350418, 2.889270782470703, -4.194591999053955, -0.5705741047859192, 1.4391711950302124, -0.815673828125, -0.486572265625, 0.32373046875, 0, 
2, 363544273, 0.3162353, -0.536762, -0.24914894, -0.7414895, 9.412252426147461, 0.2789038121700287, 2.9161782264709473, -5.689298152923584, -0.2667178511619568, 1.4299123287200928, -0.81494140625, -0.485595703125, 0.32421875, 0, 
3, 363560940, 0.31604454, -0.5375116, -0.24829157, -0.7413153, 9.42827320098877, 0.27340736985206604, 2.9219467639923096, -4.760222434997559, -0.5149561166763306, 1.3106592893600464, -0.814453125, -0.485107421875, 0.322998046875, 0, 
4, 363577607, 0.31582445, -0.5381822, -0.24768406, -0.7411259, 9.45389175415039, 0.2694752514362335, 2.9473187923431396, -3.4833791255950928, -1.2497718334197998, 1.4120218753814697, -0.816162109375, -0.487060546875, 0.3203125, 0, 
5, 363594274, 0.31545773, -0.5387434, -0.24717352, -0.74104464, 9.452435493469238, 0.25892215967178345, 2.947313070297241, -2.2013344764709473, -1.4920166730880737, 1.0559155941009521, -0.81689453125, -0.485595703125, 0.321044921875, 0, 
6, 363610941, 0.31522685, -0.5391683, -0.24679598, -0.7409597, 9.478659629821777, 0.2821923494338989, 2.995047092437744, -2.0356974601745605, -1.3894633054733276, 0.9759014844894409, -0.816650390625, -0.48974609375, 0.32421875, 0, 
7, 363627608, 0.31492144, -0.5395013, -0.24635893, -0.74099267, 9.502656936645508, 0.28430473804473877, 2.969866991043091, -2.2933995723724365, -1.1440041065216064, 0.9921526312828064, -0.8173828125, -0.487548828125, 0.32373046875, 0, 
8, 363644275, 0.31469452, -0.539735, -0.2459634, -0.7410504, 9.46780014038086, 0.27114447951316833, 2.960163116455078, -2.5817089080810547, -0.6361810564994812, 1.0091594457626343, -0.8173828125, -0.486083984375, 0.321533203125, 0, 
9, 363660942, 0.31447023, -0.5399241, -0.24556944, -0.7411386, 9.459260940551758, 0.2826775312423706, 2.975719690322876, -2.746859312057495, -0.36966806650161743, 0.8977571129798889, -0.816650390625, -0.48876953125, 0.32373046875, 0, 
10, 363677609, 0.3142193, -0.54008853, -0.24515195, -0.7412634, 9.43580436706543, 0.305724561214447, 2.9361729621887207, -2.9318349361419678, -0.22480268776416779, 0.8669707775115967, -0.814697265625, -0.489990234375, 0.322509765625, 0, 
11, 363694276, 0.31384465, -0.54025364, -0.24467874, -0.7414581, 9.433324813842773, 0.3118647038936615, 2.9592208862304688, -3.3340561389923096, 0.026874123141169548, 0.6241366863250732, -0.815673828125, -0.484375, 0.31982421875, 0, 
12, 363710943, 0.31353852, -0.54036343, -0.24423984, -0.7416522, 9.441669464111328, 0.3323017656803131, 2.9814088344573975, -3.9974770545959473, 0.28829658031463623, 0.5130608677864075, -0.81640625, -0.4892578125, 0.32080078125, 0, 
13, 363727610, 0.3131109, -0.5404566, -0.24372701, -0.7419335, 9.444918632507324, 0.33268702030181885, 2.952878952026367, -4.3667216300964355, 0.6033263206481934, 0.2700667083263397, -0.815673828125, -0.48876953125, 0.3203125, 0, 
14, 363744277, 0.3126768, -0.54052496, -0.24320333, -0.7422387, 9.456390380859375, 0.35241618752479553, 2.9777262210845947, -4.749785423278809, 0.8723236918449402, 0.17117607593536377, -0.81396484375, -0.489990234375, 0.32177734375, 0, 
15, 363760944, 0.31222278, -0.54055953, -0.24264197, -0.7425882, 9.473896980285645, 0.36236274242401123, 2.9831202030181885, -5.221879005432129, 1.248036503791809, 0.08822935819625854, -0.8173828125, -0.490234375, 0.322021484375, 0, 
16, 363777611, 0.31183076, -0.54053164, -0.24211596, -0.742945, 9.458782196044922, 0.33199670910835266, 2.9889976978302, -5.350532531738281, 1.6170514822006226, 0.018959803506731987, -0.814208984375, -0.48974609375, 0.3173828125, 0, 
17, 363794278, 0.31138396, -0.5405134, -0.24153838, -0.7433336, 9.447195053100586, 0.31244802474975586, 3.002986192703247, -5.410952568054199, 1.7197073698043823, 0.01436232402920723, -0.814697265625, -0.49267578125, 0.318603515625, 0, 
18, 363810945, 0.31091765, -0.54047054, -0.24089484, -0.7437684, 9.48751449584961, 0.29277053475379944, 2.965336561203003, -5.40006685256958, 2.124375104904175, 0.10741326212882996, -0.81591796875, -0.491943359375, 0.31640625, 0, 
19, 363827612, 0.3105183, -0.5404087, -0.24026358, -0.74418443, 9.50561809539795, 0.2647233009338379, 2.931950807571411, -5.454558849334717, 2.2971584796905518, 0.2029358595609665, -0.8154296875, -0.490478515625, 0.31689453125, 0, 
20, 363844279, 0.3102579, -0.5403659, -0.23986463, -0.7444527, 9.452738761901855, 0.25913378596305847, 2.953077554702759, -4.1592206954956055, 1.4826488494873047, 0.10487760603427887, -0.81201171875, -0.490478515625, 0.314697265625, 0, 
21, 363860946, 0.30993742, -0.54040205, -0.23928536, -0.7447463, 9.397165298461914, 0.20108290016651154, 2.968855857849121, -5.32896614074707, 1.5155227184295654, 0.5181897282600403, -0.81494140625, -0.494140625, 0.31201171875, 0, 
22, 363877613, 0.30954316, -0.54048973, -0.23862553, -0.74505836, 9.41959285736084, 0.16175784170627594, 2.9438161849975586, -5.2187418937683105, 1.4018408060073853, 0.6527077555656433, -0.8154296875, -0.49365234375, 0.310791015625, 0, 
23, 363894280, 0.3093117, -0.5405174, -0.23813395, -0.74529165, 9.471576690673828, 0.14498713612556458, 2.880667209625244, -3.849217176437378, 1.3606809377670288, 0.6784098744392395, -0.81103515625, -0.4921875, 0.311767578125, 0, 
24, 363910947, 0.30923498, -0.54056036, -0.23778401, -0.7454041, 9.483136177062988, 0.0919109508395195, 2.9281489849090576, -2.713972806930542, 0.8844001889228821, 0.9974417686462402, -0.814453125, -0.4951171875, 0.309814453125, 0, 
25, 363927614, 0.30917504, -0.54059774, -0.23730882, -0.74555314, 9.472888946533203, 0.04816015809774399, 2.8879928588867188, -2.7645320892333984, 1.403582215309143, 1.5048291683197021, -0.816650390625, -0.492431640625, 0.30810546875, 0, 
26, 363944281, 0.30918583, -0.5406137, -0.23677985, -0.74570525, 9.498315811157227, 0.07319537550210953, 2.8836352825164795, -2.6751184463500977, 1.8256028890609741, 1.8995082378387451, -0.8134765625, -0.491943359375, 0.30859375, 0, 
27, 363960948, 0.3093443, -0.5405732, -0.2363094, -0.74581814, 9.493943214416504, 0.08012787252664566, 2.9136033058166504, -1.9711663722991943, 2.143815040588379, 2.232896327972412, -0.81396484375, -0.48974609375, 0.30859375, 0, 
28, 363977615, 0.30962983, -0.54047126, -0.23586532, -0.74591416, 9.478240013122559, 0.06673280149698257, 2.921656608581543, -1.397147297859192, 2.580627202987671, 2.592139959335327, -0.816162109375, -0.492919921875, 0.3076171875, 0, 
29, 363994282, 0.30993292, -0.54033744, -0.2353785, -0.74603885, 9.461220741271973, 0.05117301642894745, 2.9253957271575928, -1.2113525867462158, 2.9997401237487793, 2.7726967334747314, -0.814453125, -0.492431640625, 0.30712890625, 0, 
30, 364010949, 0.310261, -0.5401843, -0.23485304, -0.74617916, 9.440629959106445, 0.08684063702821732, 2.948322057723999, -1.0319101810455322, 3.3037571907043457, 3.0153324604034424, -0.81787109375, -0.494140625, 0.306640625, 0, 
31, 364027616, 0.31063238, -0.5399798, -0.23436122, -0.7463272, 9.42501163482666, 0.09412594884634018, 2.9675235748291016, -0.7048743367195129, 3.5964913368225098, 2.962435722351074, -0.819580078125, -0.48974609375, 0.306640625, 0, 
32, 364044283, 0.3110948, -0.5396807, -0.23389032, -0.7464987, 9.42101001739502, 0.11069975793361664, 2.993624210357666, -0.5497638583183289, 4.260705471038818, 2.9959757328033447, -0.815185546875, -0.491943359375, 0.305908203125, 0, 
33, 364060950, 0.31154144, -0.5392939, -0.23334776, -0.7467617, 9.432662963867188, 0.12409095466136932, 3.0240156650543213, -0.7858874201774597, 5.1679840087890625, 2.9011571407318115, -0.81787109375, -0.49072265625, 0.303466796875, 0, 
34, 364077617, 0.31192032, -0.53884274, -0.23271278, -0.74712723, 9.435611724853516, 0.15541568398475647, 3.048149824142456, -1.1857911348342896, 5.957686901092529, 2.7066287994384766, -0.81787109375, -0.489013671875, 0.3017578125, 0, 
35, 364094284, 0.31225687, -0.5383421, -0.23204261, -0.74755585, 9.430219650268555, 0.15686078369617462, 3.074784278869629, -1.4689656496047974, 6.435557842254639, 2.4520516395568848, -0.819091796875, -0.48974609375, 0.30126953125, 0, 
36, 364110951, 0.3125626, -0.5378117, -0.23134692, -0.7480254, 9.418723106384277, 0.18168003857135773, 3.0766053199768066, -1.9048806428909302, 6.724851608276367, 2.224034070968628, -0.817626953125, -0.490234375, 0.29833984375, 0, 
37, 364127618, 0.3127974, -0.53728545, -0.23062003, -0.7485298, 9.402359962463379, 0.1843566745519638, 3.067131996154785, -2.5235941410064697, 6.773081302642822, 1.9029152393341064, -0.818115234375, -0.490234375, 0.296142578125, 0, 
38, 364144285, 0.31294277, -0.5368139, -0.22987436, -0.7490363, 9.375513076782227, 0.18795529007911682, 3.0970239639282227, -3.0318520069122314, 6.39403772354126, 1.6479147672653198, -0.821044921875, -0.489013671875, 0.29296875, 0, 
39, 364160952, 0.3129473, -0.5364438, -0.22906964, -0.749546, 9.34732437133789, 0.18040348589420319, 3.104355812072754, -3.623032569885254, 5.782932758331299, 1.4853640794754028, -0.8193359375, -0.489013671875, 0.295654296875, 0, 
40, 364177619, 0.312919, -0.5361614, -0.22828805, -0.74999815, 9.327997207641602, 0.1636703759431839, 3.10571026802063, -4.185704231262207, 5.005227565765381, 1.369825005531311, -0.82275390625, -0.490478515625, 0.293701171875, 0, 
41, 364194286, 0.3127672, -0.53601056, -0.22748287, -0.75041384, 9.330252647399902, 0.1638057976961136, 3.129615545272827, -4.755202770233154, 4.046621322631836, 1.2111029624938965, -0.821044921875, -0.4912109375, 0.2919921875, 0, 
42, 364210953, 0.3125544, -0.53596526, -0.22668104, -0.75077736, 9.355807304382324, 0.1529013067483902, 3.1585984230041504, -5.07466983795166, 3.1977906227111816, 1.198501467704773, -0.8232421875, -0.48779296875, 0.289306640625, 0, 
43, 364227620, 0.31230605, -0.53598195, -0.22586633, -0.7511143, 9.356151580810547, 0.11952628195285797, 3.1382641792297363, -5.684598445892334, 2.740591287612915, 1.1277720928192139, -0.824462890625, -0.490966796875, 0.29052734375, 0, 
44, 364244287, 0.3120511, -0.5360707, -0.22506951, -0.7513962, 9.386811256408691, 0.09961895644664764, 3.1417713165283203, -6.025875091552734, 2.1142070293426514, 1.1527445316314697, -0.823974609375, -0.489501953125, 0.288818359375, 0, 
45, 364260954, 0.3117736, -0.53622675, -0.22426191, -0.7516415, 9.398270606994629, 0.074302539229393, 3.1585426330566406, -6.244286060333252, 1.622353196144104, 1.269563913345337, -0.822509765625, -0.49169921875, 0.2841796875, 0, 
46, 364277621, 0.31141314, -0.53643966, -0.22341, -0.75189257, 9.383391380310059, 0.04187164455652237, 3.173959255218506, -6.254340648651123, 1.3157055377960205, 1.309558391571045, -0.823974609375, -0.491455078125, 0.284912109375, 0, 
47, 364294288, 0.31107453, -0.5366833, -0.22260503, -0.7520977, 9.372398376464844, 0.021418804302811623, 3.165238618850708, -6.1998114585876465, 0.9163009524345398, 1.2961244583129883, -0.82568359375, -0.490966796875, 0.28271484375, 0, 
48, 364310955, 0.31072202, -0.53696764, -0.22184134, -0.75226593, 9.344109535217285, 0.004505162127315998, 3.1678051948547363, -5.985393524169922, 0.4583584666252136, 1.2354092597961426, -0.826416015625, -0.490966796875, 0.28125, 0, 
49, 364327622, 0.31037942, -0.53727835, -0.22113161, -0.75239444, 9.338888168334961, 0.004910905379801989, 3.156036853790283, -5.6829328536987305, 0.07021081447601318, 1.2003711462020874, -0.822021484375, -0.4921875, 0.281982421875, 0, 
50, 364344289, 0.31003672, -0.53759766, -0.22046204, -0.75250417, 9.362168312072754, 0.0012919807340949774, 3.180706739425659, -5.211736679077148, -0.13326288759708405, 1.1863868236541748, -0.825927734375, -0.490966796875, 0.279541015625, 0, 
51, 364360956, 0.30974895, -0.53790635, -0.21986312, -0.75257725, 9.337791442871094, 0.013548760674893856, 3.1558384895324707, -4.8425164222717285, -0.2849797308444977, 1.1731704473495483, -0.822509765625, -0.4921875, 0.279296875, 0, 
52, 364377623, 0.3094456, -0.5382485, -0.21928178, -0.75262713, 9.319523811340332, 0.018211664631962776, 3.1429409980773926, -4.436388969421387, -0.6084809899330139, 1.2692439556121826, -0.82373046875, -0.49267578125, 0.2783203125, 0, 
53, 364394290, 0.30919945, -0.53856725, -0.21877958, -0.7526465, 9.333662033081055, 0.013884282670915127, 3.116953134536743, -4.010769844055176, -0.6839615702629089, 1.2055065631866455, -0.82373046875, -0.49365234375, 0.280029296875, 0, 
54, 364410957, 0.3089542, -0.5389083, -0.21828425, -0.75264686, 9.36766529083252, 0.0426437072455883, 3.1335408687591553, -3.9319589138031006, -0.8798345923423767, 1.2817810773849487, -0.820556640625, -0.4931640625, 0.27490234375, 0, 
55, 364427624, 0.3086454, -0.53926146, -0.21775298, -0.75267464, 9.420451164245605, 0.0508270338177681, 3.1528964042663574, -3.4592134952545166, -0.8644158244132996, 1.3869982957839966, -0.824951171875, -0.491455078125, 0.276611328125, 0, 
56, 364444291, 0.3084926, -0.53953093, -0.2173315, -0.75266564, 9.423124313354492, 0.04906832054257393, 3.185304880142212, -3.0511257648468018, -0.5589972138404846, 1.4159916639328003, -0.82275390625, -0.49267578125, 0.27490234375, 0, 
57, 364460958, 0.30836084, -0.5397246, -0.21687968, -0.7527111, 9.427668571472168, 0.05328986421227455, 3.1690335273742676, -3.0468358993530273, 0.12559828162193298, 1.4224590063095093, -0.825439453125, -0.4931640625, 0.276123046875, 0, 
58, 364477625, 0.30814192, -0.53991306, -0.21624033, -0.7528499, 9.460959434509277, 0.05472705513238907, 3.259019136428833, -4.201981067657471, 0.7633032202720642, 1.5651344060897827, -0.824951171875, -0.491455078125, 0.27392578125, 0, 
59, 364494292, 0.30808875, -0.54005265, -0.21589099, -0.7528715, 9.402425765991211, 0.12754441797733307, 3.0657784938812256, -2.0361456871032715, 0.20275653898715973, 1.4553712606430054, -0.828125, -0.49462890625, 0.2763671875, 0, 
60, 364510959, 0.30804706, -0.5402464, -0.21553887, -0.7528504, 9.46977710723877, 0.019214292988181114, 3.272022008895874, -1.9400595426559448, -0.20068831741809845, 1.7613790035247803, -0.824951171875, -0.4931640625, 0.27392578125, 0, 
61, 364527626, 0.3079336, -0.5404003, -0.21495868, -0.7529525, 9.36298656463623, -0.009162211790680885, 3.1189005374908447, -3.375497817993164, 0.8229681849479675, 1.963194489479065, -0.824951171875, -0.490966796875, 0.271240234375, 0, 
62, 364544293, 0.30775967, -0.54059803, -0.21434548, -0.7530565, 9.361241340637207, 0.07403618842363358, 3.149136781692505, -4.078758716583252, 0.5901229977607727, 1.7629539966583252, -0.825439453125, -0.49462890625, 0.2744140625, 0, 
63, 364560960, 0.30762357, -0.5408379, -0.21388951, -0.7530694, 9.376829147338867, 0.06273174285888672, 3.140718460083008, -2.9549243450164795, -0.2475595474243164, 1.6881905794143677, -0.82666015625, -0.4931640625, 0.2734375, 0, 
64, 364577627, 0.30755258, -0.5411098, -0.21356381, -0.7529955, 9.375703811645508, 0.06315570324659348, 3.107433795928955, -1.9332464933395386, -0.9135793447494507, 1.8006175756454468, -0.82666015625, -0.490234375, 0.27197265625, 0, 
65, 364594294, 0.30753383, -0.5413525, -0.21339427, -0.75287664, 9.3395414352417, 0.058550119400024414, 3.1213457584381104, -1.0742607116699219, -1.1746240854263306, 1.4623252153396606, -0.825439453125, -0.490966796875, 0.27294921875, 0, 
66, 364610961, 0.3074753, -0.5416265, -0.2132265, -0.75275105, 9.384551048278809, 0.053272560238838196, 3.127941131591797, -1.2449181079864502, -1.4227982759475708, 1.3331218957901, -0.824462890625, -0.49267578125, 0.27392578125, 0, 
67, 364627628, 0.3073502, -0.5419103, -0.21300653, -0.7526601, 9.398285865783691, 0.04262399300932884, 3.12890625, -1.68728768825531, -1.3344472646713257, 1.1887047290802002, -0.8271484375, -0.495849609375, 0.275146484375, 0, 
68, 364644295, 0.30715877, -0.5421609, -0.21274467, -0.7526318, 9.408382415771484, 0.044022273272275925, 3.101557493209839, -1.964506983757019, -0.941292405128479, 0.9024443030357361, -0.82373046875, -0.491943359375, 0.2734375, 0, 
69, 364660962, 0.3069704, -0.5423892, -0.21250822, -0.75261116, 9.382598876953125, 0.05241426080465317, 3.0773067474365234, -2.0621297359466553, -0.8362419009208679, 0.690947413444519, -0.824462890625, -0.494140625, 0.2744140625, 0, 
70, 364677629, 0.30671576, -0.54260397, -0.21225071, -0.7526327, 9.383478164672852, 0.0580286905169487, 3.077821969985962, -2.2226829528808594, -0.6595655083656311, 0.4091693162918091, -0.822265625, -0.491455078125, 0.272216796875, 0, 
71, 364694296, 0.30641553, -0.5427825, -0.21197271, -0.7527046, 9.382369041442871, 0.04440585523843765, 3.088602304458618, -2.4715616703033447, -0.30372822284698486, 0.11084536463022232, -0.82568359375, -0.491455078125, 0.270263671875, 0, 
72, 364710963, 0.30603892, -0.54296005, -0.21161576, -0.7528302, 9.40731430053711, 0.041139718145132065, 3.0859696865081787, -3.1000845432281494, -0.04201763495802879, -0.045398514717817307, -0.825439453125, -0.4931640625, 0.2744140625, 0, 
73, 364727630, 0.30572286, -0.5431036, -0.21129218, -0.75294596, 9.443885803222656, 0.05764278396964073, 3.1114754676818848, -3.1736953258514404, 0.13207828998565674, -0.06595271080732346, -0.825439453125, -0.4931640625, 0.275146484375, 0, 
74, 364744297, 0.30545202, -0.54318595, -0.21099523, -0.75307983, 9.442510604858398, 0.04122299328446388, 3.1012818813323975, -2.791682004928589, 0.5290751457214355, -0.05588690564036369, -0.8271484375, -0.49462890625, 0.271728515625, 0, 
75, 364760964, 0.30515125, -0.5432115, -0.21065372, -0.753279, 9.444330215454102, 0.031640537083148956, 3.103856086730957, -2.772587537765503, 1.11281418800354, -0.13806524872779846, -0.82666015625, -0.495849609375, 0.27294921875, 0, 
76, 364777631, 0.3048517, -0.5432086, -0.21032298, -0.7534946, 9.442142486572266, 0.03677971288561821, 3.1216423511505127, -2.8050389289855957, 1.3067535161972046, -0.2809969484806061, -0.826171875, -0.49365234375, 0.2734375, 0, 
77, 364794298, 0.30462316, -0.54316753, -0.21004741, -0.7536935, 9.429418563842773, 0.035769928246736526, 3.1103196144104004, -2.6167471408843994, 1.4440505504608154, -0.2928556203842163, -0.8251953125, -0.49462890625, 0.26953125, 0, 
78, 364810965, 0.30434936, -0.54312766, -0.20976293, -0.7539121, 9.433695793151855, 0.034520119428634644, 3.1107852458953857, -2.317513942718506, 1.4514139890670776, -0.3362691104412079, -0.826171875, -0.49462890625, 0.267822265625, 0, 
79, 364827632, 0.3041253, -0.54305226, -0.2094985, -0.7541303, 9.417022705078125, 0.05687689781188965, 3.056035280227661, -2.0762293338775635, 1.6704537868499756, -0.23649486899375916, -0.82568359375, -0.49853515625, 0.2705078125, 0, 
80, 364844299, 0.30392817, -0.54295516, -0.20936342, -0.7543172, 9.409064292907715, 0.06248859688639641, 3.1118428707122803, -0.996807873249054, 1.4388511180877686, -0.46118223667144775, -0.824951171875, -0.4951171875, 0.270751953125, 0, 
81, 364860966, 0.30372956, -0.54288936, -0.20917538, -0.7544967, 9.394277572631836, 0.035750340670347214, 3.1088509559631348, -1.8945715427398682, 1.3739229440689087, -0.3931037187576294, -0.82177734375, -0.495849609375, 0.2666015625, 0, 
82, 364877633, 0.30348593, -0.5428361, -0.20894848, -0.7546959, 9.386905670166016, 0.0359957218170166, 3.1032843589782715, -1.9431779384613037, 1.3891048431396484, -0.36608871817588806, -0.8251953125, -0.496337890625, 0.26953125, 0, 
83, 364894300, 0.30332914, -0.5427381, -0.20886771, -0.75485176, 9.39798641204834, 0.06691349297761917, 3.1272010803222656, -1.098298192024231, 1.2961883544921875, -0.5640556812286377, -0.823974609375, -0.496826171875, 0.267333984375, 0, 
84, 364910967, 0.3031601, -0.5426667, -0.2087775, -0.75499594, 9.418084144592285, 0.05422958731651306, 3.138939142227173, -0.9152185916900635, 1.1099454164505005, -0.40671688318252563, -0.822509765625, -0.498046875, 0.265625, 0, 
85, 364927634, 0.3028896, -0.5426223, -0.20858786, -0.7551889, 9.396193504333496, 0.03410710021853447, 3.1478917598724365, -1.4621264934539795, 1.2047381401062012, -0.4549071490764618, -0.82568359375, -0.495849609375, 0.265625, 0, 
86, 364944301, 0.30268008, -0.54255444, -0.2084152, -0.7553691, 9.398066520690918, 0.025220884010195732, 3.100116729736328, -1.8284779787063599, 1.3511148691177368, -0.4614512026309967, -0.82470703125, -0.497314453125, 0.26611328125, 0, 
87, 364960968, 0.3024369, -0.54250795, -0.20817822, -0.7555653, 9.421860694885254, 0.026347646489739418, 3.128622055053711, -2.221914529800415, 1.3861658573150635, -0.34839677810668945, -0.8251953125, -0.49853515625, 0.267822265625, 0, 
88, 364977635, 0.30218372, -0.54247266, -0.20790431, -0.7557674, 9.404399871826172, 0.017787577584385872, 3.146949291229248, -2.8029768466949463, 1.4240723848342896, -0.36115187406539917, -0.82373046875, -0.49951171875, 0.263916015625, 0, 
89, 364994302, 0.3018116, -0.54244965, -0.20752974, -0.75603545, 9.403223037719727, 0.031278714537620544, 3.1571037769317627, -3.314846992492676, 1.6313689947128296, -0.5191054344177246, -0.82373046875, -0.5, 0.264404296875, 0, 
90, 365010969, 0.30146936, -0.54239434, -0.20716956, -0.7563104, 9.405289649963379, 0.034739211201667786, 3.1661629676818848, -3.1687393188476562, 1.842968225479126, -0.504429280757904, -0.824951171875, -0.502685546875, 0.26171875, 0, 
91, 365027636, 0.30107832, -0.5423241, -0.20677865, -0.75662357, 9.406081199645996, 0.046295296400785446, 3.159714460372925, -3.1441128253936768, 2.0463075637817383, -0.6009892225265503, -0.825927734375, -0.49853515625, 0.263427734375, 0, 
92, 365044303, 0.30077514, -0.54222226, -0.20648353, -0.7568976, 9.393080711364746, 0.05793239548802376, 3.150489091873169, -3.0836284160614014, 2.020925283432007, -0.768509030342102, -0.822021484375, -0.5029296875, 0.26318359375, 0, 
93, 365060970, 0.30044118, -0.54211074, -0.2061804, -0.7571927, 9.394341468811035, 0.07883903384208679, 3.161846160888672, -2.8031818866729736, 2.110262393951416, -0.7919830679893494, -0.82373046875, -0.501708984375, 0.260498046875, 0, 
94, 365077637, 0.30014268, -0.54197836, -0.20587963, -0.7574876, 9.394905090332031, 0.06428398191928864, 3.159503221511841, -2.6069631576538086, 2.266205072402954, -0.6299186944961548, -0.824951171875, -0.50390625, 0.26171875, 0, 
95, 365094304, 0.29987696, -0.54181916, -0.20561256, -0.7577791, 9.390212059020996, 0.07270023226737976, 3.169124126434326, -2.4040205478668213, 2.3775177001953125, -0.6616528034210205, -0.825927734375, -0.501220703125, 0.26123046875, 0, 
96, 365110971, 0.29964876, -0.54162216, -0.20537564, -0.7580745, 9.371516227722168, 0.07666320353746414, 3.1741669178009033, -2.537527322769165, 2.5968270301818848, -0.8073251843452454, -0.82275390625, -0.5029296875, 0.2587890625, 0, 
97, 365127638, 0.29932332, -0.5414051, -0.20508137, -0.7584378, 9.359004020690918, 0.11809030920267105, 3.1849851608276367, -2.7976367473602295, 2.923811197280884, -1.0987207889556885, -0.823486328125, -0.501708984375, 0.25390625, 0, 
98, 365144305, 0.29892024, -0.541174, -0.20477651, -0.758844, 9.349321365356445, 0.14307928085327148, 3.2221407890319824, -3.0283563137054443, 3.0663721561431885, -1.5065008401870728, -0.8232421875, -0.50341796875, 0.25830078125, 0, 
99, 365160972, 0.2984839, -0.5409139, -0.20447607, -0.7592819, 9.349969863891602, 0.1263461709022522, 3.2679731845855713, -3.463170289993286, 3.291994094848633, -1.9141267538070679, -0.824951171875, -0.50390625, 0.2568359375, 0, 
100, 365177639, 0.2980015, -0.54068375, -0.2041553, -0.7597216, 9.32138442993164, 0.12495952844619751, 3.26908540725708, -3.8960249423980713, 3.117072105407715, -2.061002731323242, -0.823486328125, -0.5048828125, 0.255615234375, 0, 
101, 365194306, 0.29746896, -0.5404818, -0.20382188, -0.76016337, 9.336195945739746, 0.08993424475193024, 3.2937440872192383, -4.252810001373291, 2.9288957118988037, -2.2418158054351807, -0.823486328125, -0.5048828125, 0.2529296875, 0, 
102, 365210973, 0.29688954, -0.5403067, -0.20347619, -0.7606069, 9.342573165893555, 0.056724466383457184, 3.303128719329834, -4.434992790222168, 2.748812675476074, -2.35917329788208, -0.824462890625, -0.506591796875, 0.25732421875, 0, 
103, 365227640, 0.2964071, -0.5401173, -0.20319718, -0.76100427, 9.372417449951172, 0.01057517435401678, 3.2711987495422363, -4.362969875335693, 2.6630868911743164, -2.2831289768218994, -0.8251953125, -0.507568359375, 0.25390625, 0, 
104, 365244307, 0.2959241, -0.53993726, -0.20291328, -0.7613954, 9.367751121520996, 0.025380846112966537, 3.2703962326049805, -4.12221097946167, 2.594355344772339, -2.139634132385254, -0.82421875, -0.508056640625, 0.25, 0, 
105, 365260974, 0.29544318, -0.53976315, -0.20260851, -0.76178676, 9.363115310668945, 0.038201749324798584, 3.268465280532837, -3.8391895294189453, 2.6006686687469482, -1.8986692428588867, -0.82373046875, -0.508056640625, 0.25, 0, 
106, 365277641, 0.29501408, -0.53959966, -0.20234804, -0.762138, 9.34575080871582, 0.07197366654872894, 3.277106285095215, -3.6109681129455566, 2.3844337463378906, -1.7752037048339844, -0.8232421875, -0.508056640625, 0.247314453125, 0, 
107, 365294308, 0.29460728, -0.5394065, -0.202105, -0.7624965, 9.334894180297852, 0.07697920501232147, 3.2691187858581543, -3.3340818881988525, 2.5604054927825928, -1.7519471645355225, -0.8232421875, -0.5107421875, 0.247314453125, 0, 
108, 365310975, 0.2941981, -0.5392432, -0.20188272, -0.76282877, 9.334545135498047, 0.07788034528493881, 3.2728428840637207, -3.0752522945404053, 2.25838041305542, -1.6734440326690674, -0.821533203125, -0.51416015625, 0.25, 0, 
109, 365327642, 0.29378742, -0.53910315, -0.20169164, -0.7631366, 9.342503547668457, 0.10436830669641495, 3.2698678970336914, -2.918804407119751, 1.9819620847702026, -1.7042627334594727, -0.820556640625, -0.511474609375, 0.2470703125, 0, 
110, 365344309, 0.29337388, -0.53897303, -0.20152824, -0.7634307, 9.328299522399902, 0.11266777664422989, 3.287266731262207, -2.897244691848755, 1.8261151313781738, -1.81796395778656, -0.82275390625, -0.511962890625, 0.247314453125, 0, 
111, 365360976, 0.29299292, -0.5388565, -0.20143034, -0.76368505, 9.332011222839355, 0.12621957063674927, 3.280292510986328, -2.7142932415008545, 1.5249611139297485, -1.8956345319747925, -0.822265625, -0.511962890625, 0.243896484375, 0, 
112, 365377643, 0.29258093, -0.5387286, -0.20133513, -0.7639581, 9.328246116638184, 0.09401384741067886, 3.2771477699279785, -2.471997022628784, 1.6016838550567627, -1.9845104217529297, -0.824951171875, -0.51611328125, 0.24560546875, 0, 
113, 365394310, 0.29216662, -0.5386091, -0.20124263, -0.76422536, 9.319934844970703, 0.11079441010951996, 3.315765142440796, -2.586024761199951, 1.5305702686309814, -2.0180630683898926, -0.82275390625, -0.5146484375, 0.24609375, 0, 
114, 365410977, 0.29176074, -0.5385074, -0.2011717, -0.76447076, 9.319225311279297, 0.10950224101543427, 3.3009567260742188, -2.7599477767944336, 1.330163598060608, -2.0962843894958496, -0.823974609375, -0.51416015625, 0.243896484375, 0, 
115, 365427644, 0.2913506, -0.538428, -0.20110667, -0.7647002, 9.324787139892578, 0.09081518650054932, 3.3078150749206543, -2.670098066329956, 1.1366082429885864, -2.037515640258789, -0.81787109375, -0.514892578125, 0.244140625, 0, 
116, 365444311, 0.29095128, -0.5383731, -0.20104095, -0.764908, 9.330212593078613, 0.09631596505641937, 3.310405969619751, -2.596627950668335, 0.9422014355659485, -1.87251877784729, -0.819091796875, -0.515869140625, 0.24365234375, 0, 
117, 365460978, 0.29057932, -0.53834826, -0.20100349, -0.76507676, 9.328685760498047, 0.10455793887376785, 3.310427665710449, -2.281464099884033, 0.6216521859169006, -1.6851234436035156, -0.820556640625, -0.51806640625, 0.245361328125, 0, 
118, 365477645, 0.29027477, -0.5383493, -0.2010657, -0.76517534, 9.334972381591797, 0.09777622669935226, 3.2628002166748047, -1.773679494857788, 0.12425361573696136, -1.6321309804916382, -0.8203125, -0.517333984375, 0.240478515625, 0, 
119, 365494312, 0.2899456, -0.53838366, -0.20112355, -0.76526064, 9.33877182006836, 0.09601404517889023, 3.2772910594940186, -1.475611686706543, -0.13016372919082642, -1.4941167831420898, -0.81640625, -0.51904296875, 0.237548828125, 0, 
120, 365510979, 0.2895944, -0.53845084, -0.20120746, -0.76532435, 9.356050491333008, 0.09772474318742752, 3.3234503269195557, -1.0239828824996948, -0.46910935640335083, -1.445196270942688, -0.819580078125, -0.520751953125, 0.24267578125, 0, 
121, 365527646, 0.28936732, -0.5384741, -0.20140894, -0.76534086, 9.352572441101074, 0.12176451086997986, 3.314851760864258, -0.34501588344573975, -0.46485772728919983, -1.4043444395065308, -0.819580078125, -0.51904296875, 0.24755859375, 0, 
122, 365544313, 0.28916126, -0.5385276, -0.20160271, -0.76533026, 9.355851173400879, 0.07705488801002502, 3.356292486190796, -0.9384236931800842, -0.6694391369819641, -1.399541974067688, -0.8173828125, -0.520751953125, 0.242431640625, 0, 
123, 365560980, 0.2887724, -0.5386436, -0.20156056, -0.7654065, 9.363852500915527, 0.15831679105758667, 3.31611704826355, -2.323199987411499, -0.47345075011253357, -1.2720547914505005, -0.822021484375, -0.521728515625, 0.240966796875, 0, 
124, 365577647, 0.28849182, -0.53881, -0.20183858, -0.76532197, 9.38705062866211, 0.13577115535736084, 3.242002487182617, -0.1856280416250229, -1.8184378147125244, -1.5196783542633057, -0.81689453125, -0.521240234375, 0.24365234375, 0, 
125, 365594314, 0.28812748, -0.5390644, -0.2019086, -0.76526153, 9.529640197753906, 0.10785342007875443, 3.3959834575653076, -1.9425312280654907, -1.888757348060608, -1.1642253398895264, -0.81787109375, -0.52294921875, 0.245849609375, 0, 
126, 365610981, 0.28763628, -0.5393344, -0.20167476, -0.76531786, 9.498997688293457, 0.07830560952425003, 3.322392702102661, -4.258034706115723, -1.111629605293274, -0.9354142546653748, -0.8173828125, -0.521240234375, 0.242431640625, 0, 
127, 365627648, 0.28706965, -0.53972226, -0.20146622, -0.7653119, 9.505767822265625, 0.16957880556583405, 3.329205274581909, -4.489970684051514, -2.1158523559570312, -1.1134610176086426, -0.815673828125, -0.524658203125, 0.2451171875, 0, 
128, 365644315, 0.2865378, -0.5402344, -0.2013395, -0.76518315, 9.542813301086426, 0.1288294792175293, 3.3628768920898438, -3.9701478481292725, -3.337552785873413, -0.7987449169158936, -0.818115234375, -0.52392578125, 0.241455078125, 0, 
129, 365660982, 0.28597423, -0.5408849, -0.2012303, -0.76496315, 9.472431182861328, 0.11440052837133408, 3.3458001613616943, -3.9282586574554443, -4.486103534698486, -0.573148250579834, -0.8134765625, -0.52294921875, 0.2451171875, 0, 
130, 365677649, 0.28538093, -0.5416855, -0.20118737, -0.7646295, 9.396334648132324, 0.11746972054243088, 3.300196886062622, -4.172949314117432, -5.867690563201904, -0.6713601350784302, -0.814697265625, -0.52685546875, 0.242431640625, 0, 
131, 365694316, 0.28461, -0.54271203, -0.2010755, -0.7642183, 9.31453800201416, 0.1365724503993988, 3.246201992034912, -4.962308883666992, -7.46094274520874, -0.6618323922157288, -0.815673828125, -0.5234375, 0.24853515625, 0, 
132, 365710983, 0.28378713, -0.5438658, -0.20099269, -0.7637257, 9.272819519042969, 0.1519658863544464, 3.1991748809814453, -5.934170722961426, -8.556041717529297, -1.0056703090667725, -0.81298828125, -0.5263671875, 0.24658203125, 0, 
133, 365727650, 0.28278178, -0.5451515, -0.20087454, -0.7632129, 9.2311372756958, 0.1456494927406311, 3.135006904602051, -6.623446464538574, -9.513123512268066, -1.4456197023391724, -0.811767578125, -0.52734375, 0.248779296875, 0, 
134, 365744317, 0.28169024, -0.5464751, -0.2007868, -0.76269275, 9.265684127807617, 0.1852046549320221, 3.089416265487671, -6.840297698974609, -9.91684627532959, -1.9362701177597046, -0.81396484375, -0.52685546875, 0.248779296875, 0, 
135, 365760984, 0.28060374, -0.5477059, -0.20079783, -0.7622073, 9.354471206665039, 0.17736025154590607, 3.1065351963043213, -6.354397773742676, -9.48200511932373, -2.530906915664673, -0.8095703125, -0.528564453125, 0.25146484375, 0, 
136, 365777651, 0.27953652, -0.54876095, -0.20085406, -0.7618258, 9.401956558227539, 0.18659180402755737, 3.110595703125, -5.753420829772949, -8.228747367858887, -3.0010411739349365, -0.808349609375, -0.52978515625, 0.25146484375, 0, 
137, 365794318, 0.27850342, -0.5496519, -0.20088744, -0.761553, 9.430778503417969, 0.1771172732114792, 3.1159162521362305, -5.533074378967285, -6.868572235107422, -3.144869089126587, -0.807861328125, -0.531982421875, 0.254638671875, 0, 
138, 365810985, 0.27755973, -0.5503688, -0.20089956, -0.76137656, 9.407116889953613, 0.19988617300987244, 3.095649003982544, -5.3242292404174805, -5.430291652679443, -3.089712619781494, -0.80908203125, -0.53076171875, 0.25244140625, 0, 
139, 365827652, 0.27667925, -0.55094254, -0.20086917, -0.76129013, 9.395874977111816, 0.23307153582572937, 3.0828914642333984, -5.003389835357666, -4.173474311828613, -2.90669584274292, -0.80615234375, -0.53515625, 0.25439453125, 0, 
140, 365844319, 0.2758712, -0.55138576, -0.20085007, -0.7612675, 9.406776428222656, 0.25839465856552124, 3.103145122528076, -4.353979110717773, -3.1714539527893066, -2.8061912059783936, -0.8046875, -0.531982421875, 0.251708984375, 0, 
141, 365860986, 0.2751254, -0.5517416, -0.20085464, -0.7612784, 9.417311668395996, 0.28170129656791687, 3.055866003036499, -3.879427909851074, -2.549731731414795, -2.746424436569214, -0.806396484375, -0.53515625, 0.2529296875, 0, 
142, 365877653, 0.27446476, -0.552031, -0.20085792, -0.7613062, 9.435811996459961, 0.28545984625816345, 3.0364506244659424, -3.5896968841552734, -2.018075942993164, -2.4479596614837646, -0.8056640625, -0.535888671875, 0.25390625, 0, 
143, 365894320, 0.27387306, -0.5522918, -0.2008295, -0.7613377, 9.412802696228027, 0.28317928314208984, 3.0173935890197754, -3.4855172634124756, -1.7009011507034302, -2.017256259918213, -0.806884765625, -0.538330078125, 0.25390625, 0, 
144, 365910987, 0.27336577, -0.5525844, -0.20089036, -0.76129156, 9.380595207214355, 0.3376944959163666, 2.9582135677337646, -2.5500004291534424, -2.2117207050323486, -1.6774014234542847, -0.802978515625, -0.536865234375, 0.253662109375, 0, 
145, 365927654, 0.27288347, -0.55288666, -0.20092028, -0.7612371, 9.3577880859375, 0.3376524746417999, 2.9407131671905518, -2.74528431892395, -2.1989524364471436, -1.4258075952529907, -0.80126953125, -0.53759765625, 0.25537109375, 0, 
146, 365944321, 0.2724373, -0.5532004, -0.20082901, -0.76119304, 9.403411865234375, 0.35503873229026794, 2.9393231868743896, -3.303257465362549, -1.939470648765564, -0.7730682492256165, -0.8017578125, -0.536376953125, 0.252685546875, 0, 
147, 365960988, 0.27208886, -0.553388, -0.2007096, -0.761213, 9.500911712646484, 0.4233188331127167, 2.993645668029785, -3.011502742767334, -0.843080461025238, -0.45862099528312683, -0.80078125, -0.540283203125, 0.25244140625, 0, 
148, 365977655, 0.27181095, -0.5534492, -0.2005452, -0.76131094, 9.612626075744629, 0.4684223234653473, 3.015528678894043, -2.446422576904297, 0.30251801013946533, -0.0904768705368042, -0.8017578125, -0.53759765625, 0.255859375, 0, 
149, 365994322, 0.2716472, -0.55339664, -0.2002892, -0.76147497, 9.656673431396484, 0.5020747184753418, 3.0910398960113525, -3.0301871299743652, 1.4729799032211304, 0.3865148425102234, -0.8046875, -0.5380859375, 0.25390625, 0, 
150, 366010989, 0.27147326, -0.5532064, -0.19989105, -0.76177984, 9.654155731201172, 0.5670191049575806, 3.086761236190796, -3.662667989730835, 2.982682704925537, 0.4717283546924591, -0.802490234375, -0.5390625, 0.25048828125, 0, 
151, 366027656, 0.271265, -0.55294204, -0.19937219, -0.76218194, 9.586662292480469, 0.5863546133041382, 3.0708236694335938, -3.9610812664031982, 3.92443585395813, 0.6439993977546692, -0.80322265625, -0.541748046875, 0.25146484375, 0, 
152, 366044323, 0.27106598, -0.5526403, -0.19877712, -0.76262695, 9.506525039672852, 0.563399612903595, 3.0553488731384277, -4.479572296142578, 4.436497688293457, 0.8271942138671875, -0.80322265625, -0.542236328125, 0.25048828125, 0, 
153, 366060990, 0.27084967, -0.55238396, -0.19814642, -0.76305336, 9.379729270935059, 0.5111150741577148, 3.0336432456970215, -4.8859429359436035, 4.171893119812012, 0.9639020562171936, -0.805419921875, -0.54052734375, 0.24658203125, 0, 
154, 366077657, 0.27064988, -0.5522243, -0.19757335, -0.7633884, 9.249133110046387, 0.47165223956108093, 3.0025720596313477, -4.549033164978027, 3.2322654724121094, 1.1673564910888672, -0.805419921875, -0.5400390625, 0.248779296875, 0, 
155, 366094324, 0.27055615, -0.55211455, -0.19717903, -0.763603, 9.157794952392578, 0.40662670135498047, 3.0100033283233643, -3.5186212062835693, 2.3174049854278564, 1.2371766567230225, -0.805908203125, -0.54052734375, 0.24560546875, 0, 
156, 366110991, 0.2705361, -0.55204844, -0.19688334, -0.76373404, 9.119705200195312, 0.3797239661216736, 3.0051918029785156, -2.3765130043029785, 1.6918916702270508, 1.5802971124649048, -0.80224609375, -0.540771484375, 0.245361328125, 0, 
157, 366127658, 0.2706401, -0.55202425, -0.19671352, -0.7637585, 9.130303382873535, 0.3906607925891876, 3.027737855911255, -1.2240180969238281, 0.9994522929191589, 2.007209539413452, -0.80322265625, -0.53955078125, 0.24267578125, 0, 
158, 366144325, 0.27083188, -0.55202335, -0.19660941, -0.7637179, 9.144575119018555, 0.4423198103904724, 3.083848237991333, -0.2958267033100128, 0.6278248429298401, 2.4532546997070312, -0.802734375, -0.541259765625, 0.24609375, 0, 
159, 366160992, 0.2711369, -0.5519441, -0.19661039, -0.7636667, 9.146477699279785, 0.5527538061141968, 3.1001999378204346, 0.665040135383606, 0.9499558210372925, 2.5235233306884766, -0.80419921875, -0.5400390625, 0.247314453125, 0, 
160, 366177659, 0.27154186, -0.55170965, -0.19674501, -0.7636576, 9.167798042297363, 0.6659290194511414, 3.091181993484497, 1.7984663248062134, 1.8013859987258911, 2.22412371635437, -0.80322265625, -0.536865234375, 0.244873046875, 0, 
161, 366194326, 0.27203715, -0.55130833, -0.19704641, -0.7636936, 9.20119571685791, 0.6834482550621033, 3.094175100326538, 3.3223581314086914, 2.656376600265503, 1.8055739402770996, -0.80712890625, -0.54052734375, 0.246826171875, 0, 
162, 366210993, 0.2725995, -0.55078334, -0.1975, -0.76375484, 9.27761173248291, 0.6899474263191223, 3.1423466205596924, 4.519226551055908, 3.20719051361084, 1.382144570350647, -0.804931640625, -0.538330078125, 0.244384765625, 0, 
163, 366227660, 0.2731376, -0.550228, -0.19809034, -0.7638098, 9.313880920410156, 0.6710412502288818, 3.1615889072418213, 5.455999374389648, 3.0531811714172363, 0.8167057633399963, -0.805908203125, -0.536865234375, 0.246826171875, 0, 
164, 366244327, 0.2736524, -0.5497067, -0.1987765, -0.7638227, 9.323843955993652, 0.6684674620628357, 3.146214246749878, 5.475234031677246, 2.49436354637146, 0.3664345443248749, -0.8076171875, -0.5361328125, 0.248046875, 0, 
165, 366260994, 0.2740845, -0.549252, -0.19952404, -0.76379985, 9.302117347717285, 0.6583872437477112, 3.1324801445007324, 5.360693454742432, 1.7775918245315552, -0.12478507310152054, -0.805908203125, -0.536376953125, 0.247314453125, 0, 
166, 366277661, 0.27442646, -0.54890376, -0.20030814, -0.7637222, 9.27408218383789, 0.6655846238136292, 3.1112871170043945, 5.289426803588867, 0.8212264776229858, -0.3933342695236206, -0.805908203125, -0.5341796875, 0.24853515625, 0, 
167, 366294328, 0.2747038, -0.5486687, -0.2011169, -0.76357895, 9.267961502075195, 0.6067057847976685, 3.0997235774993896, 4.942193984985352, -0.15964394807815552, -0.5525171160697937, -0.806396484375, -0.53466796875, 0.247802734375, 0, 
168, 366310995, 0.2748649, -0.5485493, -0.20189175, -0.7634023, 9.30075454711914, 0.578402578830719, 3.108226776123047, 4.1471638679504395, -0.9872671365737915, -0.7907281517982483, -0.80419921875, -0.535888671875, 0.24658203125, 0, 
169, 366327662, 0.27483806, -0.5485929, -0.20263314, -0.7631841, 9.342711448669434, 0.5292180776596069, 3.1083455085754395, 3.3839943408966064, -2.1877853870391846, -1.2081893682479858, -0.80517578125, -0.5390625, 0.251708984375, 0, 
170, 366344329, 0.27466226, -0.5487383, -0.20330071, -0.76296526, 9.36851978302002, 0.4944845736026764, 3.0887904167175293, 1.9940319061279297, -2.796497106552124, -1.6297361850738525, -0.806396484375, -0.53564453125, 0.2490234375, 0, 
171, 366360996, 0.27433324, -0.54897124, -0.20382172, -0.7627771, 9.428115844726562, 0.48489391803741455, 3.0965075492858887, 0.6370710730552673, -3.075303792953491, -1.7383466958999634, -0.8046875, -0.537353515625, 0.252685546875, 0, 
172, 366377663, 0.2739377, -0.54924786, -0.20424393, -0.76260704, 9.495678901672363, 0.4572068154811859, 3.0819735527038574, -0.677865743637085, -3.150669574737549, -1.813366413116455, -0.80419921875, -0.53515625, 0.252197265625, 0, 
173, 366394330, 0.2734646, -0.549565, -0.20451698, -0.76247513, 9.55363941192627, 0.4144055247306824, 3.0803825855255127, -1.8171442747116089, -3.0479884147644043, -1.6380730867385864, -0.802001953125, -0.53857421875, 0.25146484375, 0, 
174, 366410997, 0.27290124, -0.5498942, -0.20464525, -0.7624053, 9.556378364562988, 0.35721367597579956, 3.08187198638916, -2.7426974773406982, -2.718109369277954, -1.5710445642471313, -0.7998046875, -0.53857421875, 0.251953125, 0, 
175, 366427664, 0.2723037, -0.5501947, -0.2046679, -0.76239604, 9.526620864868164, 0.31282007694244385, 3.0541019439697266, -3.3847053050994873, -2.1860694885253906, -1.4793511629104614, -0.8037109375, -0.5390625, 0.25146484375, 0, 
176, 366444331, 0.27178165, -0.55044854, -0.20467988, -0.76239604, 9.502339363098145, 0.2714614272117615, 3.0524816513061523, -3.364074945449829, -1.7867037057876587, -1.2162319421768188, -0.799072265625, -0.539794921875, 0.2529296875, 0, 
177, 366460998, 0.2713353, -0.5506126, -0.20466514, -0.7624402, 9.477897644042969, 0.2521233856678009, 3.042736053466797, -2.9319756031036377, -0.9889830946922302, -0.868859589099884, -0.7998046875, -0.5439453125, 0.249755859375, 0, 
178, 366477665, 0.27094144, -0.55071485, -0.20467086, -0.76250494, 9.438837051391602, 0.2564336061477661, 3.0110483169555664, -2.009213924407959, -0.5267124176025391, -0.6424689888954163, -0.801513671875, -0.540283203125, 0.25146484375, 0, 
179, 366494332, 0.27076593, -0.5507223, -0.20486319, -0.76251024, 9.399758338928223, 0.27064093947410583, 2.973769187927246, -0.699188232421875, -0.3236420750617981, -0.463051974773407, -0.799072265625, -0.539306640625, 0.253662109375, 0, 
180, 366510999, 0.27072254, -0.55066144, -0.20523424, -0.7624698, 9.3721342086792, 0.267331063747406, 2.9430911540985107, 0.8297170400619507, -0.2898973822593689, -0.4878450930118561, -0.79931640625, -0.5419921875, 0.25146484375, 0, 
181, 366527666, 0.27073517, -0.55052245, -0.20569527, -0.76244146, 9.342280387878418, 0.32442617416381836, 2.9345905780792236, 2.0110385417938232, 0.10056185722351074, -0.5632744431495667, -0.799072265625, -0.540771484375, 0.253662109375, 0, 
182, 366544333, 0.27082255, -0.5503202, -0.20626132, -0.7624035, 9.35774040222168, 0.36871737241744995, 2.935591459274292, 2.6105167865753174, 0.29529520869255066, -0.7517967820167542, -0.7958984375, -0.541015625, 0.251220703125, 0, 
183, 366561000, 0.27090314, -0.5500618, -0.2067885, -0.7624187, 9.396523475646973, 0.3825833201408386, 2.9853110313415527, 2.7986292839050293, 0.8766523599624634, -0.7020569443702698, -0.799072265625, -0.5419921875, 0.255859375, 0, 
184, 366577667, 0.27105045, -0.5496929, -0.2073498, -0.7624798, 9.456282615661621, 0.3960862159729004, 3.010369062423706, 3.168886661529541, 1.6477611064910889, -0.7783571481704712, -0.79638671875, -0.539306640625, 0.251708984375, 0, 
185, 366594334, 0.27114215, -0.5492234, -0.20770916, -0.7626878, 9.515337944030762, 0.39968061447143555, 3.1067466735839844, 1.9993466138839722, 3.039030075073242, -0.6878675222396851, -0.80029296875, -0.5390625, 0.25244140625, 0, 
186, 366611001, 0.2713562, -0.548634, -0.20828506, -0.7628787, 9.484270095825195, 0.48664310574531555, 2.9033775329589844, 3.722172737121582, 3.3621087074279785, -1.0363668203353882, -0.797607421875, -0.540283203125, 0.251953125, 0, 
187, 366627668, 0.27155206, -0.54819465, -0.20892166, -0.76295084, 9.563040733337402, 0.40393131971359253, 3.1575186252593994, 3.882033586502075, 2.005403995513916, -0.9192270636558533, -0.79541015625, -0.539794921875, 0.25, 0, 
188, 366644335, 0.2715899, -0.5477334, -0.20918272, -0.76319706, 9.536121368408203, 0.4156816601753235, 3.113163471221924, 1.3297663927078247, 3.2602851390838623, -0.6228111982345581, -0.798095703125, -0.540771484375, 0.251220703125, 0, 
189, 366661002, 0.27145374, -0.547454, -0.20926082, -0.7634245, 9.501267433166504, 0.47320929169654846, 3.0601894855499268, -0.5997470021247864, 2.321464776992798, -0.5442570447921753, -0.79541015625, -0.54248046875, 0.25341796875, 0, 
190, 366677669, 0.2713499, -0.5472541, -0.20946164, -0.7635497, 9.544054985046387, 0.4582277834415436, 3.0480306148529053, 0.0766524150967598, 1.3346586227416992, -0.5555906295776367, -0.798095703125, -0.540283203125, 0.2529296875, 0, 
191, 366694336, 0.27137792, -0.5471743, -0.20977797, -0.7635101, 9.544886589050293, 0.40979427099227905, 3.0897579193115234, 0.9803324937820435, 0.04417550191283226, 0.12230703979730606, -0.79638671875, -0.54248046875, 0.25244140625, 0, 
192, 366711003, 0.2714691, -0.5471878, -0.2101634, -0.76336205, 9.51647663116455, 0.37887367606163025, 3.032395839691162, 1.6864618062973022, -0.8744559288024902, 0.5592724680900574, -0.798095703125, -0.544189453125, 0.25244140625, 0, 
193, 366727670, 0.2715505, -0.54732585, -0.21050186, -0.7631407, 9.489927291870117, 0.33842355012893677, 3.0398666858673096, 1.5320428609848022, -1.7108770608901978, 1.0784034729003906, -0.797607421875, -0.54248046875, 0.2529296875, 0, 
194, 366744337, 0.27168512, -0.54761684, -0.21085148, -0.7627875, 9.444419860839844, 0.30865442752838135, 3.030449151992798, 1.590145230293274, -2.958343744277954, 1.7452045679092407, -0.795166015625, -0.540283203125, 0.25390625, 0, 
195, 366761004, 0.27188843, -0.5479602, -0.21120498, -0.76237065, 9.398233413696289, 0.2750003933906555, 3.0078446865081787, 1.7006895542144775, -3.387061595916748, 2.229579210281372, -0.79345703125, -0.54150390625, 0.256591796875, 0, 
196, 366777671, 0.2721405, -0.5483278, -0.2115057, -0.7619328, 9.355528831481934, 0.26047253608703613, 2.9582889080047607, 1.7506600618362427, -3.414724111557007, 2.798450469970703, -0.794677734375, -0.5419921875, 0.257080078125, 0, 
197, 366794338, 0.27247468, -0.54872036, -0.21179792, -0.76144946, 9.36050796508789, 0.26412132382392883, 2.9538516998291016, 2.076556444168091, -3.5710256099700928, 3.3828299045562744, -0.795166015625, -0.538818359375, 0.255126953125, 0, 
198, 366811005, 0.2729453, -0.54905415, -0.21208806, -0.76095957, 9.415918350219727, 0.24031758308410645, 2.9370391368865967, 2.6424050331115723, -3.080939292907715, 4.000621318817139, -0.79736328125, -0.5380859375, 0.2578125, 0, 
199, 366827672, 0.27352104, -0.54932094, -0.21237233, -0.76048064, 9.426100730895996, 0.26427003741264343, 2.9781901836395264, 3.080113649368286, -2.529932975769043, 4.437624931335449, -0.7939453125, -0.53662109375, 0.260986328125, 0, 
200, 366844339, 0.27415052, -0.54951596, -0.21256773, -0.7600585, 9.452460289001465, 0.2930811047554016, 2.9695537090301514, 2.776320695877075, -1.7004656791687012, 4.808560371398926, -0.792724609375, -0.53466796875, 0.26171875, 0, 
201, 366861006, 0.2748042, -0.5496509, -0.21268111, -0.759693, 9.487154960632324, 0.28343507647514343, 3.007185697555542, 2.4839389324188232, -0.9793272614479065, 5.048013687133789, -0.796630859375, -0.53271484375, 0.26171875, 0, 
202, 366877673, 0.27548295, -0.54974455, -0.21275873, -0.7593577, 9.492363929748535, 0.29950833320617676, 2.9957587718963623, 2.4151687622070312, -0.5505449771881104, 5.189318656921387, -0.794921875, -0.533935546875, 0.260498046875, 0, 
203, 366894340, 0.27611125, -0.5498192, -0.21278767, -0.75906724, 9.482267379760742, 0.31942495703697205, 3.010533094406128, 2.290166139602661, -0.2276456654071808, 5.087201118469238, -0.79541015625, -0.53173828125, 0.264404296875, 0, 
204, 366911007, 0.2767416, -0.5498615, -0.21282369, -0.7587969, 9.465141296386719, 0.30004119873046875, 2.9698665142059326, 2.010437250137329, -0.02440890669822693, 4.8835930824279785, -0.794677734375, -0.53125, 0.26513671875, 0, 
205, 366927674, 0.2773252, -0.5498951, -0.21283582, -0.75855607, 9.46726131439209, 0.2803945541381836, 2.9678831100463867, 1.749443531036377, 0.11846514791250229, 4.673645496368408, -0.797119140625, -0.528564453125, 0.2607421875, 0, 
206, 366944341, 0.27785808, -0.54996014, -0.21292087, -0.75829, 9.446330070495605, 0.29707223176956177, 2.9086906909942627, 1.9579437971115112, -0.341109961271286, 4.229969501495361, -0.794677734375, -0.529541015625, 0.267333984375, 0, 
207, 366961008, 0.27828175, -0.5499863, -0.21291792, -0.7581165, 9.417343139648438, 0.269911527633667, 2.9461734294891357, 0.948227047920227, 0.20949269831180573, 3.743661642074585, -0.798583984375, -0.530029296875, 0.26513671875, 0, 
208, 366977675, 0.27864543, -0.5500807, -0.21297868, -0.75789714, 9.401756286621094, 0.2731706500053406, 2.8785817623138428, 1.1676894426345825, -0.5129967331886292, 3.419558048248291, -0.79736328125, -0.52685546875, 0.266845703125, 0, 
209, 366994342, 0.27895555, -0.55025023, -0.21316712, -0.7576069, 9.427642822265625, 0.2534901201725006, 2.9133193492889404, 1.3277302980422974, -1.5118919610977173, 2.8282244205474854, -0.798583984375, -0.52685546875, 0.2646484375, 0, 
210, 367011009, 0.27913782, -0.5504266, -0.21328112, -0.7573795, 9.419356346130371, 0.23517973721027374, 2.9207277297973633, 0.4819222092628479, -1.3340630531311035, 2.360318899154663, -0.799560546875, -0.52734375, 0.267578125, 0, 
211, 367027676, 0.27922317, -0.55062723, -0.21332644, -0.75718945, 9.429107666015625, 0.2661926746368408, 2.8943591117858887, -0.30502164363861084, -1.3345112800598145, 2.0918469429016113, -0.79736328125, -0.525146484375, 0.267333984375, 0, 
212, 367044343, 0.27924863, -0.5508271, -0.21333931, -0.757031, 9.41616153717041, 0.27492064237594604, 2.884960174560547, -0.9649328589439392, -1.2414860725402832, 1.7715471982955933, -0.7978515625, -0.52587890625, 0.266845703125, 0, 
213, 367061010, 0.2791784, -0.5510193, -0.2133062, -0.7569264, 9.426227569580078, 0.298828125, 2.880223274230957, -1.3776943683624268, -1.0352396965026855, 1.405042290687561, -0.799560546875, -0.5263671875, 0.2685546875, 0, 
214, 367077677, 0.27907723, -0.5511281, -0.21325774, -0.7568983, 9.441967010498047, 0.3190835416316986, 2.8848953247070312, -1.6181970834732056, -0.33338767290115356, 1.008237361907959, -0.7978515625, -0.52734375, 0.26904296875, 0, 
215, 367094344, 0.27895588, -0.55115885, -0.21322858, -0.75692886, 9.413141250610352, 0.31809237599372864, 2.920759677886963, -1.4961274862289429, 0.23839662969112396, 0.6087177991867065, -0.79736328125, -0.523681640625, 0.26904296875, 0, 
216, 367111011, 0.27883306, -0.55108273, -0.21326351, -0.7570197, 9.412358283996582, 0.33862343430519104, 2.9118947982788086, -1.1715121269226074, 0.8767420053482056, 0.06347467750310898, -0.799072265625, -0.524658203125, 0.26904296875, 0, 
217, 367127678, 0.27876228, -0.55090934, -0.2133959, -0.75713474, 9.427303314208984, 0.3595067858695984, 2.9210238456726074, -0.5257646441459656, 1.3602200746536255, -0.28847581148147583, -0.799072265625, -0.52587890625, 0.270263671875, 0, 
218, 367144345, 0.2787483, -0.5506647, -0.21359412, -0.75726193, 9.430944442749023, 0.3478934168815613, 2.953415632247925, 0.3335990309715271, 1.7385581731796265, -0.310912549495697, -0.799072265625, -0.523681640625, 0.266357421875, 0, 
219, 367161012, 0.27879634, -0.55034715, -0.21384428, -0.75740427, 9.46590518951416, 0.3526672422885895, 2.956460475921631, 0.957690954208374, 2.1714768409729004, -0.3251916468143463, -0.80029296875, -0.5263671875, 0.266357421875, 0, 
220, 367177679, 0.27888668, -0.54996073, -0.21410242, -0.75757897, 9.486433982849121, 0.37246498465538025, 2.9430763721466064, 1.3644717931747437, 2.7112772464752197, -0.2670380175113678, -0.79736328125, -0.523681640625, 0.266357421875, 0, 
221, 367194346, 0.27904484, -0.5495111, -0.21437538, -0.7577697, 9.478599548339844, 0.39096951484680176, 2.9647908210754395, 1.6937487125396729, 3.163828134536743, -0.11757509410381317, -0.79833984375, -0.524169921875, 0.26904296875, 0, 
222, 367211013, 0.27927488, -0.5490429, -0.21466367, -0.7579427, 9.444220542907715, 0.390840619802475, 2.9912052154541016, 1.730797529220581, 3.246941328048706, 0.10180408507585526, -0.80078125, -0.524658203125, 0.267578125, 0, 
223, 367227680, 0.2794903, -0.5485994, -0.2148883, -0.7581207, 9.434453964233398, 0.42174628376960754, 2.9747982025146484, 1.4995659589767456, 3.2486188411712646, 0.35485756397247314, -0.799072265625, -0.525634765625, 0.266357421875, 0, 
224, 367244347, 0.27967262, -0.5482174, -0.21503949, -0.75828695, 9.404212951660156, 0.40667083859443665, 3.016507625579834, 1.0166897773742676, 2.991211414337158, 0.6038129925727844, -0.799072265625, -0.524169921875, 0.267578125, 0, 
225, 367261014, 0.2798358, -0.5478836, -0.21515548, -0.7584351, 9.404000282287598, 0.4039589464664459, 3.000483751296997, 0.4613167345523834, 2.6897623538970947, 0.6821495294570923, -0.79736328125, -0.52734375, 0.266357421875, 0, 
226, 367277681, 0.27992943, -0.5476433, -0.21515557, -0.75857395, 9.408459663391113, 0.4079980254173279, 3.007418394088745, -0.15386828780174255, 2.321042060852051, 1.025462031364441, -0.799560546875, -0.525634765625, 0.265869140625, 0, 
227, 367294348, 0.28000352, -0.54748166, -0.2150877, -0.7586826, 9.391944885253906, 0.3895513713359833, 3.0104105472564697, -0.9185482859611511, 1.8808751106262207, 1.2922565937042236, -0.799072265625, -0.524169921875, 0.263671875, 0, 
228, 367311015, 0.28004304, -0.5473814, -0.21495144, -0.7587791, 9.397041320800781, 0.40977180004119873, 2.9977235794067383, -1.4672619104385376, 1.5978931188583374, 1.4936621189117432, -0.798583984375, -0.524169921875, 0.26416015625, 0, 
229, 367327682, 0.28004855, -0.5473381, -0.2147572, -0.75886315, 9.404807090759277, 0.40742582082748413, 2.9813311100006104, -2.006409168243408, 1.311824917793274, 1.640576720237732, -0.799560546875, -0.525146484375, 0.264892578125, 0, 
230, 367344349, 0.28001788, -0.5473061, -0.21451275, -0.75896674, 9.430256843566895, 0.4236713647842407, 3.0137763023376465, -2.4172885417938232, 1.3719122409820557, 1.6349035501480103, -0.799560546875, -0.524658203125, 0.265380859375, 0, 
231, 367361016, 0.27998087, -0.54727167, -0.2142209, -0.7590876, 9.455665588378906, 0.40176376700401306, 3.0411314964294434, -2.8757553100585938, 1.5193262100219727, 1.6983075141906738, -0.80078125, -0.524169921875, 0.265380859375, 0, 
232, 367377683, 0.27998334, -0.54721195, -0.2138953, -0.7592215, 9.451936721801758, 0.38164225220680237, 3.0589282512664795, -3.2410948276519775, 1.8056632280349731, 1.8575289249420166, -0.80126953125, -0.5224609375, 0.264404296875, 0, 
233, 367394350, 0.27992034, -0.54715425, -0.21347308, -0.7594052, 9.442883491516113, 0.3611629605293274, 3.0592517852783203, -3.7487006187438965, 2.0749170780181885, 1.8920934200286865, -0.80078125, -0.52685546875, 0.265380859375, 0, 
234, 367411017, 0.27985284, -0.5470854, -0.2130204, -0.7596068, 9.41201114654541, 0.32617372274398804, 3.0333809852600098, -3.841059446334839, 2.266115427017212, 1.950400710105896, -0.802001953125, -0.521728515625, 0.2626953125, 0, 
235, 367427684, 0.2798204, -0.5469947, -0.21261124, -0.7597987, 9.408711433410645, 0.30207550525665283, 3.0119211673736572, -3.6953752040863037, 2.2879507541656494, 1.8801196813583374, -0.802978515625, -0.521728515625, 0.263916015625, 0, 
236, 367444351, 0.279799, -0.5469071, -0.2122097, -0.75998163, 9.394282341003418, 0.27710533142089844, 3.026824712753296, -3.738481044769287, 2.22765851020813, 1.8934766054153442, -0.802490234375, -0.52294921875, 0.260009765625, 0, 
237, 367461018, 0.2797459, -0.546818, -0.21179141, -0.76018214, 9.397819519042969, 0.2956221401691437, 3.0316944122314453, -3.695362091064453, 2.315035820007324, 1.8221068382263184, -0.801513671875, -0.524658203125, 0.260986328125, 0, 
238, 367477685, 0.27968794, -0.5467129, -0.21140948, -0.76038533, 9.40495491027832, 0.3114577829837799, 3.065139055252075, -3.5383951663970947, 2.332273244857788, 1.6138114929199219, -0.80126953125, -0.5224609375, 0.261474609375, 0, 
239, 367494352, 0.27956814, -0.5465666, -0.21095322, -0.7606613, 9.410116195678711, 0.2600998282432556, 3.1202731132507324, -4.249749183654785, 2.8567962646484375, 1.3602843284606934, -0.802734375, -0.52392578125, 0.25830078125, 0, 
240, 367511019, 0.27939063, -0.5464119, -0.21048221, -0.7609681, 9.390840530395508, 0.30071547627449036, 3.035679817199707, -4.464523792266846, 2.9761767387390137, 1.0602697134017944, -0.8037109375, -0.52392578125, 0.259033203125, 0, 
241, 367527686, 0.27930978, -0.54636794, -0.21040972, -0.76104933, 9.401737213134766, 0.2497900426387787, 3.0360829830169678, -2.2225420475006104, 0.9065806269645691, 0.5639468431472778, -0.802734375, -0.5244140625, 0.256591796875, 0, 
242, 367544353, 0.2790859, -0.5463759, -0.21004003, -0.76122797, 9.442972183227539, 0.2013043463230133, 3.167177200317383, -4.14307165145874, 1.3892135620117188, 0.9402357339859009, -0.802734375, -0.525634765625, 0.255615234375, 0, 
243, 367561020, 0.27877918, -0.5464144, -0.20947011, -0.7614695, 9.347845077514648, 0.17465277016162872, 3.021169662475586, -5.631145000457764, 1.7318220138549805, 1.1791255474090576, -0.804443359375, -0.52392578125, 0.256103515625, 0, 
244, 367577687, 0.27846873, -0.54652214, -0.2089826, -0.76163983, 9.342740058898926, 0.24631057679653168, 3.027169942855835, -5.455480098724365, 0.9163008332252502, 1.022862434387207, -0.80419921875, -0.52392578125, 0.25732421875, 0, 
245, 367594354, 0.27828166, -0.54664457, -0.20865822, -0.7617091, 9.366621017456055, 0.18117524683475494, 3.096585750579834, -4.163497447967529, 0.31558045744895935, 1.2261117696762085, -0.801025390625, -0.5234375, 0.251708984375, 0, 
246, 367611021, 0.2781079, -0.54684585, -0.20844051, -0.7616879, 9.356697082519531, 0.20061913132667542, 3.0397353172302246, -3.2397119998931885, -0.592831552028656, 1.2666312456130981, -0.802734375, -0.52490234375, 0.25439453125, 0, 
247, 367627688, 0.27799183, -0.5470689, -0.20829111, -0.76161087, 9.381460189819336, 0.2074875831604004, 3.0453007221221924, -2.65909743309021, -0.9711438417434692, 1.4403109550476074, -0.804443359375, -0.52490234375, 0.2529296875, 0, 
248, 367644355, 0.2778438, -0.5473796, -0.20813708, -0.7614838, 9.393393516540527, 0.2249571979045868, 3.020772695541382, -2.904851198196411, -1.651071310043335, 1.5019350051879883, -0.80322265625, -0.52490234375, 0.25439453125, 0, 
249, 367661022, 0.27771673, -0.54774934, -0.2080123, -0.76129836, 9.442346572875977, 0.22629572451114655, 3.0095021724700928, -2.846250057220459, -2.209735870361328, 1.6492211818695068, -0.802734375, -0.52490234375, 0.25390625, 0, 
250, 367677689, 0.27757126, -0.548154, -0.20789853, -0.7610911, 9.432107925415039, 0.21554939448833466, 3.0168673992156982, -2.6975555419921875, -2.510467529296875, 1.6602858304977417, -0.80322265625, -0.5244140625, 0.25439453125, 0, 
251, 367694356, 0.27741852, -0.5485823, -0.20779993, -0.76086515, 9.497076988220215, 0.21191401779651642, 3.0025506019592285, -2.702498197555542, -2.7466800212860107, 1.621751308441162, -0.8056640625, -0.52490234375, 0.250732421875, 0, 
252, 367711023, 0.27725905, -0.5489811, -0.20771523, -0.7606587, 9.636479377746582, 0.20849326252937317, 3.0486552715301514, -2.53727126121521, -2.5346202850341797, 1.4696377515792847, -0.805419921875, -0.526123046875, 0.254638671875, 0, 
253, 367727690, 0.27712914, -0.549307, -0.20762807, -0.7604946, 9.762795448303223, 0.2033553421497345, 3.1500470638275146, -2.480154514312744, -1.9547995328903198, 1.4131230115890503, -0.806640625, -0.525390625, 0.25341796875, 0, 
254, 367744357, 0.27703378, -0.54952973, -0.20752019, -0.7603979, 9.81644344329834, 0.19311702251434326, 3.177473783493042, -2.2699639797210693, -1.0707389116287231, 1.4196287393569946, -0.805419921875, -0.52392578125, 0.25634765625, 0, 
255, 367761024, 0.27703285, -0.54964834, -0.2074128, -0.7603417, 9.725495338439941, 0.17462341487407684, 3.159605026245117, -2.080609083175659, -0.25843214988708496, 1.5923478603363037, -0.805419921875, -0.526611328125, 0.255615234375, 0, 
256, 367777691, 0.27705368, -0.5497614, -0.20734386, -0.7602712, 9.515425682067871, 0.16466696560382843, 3.076122999191284, -1.4642653465270996, -0.3089660108089447, 1.6629176139831543, -0.80322265625, -0.522216796875, 0.256103515625, 0, 
257, 367794358, 0.27713254, -0.54992145, -0.20738961, -0.76011425, 9.349370002746582, 0.16097228229045868, 3.0060503482818604, -0.7394387125968933, -1.0314363241195679, 1.7296192646026611, -0.804931640625, -0.5234375, 0.2578125, 0, 
258, 367811025, 0.27724037, -0.5501867, -0.2075257, -0.75984585, 9.216156005859375, 0.16978520154953003, 2.9557337760925293, -0.48639801144599915, -2.1421310901641846, 1.8063933849334717, -0.803955078125, -0.52392578125, 0.25244140625, 0, 
259, 367827692, 0.27725777, -0.5505596, -0.20766743, -0.75953066, 9.169404029846191, 0.21083830296993256, 2.8959970474243164, -0.3162015378475189, -2.983661651611328, 1.7292734384536743, -0.8037109375, -0.52392578125, 0.259521484375, 0, 
260, 367844359, 0.27730924, -0.55097765, -0.20789272, -0.7591469, 9.149094581604004, 0.20695658028125763, 2.8591179847717285, -0.1419968158006668, -3.6163218021392822, 1.6717220544815063, -0.80322265625, -0.521240234375, 0.25830078125, 0, 
261, 367861026, 0.27737558, -0.5514518, -0.20823771, -0.7586838, 9.165002822875977, 0.23995435237884521, 2.850630283355713, 0.4465638995170593, -4.416897773742676, 1.496620774269104, -0.802001953125, -0.52392578125, 0.261474609375, 0, 
262, 367877693, 0.27741146, -0.55189884, -0.20848341, -0.75827783, 9.211360931396484, 0.2479413002729416, 2.871415138244629, -0.10457665473222733, -3.903733730316162, 1.5975857973098755, -0.8037109375, -0.521728515625, 0.260498046875, 0, 
263, 367894360, 0.2774598, -0.5523846, -0.20879774, -0.75781983, 9.296109199523926, 0.22573210299015045, 2.8857545852661133, 0.4634682536125183, -4.412069797515869, 1.6088682413101196, -0.80419921875, -0.521240234375, 0.26171875, 0, 
264, 367911027, 0.27755368, -0.55276895, -0.2091516, -0.7574076, 9.374829292297363, 0.2492065280675888, 2.968111991882324, 0.8726310729980469, -3.721243381500244, 1.4334466457366943, -0.80419921875, -0.5234375, 0.263916015625, 0, 
265, 367927694, 0.27768743, -0.55302763, -0.20948625, -0.75707716, 9.453896522521973, 0.28464028239250183, 2.9805567264556885, 1.146891713142395, -2.6561648845672607, 1.4044914245605469, -0.80224609375, -0.5224609375, 0.26611328125, 0, 
266, 367944361, 0.27784175, -0.5531424, -0.20976338, -0.7568599, 9.505005836486816, 0.2916197180747986, 3.0073812007904053, 1.03075110912323, -1.3431556224822998, 1.3094301223754883, -0.804443359375, -0.5185546875, 0.26611328125, 0, 
267, 367961028, 0.27805817, -0.55310726, -0.21001242, -0.75673705, 9.549654960632324, 0.29602792859077454, 2.9814982414245605, 0.8422544002532959, -0.08134592324495316, 1.2250232696533203, -0.800537109375, -0.520751953125, 0.268798828125, 0, 
268, 367977695, 0.2782642, -0.55293804, -0.21013495, -0.75675106, 9.549407005310059, 0.298555850982666, 3.02695894241333, 0.4902334213256836, 1.3744349479675293, 1.2802698612213135, -0.802978515625, -0.520263671875, 0.265625, 0, 
269, 367994362, 0.27847564, -0.5526425, -0.21013367, -0.75688946, 9.530210494995117, 0.31854814291000366, 2.9941351413726807, -0.27473461627960205, 2.7482621669769287, 1.2922312021255493, -0.80126953125, -0.519287109375, 0.26611328125, 0, 
270, 368011029, 0.27861974, -0.552298, -0.21005963, -0.7571084, 9.497390747070312, 0.3404030501842499, 2.9720652103424072, -0.761222243309021, 3.3517611026763916, 1.0503191947937012, -0.807861328125, -0.522216796875, 0.266845703125, 0, 
271, 368027696, 0.27871484, -0.5519123, -0.20997062, -0.75737923, 9.45982837677002, 0.3575078248977661, 2.967522621154785, -1.0618001222610474, 3.7184455394744873, 0.6852869987487793, -0.8056640625, -0.520751953125, 0.266845703125, 0, 
272, 368044363, 0.2787761, -0.5515099, -0.20988224, -0.7576743, 9.453351020812988, 0.38064825534820557, 2.968967914581299, -1.3927288055419922, 3.838632583618164, 0.3803806006908417, -0.8046875, -0.521240234375, 0.265625, 0, 
273, 368061030, 0.27874473, -0.5511202, -0.20977074, -0.75800025, 9.443873405456543, 0.3608027994632721, 2.977456569671631, -1.6380215883255005, 3.8113040924072266, 0.036222755908966064, -0.806884765625, -0.52001953125, 0.2646484375, 0, 
274, 368077697, 0.27867115, -0.5507397, -0.20968348, -0.75832784, 9.427825927734375, 0.3699720799922943, 2.9669084548950195, -1.892291784286499, 3.6518521308898926, -0.3185451328754425, -0.8056640625, -0.51953125, 0.265625, 0, 
275, 368094364, 0.278531, -0.55038846, -0.20961085, -0.75865436, 9.40649127960205, 0.35887694358825684, 2.9902749061584473, -2.247232675552368, 3.3631200790405273, -0.7064879536628723, -0.8095703125, -0.52001953125, 0.26318359375, 0, 
276, 368111031, 0.27831575, -0.5501092, -0.2095288, -0.7589585, 9.403488159179688, 0.3495748043060303, 2.9936888217926025, -2.904313325881958, 2.809475898742676, -0.9827336072921753, -0.803466796875, -0.520751953125, 0.26123046875, 0, 
277, 368127698, 0.27796027, -0.5499296, -0.20941076, -0.7592515, 9.412247657775879, 0.34170299768447876, 2.9860165119171143, -3.463387966156006, 2.1276533603668213, -1.3166464567184448, -0.806396484375, -0.522705078125, 0.262451171875, 0, 
278, 368144365, 0.2775745, -0.5498325, -0.20933583, -0.7594836, 9.417888641357422, 0.3383365869522095, 2.98612117767334, -3.536038637161255, 1.3356575965881348, -1.4326722621917725, -0.807373046875, -0.523193359375, 0.262451171875, 0, 
279, 368161032, 0.2771576, -0.54977673, -0.20929897, -0.75968647, 9.430840492248535, 0.32787442207336426, 2.9945483207702637, -3.506673812866211, 0.8890361785888672, -1.6242551803588867, -0.806396484375, -0.52392578125, 0.26025390625, 0, 
280, 368177699, 0.27674213, -0.5497447, -0.20931007, -0.7598578, 9.443382263183594, 0.31676390767097473, 2.992515802383423, -3.247126579284668, 0.5599896311759949, -1.7066893577575684, -0.805908203125, -0.526123046875, 0.2607421875, 0, 
281, 368194366, 0.27632755, -0.54971516, -0.20936465, -0.760015, 9.441890716552734, 0.3120957314968109, 2.9846112728118896, -2.8693907260894775, 0.4177367091178894, -1.796884536743164, -0.80712890625, -0.527587890625, 0.26171875, 0, 
282, 368211033, 0.27595177, -0.549697, -0.20944312, -0.7601432, 9.405850410461426, 0.3044761121273041, 2.997774839401245, -2.6228177547454834, 0.2566584646701813, -1.6242679357528687, -0.8076171875, -0.52587890625, 0.259033203125, 0, 
283, 368227700, 0.2756313, -0.54964316, -0.20955269, -0.7602682, 9.395110130310059, 0.32825639843940735, 3.0049188137054443, -2.174659252166748, 0.4492659866809845, -1.4976130723953247, -0.804931640625, -0.526123046875, 0.259521484375, 0, 
284, 368244367, 0.27537137, -0.54950905, -0.20971708, -0.7604138, 9.416866302490234, 0.34967777132987976, 3.016383171081543, -1.677414059638977, 0.9260720610618591, -1.5860791206359863, -0.804931640625, -0.526611328125, 0.2578125, 0, 
285, 368261034, 0.27513477, -0.54932654, -0.20989513, -0.7605821, 9.406052589416504, 0.3644617795944214, 3.0518691539764404, -1.2828633785247803, 1.2791943550109863, -1.5768458843231201, -0.803955078125, -0.52783203125, 0.256103515625, 0, 
286, 368277701, 0.27489322, -0.54912204, -0.21005863, -0.7607721, 9.396025657653809, 0.37094852328300476, 3.0429468154907227, -1.1606523990631104, 1.5050727128982544, -1.5594291687011719, -0.80322265625, -0.52880859375, 0.261474609375, 0, 
287, 368294368, 0.2747349, -0.548873, -0.21028578, -0.7609463, 9.382314682006836, 0.37608498334884644, 2.995327949523926, -0.8231282234191895, 1.6533831357955933, -1.5160030126571655, -0.801513671875, -0.529296875, 0.2587890625, 0, 
288, 368311035, 0.27459246, -0.54863536, -0.2105532, -0.7610951, 9.381120681762695, 0.3829822838306427, 2.9630446434020996, -0.2839423716068268, 1.4590338468551636, -1.4498838186264038, -0.8037109375, -0.529296875, 0.260009765625, 0, 
289, 368327702, 0.2745217, -0.54838145, -0.21089885, -0.76120794, 9.420392036437988, 0.3766818046569824, 2.9715330600738525, 0.26016733050346375, 1.353880763053894, -1.3877086639404297, -0.804931640625, -0.531005859375, 0.25732421875, 0, 
290, 368344369, 0.27448878, -0.5481232, -0.21129707, -0.7612954, 9.434110641479492, 0.39069634675979614, 3.006857395172119, 0.9091803431510925, 1.250443935394287, -1.2971550226211548, -0.802734375, -0.530029296875, 0.25830078125, 0, 
291, 368361036, 0.27451676, -0.54783815, -0.21176754, -0.7613598, 9.427206039428711, 0.4214088022708893, 3.016141176223755, 1.4830265045166016, 1.2498996257781982, -1.2790215015411377, -0.805908203125, -0.52978515625, 0.259521484375, 0, 
292, 368377703, 0.27453852, -0.54753816, -0.21215558, -0.7614596, 9.43183708190918, 0.4057648479938507, 3.0416219234466553, 1.0139875411987305, 1.6007105112075806, -1.0788453817367554, -0.8017578125, -0.530517578125, 0.256591796875, 0, 
293, 368394370, 0.27458853, -0.54723746, -0.21257421, -0.761541, 9.401508331298828, 0.5051885843276978, 2.9362242221832275, 1.5649808645248413, 1.5393681526184082, -0.9449933767318726, -0.80322265625, -0.531005859375, 0.260009765625, 0, 
294, 368411037, 0.27474764, -0.547065, -0.21323742, -0.7614221, 9.426012992858887, 0.44419270753860474, 3.0198352336883545, 2.967775821685791, -0.20569561421871185, -0.822615921497345, -0.80322265625, -0.530517578125, 0.2626953125, 0, 
295, 368427704, 0.27485296, -0.5469129, -0.21369666, -0.76136476, 9.464712142944336, 0.47186124324798584, 3.0083131790161133, 1.5125387907028198, 0.21743261814117432, -0.4355439841747284, -0.805419921875, -0.529296875, 0.260009765625, 0, 
296, 368444371, 0.27484998, -0.5468167, -0.21387649, -0.76138425, 9.375808715820312, 0.4488234221935272, 2.9673783779144287, -0.6716033816337585, 0.5831307172775269, -0.0466151088476181, -0.802490234375, -0.531494140625, 0.264892578125, 0, 
297, 368461038, 0.2747914, -0.54679745, -0.21410964, -0.76135355, 9.391131401062012, 0.5420850515365601, 2.9899919033050537, -0.5629926919937134, -0.1907377690076828, -0.29144689440727234, -0.80322265625, -0.531005859375, 0.26220703125, 0, 
298, 368477705, 0.27476776, -0.5468568, -0.2143746, -0.76124495, 9.417702674865723, 0.4978387653827667, 3.020210027694702, -0.14515997469425201, -0.8921158909797668, 0.08386237919330597, -0.801513671875, -0.53271484375, 0.261474609375, 0, 
299, 368494372, 0.2747366, -0.54692316, -0.21467395, -0.7611242, 9.407537460327148, 0.5121414661407471, 3.0292413234710693, 0.17161788046360016, -1.0362898111343384, -0.006211079657077789, -0.80078125, -0.531005859375, 0.2646484375, 0, 
300, 368511039, 0.2747247, -0.54698837, -0.21500589, -0.76098806, 9.418893814086914, 0.5037129521369934, 3.0041627883911133, 0.03355903550982475, -1.1482555866241455, -0.11817698925733566, -0.802490234375, -0.531494140625, 0.265869140625, 0, 
301, 368527706, 0.27467045, -0.5470816, -0.21527001, -0.76086587, 9.430740356445312, 0.48286303877830505, 2.979776382446289, -0.546997606754303, -1.1778640747070312, -0.06330178678035736, -0.802001953125, -0.531005859375, 0.264892578125, 0, 
302, 368544373, 0.27455074, -0.5471456, -0.21547204, -0.7608058, 9.43783950805664, 0.47115376591682434, 3.000314950942993, -0.8456288576126099, -0.7565734386444092, -0.23628994822502136, -0.80078125, -0.531005859375, 0.265380859375, 0, 
303, 368561040, 0.2744133, -0.5471669, -0.21566932, -0.76078427, 9.412979125976562, 0.4759471118450165, 2.9922850131988525, -1.0937391519546509, -0.4121723771095276, -0.5042884349822998, -0.802001953125, -0.531005859375, 0.26708984375, 0, 
304, 368577707, 0.27425802, -0.54717624, -0.21585402, -0.7607812, 9.394051551818848, 0.48430460691452026, 2.9983909130096436, -1.3036863803863525, -0.2915237247943878, -0.619699239730835, -0.802978515625, -0.531005859375, 0.265869140625, 0, 
305, 368594374, 0.27411118, -0.54715466, -0.21603698, -0.7607976, 9.390006065368652, 0.48472797870635986, 2.982264518737793, -1.265331506729126, -0.04146696254611015, -0.6568377614021301, -0.802001953125, -0.534912109375, 0.266845703125, 0, 
306, 368611041, 0.2739788, -0.54707754, -0.21621549, -0.7608501, 9.358929634094238, 0.4843512177467346, 3.000985860824585, -1.0698039531707764, 0.4275079369544983, -0.6854726672172546, -0.801513671875, -0.53369140625, 0.266845703125, 0, 
307, 368627708, 0.27384853, -0.54697835, -0.21637712, -0.7609223, 9.35007381439209, 0.47558799386024475, 2.990689277648926, -1.2730921506881714, 0.6434743404388428, -0.7212408185005188, -0.801513671875, -0.533203125, 0.266845703125, 0, 
308, 368644375, 0.27373478, -0.5468143, -0.21650198, -0.76104575, 9.348333358764648, 0.46267005801200867, 3.003352403640747, -1.3085271120071411, 1.2676684856414795, -0.6724997758865356, -0.80078125, -0.531005859375, 0.267578125, 0, 
309, 368661042, 0.27368444, -0.54658896, -0.21659565, -0.761199, 9.312348365783691, 0.45527365803718567, 2.9929003715515137, -1.4114134311676025, 1.8337346315383911, -0.44619888067245483, -0.801513671875, -0.53369140625, 0.2646484375, 0, 
310, 368677709, 0.2736156, -0.5463153, -0.21661276, -0.7614153, 9.325643539428711, 0.44133052229881287, 3.050295352935791, -1.3508267402648926, 2.4752049446105957, -0.2871055603027344, -0.801513671875, -0.537109375, 0.26513671875, 0, 
311, 368694376, 0.2735885, -0.5459953, -0.21657957, -0.76166403, 9.301481246948242, 0.4341975450515747, 3.0438168048858643, -1.4233360290527344, 3.0000855922698975, -0.0174422450363636, -0.799072265625, -0.533447265625, 0.266845703125, 0, 
312, 368711043, 0.2736348, -0.545615, -0.21649319, -0.7619443, 9.315309524536133, 0.4279271364212036, 3.016439199447632, -1.6196832656860352, 3.614790916442871, 0.3414749503135681, -0.7998046875, -0.534423828125, 0.267333984375, 0, 
313, 368727710, 0.27373102, -0.5451447, -0.21633302, -0.7622919, 9.318264961242676, 0.41509345173835754, 3.0420572757720947, -1.8454078435897827, 4.5464911460876465, 0.5850773453712463, -0.7998046875, -0.53271484375, 0.263671875, 0, 
314, 368744377, 0.27387664, -0.5446266, -0.21619749, -0.7626483, 9.321314811706543, 0.428243488073349, 3.0998830795288086, -1.291072130203247, 4.868071556091309, 0.7095293998718262, -0.802001953125, -0.53369140625, 0.26318359375, 0, 
315, 368761044, 0.27406394, -0.5440285, -0.21603402, -0.76305383, 9.308481216430664, 0.4331898093223572, 3.095003128051758, -1.2926089763641357, 5.580680847167969, 0.7879299521446228, -0.801025390625, -0.53369140625, 0.260986328125, 0, 
316, 368777711, 0.2741907, -0.5434813, -0.21576643, -0.7634741, 9.350985527038574, 0.38926538825035095, 3.1519033908843994, -2.1145334243774414, 5.480945587158203, 0.9234338998794556, -0.805419921875, -0.535400390625, 0.26220703125, 0, 
317, 368794378, 0.2743589, -0.5428527, -0.21547306, -0.76394355, 9.372278213500977, 0.38898077607154846, 3.128239870071411, -2.0203425884246826, 6.193925380706787, 1.019161343574524, -0.805419921875, -0.5341796875, 0.260498046875, 0, 
318, 368811045, 0.27456406, -0.54221743, -0.21522737, -0.76439, 9.431239128112793, 0.38564977049827576, 3.2033956050872803, -1.6533129215240479, 6.103257656097412, 1.0413037538528442, -0.804443359375, -0.535400390625, 0.25830078125, 0, 
319, 368827712, 0.2747316, -0.54166466, -0.21493286, -0.76480454, 9.458824157714844, 0.39010822772979736, 3.2089734077453613, -1.9984052181243896, 5.601273536682129, 1.251084327697754, -0.806640625, -0.53515625, 0.259521484375, 0, 
320, 368844379, 0.2748566, -0.54121494, -0.21463196, -0.7651624, 9.518126487731934, 0.37942275404930115, 3.2427759170532227, -2.259629487991333, 4.790439605712891, 1.3223518133163452, -0.804931640625, -0.531982421875, 0.25830078125, 0, 
321, 368861046, 0.274983, -0.54089904, -0.21435547, -0.765418, 9.56804084777832, 0.37651166319847107, 3.263986110687256, -2.5329556465148926, 3.6425940990448, 1.524256944656372, -0.807861328125, -0.531494140625, 0.254638671875, 0, 
322, 368877713, 0.27503914, -0.54077303, -0.21406971, -0.7655669, 9.59005355834961, 0.3378337323665619, 3.290303945541382, -2.8807120323181152, 2.173090696334839, 1.7180041074752808, -0.806884765625, -0.53466796875, 0.255126953125, 0, 
323, 368894380, 0.2750084, -0.5408576, -0.21380143, -0.7655929, 9.593871116638184, 0.32837215065956116, 3.248823642730713, -3.177537202835083, 0.4614832401275635, 1.7793335914611816, -0.808349609375, -0.533447265625, 0.254638671875, 0, 
324, 368911047, 0.27495155, -0.54116446, -0.2135954, -0.76545393, 9.547856330871582, 0.3099340498447418, 3.2190351486206055, -3.2549643516540527, -1.4851267337799072, 2.0003581047058105, -0.80615234375, -0.532470703125, 0.25341796875, 0, 
325, 368927714, 0.27484268, -0.541676, -0.21346553, -0.7651675, 9.45662784576416, 0.3132038116455078, 3.147289991378784, -3.0433263778686523, -3.319380283355713, 2.074993848800659, -0.8095703125, -0.531982421875, 0.254150390625, 0, 
326, 368944381, 0.27472535, -0.54235435, -0.21340397, -0.7647461, 9.364523887634277, 0.30465632677078247, 3.1310830116271973, -2.87337327003479, -4.843271255493164, 2.258265495300293, -0.81005859375, -0.533447265625, 0.258056640625, 0, 
327, 368961048, 0.27453482, -0.5431239, -0.2133661, -0.7642789, 9.290738105773926, 0.3025866448879242, 3.1000301837921143, -2.961379051208496, -5.640288352966309, 2.0569496154785156, -0.80712890625, -0.532470703125, 0.25830078125, 0, 
328, 368977715, 0.27433774, -0.5438663, -0.21334977, -0.7638262, 9.276969909667969, 0.31402987241744995, 3.0952887535095215, -3.0306999683380127, -5.496460914611816, 1.8080840110778809, -0.80712890625, -0.53369140625, 0.26123046875, 0, 
329, 368994382, 0.27410972, -0.5445032, -0.21329683, -0.7634689, 9.278901100158691, 0.30547896027565, 3.07981014251709, -3.178075075149536, -4.558407783508301, 1.4780640602111816, -0.805908203125, -0.5341796875, 0.260986328125, 0, 
330, 369011049, 0.2738905, -0.5449953, -0.21319854, -0.7632239, 9.29299259185791, 0.33388271927833557, 3.0744194984436035, -3.2033424377441406, -3.2721896171569824, 1.2896957397460938, -0.80615234375, -0.533203125, 0.2587890625, 0, 
331, 369027716, 0.2736785, -0.5453175, -0.21303764, -0.7631148, 9.32181167602539, 0.33265015482902527, 3.0766115188598633, -3.338052272796631, -1.7370662689208984, 1.0684914588928223, -0.806640625, -0.532470703125, 0.260498046875, 0, 
332, 369044383, 0.2734852, -0.5454791, -0.21280836, -0.76313245, 9.368916511535645, 0.321689635515213, 3.108123779296875, -3.556349039077759, -0.27047014236450195, 0.9321678876876831, -0.805908203125, -0.533203125, 0.263916015625, 0, 
333, 369061050, 0.27329862, -0.5454798, -0.21252885, -0.7632769, 9.414725303649902, 0.3327317237854004, 3.1428749561309814, -3.692007064819336, 1.1489026546478271, 0.6755158305168152, -0.806640625, -0.536376953125, 0.260986328125, 0, 
334, 369077717, 0.27313054, -0.54535055, -0.21221507, -0.7635165, 9.443720817565918, 0.3156734108924866, 3.1518146991729736, -3.5850861072540283, 2.2908318042755127, 0.5657396912574768, -0.80810546875, -0.53564453125, 0.2626953125, 0, 
335, 369094384, 0.2729866, -0.5451289, -0.21191601, -0.7638094, 9.44163703918457, 0.2994614243507385, 3.161933183670044, -3.451183319091797, 2.9713358879089355, 0.35680416226387024, -0.804931640625, -0.53466796875, 0.260009765625, 0, 
336, 369111051, 0.27283877, -0.5448909, -0.21162374, -0.764113, 9.43771743774414, 0.28414011001586914, 3.1861250400543213, -3.332404613494873, 3.0848002433776855, 0.2902751863002777, -0.805419921875, -0.536865234375, 0.260498046875, 0, 
337, 369127718, 0.272724, -0.54468876, -0.21136239, -0.7643702, 9.406691551208496, 0.2592637538909912, 3.172097682952881, -3.030878782272339, 2.7103805541992188, 0.48794108629226685, -0.8056640625, -0.531982421875, 0.255126953125, 0, 
338, 369144385, 0.27264518, -0.54454845, -0.21116158, -0.7645538, 9.39040756225586, 0.24364550411701202, 3.1339151859283447, -2.5628063678741455, 2.0486505031585693, 0.6830458045005798, -0.8056640625, -0.53515625, 0.257080078125, 0, 
339, 369161052, 0.27259907, -0.54450834, -0.21103376, -0.76463413, 9.395418167114258, 0.23117007315158844, 3.1321990489959717, -2.0909311771392822, 1.0454143285751343, 0.9159038066864014, -0.808349609375, -0.53466796875, 0.255126953125, 0, 
340, 369177719, 0.2725833, -0.5445666, -0.21099779, -0.7646082, 9.375481605529785, 0.21195578575134277, 3.12347674369812, -1.5183591842651367, 0.003733050776645541, 1.0706685781478882, -0.806396484375, -0.53857421875, 0.25439453125, 0, 
341, 369194386, 0.27259132, -0.5447132, -0.21103683, -0.7644902, 9.35645866394043, 0.22357259690761566, 3.1012113094329834, -0.9470680356025696, -0.9019896984100342, 1.2496628761291504, -0.804931640625, -0.537353515625, 0.25927734375, 0, 
342, 369211053, 0.27267376, -0.5448991, -0.2111739, -0.7642903, 9.366717338562012, 0.22853967547416687, 3.1104178428649902, -0.2315388023853302, -1.501237154006958, 1.438850998878479, -0.807861328125, -0.53515625, 0.259033203125, 0, 
343, 369227720, 0.27278087, -0.54511446, -0.21135491, -0.7640484, 9.391907691955566, 0.21959689259529114, 3.1070852279663086, 0.13599702715873718, -1.86127507686615, 1.5336437225341797, -0.807373046875, -0.532958984375, 0.255615234375, 0, 
344, 369244387, 0.27292752, -0.54529583, -0.21155715, -0.7638105, 9.375123023986816, 0.24159303307533264, 3.0912303924560547, 0.46163690090179443, -1.646371603012085, 1.6021575927734375, -0.809326171875, -0.5341796875, 0.259033203125, 0, 
345, 369261054, 0.27311474, -0.54543453, -0.21179868, -0.76357764, 9.374714851379395, 0.24855279922485352, 3.0795114040374756, 0.8228527903556824, -1.4235539436340332, 1.5700392723083496, -0.805419921875, -0.53466796875, 0.260009765625, 0, 
346, 369277721, 0.2733359, -0.54551226, -0.21207054, -0.7633675, 9.40468692779541, 0.27066680788993835, 3.0715219974517822, 1.2493042945861816, -1.0217161178588867, 1.5192493200302124, -0.808837890625, -0.533447265625, 0.258544921875, 0, 
347, 369294388, 0.27357242, -0.54553443, -0.21235119, -0.7631888, 9.407150268554688, 0.303356409072876, 3.115999937057495, 1.4071040153503418, -0.6047542691230774, 1.4207299947738647, -0.8095703125, -0.5341796875, 0.2568359375, 0, 
348, 369311055, 0.273806, -0.54549176, -0.21260202, -0.7630659, 9.442283630371094, 0.31309524178504944, 3.1107466220855713, 1.355315089225769, 0.0010052983416244388, 1.3417532444000244, -0.806396484375, -0.531494140625, 0.264404296875, 0, 
349, 369327722, 0.27406254, -0.5453763, -0.21287048, -0.7629814, 9.44902229309082, 0.3232274055480957, 3.1141200065612793, 1.4178357124328613, 0.5120041966438293, 1.1492608785629272, -0.80810546875, -0.531982421875, 0.26123046875, 0, 
350, 369344389, 0.27423465, -0.5452186, -0.21293306, -0.76301485, 9.466263771057129, 0.30606529116630554, 3.193554401397705, 0.008605865761637688, 1.4458494186401367, 1.2193820476531982, -0.809326171875, -0.531494140625, 0.26123046875, 0, 
351, 369361056, 0.27441916, -0.54503274, -0.21307896, -0.76304054, 9.406228065490723, 0.38165760040283203, 3.0116586685180664, 0.5916470289230347, 1.424802541732788, 0.9551168084144592, -0.809814453125, -0.53125, 0.26123046875, 0, 
352, 369377723, 0.27458772, -0.5449709, -0.21335123, -0.76294804, 9.471939086914062, 0.3201203942298889, 3.1963305473327637, 1.098919153213501, 0.06987784802913666, 0.7910674214363098, -0.808349609375, -0.5341796875, 0.2607421875, 0, 
353, 369394390, 0.27463183, -0.5448862, -0.2133148, -0.76300293, 9.396392822265625, 0.2796340584754944, 3.1306257247924805, -1.054128885269165, 1.1489149332046509, 1.0161387920379639, -0.806640625, -0.532470703125, 0.26220703125, 0, 
354, 369411057, 0.2744602, -0.5448964, -0.21302691, -0.7631378, 9.325885772705078, 0.37535935640335083, 3.1159353256225586, -3.5546071529388428, 1.1018903255462646, 0.7858680486679077, -0.81103515625, -0.53076171875, 0.2607421875, 0, 
355, 369427724, 0.27423394, -0.5449545, -0.21290162, -0.7632125, 9.344901084899902, 0.389111191034317, 3.0889580249786377, -2.95580792427063, 0.23122504353523254, 0.05896683782339096, -0.81103515625, -0.533447265625, 0.26025390625, 0, 
356, 369444391, 0.27399623, -0.5450714, -0.21281533, -0.7632385, 9.350790977478027, 0.36933618783950806, 3.103944778442383, -2.7359743118286133, -0.3433382511138916, 0.06323135644197464, -0.806640625, -0.53369140625, 0.259033203125, 0, 
357, 369461058, 0.27373633, -0.5451815, -0.2128458, -0.7632446, 9.318872451782227, 0.40189263224601746, 3.105813503265381, -2.1436421871185303, -0.6316860318183899, -0.45753249526023865, -0.81103515625, -0.533447265625, 0.263427734375, 0, 
358, 369477725, 0.27348465, -0.5452758, -0.21295765, -0.7632363, 9.353081703186035, 0.3756680488586426, 3.101886510848999, -1.7514859437942505, -0.7565094828605652, -0.7525650858879089, -0.808837890625, -0.532958984375, 0.2607421875, 0, 
359, 369494392, 0.27319932, -0.54535395, -0.21306463, -0.7632528, 9.387347221374512, 0.3718566298484802, 3.0778491497039795, -1.845586895942688, -0.6149737238883972, -0.960335373878479, -0.812744140625, -0.533447265625, 0.261962890625, 0, 
360, 369511059, 0.27290446, -0.54537576, -0.21317829, -0.76331097, 9.414146423339844, 0.36109864711761475, 3.086132764816284, -1.8647712469100952, -0.1952328085899353, -1.2169491052627563, -0.80810546875, -0.53369140625, 0.26171875, 0, 
361, 369527726, 0.27262133, -0.5453762, -0.21330285, -0.76337713, 9.400596618652344, 0.33872807025909424, 3.0965285301208496, -1.7579405307769775, -0.05587410554289818, -1.2512187957763672, -0.807861328125, -0.536376953125, 0.259521484375, 0, 
362, 369544393, 0.27237198, -0.54535013, -0.2134723, -0.7634373, 9.372286796569824, 0.3694366216659546, 3.0802078247070312, -1.2135168313980103, 0.03478844836354256, -1.2312921285629272, -0.80810546875, -0.531982421875, 0.2607421875, 0, 
363, 369561060, 0.27218586, -0.54530054, -0.21370642, -0.76347363, 9.399877548217773, 0.35419633984565735, 3.077502727508545, -0.7614142298698425, 0.025055622681975365, -1.1993658542633057, -0.809326171875, -0.5341796875, 0.260009765625, 0, 
364, 369577727, 0.27202424, -0.54522216, -0.21396713, -0.7635142, 9.387389183044434, 0.3571138381958008, 3.0855982303619385, -0.34404256939888, 0.18667173385620117, -1.175520420074463, -0.808349609375, -0.536865234375, 0.26220703125, 0, 
365, 369594394, 0.2719344, -0.54509634, -0.2142474, -0.7635574, 9.415814399719238, 0.38459885120391846, 3.0808212757110596, 0.09853845089673996, 0.5131312012672424, -0.9538169503211975, -0.808837890625, -0.53564453125, 0.2607421875, 0, 
366, 369611061, 0.2718976, -0.5449506, -0.2145397, -0.76359254, 9.408050537109375, 0.3882392942905426, 3.0785624980926514, 0.4002688229084015, 0.6431283950805664, -0.7388367056846619, -0.806640625, -0.536865234375, 0.26171875, 0, 
367, 369627728, 0.27193135, -0.5447881, -0.21484195, -0.7636115, 9.398808479309082, 0.4070042669773102, 3.0858874320983887, 0.794115424156189, 0.7576940655708313, -0.39296284317970276, -0.80615234375, -0.537353515625, 0.26220703125, 0, 
368, 369644395, 0.2720132, -0.544621, -0.21514305, -0.7636166, 9.385583877563477, 0.41171178221702576, 3.1063625812530518, 1.0280743837356567, 0.8049750328063965, -0.10766297578811646, -0.8037109375, -0.535888671875, 0.2626953125, 0, 
369, 369661062, 0.2721123, -0.5444744, -0.21545178, -0.76359886, 9.381309509277344, 0.41744598746299744, 3.0902957916259766, 1.1026331186294556, 0.6190012693405151, 0.018652448430657387, -0.805908203125, -0.537353515625, 0.26318359375, 0, 
370, 369677729, 0.27224326, -0.5443203, -0.21572646, -0.7635846, 9.413643836975098, 0.42380863428115845, 3.0798535346984863, 1.0590980052947998, 0.7834028601646423, 0.2963133156299591, -0.808349609375, -0.537353515625, 0.263427734375, 0, 
371, 369694396, 0.27241772, -0.54417276, -0.2160163, -0.76354545, 9.388764381408691, 0.4509190320968628, 3.0338282585144043, 1.262955904006958, 0.6882068514823914, 0.5037569999694824, -0.8076171875, -0.53515625, 0.263916015625, 0, 
372, 369711063, 0.2726022, -0.54404664, -0.21628475, -0.7634935, 9.389339447021484, 0.4522133767604828, 3.1408801078796387, 1.1286299228668213, 0.5785973072052002, 0.6794472932815552, -0.806640625, -0.53515625, 0.2626953125, 0, 
373, 369727730, 0.27278268, -0.54396117, -0.21654743, -0.76341546, 9.371856689453125, 0.46062588691711426, 3.0206375122070312, 1.1025307178497314, 0.27675163745880127, 0.8087913990020752, -0.809814453125, -0.537353515625, 0.264404296875, 0, 
374, 369744397, 0.27290732, -0.54393065, -0.21677138, -0.76332915, 9.404812812805176, 0.44875526428222656, 3.074848175048828, 0.5974481701850891, -0.052544448524713516, 0.7566695809364319, -0.80712890625, -0.536376953125, 0.265380859375, 0, 
375, 369761064, 0.27305615, -0.543845, -0.21700817, -0.7632698, 9.408150672912598, 0.4957810640335083, 3.028737783432007, 0.7578092813491821, 0.34650781750679016, 0.6826745271682739, -0.810302734375, -0.536376953125, 0.267333984375, 0, 
376, 369777731, 0.27316788, -0.54374903, -0.21723612, -0.7632332, 9.430888175964355, 0.5010910034179688, 3.037930965423584, 0.4864555895328522, 0.4397892951965332, 0.44114670157432556, -0.8037109375, -0.535400390625, 0.266357421875, 0, 
377, 369794398, 0.27315587, -0.54363424, -0.21738306, -0.76327753, 9.467698097229004, 0.5291816592216492, 3.028071880340576, -0.4091244339942932, 0.8177686929702759, -0.05944707244634628, -0.80712890625, -0.535888671875, 0.264892578125, 0, 
378, 369811065, 0.27304342, -0.54345006, -0.21740016, -0.7634438, 9.483488082885742, 0.5123279690742493, 3.008199453353882, -1.4882900714874268, 1.7352540493011475, -0.422366201877594, -0.80859375, -0.535888671875, 0.267822265625, 0, 
379, 369827732, 0.27289766, -0.5431794, -0.21728441, -0.7637215, 9.48519515991211, 0.48900172114372253, 3.04968523979187, -2.4312472343444824, 2.7948386669158936, -0.4766908586025238, -0.806396484375, -0.536865234375, 0.26611328125, 0, 
380, 369844399, 0.27273408, -0.5428173, -0.21704733, -0.76410466, 9.465810775756836, 0.4830513894557953, 3.110612154006958, -2.971738815307617, 3.883634090423584, -0.40263161063194275, -0.806640625, -0.5380859375, 0.26220703125, 0, 
381, 369861066, 0.27259034, -0.5423817, -0.2166814, -0.7645691, 9.453043937683105, 0.40265992283821106, 3.1514337062835693, -3.5316972732543945, 4.850732326507568, -0.07125455141067505, -0.80712890625, -0.536376953125, 0.263916015625, 0, 
382, 369877733, 0.27245745, -0.5419034, -0.2161691, -0.76510054, 9.417229652404785, 0.40330973267555237, 3.1866743564605713, -4.419958114624023, 5.598187446594238, 0.2937072217464447, -0.807861328125, -0.5390625, 0.260009765625, 0, 
383, 369894400, 0.27229986, -0.5413829, -0.21555737, -0.76569736, 9.335474967956543, 0.43132296204566956, 3.2007882595062256, -4.924144744873047, 6.226006507873535, 0.39027997851371765, -0.806640625, -0.537841796875, 0.26171875, 0, 
384, 369911067, 0.27214476, -0.540794, -0.21495605, -0.7663374, 9.220088958740234, 0.5025860667228699, 3.2395503520965576, -4.871677398681641, 6.7181806564331055, 0.1546046882867813, -0.8095703125, -0.53955078125, 0.255615234375, 0, 
385, 369927734, 0.27185625, -0.54029256, -0.21416928, -0.76701367, 9.183065414428711, 0.44939741492271423, 3.275721311569214, -6.529869079589844, 6.546805381774902, 0.21475611627101898, -0.80859375, -0.54052734375, 0.255615234375, 0, 
386, 369944401, 0.2715776, -0.5399338, -0.21345305, -0.7675643, 9.270197868347168, 0.5182097554206848, 3.325747013092041, -6.179410457611084, 5.205570697784424, 0.4567577540874481, -0.810302734375, -0.538818359375, 0.25341796875, 0, 
387, 369961068, 0.27137092, -0.5397106, -0.21299708, -0.767921, 9.326142311096191, 0.5067615509033203, 3.311206102371216, -4.588527679443359, 3.378321409225464, 0.40475109219551086, -0.80810546875, -0.541748046875, 0.25439453125, 0, 
388, 369977735, 0.27111438, -0.5396439, -0.21265523, -0.76815325, 9.325514793395996, 0.48569345474243164, 3.3054566383361816, -4.221203327178955, 1.8068413734436035, 0.2006819099187851, -0.810791015625, -0.538818359375, 0.25244140625, 0, 
389, 369994402, 0.27089158, -0.5396249, -0.21243146, -0.76830715, 9.297626495361328, 0.4803360104560852, 3.2441580295562744, -3.5746235847473145, 1.078300952911377, 0.11169057339429855, -0.8125, -0.539306640625, 0.250244140625, 0, 
390, 370011069, 0.27079695, -0.5396201, -0.21232793, -0.76837236, 9.248451232910156, 0.43447592854499817, 3.2074711322784424, -2.3507721424102783, 0.6401445865631104, 0.5324304103851318, -0.810302734375, -0.542724609375, 0.250732421875, 0, 
391, 370027736, 0.2708064, -0.5396428, -0.21230763, -0.76835865, 9.333939552307129, 0.4065139591693878, 3.1657891273498535, -1.3442953824996948, 0.20953109860420227, 1.002256989479065, -0.808837890625, -0.537841796875, 0.246826171875, 0, 
392, 370044403, 0.27087364, -0.53962934, -0.21234658, -0.7683336, 9.36928653717041, 0.38666918873786926, 3.0962162017822266, -0.7338934540748596, 0.3336758017539978, 1.0535463094711304, -0.8115234375, -0.538818359375, 0.250244140625, 0, 
393, 370061070, 0.27094904, -0.5395578, -0.21244514, -0.7683301, 9.351768493652344, 0.41681692004203796, 3.0738534927368164, -0.3645198941230774, 0.6148647665977478, 0.730057954788208, -0.81103515625, -0.54150390625, 0.249755859375, 0, 
394, 370077737, 0.27099118, -0.53941685, -0.21264061, -0.76836014, 9.3218994140625, 0.4442511796951294, 3.0634348392486572, 0.1849813014268875, 0.8911362290382385, 0.058941230177879333, -0.810302734375, -0.541015625, 0.24951171875, 0, 
395, 370094404, 0.27103883, -0.53923565, -0.21294475, -0.7683863, 9.32617473602295, 0.45372676849365234, 3.0847578048706055, 0.8331618905067444, 0.894926905632019, -0.37582793831825256, -0.80859375, -0.538330078125, 0.24853515625, 0, 
396, 370111071, 0.271111, -0.5390875, -0.21333592, -0.7683564, 9.389774322509766, 0.4472846984863281, 3.139871597290039, 1.3876385688781738, 0.38718080520629883, -0.4230065643787384, -0.810302734375, -0.541015625, 0.250732421875, 0, 
397, 370127738, 0.2711994, -0.5389726, -0.21367516, -0.76831156, 9.424531936645508, 0.39572519063949585, 3.186277151107788, 1.1664855480194092, 0.2798635959625244, -0.057001058012247086, -0.80908203125, -0.543212890625, 0.2529296875, 0, 
398, 370144405, 0.27130896, -0.53877217, -0.21378328, -0.76838315, 9.410717010498047, 0.3296585977077484, 3.1975293159484863, 0.017730392515659332, 1.6287052631378174, 0.5689412951469421, -0.80908203125, -0.538330078125, 0.255126953125, 0, 
399, 370161072, 0.27153713, -0.5385388, -0.21364099, -0.7685059, 9.390068054199219, 0.27304378151893616, 3.1817286014556885, -1.0438200235366821, 2.6127450466156006, 1.9142225980758667, -0.8115234375, -0.538818359375, 0.250244140625, 0, 
400, 370177739, 0.27174607, -0.53827006, -0.21333693, -0.7687046, 9.410039901733398, 0.4124011695384979, 3.1977269649505615, -2.008151054382324, 3.363785982131958, 2.217515468597412, -0.809814453125, -0.537841796875, 0.250244140625, 0, 
401, 370194406, 0.27196133, -0.53804034, -0.21307756, -0.7688614, 9.516632080078125, 0.46253836154937744, 3.328169107437134, -1.750244140625, 2.92887020111084, 2.2214598655700684, -0.810791015625, -0.538818359375, 0.249755859375, 0, 
402, 370211073, 0.27218294, -0.5379473, -0.2128715, -0.7689051, 9.473060607910156, 0.5009288191795349, 3.3929126262664795, -1.474010705947876, 1.7018678188323975, 2.493223190307617, -0.8095703125, -0.537841796875, 0.25244140625, 0, 
403, 370227740, 0.2723743, -0.5379015, -0.21266109, -0.7689276, 9.357815742492676, 0.5477853417396545, 3.417473793029785, -1.6767865419387817, 1.3289850950241089, 2.4523582458496094, -0.81298828125, -0.538330078125, 0.251953125, 0, 
404, 370244407, 0.2724765, -0.5379185, -0.21239935, -0.7689519, 9.19311809539795, 0.533368706703186, 3.3791487216949463, -2.523651123046875, 0.9594005346298218, 2.2162797451019287, -0.814697265625, -0.538330078125, 0.25048828125, 0, 
405, 370261074, 0.27238682, -0.538007, -0.21210085, -0.7690041, 9.122481346130371, 0.514636754989624, 3.263094663619995, -3.488725423812866, 0.4789190888404846, 1.4321470260620117, -0.810791015625, -0.5400390625, 0.251220703125, 0, 
406, 370277741, 0.27214497, -0.53821105, -0.21186095, -0.7690132, 9.193928718566895, 0.48544177412986755, 3.2076923847198486, -3.9710190296173096, -0.6251036524772644, 0.637468159198761, -0.81201171875, -0.539306640625, 0.249755859375, 0, 
407, 370294408, 0.27180248, -0.53850806, -0.21169363, -0.76897234, 9.289801597595215, 0.41827040910720825, 3.1774961948394775, -3.988448143005371, -1.5798170566558838, 0.09269876778125763, -0.8115234375, -0.54052734375, 0.250732421875, 0, 
408, 370311075, 0.27139676, -0.53887075, -0.21154942, -0.7689012, 9.372941970825195, 0.45069578289985657, 3.1810526847839355, -4.167160987854004, -2.174147129058838, -0.17225824296474457, -0.8125, -0.541015625, 0.25146484375, 0, 
409, 370327742, 0.2710317, -0.539101, -0.21140228, -0.768909, 9.434061050415039, 0.4640484154224396, 3.163475751876831, -3.8825528621673584, -1.1149080991744995, -0.2807408273220062, -0.8125, -0.541015625, 0.249755859375, 0, 
410, 370344409, 0.2707317, -0.5392233, -0.21112005, -0.76900643, 9.462202072143555, 0.34577107429504395, 3.1624274253845215, -4.256049156188965, 0.1394931524991989, 0.25192007422447205, -0.814208984375, -0.539306640625, 0.249267578125, 0, 
411, 370361076, 0.27043903, -0.53927654, -0.21069066, -0.76918995, 9.479233741760254, 0.334614634513855, 3.305628776550293, -5.243150234222412, 1.092490553855896, 0.48767220973968506, -0.8115234375, -0.54052734375, 0.24853515625, 0, 
412, 370377743, 0.27011955, -0.5392089, -0.21013302, -0.76950204, 9.464913368225098, 0.2737397849559784, 3.2454261779785156, -5.887502193450928, 2.415719747543335, 0.4386879503726959, -0.81201171875, -0.542724609375, 0.248046875, 0, 
413, 370394410, 0.26987723, -0.5390749, -0.2097281, -0.7697914, 9.397095680236816, 0.2453099638223648, 3.16459321975708, -4.52039909362793, 2.518951654434204, 0.26612240076065063, -0.8115234375, -0.54052734375, 0.245361328125, 0, 
414, 370411077, 0.26957208, -0.5389068, -0.20914824, -0.7701739, 9.408160209655762, 0.31723204255104065, 3.3134918212890625, -5.775575160980225, 3.2777280807495117, 0.3462517559528351, -0.8115234375, -0.543701171875, 0.245849609375, 0, 
415, 370427744, 0.26930356, -0.5387113, -0.20837659, -0.77061355, 9.276183128356934, 0.2763809859752655, 3.29355788230896, -6.690793514251709, 4.043778896331787, 1.1021209955215454, -0.813720703125, -0.5419921875, 0.24658203125, 0, 
416, 370444411, 0.2691698, -0.53853905, -0.20779926, -0.7709364, 9.277022361755371, 0.35614028573036194, 3.2735278606414795, -5.099117755889893, 3.309206247329712, 1.3152059316635132, -0.8134765625, -0.54248046875, 0.24267578125, 0, 
417, 370461078, 0.26921225, -0.5383068, -0.20739128, -0.77119374, 9.26834774017334, 0.28716230392456055, 3.314943552017212, -3.2828054428100586, 3.3305280208587646, 1.6817619800567627, -0.813232421875, -0.540283203125, 0.2421875, 0, 
418, 370477745, 0.26938888, -0.5380159, -0.20713565, -0.7714037, 9.258332252502441, 0.2979355454444885, 3.3333301544189453, -1.836359977722168, 3.369568109512329, 1.8155049085617065, -0.81103515625, -0.54052734375, 0.241455078125, 0, 
419, 370494412, 0.26965353, -0.53770286, -0.20700292, -0.7715652, 9.28869342803955, 0.3238149881362915, 3.3522069454193115, -0.8903294205665588, 3.199397563934326, 1.8339074850082397, -0.815673828125, -0.539794921875, 0.239501953125, 0, 
420, 370511079, 0.2699373, -0.5374137, -0.20686407, -0.77170444, 9.301126480102539, 0.3096352219581604, 3.331958532333374, -0.7216313481330872, 3.0345921516418457, 2.083285331726074, -0.815673828125, -0.541259765625, 0.240966796875, 0, 
421, 370527746, 0.2702423, -0.53706735, -0.20673713, -0.7718727, 9.36475944519043, 0.31091538071632385, 3.340775489807129, -0.5218076109886169, 3.4532389640808105, 2.0108726024627686, -0.816162109375, -0.54345703125, 0.2421875, 0, 
422, 370544413, 0.27058506, -0.5366278, -0.20664902, -0.77208215, 9.381031036376953, 0.2919287383556366, 3.3087494373321533, -0.00932302325963974, 4.085514068603516, 1.877750277519226, -0.814697265625, -0.5419921875, 0.23828125, 0, 
423, 370561080, 0.27098936, -0.5361427, -0.20662539, -0.7722836, 9.372136116027832, 0.32352912425994873, 3.317880153656006, 0.690985918045044, 4.27217960357666, 1.9293087720870972, -0.81494140625, -0.539306640625, 0.239501953125, 0, 
424, 370577747, 0.27147517, -0.5355773, -0.20672013, -0.77248, 9.342179298400879, 0.31091850996017456, 3.311475992202759, 1.5802074670791626, 4.560283660888672, 1.742835521697998, -0.816650390625, -0.540283203125, 0.24169921875, 0, 
425, 370594414, 0.27199793, -0.5349549, -0.20680189, -0.7727056, 9.307838439941406, 0.29489028453826904, 3.3564140796661377, 1.7992990016937256, 5.049589157104492, 1.8787622451782227, -0.816650390625, -0.5390625, 0.23779296875, 0, 
426, 370611081, 0.27247718, -0.5343469, -0.20682243, -0.7729516, 9.273085594177246, 0.3329606354236603, 3.3747670650482178, 1.3530998229980469, 5.11146879196167, 1.8905056715011597, -0.818359375, -0.539794921875, 0.2412109375, 0, 
427, 370627748, 0.27291277, -0.5337715, -0.2067838, -0.7732059, 9.287393569946289, 0.3298932909965515, 3.4613001346588135, 0.7066992521286011, 5.007136344909668, 1.864585518836975, -0.81787109375, -0.5390625, 0.23681640625, 0, 
428, 370644415, 0.27332336, -0.5332219, -0.206662, -0.77347255, 9.290888786315918, 0.36234408617019653, 3.5150914192199707, 0.11811939626932144, 5.040701866149902, 2.0586915016174316, -0.8173828125, -0.5390625, 0.23779296875, 0, 
429, 370661082, 0.2738032, -0.53252393, -0.20657514, -0.77380675, 9.300472259521484, 0.35108551383018494, 3.4529061317443848, 0.7812707424163818, 6.1105570793151855, 1.9732602834701538, -0.82177734375, -0.536865234375, 0.236328125, 0, 
430, 370677749, 0.27437645, -0.5315469, -0.20642245, -0.7743162, 9.290785789489746, 0.3441016674041748, 3.3584342002868652, 0.8178712725639343, 8.477376937866211, 1.8919018507003784, -0.8212890625, -0.535888671875, 0.237060546875, 0, 
431, 370694416, 0.27490288, -0.53034055, -0.20609473, -0.7750435, 9.401618003845215, 0.3038475513458252, 3.374270439147949, -0.19489988684654236, 10.75589656829834, 1.527445673942566, -0.823486328125, -0.536865234375, 0.2353515625, 0, 
432, 370711083, 0.2753389, -0.529063, -0.20563203, -0.7758843, 9.379762649536133, 0.3082078695297241, 3.3690266609191895, -1.1422373056411743, 11.686178207397461, 1.2686423063278198, -0.819580078125, -0.535888671875, 0.2314453125, 0, 
433, 370727750, 0.2756932, -0.5278858, -0.20518966, -0.776677, 9.25193977355957, 0.31534263491630554, 3.3765299320220947, -1.3835792541503906, 10.831319808959961, 1.020423173904419, -0.8251953125, -0.53466796875, 0.231689453125, 0, 
434, 370744417, 0.27596626, -0.5268893, -0.20491083, -0.7773301, 9.100818634033203, 0.27122339606285095, 3.455763339996338, -1.0430134534835815, 8.927814483642578, 0.4643135368824005, -0.822998046875, -0.53515625, 0.22998046875, 0, 
435, 370761084, 0.27614516, -0.52618134, -0.2046989, -0.7778017, 9.047503471374512, 0.25167199969291687, 3.525554895401001, -1.3668091297149658, 6.469404220581055, 0.4521474838256836, -0.82373046875, -0.5400390625, 0.228759765625, 0, 
436, 370777751, 0.2761967, -0.5256969, -0.20451497, -0.7781594, 9.052082061767578, 0.34660276770591736, 3.612308979034424, -1.735721468925476, 4.645663738250732, 0.2884950637817383, -0.822021484375, -0.538330078125, 0.22705078125, 0, 
437, 370794418, 0.27623647, -0.52540994, -0.20447423, -0.77834964, 9.119542121887207, 0.343574196100235, 3.6924052238464355, -1.074209451675415, 2.6978049278259277, 0.3331764042377472, -0.825927734375, -0.53564453125, 0.227783203125, 0, 
438, 370811085, 0.27630937, -0.52529097, -0.2045475, -0.77838486, 9.23195743560791, 0.35670357942581177, 3.716820478439331, -0.6446844935417175, 1.0534822940826416, 0.5446220636367798, -0.8251953125, -0.534423828125, 0.227783203125, 0, 
439, 370827752, 0.27635634, -0.52523136, -0.20462492, -0.7783881, 9.300459861755371, 0.35472339391708374, 3.743940591812134, -0.7497861385345459, 0.576433002948761, 0.5493603944778442, -0.825927734375, -0.533447265625, 0.22509765625, 0, 
440, 370844419, 0.27635145, -0.52523726, -0.20467597, -0.77837235, 9.282224655151367, 0.34266161918640137, 3.7063887119293213, -1.1287517547607422, 0.1375337839126587, 0.5178823471069336, -0.826904296875, -0.534912109375, 0.226318359375, 0, 
441, 370861086, 0.27635133, -0.525278, -0.20473535, -0.7783294, 9.258630752563477, 0.32504400610923767, 3.6662440299987793, -1.070802927017212, -0.15650640428066254, 0.6244056224822998, -0.825927734375, -0.53515625, 0.226806640625, 0, 
442, 370877753, 0.2763612, -0.5253935, -0.20479438, -0.77823234, 9.219537734985352, 0.3059636652469635, 3.6823079586029053, -1.094827651977539, -0.7363395690917969, 0.8918021321296692, -0.82763671875, -0.5361328125, 0.222900390625, 0, 
443, 370894420, 0.27639195, -0.52556336, -0.20488629, -0.77808255, 9.214315414428711, 0.3392344117164612, 3.674591064453125, -0.8196703195571899, -1.2490671873092651, 1.0856646299362183, -0.826416015625, -0.538330078125, 0.226806640625, 0, 
444, 370911087, 0.27642795, -0.5257546, -0.20499027, -0.7779132, 9.191575050354004, 0.3528996407985687, 3.651125907897949, -0.7478907108306885, -1.4495376348495483, 1.1366467475891113, -0.825927734375, -0.5361328125, 0.227783203125, 0, 
445, 370927754, 0.27645096, -0.52594274, -0.2050784, -0.77775455, 9.186434745788574, 0.38579070568084717, 3.5653176307678223, -0.9406007528305054, -1.3892327547073364, 1.0770076513290405, -0.826416015625, -0.53662109375, 0.231689453125, 0, 
446, 370944421, 0.27646345, -0.52612686, -0.20517759, -0.77759945, 9.18272876739502, 0.3709545135498047, 3.5611987113952637, -0.8622514009475708, -1.387734293937683, 0.9880161285400391, -0.82470703125, -0.53662109375, 0.227783203125, 0, 
447, 370961088, 0.27652204, -0.5262564, -0.20536824, -0.7774405, 9.157023429870605, 0.35404229164123535, 3.5341897010803223, -0.0924106165766716, -1.2174612283706665, 0.8416780829429626, -0.8251953125, -0.534423828125, 0.22900390625, 0, 
448, 370977755, 0.27660942, -0.5262827, -0.20560697, -0.7773285, 9.188920974731445, 0.36725106835365295, 3.529172420501709, 0.32558226585388184, -0.5513902902603149, 0.5544445514678955, -0.82373046875, -0.537353515625, 0.229248046875, 0, 
449, 370994422, 0.276622, -0.5262352, -0.2057965, -0.77730596, 9.255620956420898, 0.3555215001106262, 3.518054485321045, -0.12176276743412018, 0.15995772182941437, 0.0905216857790947, -0.82470703125, -0.53515625, 0.22900390625, 0, 
450, 371011089, 0.27654883, -0.5261147, -0.20591353, -0.77738255, 9.304662704467773, 0.33214935660362244, 3.496260643005371, -0.8482542634010315, 0.9235491752624512, -0.41203150153160095, -0.82421875, -0.5361328125, 0.23046875, 0, 
451, 371027756, 0.27644312, -0.5259474, -0.20598786, -0.7775139, 9.298516273498535, 0.31526222825050354, 3.498307704925537, -1.1675612926483154, 1.409428358078003, -0.595181405544281, -0.825927734375, -0.533935546875, 0.227783203125, 0, 
452, 371044423, 0.27640373, -0.52570754, -0.2060674, -0.7776689, 9.230535507202148, 0.31055235862731934, 3.536043643951416, -0.8537929654121399, 1.9644813537597656, -0.4335653781890869, -0.8251953125, -0.53564453125, 0.232177734375, 0, 
453, 371061090, 0.27638665, -0.525468, -0.20613761, -0.7778183, 9.239519119262695, 0.30347391963005066, 3.5457770824432373, -0.8478572964668274, 1.9910353422164917, -0.28628596663475037, -0.822021484375, -0.537841796875, 0.228271484375, 0, 
454, 371077757, 0.27636003, -0.525256, -0.20619027, -0.77795696, 9.202120780944824, 0.3337356150150299, 3.556190252304077, -0.9093532562255859, 1.831032633781433, -0.16771194338798523, -0.82470703125, -0.533935546875, 0.22998046875, 0, 
455, 371094424, 0.2763315, -0.52505755, -0.20624857, -0.7780857, 9.205799102783203, 0.32991325855255127, 3.558276414871216, -0.951447606086731, 1.705120325088501, -0.19046880304813385, -0.82421875, -0.537841796875, 0.228271484375, 0, 
456, 371111091, 0.27627927, -0.5248678, -0.2063025, -0.7782179, 9.219135284423828, 0.36148637533187866, 3.5721116065979004, -1.0483533143997192, 1.6486186981201172, -0.2776159942150116, -0.82373046875, -0.537353515625, 0.229248046875, 0, 
457, 371127758, 0.27620083, -0.5246965, -0.20635633, -0.778347, 9.2251615524292, 0.4106486439704895, 3.5615406036376953, -1.19166898727417, 1.5002058744430542, -0.3946276009082794, -0.825927734375, -0.5361328125, 0.227294921875, 0, 
458, 371144425, 0.27611384, -0.52455086, -0.20642912, -0.7784566, 9.224821090698242, 0.4098226726055145, 3.5639445781707764, -1.1906191110610962, 1.2421329021453857, -0.45702022314071655, -0.822998046875, -0.538330078125, 0.23046875, 0, 
459, 371161092, 0.27600867, -0.52443844, -0.20653218, -0.7785424, 9.242648124694824, 0.4275266230106354, 3.5540072917938232, -1.063144564628601, 0.8982948660850525, -0.5448333024978638, -0.82373046875, -0.538330078125, 0.2265625, 0, 
460, 371177759, 0.27590996, -0.5243686, -0.20665163, -0.77859265, 9.246681213378906, 0.40837734937667847, 3.5687625408172607, -0.9650736451148987, 0.5226718783378601, -0.43220147490501404, -0.82275390625, -0.537841796875, 0.22607421875, 0, 
461, 371194426, 0.27578956, -0.52431023, -0.20675707, -0.7786466, 9.260824203491211, 0.4277176260948181, 3.5659427642822266, -1.1534678936004639, 0.4695511758327484, -0.4911107122898102, -0.821044921875, -0.537353515625, 0.22705078125, 0, 
462, 371211093, 0.275667, -0.52426237, -0.20686434, -0.77869374, 9.24732494354248, 0.4252813756465912, 3.58404803276062, -1.1727287769317627, 0.3819558024406433, -0.48678213357925415, -0.81982421875, -0.541259765625, 0.229248046875, 0, 
463, 371227760, 0.27552354, -0.52420926, -0.20693237, -0.7787623, 9.229948043823242, 0.43287068605422974, 3.5920732021331787, -1.4226702451705933, 0.5354271531105042, -0.48096805810928345, -0.8232421875, -0.53955078125, 0.228271484375, 0, 
464, 371244427, 0.27541047, -0.5241436, -0.20699143, -0.77883077, 9.214044570922852, 0.42515093088150024, 3.611168384552002, -1.3946306705474854, 0.6590659022331238, -0.3300004005432129, -0.824951171875, -0.541015625, 0.227783203125, 0, 
465, 371261094, 0.27534068, -0.5240891, -0.20705621, -0.7788748, 9.198331832885742, 0.40247875452041626, 3.5932834148406982, -1.2211238145828247, 0.561026930809021, -0.06642653048038483, -0.821533203125, -0.538330078125, 0.228759765625, 0, 
466, 371277761, 0.27532598, -0.52403367, -0.20715697, -0.7788906, 9.21186637878418, 0.3901585340499878, 3.6020474433898926, -0.8392897248268127, 0.4695383608341217, 0.12771132588386536, -0.822509765625, -0.5400390625, 0.229248046875, 0, 
467, 371294428, 0.27533075, -0.52399296, -0.2072505, -0.77889127, 9.222506523132324, 0.37207862734794617, 3.6102733612060547, -0.7410394549369812, 0.3808160424232483, 0.3368774354457855, -0.822021484375, -0.536865234375, 0.228759765625, 0, 
468, 371311095, 0.2753624, -0.5239688, -0.20734024, -0.7788725, 9.210105895996094, 0.38220617175102234, 3.6294925212860107, -0.746315598487854, 0.2625237703323364, 0.5193294882774353, -0.821533203125, -0.5400390625, 0.2275390625, 0, 
469, 371327762, 0.2753976, -0.523959, -0.20742172, -0.778845, 9.204915046691895, 0.3903447389602661, 3.6499738693237305, -0.7004304528236389, 0.1814531534910202, 0.6479244232177734, -0.8232421875, -0.538818359375, 0.228271484375, 0, 
470, 371344429, 0.27544108, -0.5239672, -0.20750737, -0.7788013, 9.192092895507812, 0.3796926438808441, 3.6704161167144775, -0.7001615166664124, 0.026502739638090134, 0.7130126953125, -0.821044921875, -0.5390625, 0.2275390625, 0, 
471, 371361096, 0.27543056, -0.523981, -0.20741852, -0.7788193, 9.200419425964355, 0.3896810710430145, 3.6865949630737305, -1.8859657049179077, 0.4741871654987335, 0.9626084566116333, -0.8193359375, -0.541259765625, 0.228515625, 0, 
472, 371377763, 0.2754757, -0.5240083, -0.20754147, -0.77875227, 9.164493560791016, 0.40847644209861755, 3.4738998413085938, -0.4663432240486145, -0.22799140214920044, 0.6759383082389832, -0.821533203125, -0.5390625, 0.23046875, 0, 
473, 371394430, 0.2754666, -0.5242029, -0.20761968, -0.7786037, 9.254358291625977, 0.33912259340286255, 3.6695148944854736, -1.1258957386016846, -1.4124250411987305, 0.9232161045074463, -0.8203125, -0.537353515625, 0.232421875, 0, 
474, 371411097, 0.27539453, -0.5243346, -0.2074359, -0.7785896, 9.192180633544922, 0.3134182095527649, 3.62176513671875, -2.9400434494018555, -0.19255627691745758, 1.135199785232544, -0.821533203125, -0.542724609375, 0.23193359375, 0, 
475, 371427764, 0.27518508, -0.5245674, -0.20713186, -0.7785876, 9.182347297668457, 0.41496843099594116, 3.589881420135498, -4.108917236328125, -0.6471560001373291, 1.0341191291809082, -0.821533203125, -0.53955078125, 0.229248046875, 0, 
476, 371444431, 0.2750618, -0.5247909, -0.20702435, -0.7785091, 9.224750518798828, 0.3964352607727051, 3.625906229019165, -2.6871440410614014, -1.1262929439544678, 0.8881269097328186, -0.822998046875, -0.542236328125, 0.232666015625, 0, 
477, 371461098, 0.27502772, -0.52502346, -0.20698872, -0.778374, 9.195244789123535, 0.3724161386489868, 3.6857004165649414, -1.908235788345337, -1.3885668516159058, 1.2283402681350708, -0.82373046875, -0.53955078125, 0.23046875, 0, 
478, 371477765, 0.2750043, -0.52520025, -0.20702668, -0.7782528, 9.196881294250488, 0.3744603991508484, 3.613898277282715, -1.4406503438949585, -1.1688098907470703, 0.8931083679199219, -0.825927734375, -0.54052734375, 0.231689453125, 0, 
479, 371494432, 0.2749946, -0.5253716, -0.2070794, -0.7781266, 9.210298538208008, 0.36693546175956726, 3.581026554107666, -1.3147637844085693, -1.1672475337982178, 0.9044291973114014, -0.82373046875, -0.53955078125, 0.23095703125, 0, 
480, 371511099, 0.2749842, -0.525539, -0.2070987, -0.7780121, 9.251150131225586, 0.34303951263427734, 3.6095046997070312, -1.4456192255020142, -1.0391968488693237, 1.0194942951202393, -0.822021484375, -0.5400390625, 0.229736328125, 0, 
481, 371527766, 0.27498204, -0.5256429, -0.20711085, -0.7779394, 9.237442016601562, 0.3521806299686432, 3.5881764888763428, -1.3715986013412476, -0.5210008025169373, 0.9312329888343811, -0.8212890625, -0.54052734375, 0.23193359375, 0, 
482, 371544433, 0.27501714, -0.5257025, -0.2071241, -0.77788323, 9.230090141296387, 0.34506353735923767, 3.5809414386749268, -1.1885573863983154, -0.1754341870546341, 1.0240533351898193, -0.822998046875, -0.54052734375, 0.233642578125, 0, 
483, 371561100, 0.2750735, -0.52573967, -0.20715855, -0.777829, 9.226743698120117, 0.3436465561389923, 3.5712525844573975, -1.0133793354034424, -0.06261024624109268, 0.9986968040466309, -0.8203125, -0.5390625, 0.23193359375, 0, 
484, 371577767, 0.27514654, -0.5257625, -0.20721261, -0.7777733, 9.237688064575195, 0.33868086338043213, 3.573227882385254, -0.7938400506973267, -0.0013318605488166213, 1.01170814037323, -0.82421875, -0.541748046875, 0.232177734375, 0, 
485, 371594434, 0.27520207, -0.5257859, -0.20725977, -0.7777252, 9.222301483154297, 0.3468197286128998, 3.5525057315826416, -0.8570392727851868, 0.01235172338783741, 0.9494947195053101, -0.823486328125, -0.536865234375, 0.2353515625, 0, 
486, 371611101, 0.2752841, -0.52581245, -0.2073106, -0.7776648, 9.238883972167969, 0.3494873642921448, 3.5854647159576416, -0.8689107894897461, -0.027725743129849434, 1.036616325378418, -0.82080078125, -0.5390625, 0.23193359375, 0, 
487, 371627768, 0.2753765, -0.5258429, -0.20736708, -0.77759635, 9.231627464294434, 0.33619049191474915, 3.6059298515319824, -0.687585711479187, -0.06514589488506317, 1.1479547023773193, -0.82421875, -0.5400390625, 0.23095703125, 0, 
488, 371644435, 0.27547616, -0.5259052, -0.20742574, -0.77750325, 9.247281074523926, 0.35571345686912537, 3.5913898944854736, -0.645760178565979, -0.31789201498031616, 1.2822165489196777, -0.822998046875, -0.536865234375, 0.233154296875, 0, 
489, 371661102, 0.2755746, -0.5259589, -0.20748174, -0.7774172, 9.217716217041016, 0.36108511686325073, 3.6092751026153564, -0.7183849215507507, -0.24691921472549438, 1.2281864881515503, -0.82080078125, -0.540771484375, 0.2353515625, 0, 
490, 371677769, 0.27564386, -0.5260217, -0.20752, -0.77734, 9.233027458190918, 0.36001813411712646, 3.6113059520721436, -0.8591523766517639, -0.26789602637290955, 1.1723381280899048, -0.823486328125, -0.5390625, 0.232666015625, 0, 
491, 371694436, 0.27572176, -0.52609104, -0.2075405, -0.7772598, 9.227523803710938, 0.37430480122566223, 3.6002724170684814, -0.9866011738777161, -0.2699962854385376, 1.275954246520996, -0.823974609375, -0.5400390625, 0.23486328125, 0, 
492, 371711103, 0.2758004, -0.526176, -0.20757183, -0.77716607, 9.217398643493652, 0.3783421218395233, 3.5831639766693115, -0.9374633431434631, -0.4233907163143158, 1.2862441539764404, -0.82177734375, -0.536376953125, 0.233642578125, 0, 
493, 371727770, 0.27582738, -0.52623403, -0.20754506, -0.7771244, 9.204802513122559, 0.3746868371963501, 3.5650784969329834, -1.4265378713607788, -0.05473434180021286, 1.0938032865524292, -0.823974609375, -0.538330078125, 0.2353515625, 0, 
494, 371744437, 0.27584237, -0.5263334, -0.20754473, -0.7770518, 9.229399681091309, 0.3576381206512451, 3.561519145965576, -1.4250520467758179, -0.4577244818210602, 1.0266914367675781, -0.8251953125, -0.537841796875, 0.23486328125, 0, 
495, 371761104, 0.27582034, -0.5264455, -0.2075416, -0.77698445, 9.228825569152832, 0.3676954209804535, 3.602587938308716, -1.6053143739700317, -0.5544509291648865, 0.8459426164627075, -0.822998046875, -0.5400390625, 0.233642578125, 0, 
496, 371777771, 0.275781, -0.5265375, -0.20753911, -0.7769367, 9.229216575622559, 0.3811548054218292, 3.569692850112915, -1.589895486831665, -0.3974834680557251, 0.7173284888267517, -0.822998046875, -0.53955078125, 0.233154296875, 0, 
497, 371794438, 0.27571306, -0.526641, -0.20754513, -0.7768891, 9.228976249694824, 0.36916905641555786, 3.606339454650879, -1.6732003688812256, -0.5170946717262268, 0.5497701168060303, -0.819580078125, -0.5380859375, 0.233642578125, 0, 
498, 371811105, 0.27561086, -0.52675194, -0.20750833, -0.77686006, 9.219542503356934, 0.3660445809364319, 3.5765161514282227, -2.079392671585083, -0.45832645893096924, 0.49013108015060425, -0.822998046875, -0.538330078125, 0.233642578125, 0, 
499, 371827772, 0.2754673, -0.5268668, -0.2074288, -0.77685446, 9.232465744018555, 0.3467385470867157, 3.5779240131378174, -2.530393600463867, -0.3756870925426483, 0.37064775824546814, -0.823486328125, -0.5390625, 0.234375, 0, 
500, 371844439, 0.2753012, -0.5269912, -0.2073104, -0.77686054, 9.250064849853516, 0.3640032410621643, 3.56938099861145, -2.8423566818237305, -0.34256988763809204, 0.3867325782775879, -0.82080078125, -0.5390625, 0.234619140625, 0, 
501, 371861106, 0.27512294, -0.52712184, -0.20716175, -0.7768744, 9.238558769226074, 0.35120582580566406, 3.542402982711792, -3.079223155975342, -0.30851778388023376, 0.4219500422477722, -0.822021484375, -0.5400390625, 0.23193359375, 0, 
502, 371877773, 0.2749164, -0.527251, -0.20700209, -0.77690244, 9.2215576171875, 0.36481955647468567, 3.5538840293884277, -3.1878719329833984, -0.2638492286205292, 0.3132625222206116, -0.8212890625, -0.541259765625, 0.234130859375, 0, 
503, 371894440, 0.27473587, -0.52736646, -0.20688996, -0.7769179, 9.232403755187988, 0.37609726190567017, 3.5433788299560547, -2.830613136291504, -0.2923049330711365, 0.26878610253334045, -0.8251953125, -0.537353515625, 0.234375, 0, 
504, 371911107, 0.27457973, -0.5274895, -0.20683555, -0.77690405, 9.234167098999023, 0.3559879660606384, 3.5527496337890625, -2.4250872135162354, -0.5170435905456543, 0.23840942978858948, -0.822509765625, -0.541015625, 0.23193359375, 0, 
505, 371927774, 0.2744461, -0.52761626, -0.20681258, -0.7768714, 9.240066528320312, 0.3630256950855255, 3.5536437034606934, -2.1125996112823486, -0.6272421479225159, 0.3142998218536377, -0.822021484375, -0.5400390625, 0.23095703125, 0, 
506, 371944441, 0.2743331, -0.5277179, -0.20683385, -0.77683663, 9.234582901000977, 0.36645686626434326, 3.524688959121704, -1.7644331455230713, -0.5555650591850281, 0.22647389769554138, -0.82080078125, -0.542724609375, 0.23193359375, 0, 
