sep=,
DeviceTag:,Xsens_2,,,,,,,,,,,,,,,,,
FirmwareVersion:,2.2.1,,,,,,,,,,,,,,,,,
AppVersion:,2023.0.0,,,,,,,,,,,,,,,,,
SyncStatus:,Un-synced,,,,,,,,,,,,,,,,,
OutputRate:,60Hz,,,,,,,,,,,,,,,,,
FilterProfile:,General,,,,,,,,,,,,,,,,,
Measurement Mode:,Sensor fusion Mode - Extended (Quaternion),,,,,,,,,,,,,,,,,
StartTime:,2023-07-07 11:12:00.240 +0200,,,,,,,,,,,,,,,,,
© Movella Technologies B. V. 2005-2023,,,,,,,,,,,,,,,,,,,

PacketCounter,SampleTimeFine,Quat_W,Quat_X,Quat_Y,Quat_Z,FreeAcc_X,FreeAcc_Y,FreeAcc_Z,Status
1, 420684408, 0.4948209, 0.49123165, -0.48370537, 0.5290303, 0.0038010613, -0.0039445567, 0.15709305, 0
2, 420701075, 0.49474388, 0.49130747, -0.48337874, 0.5293304, 0.0018068787, -0.011820707, 0.15354156, 0
3, 420717742, 0.49502388, 0.49107847, -0.48339397, 0.52926725, 0.014198437, -0.020959033, 0.15926361, 0
4, 420734409, 0.49509814, 0.49097982, -0.48323914, 0.52943057, 0.012979621, 0.011390667, 0.16298103, 0
5, 420751076, 0.4951063, 0.4909384, -0.48313197, 0.52955925, 0.013257224, 0.008850219, 0.16847038, 0
6, 420767743, 0.49522746, 0.49080577, -0.48319155, 0.5295144, 0.012750073, -0.0036609187, 0.17488098, 0
7, 420784410, 0.49513948, 0.49087083, -0.48304513, 0.52967, -2.9727223E-4, 0.008797693, 0.16897964, 0
8, 420801077, 0.49520656, 0.49081835, -0.48301297, 0.5296852, 0.012924637, 0.005006243, 0.1608448, 0
9, 420817744, 0.4951345, 0.49089703, -0.48287287, 0.5298075, -0.0021676286, 0.013377697, 0.17454433, 0
10, 420834411, 0.49521798, 0.4908437, -0.48284876, 0.5298007, 0.0029787573, -0.0070381993, 0.16739559, 0
11, 420851078, 0.49512592, 0.49096447, -0.48265177, 0.5299543, 0.0010113962, -0.012150165, 0.16578102, 0
12, 420867745, 0.49504083, 0.49107248, -0.4824509, 0.5301166, -0.0031099592, -0.007218798, 0.16738605, 0
13, 420884412, 0.4950566, 0.4910944, -0.4823372, 0.53018516, 0.009007572, 0.009875696, 0.16102791, 0
14, 420901079, 0.49504972, 0.49115068, -0.4822036, 0.53026104, 0.0063209464, 0.014164686, 0.16812134, 0
15, 420917746, 0.4951302, 0.49112248, -0.48214746, 0.530263, 0.016795881, 0.011714314, 0.16000843, 0
16, 420934413, 0.49509618, 0.49118868, -0.48201802, 0.530351, 0.008975163, 0.008459295, 0.1615181, 0
17, 420951080, 0.49511185, 0.49121562, -0.48190814, 0.5304115, 0.017763693, 0.014198884, 0.16559601, 0
18, 420967747, 0.49510372, 0.49123552, -0.4818129, 0.53048706, 0.009448563, 0.020790504, 0.15518379, 0
19, 420984414, 0.49501246, 0.49134782, -0.4816341, 0.53063047, 0.011826964, 0.026281994, 0.17682838, 0
20, 421001081, 0.49503836, 0.4913563, -0.48155278, 0.53067213, 0.013417259, 0.036838736, 0.16686058, 0
21, 421017748, 0.49496534, 0.49146044, -0.48138994, 0.53079164, 0.0031466153, 0.02075072, 0.19032764, 0
22, 421034415, 0.49503282, 0.4914381, -0.48134223, 0.53079283, 0.024488304, 0.028396651, 0.1672926, 0
23, 421051082, 0.49506256, 0.49144235, -0.48127857, 0.53081876, 0.015957708, 0.018474687, 0.17001629, 0
24, 421067749, 0.49502575, 0.49150828, -0.48116684, 0.5308934, 0.019168695, 0.034274146, 0.17329884, 0
25, 421084416, 0.49513382, 0.4914523, -0.4811418, 0.530867, 0.016375229, 0.013981629, 0.14637852, 0
26, 421101083, 0.49513754, 0.49147558, -0.48104495, 0.5309299, 0.008884193, 0.0064861225, 0.15131855, 0
27, 421117750, 0.4950897, 0.49155754, -0.4809162, 0.5310151, 0.015264594, 0.020775305, 0.15538406, 0
28, 421134417, 0.4949655, 0.49169978, -0.48068148, 0.5312118, 0.0076526366, 0.033376966, 0.163517, 0
29, 421151084, 0.49498793, 0.49170303, -0.48061535, 0.5312476, 0.018858682, 0.024032783, 0.15998936, 0
30, 421167751, 0.49503332, 0.49168965, -0.48057824, 0.5312514, 0.02333967, 0.022939805, 0.17717266, 0
31, 421184418, 0.49500898, 0.49174526, -0.48043707, 0.5313504, 0.0068234033, 0.037434172, 0.16272926, 0
32, 421201085, 0.49510252, 0.49169135, -0.48042935, 0.5313198, 0.01280908, 0.041885212, 0.15251637, 0
33, 421217752, 0.495142, 0.4916959, -0.48035884, 0.53134257, 0.012398487, 0.038494743, 0.16910172, 0
34, 421234419, 0.49516776, 0.49171495, -0.48027742, 0.53137463, 0.016430661, 0.037766762, 0.1673708, 0
35, 421251086, 0.49520123, 0.49172914, -0.48020312, 0.5313976, 0.016169822, 0.044126377, 0.16179466, 0
36, 421267753, 0.49514186, 0.49182832, -0.48002526, 0.53152156, 0.024225451, 0.05446653, 0.17047215, 0
37, 421284420, 0.49519846, 0.4918205, -0.47999322, 0.5315051, 0.02491119, 0.028650114, 0.17486477, 0
38, 421301087, 0.4952592, 0.49180654, -0.4799264, 0.5315219, 0.024746014, 0.05868534, 0.17312336, 0
39, 421317754, 0.4953401, 0.49176538, -0.47990468, 0.53150415, 0.010542436, 0.025809264, 0.17189121, 0
40, 421334421, 0.49529862, 0.49184346, -0.479778, 0.5315848, 0.026343908, 0.07315557, 0.16959667, 0
41, 421351088, 0.49534413, 0.49184307, -0.47969657, 0.5316164, 0.021099176, 0.060465172, 0.15316105, 0
42, 421367755, 0.4954007, 0.49183017, -0.47964108, 0.5316255, 0.023418793, 0.04692677, 0.15057468, 0
43, 421384422, 0.49538782, 0.49187183, -0.4795525, 0.531679, 0.04142075, 0.049876023, 0.16219997, 0
44, 421401089, 0.49542174, 0.49189413, -0.47945932, 0.5317109, 0.029226778, 0.045415375, 0.16135406, 0
45, 421417756, 0.49544457, 0.49190795, -0.47938985, 0.5317394, 0.031071207, 0.04391918, 0.1640768, 0
46, 421434423, 0.49537975, 0.49200243, -0.47923994, 0.53184754, 0.028682971, 0.04935144, 0.14403343, 0
47, 421451090, 0.49544114, 0.4919871, -0.47918525, 0.5318537, 0.03906269, 0.025727682, 0.17429066, 0
48, 421467757, 0.49544516, 0.49201885, -0.47911155, 0.5318871, 0.046099547, 0.05593501, 0.1734333, 0
49, 421484424, 0.49554121, 0.49196288, -0.47908387, 0.5318743, 0.031295165, 0.05621172, 0.15169811, 0
50, 421501091, 0.4956259, 0.4919206, -0.47907224, 0.531845, 0.03567535, 0.03877078, 0.16105461, 0
51, 421517758, 0.49559304, 0.49198812, -0.4789514, 0.531922, 0.027855301, 0.0769497, 0.1651268, 0
52, 421534425, 0.49576494, 0.49187133, -0.47899395, 0.53183156, 0.040838275, 0.05952351, 0.17148209, 0
53, 421551092, 0.49569988, 0.49197212, -0.4788366, 0.5319405, 0.038601357, 0.054638635, 0.18223953, 0
54, 421567759, 0.49583447, 0.4918961, -0.47885478, 0.531869, 0.052721117, 0.06611312, 0.15908432, 0
55, 421584426, 0.4957758, 0.4919799, -0.47870442, 0.5319816, 0.038010612, 0.062307812, 0.14637756, 0
56, 421601093, 0.4957117, 0.49208117, -0.47854754, 0.5320887, 0.03068274, 0.0801095, 0.16131592, 0
57, 421617760, 0.4956554, 0.49215567, -0.47840774, 0.5321979, 0.050829083, 0.06113459, 0.1764555, 0
58, 421634427, 0.49580324, 0.49205968, -0.47845402, 0.53210753, 0.045729186, 0.042062905, 0.15433598, 0
59, 421651094, 0.4957874, 0.49210867, -0.47835052, 0.53216994, 0.04314292, 0.06329596, 0.15158272, 0
60, 421667761, 0.49588355, 0.49205595, -0.47835097, 0.5321287, 0.03942657, 0.075360745, 0.1637249, 0
61, 421684428, 0.495885, 0.49209198, -0.47826728, 0.53216934, 0.038051963, 0.077546924, 0.1764412, 0
62, 421701095, 0.49588376, 0.4921235, -0.47818184, 0.53221786, 0.07146648, 0.068955086, 0.16544151, 0
63, 421717762, 0.49601427, 0.49203426, -0.47821635, 0.53214794, 0.050311424, 0.08279948, 0.1534481, 0
64, 421734429, 0.496066, 0.49202147, -0.47816783, 0.53215516, 0.035735473, 0.076297715, 0.1560297, 0
65, 421751096, 0.49603158, 0.4920926, -0.4780356, 0.5322402, 0.036259167, 0.04823365, 0.16326523, 0
66, 421767763, 0.49604496, 0.49210876, -0.4779563, 0.532284, 0.056038275, 0.07143385, 0.156497, 0
67, 421784430, 0.49608508, 0.49210715, -0.47788706, 0.5323102, 0.046606697, 0.069352716, 0.16267204, 0
68, 421801097, 0.4960464, 0.4921697, -0.4777592, 0.53240323, 0.05554319, 0.08417185, 0.16848087, 0
69, 421817764, 0.4960781, 0.4921687, -0.47770765, 0.53242093, 0.05853536, 0.06555188, 0.16529274, 0
70, 421834431, 0.49613833, 0.49213853, -0.4776824, 0.5324153, 0.06536793, 0.09495792, 0.15106392, 0
71, 421851098, 0.496158, 0.49215433, -0.4776088, 0.5324484, 0.06297276, 0.07390903, 0.17349815, 0
72, 421867765, 0.49620387, 0.4921321, -0.4775733, 0.5324582, 0.051134177, 0.09749747, 0.17766666, 0
73, 421884432, 0.496133, 0.49222547, -0.4774202, 0.53257513, 0.036478657, 0.074653774, 0.15123367, 0
74, 421901099, 0.49610826, 0.49228415, -0.47731948, 0.53263414, 0.06246874, 0.08603259, 0.1487484, 0
75, 421917766, 0.4961454, 0.49228653, -0.4772753, 0.5326369, 0.053190496, 0.09038372, 0.17340374, 0
76, 421934433, 0.496149, 0.49231339, -0.47717494, 0.53269875, 0.049493145, 0.06666542, 0.1741867, 0
77, 421951100, 0.49613488, 0.49235448, -0.47708136, 0.5327578, 0.05810063, 0.063572675, 0.17463398, 0
78, 421967767, 0.49615255, 0.49238214, -0.47702304, 0.5327679, 0.063601285, 0.09586001, 0.17126656, 0
79, 421984434, 0.49614465, 0.49241623, -0.47693107, 0.5328261, 0.066337526, 0.11126408, 0.17394733, 0
80, 422001101, 0.4961841, 0.4924028, -0.47687533, 0.5328516, 0.058184445, 0.08357999, 0.15732574, 0
81, 422017768, 0.4961442, 0.4924705, -0.47676253, 0.5329271, 0.047148045, 0.100765675, 0.1658411, 0
82, 422034435, 0.49615452, 0.49247918, -0.47669795, 0.5329674, 0.05727564, 0.08020293, 0.16797256, 0
83, 422051102, 0.49617532, 0.49248508, -0.47664848, 0.53298664, 0.059703216, 0.074367456, 0.16990757, 0
84, 422067769, 0.496182, 0.49250016, -0.47657192, 0.53303504, 0.05570658, 0.09258756, 0.17786407, 0
85, 422084436, 0.49620768, 0.49250022, -0.4764987, 0.5330766, 0.05727609, 0.077881075, 0.15647984, 0
86, 422101103, 0.49617556, 0.49255207, -0.47641587, 0.5331325, 0.07185807, 0.09419954, 0.16871643, 0
87, 422117770, 0.49614716, 0.49260786, -0.47631687, 0.5331959, 0.045099773, 0.12421464, 0.16048145, 0
88, 422134437, 0.49613804, 0.49264234, -0.47621423, 0.5332643, 0.0613666, 0.09373195, 0.16867733, 0
89, 422151104, 0.496158, 0.49265787, -0.47615302, 0.53328586, 0.058325257, 0.113509044, 0.16202068, 0
90, 422167771, 0.4961804, 0.49266717, -0.47607937, 0.5333223, 0.0650235, 0.10318923, 0.1620636, 0
91, 422184438, 0.49617568, 0.49270138, -0.47601333, 0.53335404, 0.06903667, 0.11273837, 0.15472698, 0
92, 422201105, 0.49615154, 0.49274832, -0.47590965, 0.5334257, 0.06590436, 0.1074058, 0.16276073, 0
93, 422217772, 0.49619955, 0.49272618, -0.47589344, 0.53341585, 0.05003293, 0.11678574, 0.15956593, 0
94, 422234439, 0.49624896, 0.49270606, -0.47588202, 0.53339875, 0.043572955, 0.12486685, 0.16595173, 0
95, 422251106, 0.4962552, 0.4927307, -0.47579697, 0.53344595, 0.05785633, 0.12216816, 0.16686821, 0
96, 422267773, 0.4962941, 0.492724, -0.47576588, 0.53344375, 0.07228565, 0.10989037, 0.17097664, 0
97, 422284440, 0.49633527, 0.4927214, -0.47573245, 0.5334375, 0.07094145, 0.111636005, 0.16180706, 0
98, 422301107, 0.49632674, 0.49274334, -0.47566184, 0.53348815, 0.062455107, 0.10932175, 0.17397594, 0
99, 422317774, 0.496341, 0.49274862, -0.47563368, 0.53349525, 0.06522622, 0.10615435, 0.15114498, 0
100, 422334441, 0.4963634, 0.49274835, -0.47558457, 0.5335183, 0.06884825, 0.115737915, 0.15644169, 0
101, 422351108, 0.49633998, 0.49279213, -0.47550854, 0.53356755, 0.062041163, 0.12881856, 0.17275429, 0
102, 422367775, 0.4963395, 0.49281892, -0.4754492, 0.5335959, 0.08669643, 0.10029138, 0.1614666, 0
103, 422384442, 0.49637723, 0.49280438, -0.47542277, 0.5335979, 0.0631898, 0.107460335, 0.16872025, 0
104, 422401109, 0.49639234, 0.49281928, -0.47537783, 0.53361017, 0.0718878, 0.109949596, 0.16811848, 0
105, 422417776, 0.49637413, 0.49285704, -0.47531432, 0.5336489, 0.07078789, 0.11160896, 0.17039776, 0
106, 422434443, 0.49643385, 0.49282742, -0.47529086, 0.5336415, 0.07401408, 0.11904613, 0.15348816, 0
107, 422451110, 0.4964112, 0.49287558, -0.4752121, 0.5336883, 0.06561357, 0.1110095, 0.1640501, 0
108, 422467777, 0.49638754, 0.49292013, -0.47512993, 0.5337422, 0.079794794, 0.12190933, 0.1547594, 0
109, 422484444, 0.49641412, 0.49291426, -0.47510466, 0.5337455, 0.072207205, 0.123110265, 0.16959953, 0
110, 422501111, 0.49640185, 0.49294233, -0.4750389, 0.5337896, 0.078031056, 0.12333244, 0.16859913, 0
111, 422517778, 0.4963695, 0.49298438, -0.47496256, 0.5338486, 0.07127381, 0.11640644, 0.17076397, 0
112, 422534445, 0.4963391, 0.493028, -0.4748957, 0.5338961, 0.06833238, 0.13499378, 0.15873241, 0
113, 422551112, 0.49635696, 0.49301586, -0.47487482, 0.53390944, 0.05865606, 0.14361177, 0.15727043, 0
114, 422567779, 0.49634355, 0.4930481, -0.4748127, 0.5339472, 0.07802703, 0.122800924, 0.1673851, 0
115, 422584446, 0.49632713, 0.49308625, -0.47475305, 0.5339803, 0.09192105, 0.117035404, 0.17707157, 0
116, 422601113, 0.49631497, 0.49311727, -0.47469863, 0.5340114, 0.06451366, 0.09535487, 0.17950821, 0
117, 422617780, 0.4962908, 0.49316162, -0.4746275, 0.534056, 0.064392515, 0.11562906, 0.16795349, 0
118, 422634447, 0.49629667, 0.49317196, -0.4745762, 0.53408664, 0.06240616, 0.10613893, 0.14842701, 0
119, 422651114, 0.4985102, 0.48762566, -0.48644403, 0.5263847, 4.2556867E-4, 0.007425771, 0.16118431, 0
120, 422667781, 0.49852744, 0.48761705, -0.4864601, 0.52636176, -0.012604566, 0.0058330176, 0.16242313, 0
121, 422684448, 0.49846604, 0.48767307, -0.4863914, 0.5264315, -0.001105495, 0.015649483, 0.15300083, 0
122, 422701115, 0.49844253, 0.48769167, -0.48637173, 0.52645475, 0.003589618, 0.00260482, 0.16823769, 0
123, 422717782, 0.4984345, 0.48770562, -0.48635346, 0.526466, 0.010408104, -0.011060986, 0.161726, 0
124, 422734449, 0.49841017, 0.48773167, -0.4863452, 0.5264726, 0.010754325, 0.02166064, 0.15938377, 0
125, 422751116, 0.49841025, 0.4877325, -0.48632902, 0.5264869, 0.0036432613, 0.024036583, 0.1536932, 0
126, 422767783, 0.49840552, 0.4877327, -0.4863227, 0.52649707, -0.012417486, -0.009953032, 0.14650536, 0
127, 422784450, 0.49838647, 0.48775512, -0.4863012, 0.5265141, -0.0075529497, 0.011295004, 0.18299389, 0
128, 422801117, 0.4983544, 0.48778543, -0.4862642, 0.5265505, -0.0067650666, -0.0045654755, 0.16390038, 0
129, 422817784, 0.49834135, 0.487791, -0.48626626, 0.5265557, -0.0020487197, 8.3258573E-4, 0.16135979, 0
130, 422834451, 0.49830857, 0.48781046, -0.48624358, 0.52658963, 1.6785823E-4, 0.010086693, 0.18705082, 0
131, 422851118, 0.49828008, 0.48784027, -0.48621556, 0.52661484, -0.0116626825, 0.0075191995, 0.16248131, 0
132, 422867785, 0.49825343, 0.48786312, -0.4861921, 0.5266406, -0.00586945, 0.010669614, 0.16912651, 0
133, 422884452, 0.49822852, 0.4878987, -0.48614967, 0.5266704, -0.0023658846, -0.007994388, 0.16305923, 0
134, 422901119, 0.4982202, 0.48791426, -0.4861252, 0.5266864, -0.019425511, 2.6106313E-4, 0.183774, 0
135, 422917786, 0.49820668, 0.48792908, -0.48612228, 0.5266882, 0.006229753, 0.023286473, 0.17691135, 0
136, 422934453, 0.49817398, 0.48795077, -0.48609698, 0.5267224, 0.011621109, -0.010694425, 0.15918827, 0
137, 422951120, 0.49815485, 0.48796627, -0.4860737, 0.52674764, 0.004539995, -3.3728106E-4, 0.1730156, 0
138, 422967787, 0.49814326, 0.48797697, -0.48605934, 0.526762, -0.011091383, 0.011708726, 0.17509079, 0
139, 422984454, 0.49811733, 0.48799568, -0.48603764, 0.52678925, -0.0057210377, 0.007292557, 0.17585659, 0
140, 423001121, 0.49811447, 0.4880132, -0.4860112, 0.52680016, 0.008602567, 0.0040129516, 0.17256069, 0
141, 423017788, 0.49808547, 0.4880389, -0.48599103, 0.5268224, -0.007941639, -0.022631804, 0.17455482, 0
142, 423034455, 0.49808148, 0.48805183, -0.4859805, 0.5268239, -0.0013247613, 0.00750333, 0.18139458, 0
143, 423051122, 0.49805525, 0.48806825, -0.4859602, 0.526852, 0.0074691325, -0.010480969, 0.16464615, 0
144, 423067789, 0.49803394, 0.48808503, -0.48595253, 0.52686393, 0.0079219695, 0.02053056, 0.17073536, 0
145, 423084456, 0.49801722, 0.48809353, -0.48593214, 0.52689046, 1.9445627E-4, -0.007435829, 0.17109776, 0
146, 423101123, 0.49798167, 0.48812303, -0.48589668, 0.5269295, 0.0028739297, -0.007233103, 0.159379, 0
147, 423117790, 0.4979475, 0.48815992, -0.48587486, 0.5269477, -0.008637882, -0.02818342, 0.16159153, 0
148, 423134457, 0.4979448, 0.48816344, -0.48585808, 0.5269625, -0.0024181867, 2.865436E-4, 0.18376064, 0
149, 423151124, 0.4979466, 0.4881667, -0.48583618, 0.5269781, 0.013002419, 2.105492E-4, 0.17172527, 0
150, 423167791, 0.4979177, 0.48818213, -0.48581663, 0.527009, 0.014784041, -0.015784485, 0.17281723, 0
151, 423184458, 0.49788472, 0.48820665, -0.4857759, 0.52705485, -0.004665386, -0.009016736, 0.17819786, 0
152, 423201125, 0.4978776, 0.48821372, -0.48578587, 0.527046, -0.0018182779, 0.0117878495, 0.17802525, 0
153, 423217792, 0.49787602, 0.48821133, -0.4857521, 0.5270807, -0.0026059377, -8.558311E-4, 0.19454765, 0
154, 423234459, 0.49786055, 0.48823044, -0.48571515, 0.52711165, -0.015443851, -0.0015766604, 0.1895237, 0
155, 423251126, 0.49786952, 0.48821634, -0.48569074, 0.5271387, -0.012043996, 0.04391672, 0.17287445, 0
156, 423267793, 0.49787736, 0.4882067, -0.4856507, 0.52717716, -0.0030362, -0.020924166, 0.21513271, 0
157, 423284460, 0.49785578, 0.48821858, -0.48563084, 0.5272049, 0.0024660185, 0.032010853, 0.1826849, 0
158, 423301127, 0.49787322, 0.48818815, -0.4855838, 0.52726, -0.002242729, 0.034043036, 0.13996792, 0
159, 423317794, 0.49788052, 0.4881639, -0.48553792, 0.5273178, 0.008226618, -0.045627262, 0.1384325, 0
160, 423334461, 0.49785042, 0.48819304, -0.48553157, 0.5273251, 9.803278E-4, -0.049388316, 0.10591698, 0
161, 423351128, 0.49784905, 0.48820236, -0.48553288, 0.5273166, 0.0070621152, 0.0154219465, 0.14963818, 0
162, 423367795, 0.49782473, 0.48821622, -0.48553753, 0.5273225, -0.029618597, 0.017039957, 0.20127773, 0
163, 423384462, 0.49782032, 0.48821953, -0.4855368, 0.527324, -0.015452345, 0.02321495, 0.15480709, 0
164, 423401129, 0.49781188, 0.48823276, -0.4854644, 0.5273864, 0.0067773596, -0.021953443, 0.14590454, 0
165, 423417796, 0.4977632, 0.4882722, -0.48548406, 0.5273778, -0.007474497, -0.04288297, 0.17584896, 0
166, 423434463, 0.49771747, 0.48831013, -0.48548084, 0.52738875, 0.0105851265, 0.050601993, 0.15315151, 0
167, 423451130, 0.49775204, 0.4882706, -0.48542446, 0.5274446, -0.0053070914, -0.02312085, 0.1580038, 0
168, 423467797, 0.497745, 0.48828295, -0.4854627, 0.52740467, -0.003123817, -0.036372487, 0.17089748, 0
169, 423484464, 0.49771684, 0.48830923, -0.48545137, 0.5274173, -0.010376589, 0.04143729, 0.16704655, 0
170, 423501131, 0.49774185, 0.48828793, -0.48541358, 0.5274483, -0.0036781293, -0.026670683, 0.16614914, 0
171, 423517798, 0.497713, 0.48832667, -0.48541662, 0.5274369, -0.006535519, -0.008787412, 0.17701626, 0
172, 423534465, 0.4976979, 0.48832852, -0.4853985, 0.5274662, 0.01914165, 0.01939556, 0.17861748, 0
173, 423551132, 0.49769658, 0.48832753, -0.48537296, 0.5274918, 0.003786533, -0.0042033847, 0.1638298, 0
174, 423567799, 0.4976483, 0.48837283, -0.4853622, 0.52750516, 0.006691084, 0.0038564925, 0.16015148, 0
175, 423584466, 0.49763367, 0.4883945, -0.48534092, 0.52751845, 4.691537E-4, 0.036882542, 0.15915203, 0
176, 423601133, 0.49766198, 0.4883608, -0.48535594, 0.5275091, -0.008898721, -0.010231753, 0.1656866, 0
177, 423617800, 0.49763727, 0.48837852, -0.4853551, 0.5275167, 0.004370796, 0.0046609156, 0.17173958, 0
178, 423634467, 0.49760902, 0.48839796, -0.4853139, 0.52756333, -0.0037918973, 0.019194175, 0.14858818, 0
179, 423651134, 0.49759632, 0.4884072, -0.48530477, 0.5275753, -0.0034912725, -0.01763629, 0.16616344, 0
180, 423667801, 0.49757436, 0.4884195, -0.4853098, 0.52757996, -0.0115925, 0.022666449, 0.17974758, 0
181, 423684468, 0.4975506, 0.48843277, -0.48528236, 0.52761537, -0.0023361575, 0.0024526077, 0.16133595, 0
182, 423701135, 0.49754387, 0.48844406, -0.4852692, 0.5276234, 0.0010990133, -0.0062896544, 0.16943073, 0
183, 423717802, 0.49753216, 0.48844215, -0.48525837, 0.527646, 0.00249284, 0.0069105737, 0.16084766, 0
184, 423734469, 0.49751997, 0.48844355, -0.4852586, 0.527656, -0.008423979, -0.027438898, 0.14348602, 0
185, 423751136, 0.4975074, 0.48845524, -0.4852538, 0.5276614, 0.0027813953, 0.01355092, 0.16545391, 0
186, 423767803, 0.49749157, 0.48846948, -0.48522562, 0.5276893, -0.01448498, -0.0051323045, 0.16521168, 0
187, 423784470, 0.49746493, 0.48849437, -0.48519802, 0.5277167, -0.009802831, -0.020504631, 0.16206837, 0
188, 423801137, 0.49745855, 0.48850188, -0.48519397, 0.52771956, 0.004584921, -0.002379966, 0.17766285, 0
189, 423817804, 0.49745452, 0.4885129, -0.48518252, 0.5277235, -0.008572169, 0.008077535, 0.1587553, 0
190, 423834471, 0.4974702, 0.4885035, -0.48518053, 0.5277193, 0.0090296995, 0.02233185, 0.1665554, 0
191, 423851138, 0.4974677, 0.48850313, -0.48518047, 0.52772206, 0.0013594058, -0.02342997, 0.17366886, 0
192, 423867805, 0.4974526, 0.4885159, -0.4851894, 0.5277163, -0.010450125, 0.013791643, 0.16730976, 0
193, 423884472, 0.4974531, 0.48850772, -0.48517743, 0.52773446, -0.00983524, 0.007721255, 0.15988159, 0
194, 423901139, 0.497441, 0.48852617, -0.48517117, 0.5277345, 0.002072412, -0.01744094, 0.16813374, 0
195, 423917806, 0.49742934, 0.4885342, -0.48517314, 0.5277363, 0.0042956956, 0.011694421, 0.16400337, 0
196, 423934473, 0.49741828, 0.4885323, -0.48518094, 0.52774113, 0.00707195, 0.016042419, 0.16953087, 0
197, 423951140, 0.4974108, 0.48854157, -0.48515645, 0.52776206, -0.015867632, 0.016592484, 0.16083717, 0
198, 423967807, 0.49740773, 0.4885596, -0.485128, 0.52777445, -0.030148322, 0.014984085, 0.15406704, 0
199, 423984474, 0.49735788, 0.48860517, -0.48510906, 0.5277966, -0.0070844665, 0.0076039108, 0.17737484, 0
200, 424001141, 0.49735463, 0.48859543, -0.48510534, 0.5278122, 0.0073942556, 0.014978944, 0.14620686, 0
201, 424017808, 0.49734512, 0.48860115, -0.48510104, 0.52781975, -0.0045938618, -0.014550023, 0.16338062, 0
202, 424034475, 0.4973426, 0.4885933, -0.4851147, 0.52781683, -0.023177177, 0.004020551, 0.1615448, 0
203, 424051142, 0.49734348, 0.48859274, -0.48512992, 0.5278026, 0.03319212, -0.0145399645, 0.1478653, 0
204, 424067809, 0.4973274, 0.48861653, -0.48515576, 0.52777207, 0.0036935515, 0.02985619, 0.18319798, 0
205, 424084476, 0.4973488, 0.48859304, -0.48511663, 0.5278096, -0.04880271, 0.016360031, 0.18258286, 0
206, 424101143, 0.49734968, 0.48858076, -0.48509058, 0.5278441, -0.044776574, -0.0033571646, 0.15119934, 0
207, 424117810, 0.49734232, 0.48858935, -0.4850735, 0.52785873, 0.049135078, -0.08060168, 0.14091492, 0
208, 424134477, 0.49727798, 0.48866072, -0.4851229, 0.52780795, 0.04487961, 0.035914958, 0.2104311, 0
209, 424151144, 0.49729025, 0.48863488, -0.4850682, 0.5278706, -0.0288629, 0.08488508, 0.17435074, 0
210, 424167811, 0.49732134, 0.48859227, -0.4850198, 0.5279252, -0.072577566, -0.07254404, 0.14900875, 0
211, 424184478, 0.49727356, 0.48865134, -0.48504925, 0.5278885, 0.0088915685, -0.04396656, 0.15715694, 0
212, 424201145, 0.4972219, 0.48869973, -0.48503774, 0.5279027, 0.011758346, 0.056103762, 0.19443512, 0
213, 424217812, 0.4972408, 0.48867217, -0.48499456, 0.5279503, -0.00225234, 0.02180123, 0.1663866, 0
214, 424234479, 0.49726883, 0.48864925, -0.4849769, 0.5279614, 0.008613518, -0.042228527, 0.15495396, 0
215, 424251146, 0.4972472, 0.48868072, -0.4849807, 0.527949, 0.0073694456, -0.048481077, 0.16794586, 0
216, 424267813, 0.49721655, 0.4887108, -0.48500428, 0.5279283, -0.018327616, 0.054317, 0.16685581, 0
217, 424284480, 0.4972281, 0.48870313, -0.48497236, 0.52795404, -0.021844145, 0.05260869, 0.1805563, 0
218, 424301147, 0.49724993, 0.4886651, -0.48493245, 0.52800536, 0.0013100094, -0.013018065, 0.16797161, 0
219, 424317814, 0.49721432, 0.48868573, -0.48491082, 0.5280395, 0.010063, -0.066355854, 0.13363934, 0
220, 424334481, 0.49714372, 0.48875535, -0.4849816, 0.5279766, -1.707639E-4, 0.037244633, 0.1777134, 0
221, 424351148, 0.4971728, 0.48872778, -0.48496225, 0.52799237, -0.032851934, 0.124181785, 0.2012949, 0
222, 424367815, 0.49720898, 0.48867783, -0.48487014, 0.52808917, -0.0069528176, -0.04223948, 0.13191223, 0
223, 424384482, 0.4971906, 0.488704, -0.48486212, 0.52808964, 0.022023402, -0.09540002, 0.14429474, 0
224, 424401149, 0.4971228, 0.48877478, -0.4849434, 0.5280134, 0.0064843344, 0.021849062, 0.18176746, 0
225, 424417816, 0.49716187, 0.48874712, -0.48492405, 0.52802, -0.0138345575, 0.11459532, 0.18354511, 0
226, 424434483, 0.4972413, 0.4886598, -0.48485819, 0.52808654, -0.0017358016, -0.038268995, 0.1534586, 0
227, 424451150, 0.49720514, 0.48869348, -0.48488092, 0.52806854, 0.0021497477, -0.10117672, 0.15050697, 0
228, 424467817, 0.4971499, 0.48875093, -0.48495227, 0.52800184, -0.0051177763, 0.04639123, 0.16211414, 0
229, 424484484, 0.49720252, 0.48869693, -0.48489833, 0.5280517, -0.0019434452, 0.078607045, 0.20289326, 0
230, 424501151, 0.49722192, 0.48866633, -0.48485973, 0.52809715, 3.862304E-4, -0.07771769, 0.15156364, 0
231, 424517818, 0.49716917, 0.48872814, -0.484917, 0.5280372, 0.004951259, -0.0105540585, 0.13548374, 0
232, 424534485, 0.4971669, 0.4887255, -0.48490396, 0.52805376, -0.018099409, 0.046792883, 0.20455074, 0
233, 424551152, 0.49716777, 0.48872104, -0.48489967, 0.52806103, -0.0027737957, 0.0065934085, 0.17961597, 0
234, 424567819, 0.49714866, 0.48874375, -0.48486453, 0.52809, 0.0014984309, 0.021776645, 0.14595222, 0
235, 424584486, 0.4971662, 0.48872396, -0.48484173, 0.52811277, 0.0050424524, -0.08304847, 0.17879009, 0
236, 424601153, 0.4971123, 0.4887703, -0.48490068, 0.52806646, -0.004326317, 0.017486313, 0.18272781, 0
237, 424617820, 0.4971355, 0.48875308, -0.48486257, 0.5280957, -0.0107742185, 0.07254247, 0.17653751, 0
238, 424634487, 0.49718058, 0.48871672, -0.4848123, 0.52813303, 0.0033542588, -0.05333086, 0.17132664, 0
239, 424651154, 0.4971286, 0.48875856, -0.48484424, 0.5281139, 0.020856887, -0.032886803, 0.15931892, 0
240, 424667821, 0.4971113, 0.48877332, -0.48483223, 0.5281276, 0.0027449627, 0.033366237, 0.1598568, 0
241, 424684488, 0.49711698, 0.48876408, -0.48481607, 0.5281456, -0.01559584, -0.0075283633, 0.18336296, 0
242, 424701155, 0.49709642, 0.48878303, -0.48480532, 0.5281573, -0.025020488, 0.028094014, 0.15674496, 0
243, 424717822, 0.4970987, 0.48878065, -0.48477393, 0.5281862, -0.011640778, -0.023142755, 0.14033127, 0
244, 424734489, 0.49707153, 0.48880252, -0.48478794, 0.5281787, -0.010656428, -0.009416601, 0.18198967, 0
245, 424751156, 0.49707615, 0.48880392, -0.48476377, 0.5281952, -0.009063227, 0.024435777, 0.1698885, 0
246, 424767823, 0.49709785, 0.48878545, -0.48474193, 0.52821195, -3.0978894E-4, -0.025184322, 0.13585854, 0
247, 424784490, 0.49704525, 0.48884436, -0.48476902, 0.5281821, -0.011528575, -0.017896459, 0.16595078, 0
248, 424801157, 0.49702185, 0.48885697, -0.48477483, 0.52818704, -0.03033786, 0.060670804, 0.18311119, 0
249, 424817824, 0.49705255, 0.48882324, -0.48473537, 0.5282256, -0.0049217553, 0.016094051, 0.1586771, 0
250, 424834491, 0.49704933, 0.48882842, -0.4847325, 0.5282265, 0.020590683, -0.055349182, 0.16078663, 0
251, 424851158, 0.49702725, 0.48885286, -0.48474792, 0.5282106, 0.045380283, 0.0017740224, 0.1558857, 0
252, 424867825, 0.49702954, 0.48885277, -0.4847335, 0.52822185, -0.008286295, -0.029276397, 0.15715694, 0
253, 424884492, 0.49693492, 0.48895025, -0.48481184, 0.5281486, -0.092805035, 0.072802864, 0.2249031, 0
254, 424901159, 0.49701634, 0.48886174, -0.4847309, 0.5282283, -0.07781447, 0.09221161, 0.17104149, 0
255, 424917826, 0.49709138, 0.48877653, -0.48464414, 0.5283161, 0.06578456, -0.10364631, 0.10614586, 0
256, 424934493, 0.49705812, 0.48882657, -0.4846721, 0.5282754, 0.110077, -0.19540687, 0.13161087, 0
257, 424951160, 0.49684134, 0.48904976, -0.4848766, 0.5280852, -0.0022328945, 0.15993805, 0.23978615, 0
258, 424967827, 0.497023, 0.48885724, -0.4847085, 0.52824664, -0.09027398, 0.22645283, 0.16949749, 0
259, 424984494, 0.4972125, 0.48866144, -0.48451135, 0.52843046, -0.028186325, -0.22031091, 0.08874416, 0
260, 425001161, 0.49700928, 0.48887935, -0.4847391, 0.52821094, 0.03744043, -0.22008762, 0.1589899, 0
261, 425017828, 0.49683324, 0.4890729, -0.484915, 0.528036, 0.0013249848, 0.34303874, 0.21702957, 0
262, 425034495, 0.4971365, 0.48874807, -0.48459935, 0.528341, -0.025819993, 0.07605699, 0.16876125, 0
263, 425051162, 0.49717203, 0.4887079, -0.484561, 0.52838, 0.00929948, -0.2500721, 0.12731838, 0
264, 425067829, 0.49691463, 0.48898235, -0.48485395, 0.52809906, 0.009354911, -0.004401864, 0.13964081, 0
265, 425084496, 0.49696675, 0.48893178, -0.48477256, 0.5281718, -0.028060487, 0.2698653, 0.2216587, 0
266, 425101163, 0.49706608, 0.48882058, -0.48467126, 0.5282742, -0.01558377, -0.09278604, 0.1820488, 0
267, 425117830, 0.4970191, 0.48887187, -0.4847071, 0.52823794, 0.016510902, -0.03226633, 0.11052227, 0
268, 425134497, 0.49706468, 0.48883283, -0.48464692, 0.5282864, 0.0412368, -0.080347545, 0.14933872, 0
269, 425151164, 0.49693188, 0.4889878, -0.484794, 0.52813303, -0.015435134, 0.017394673, 0.21372128, 0
270, 425167831, 0.49694574, 0.4889616, -0.48476815, 0.528168, -0.053914007, 0.26709485, 0.1889658, 0
271, 425184498, 0.49715748, 0.48872298, -0.48454452, 0.5283948, -0.013446316, -0.11723702, 0.13837337, 0
272, 425201165, 0.4970763, 0.4888108, -0.48461464, 0.5283255, 0.03237362, -0.23247382, 0.11839771, 0
273, 425217832, 0.49682507, 0.48907003, -0.48487505, 0.52808315, -0.0033714694, 0.18606873, 0.19106293, 0
274, 425234499, 0.49704412, 0.48884574, -0.48465738, 0.52828425, -0.023651248, 0.22683302, 0.21195698, 0
275, 425251166, 0.4971332, 0.4887364, -0.48452342, 0.52842456, -0.012177433, -0.23836406, 0.12508392, 0
276, 425267833, 0.49693355, 0.48894992, -0.48471752, 0.52823687, 0.011869879, -0.08730103, 0.12116718, 0
277, 425284500, 0.4969169, 0.48896477, -0.4847367, 0.528221, -0.019676069, 0.24855311, 0.20971203, 0
278, 425301167, 0.49704352, 0.48882914, -0.48459545, 0.52835697, -0.017273305, -0.05056623, 0.17221928, 0
279, 425317834, 0.4969688, 0.48890227, -0.48466313, 0.52829754, 0.0076045813, -0.057274748, 0.13706112, 0
280, 425334501, 0.4969816, 0.4888824, -0.4846508, 0.5283151, 0.006574857, 0.043535855, 0.16374016, 0
281, 425351168, 0.49694356, 0.4889139, -0.4846723, 0.528302, -0.025552, -0.057099514, 0.17680931, 0
282, 425367835, 0.49686006, 0.4889878, -0.48470497, 0.5282824, -0.028073674, 0.121653855, 0.1773014, 0
283, 425384502, 0.4969633, 0.48887336, -0.48456642, 0.52841824, -0.009776456, -0.0010113962, 0.17673492, 0
284, 425401169, 0.4969253, 0.4889071, -0.48461446, 0.5283787, 0.02058286, -0.12530829, 0.15449047, 0
285, 425417836, 0.4968575, 0.488978, -0.4846878, 0.5283095, -0.0064525953, 0.08908086, 0.17404175, 0
286, 425434503, 0.49691534, 0.48891696, -0.48462072, 0.52837324, -0.030155921, 0.039010163, 0.18921757, 0
287, 425451170, 0.49688193, 0.48895147, -0.4846527, 0.5283432, -0.02153659, 0.012633846, 0.19057274, 0
288, 425467837, 0.4969099, 0.48890582, -0.48462263, 0.5283869, 0.017235754, 0.046320826, 0.15653133, 0
289, 425484504, 0.49692702, 0.48889342, -0.4846141, 0.52839005, 0.040270776, -0.07792131, 0.16079235, 0
290, 425501171, 0.49685913, 0.48896438, -0.48469377, 0.52831525, -0.010091834, 0.021450315, 0.18042374, 0
291, 425517838, 0.49690294, 0.4889171, -0.48463106, 0.52837515, -0.034640484, 0.039845876, 0.16714191, 0
292, 425534505, 0.4968837, 0.4889246, -0.4846198, 0.5283966, -0.017704684, -0.07283773, 0.16660881, 0
293, 425551172, 0.4968538, 0.48896053, -0.48467627, 0.5283398, 0.0061209025, 0.053553034, 0.16348839, 0
294, 425567839, 0.49690673, 0.48891807, -0.48461223, 0.5283881, 0.0054172836, 0.02185845, 0.16450596, 0
295, 425584506, 0.4968838, 0.4889512, -0.48463127, 0.52836156, -0.00792264, -0.040744625, 0.17319965, 0
296, 425601173, 0.49686447, 0.48896486, -0.4846339, 0.5283645, 0.0023591793, 0.04283715, 0.16477776, 0
297, 425617840, 0.49689585, 0.4889338, -0.48460165, 0.5283932, -0.0034273476, -0.03465032, 0.17423344, 0
298, 425634507, 0.496864, 0.48896894, -0.4846253, 0.5283692, -0.020687688, 0.009800373, 0.16318035, 0
299, 425651174, 0.4968671, 0.48896554, -0.48460484, 0.52838814, -0.017143443, 0.030033883, 0.16954994, 0
300, 425667841, 0.49686205, 0.48897138, -0.48458293, 0.52840745, -0.019130697, -0.012063441, 0.1715908, 0
301, 425684508, 0.4968697, 0.48896417, -0.48457587, 0.5284135, -4.975398E-4, 0.0018942723, 0.16159534, 0
302, 425701175, 0.49686328, 0.488973, -0.48456997, 0.5284168, 0.01547626, -0.01545905, 0.16838646, 0
303, 425717842, 0.4968423, 0.48900118, -0.48461026, 0.5283735, 0.008373019, 0.04739525, 0.18303108, 0
304, 425734509, 0.4968593, 0.48898703, -0.48456767, 0.52840966, -0.020040395, 0.042495623, 0.1845026, 0
305, 425751176, 0.49685803, 0.48897624, -0.48455596, 0.5284316, 0.0027545737, -0.051036052, 0.15899467, 0
306, 425767843, 0.4968486, 0.4889874, -0.48457932, 0.5284088, 1.72552E-4, 0.020617729, 0.15494537, 0
307, 425784510, 0.4968715, 0.48896697, -0.48456684, 0.5284174, 0.0020180985, 0.014549799, 0.18710709, 0
308, 425801177, 0.49684998, 0.48899356, -0.4845877, 0.52839386, -0.011771981, 0.004594309, 0.17260551, 0
309, 425817844, 0.49687496, 0.48896056, -0.48457095, 0.5284163, -0.011719455, 0.044555742, 0.16008568, 0
310, 425834511, 0.49690437, 0.48894083, -0.48454404, 0.5284316, -0.008899615, -0.037381202, 0.15868092, 0
311, 425851178, 0.4968673, 0.4889848, -0.48458433, 0.5283889, 0.009689286, 0.01326013, 0.1651268, 0
312, 425867845, 0.49690786, 0.48894358, -0.48455024, 0.5284202, 0.008587368, 0.030168215, 0.1619215, 0
313, 425884512, 0.4969092, 0.48894134, -0.4845505, 0.5284207, -0.015201563, -0.01190363, 0.16231155, 0
314, 425901179, 0.49687958, 0.48896742, -0.4845738, 0.52840304, -0.00820069, 0.04449629, 0.17263985, 0
315, 425917846, 0.49690837, 0.48893788, -0.48454666, 0.52842826, -0.015013812, -0.019354211, 0.18031406, 0
316, 425934513, 0.4968783, 0.4889722, -0.48457128, 0.5284022, 0.010370554, 0.0042176894, 0.17543507, 0
317, 425951180, 0.49689558, 0.48895842, -0.48453954, 0.52842784, 0.006351568, 0.05048308, 0.16882229, 0
318, 425967847, 0.49690226, 0.48894277, -0.48452482, 0.5284496, 0.010275114, -0.043760706, 0.16272163, 0
319, 425984514, 0.49686894, 0.48898947, -0.4845617, 0.5284038, -0.01987142, 0.023630237, 0.16905499, 0
320, 426001181, 0.49689433, 0.4889645, -0.4845277, 0.5284342, -0.016197536, 0.041363083, 0.17223167, 0
321, 426017848, 0.4968961, 0.48894897, -0.4845419, 0.5284339, -0.0061302898, -0.0071499557, 0.16587257, 0
322, 426034515, 0.49689507, 0.48894778, -0.4845496, 0.5284289, -0.0039262287, 0.023174942, 0.16209507, 0
323, 426051182, 0.49690717, 0.4889306, -0.4845288, 0.52845246, -0.007787415, -0.017087342, 0.15795898, 0
324, 426067849, 0.4968794, 0.4889601, -0.48456943, 0.5284141, -0.004111521, -0.0011296344, 0.16766262, 0
325, 426084516, 0.49689347, 0.48894575, -0.48455375, 0.5284285, 0.015077737, 0.03480119, 0.17154598, 0
326, 426101183, 0.49691638, 0.48891446, -0.4845491, 0.5284402, -0.012636081, -0.024907166, 0.15756798, 0
327, 426117850, 0.49689236, 0.4889394, -0.4845713, 0.52841926, -8.3839707E-4, 0.01224918, 0.16197586, 0
328, 426134517, 0.4969197, 0.48891076, -0.48454753, 0.52844185, 0.0029041038, 0.010010027, 0.1712513, 0
329, 426151184, 0.49690327, 0.48891833, -0.4845595, 0.5284393, -0.0036016877, -0.015400713, 0.16562843, 0
330, 426167851, 0.49690062, 0.4889265, -0.48457333, 0.52842146, -0.023375878, 0.02952405, 0.1757145, 0
331, 426184518, 0.49690953, 0.48891616, -0.4845446, 0.52844906, 7.1837066E-4, -9.231085E-4, 0.15641499, 0
332, 426201185, 0.49689656, 0.48893774, -0.48453885, 0.5284465, -0.008380618, 0.0035657021, 0.16807461, 0
333, 426217852, 0.496901, 0.48893693, -0.48453704, 0.52844477, -6.3589436E-4, 0.007130063, 0.17260265, 0
334, 426234519, 0.49689853, 0.4889457, -0.48453456, 0.5284413, 0.0047456273, -0.016453907, 0.18852043, 0
335, 426251186, 0.49691352, 0.48893744, -0.4845312, 0.5284379, -0.004130296, 0.0258904, 0.1747055, 0
336, 426267853, 0.49693412, 0.48892754, -0.48451278, 0.5284445, 0.0018752737, 0.0053435243, 0.1546421, 0
337, 426284520, 0.49690497, 0.48895156, -0.4845422, 0.5284229, -0.011283157, -0.0077912146, 0.16713428, 0
338, 426301187, 0.49689025, 0.488953, -0.4845289, 0.52844757, -7.968237E-4, 0.04011387, 0.16888332, 0
339, 426317854, 0.4968992, 0.48894024, -0.48450446, 0.5284734, 0.003692881, -0.01535154, 0.16414547, 0
340, 426334521, 0.49686414, 0.48897484, -0.48453012, 0.5284508, -0.008670291, -0.0047811656, 0.17242813, 0
341, 426351188, 0.49686262, 0.4889776, -0.48452652, 0.528453, -0.007736901, 0.025494112, 0.17650127, 0
342, 426367855, 0.4968701, 0.48897845, -0.4845146, 0.5284561, -0.003278488, -0.0042979307, 0.17974567, 0
343, 426384522, 0.49686062, 0.4889842, -0.48451245, 0.5284615, -0.0099501265, -0.004420639, 0.1687975, 0
344, 426401189, 0.49687177, 0.48897484, -0.4844978, 0.5284733, -0.0067807124, -0.035326224, 0.16536903, 0
345, 426417856, 0.4968581, 0.48899594, -0.48452523, 0.5284414, 0.0010500639, -0.0088725705, 0.1806097, 0
346, 426434523, 0.49686489, 0.4889903, -0.4845075, 0.52845657, 0.0038750442, 0.049073387, 0.16350651, 0
347, 426451190, 0.49689153, 0.48896536, -0.48449203, 0.52846885, 0.0013656642, -0.011264606, 0.16449833, 0
348, 426467857, 0.49685535, 0.48899353, -0.48450845, 0.52846175, -0.008402076, -0.012524549, 0.16725731, 0
349, 426484524, 0.49686325, 0.4889753, -0.48448727, 0.52849054, 0.011188835, 0.022033237, 0.17440796, 0
350, 426501191, 0.4968605, 0.48897249, -0.48449197, 0.52849144, -0.0020491667, -0.009502653, 0.16622353, 0
351, 426517858, 0.49684685, 0.4889852, -0.48450163, 0.5284837, -0.0064727115, 0.028743766, 0.1767416, 0
352, 426534525, 0.49685016, 0.4889748, -0.48449352, 0.5284976, 0.0034631097, 0.0036289564, 0.15471554, 0
353, 426551192, 0.49684894, 0.48897275, -0.4845017, 0.52849317, -0.023500152, -0.007288534, 0.16043377, 0
354, 426567859, 0.49685335, 0.4889681, -0.48451576, 0.5284804, 0.0072192447, -0.001017878, 0.17478848, 0
355, 426584526, 0.49686125, 0.48895225, -0.48451024, 0.5284927, -0.011262818, -0.0018301241, 0.1696415, 0
356, 426601193, 0.49684587, 0.48896694, -0.48451537, 0.52848893, -0.0074007376, -0.012979845, 0.16669083, 0
357, 426617860, 0.49685115, 0.48896638, -0.48451015, 0.52848905, -0.0029447833, 0.0085077975, 0.16328716, 0
358, 426634527, 0.49687108, 0.48895803, -0.4845065, 0.52848154, -0.0041881856, -0.025920797, 0.1682539, 0
359, 426651194, 0.49684942, 0.4889862, -0.48453704, 0.5284479, -0.002210096, 0.029383237, 0.18834877, 0
360, 426667861, 0.49688128, 0.48895374, -0.48449257, 0.5284887, -0.015502412, 0.016579967, 0.14926434, 0
361, 426684528, 0.4968631, 0.48897368, -0.4845287, 0.52845424, -2.087611E-4, -0.01592798, 0.1657114, 0
362, 426701195, 0.49685442, 0.4889778, -0.48455334, 0.52843595, 0.0016278449, 0.073046714, 0.17538166, 0
363, 426717862, 0.49689144, 0.48893544, -0.48450652, 0.5284832, -0.008779813, -0.023233054, 0.166399, 0
364, 426734529, 0.49683237, 0.48899648, -0.48456088, 0.5284325, -0.012157987, -0.0010791206, 0.16085243, 0
365, 426751196, 0.49685654, 0.48897594, -0.48452893, 0.52845806, -0.011722137, 0.07870718, 0.17061234, 0
366, 426767863, 0.49687678, 0.4889542, -0.48451248, 0.5284743, 0.0052181333, -0.046474155, 0.16385937, 0
367, 426784530, 0.49684644, 0.48897892, -0.4845459, 0.5284492, -0.012069476, 0.012822715, 0.14826775, 0
368, 426801197, 0.49688044, 0.48893198, -0.48450756, 0.52849585, 0.015718102, 0.0081986785, 0.17465973, 0
369, 426817864, 0.49685487, 0.48895982, -0.48453587, 0.52846813, -0.00959474, -0.04509508, 0.17067528, 0
370, 426834531, 0.49684602, 0.48896763, -0.48455507, 0.52845156, -0.01633835, 0.06426221, 0.17333889, 0
371, 426851198, 0.4968781, 0.4889437, -0.48450297, 0.5284915, -0.010176098, -0.0249997, 0.17319202, 0
372, 426867865, 0.49684256, 0.48898247, -0.48453888, 0.52845615, -0.009862286, -0.009864298, 0.17901897, 0
373, 426884532, 0.4968569, 0.4889624, -0.48451912, 0.5284792, 0.007804625, 0.036235027, 0.17637157, 0
374, 426901199, 0.49684605, 0.48896194, -0.48450807, 0.5285001, -0.0025706226, -0.026655931, 0.16589546, 0
375, 426917866, 0.49681035, 0.4890018, -0.4845376, 0.5284697, -0.0032051757, 0.030977108, 0.19051361, 0
376, 426934533, 0.49686742, 0.48893985, -0.48449633, 0.5285109, 0.0034823318, 0.0011379045, 0.16394615, 0
377, 426951200, 0.4968536, 0.48895425, -0.48451614, 0.5284926, -0.015667811, -0.03931548, 0.16902637, 0
378, 426967867, 0.49683017, 0.48897475, -0.4845579, 0.5284574, -0.013943856, 0.05031679, 0.18291664, 0
379, 426984534, 0.49686095, 0.4889412, -0.4845289, 0.52848613, -0.0059103533, 0.021803912, 0.17250729, 0
380, 427001201, 0.49685115, 0.4889464, -0.48454, 0.52848023, -0.013330312, -0.03704034, 0.15437508, 0
381, 427017868, 0.49684873, 0.4889469, -0.48453766, 0.52848417, -4.298154E-4, -0.022237081, 0.17947197, 0
382, 427034535, 0.49683368, 0.48896027, -0.48454866, 0.5284759, -0.016196866, -0.005950362, 0.1716013, 0
383, 427051202, 0.49682784, 0.48897034, -0.48453358, 0.52848595, -0.0026647216, 0.03030545, 0.18580914, 0
384, 427067869, 0.49685082, 0.4889429, -0.48450598, 0.52851504, -0.00445886, -0.015362269, 0.15758705, 0
385, 427084536, 0.49683166, 0.48895156, -0.4845253, 0.5285073, -0.0018144782, -0.022037037, 0.16117287, 0
386, 427101203, 0.49682543, 0.4889635, -0.4845182, 0.52850854, -0.018571021, 0.029795172, 0.17047596, 0
387, 427117870, 0.4968372, 0.4889495, -0.4845019, 0.5285253, 4.367443E-4, -0.0061050327, 0.17665386, 0
388, 427134537, 0.49682394, 0.48895654, -0.48451257, 0.52852166, -0.0066338647, -0.0019754076, 0.16957664, 0
389, 427151204, 0.49683127, 0.48895633, -0.48450178, 0.5285249, -0.016758777, 0.011100324, 0.17459393, 0
390, 427167871, 0.49681988, 0.48896575, -0.48450246, 0.52852625, -0.011353788, 0.006903421, 0.17007256, 0
391, 427184538, 0.4968041, 0.48897582, -0.48450226, 0.528532, -0.01224404, 0.029979793, 0.14887524, 0
392, 427201205, 0.49680594, 0.48897973, -0.48447582, 0.5285507, -0.006348215, 0.008389112, 0.16254139, 0
393, 427217872, 0.49678618, 0.4890074, -0.48447987, 0.5285399, -0.010006005, 0.032988723, 0.15772724, 0
394, 427234539, 0.4967722, 0.4890254, -0.48446158, 0.5285532, 0.0102708675, 0.013828523, 0.17176056, 0
395, 427251206, 0.4967703, 0.48901677, -0.48446828, 0.5285569, -0.0068225097, -0.009620668, 0.17631054, 0
396, 427267873, 0.49676216, 0.48902437, -0.4844733, 0.5285529, 0.0014286948, 8.3258573E-4, 0.17412567, 0
397, 427284540, 0.49677202, 0.48901922, -0.48445913, 0.52856135, -0.0055071358, -0.0066072666, 0.18080139, 0
398, 427301207, 0.49676818, 0.48903155, -0.48445928, 0.5285534, -0.0020310623, -0.0057601524, 0.1718235, 0
399, 427317874, 0.4967629, 0.48904637, -0.4844336, 0.52856827, 0.0018144782, 5.552062E-4, 0.16102982, 0
400, 427334541, 0.49676904, 0.48903435, -0.48443547, 0.5285719, -0.011047798, -0.023814188, 0.17250443, 0
401, 427351208, 0.49674878, 0.48905787, -0.48444912, 0.52855664, -0.011299698, 0.004491269, 0.1687994, 0
402, 427367875, 0.49675164, 0.48905277, -0.48443836, 0.52856845, -0.01111597, 0.030367589, 0.1601057, 0
403, 427384542, 0.49675858, 0.48905876, -0.48443055, 0.52856356, -0.004556759, -0.007349553, 0.17037964, 0
404, 427401209, 0.49674612, 0.4890722, -0.48443687, 0.5285571, -0.0074896957, 0.0018886845, 0.16988659, 0
405, 427417876, 0.49675095, 0.48907137, -0.4844335, 0.5285564, 0.0018862259, 0.007117323, 0.1612711, 0
406, 427434543, 0.49673128, 0.48908594, -0.48444492, 0.528551, -0.011406313, 0.007242267, 0.16911411, 0
407, 427451210, 0.49673316, 0.48908016, -0.48444268, 0.5285566, -0.004466906, 0.021780444, 0.16233826, 0
408, 427467877, 0.49673125, 0.48907417, -0.48443532, 0.52857065, 0.0067778067, 0.0032764764, 0.1686697, 0
409, 427484544, 0.49672437, 0.48908368, -0.4844347, 0.52856886, -0.008599438, 0.02578289, 0.1600399, 0
410, 427501211, 0.49672616, 0.48908082, -0.48442987, 0.5285742, -0.0078589395, -0.011107253, 0.18026447, 0
411, 427517878, 0.4967202, 0.48908558, -0.48443806, 0.5285681, -0.009863627, -0.017507322, 0.17132282, 0
412, 427534545, 0.49672648, 0.48907954, -0.48443216, 0.52857304, 2.8967278E-4, 0.01151047, 0.1659069, 0
413, 427551212, 0.49673957, 0.48906937, -0.4844317, 0.5285706, 0.0061468296, 0.0020873875, 0.1757927, 0
414, 427567879, 0.49672908, 0.48907447, -0.48443446, 0.5285733, 0.008898721, 0.015399819, 0.16699982, 0
415, 427584546, 0.49672985, 0.48906204, -0.48443896, 0.52857995, -0.020215629, 0.0031781306, 0.16925907, 0
416, 427601213, 0.49673232, 0.48906982, -0.48445037, 0.5285599, -0.010791206, 0.018881928, 0.15439129, 0
417, 427617880, 0.49674278, 0.4890736, -0.48444697, 0.5285497, -0.00266271, 0.008391347, 0.15604877, 0
418, 427634547, 0.4967409, 0.4890724, -0.48445153, 0.5285484, -0.009193535, -0.008944541, 0.16560745, 0
419, 427651214, 0.49672723, 0.48907858, -0.48445663, 0.5285509, -0.011418383, 0.003614875, 0.19334507, 0
420, 427667881, 0.4967445, 0.48906395, -0.48444608, 0.5285579, -0.010670061, 0.0329809, 0.15491962, 0
421, 427684548, 0.496765, 0.4890454, -0.48445165, 0.5285506, -0.010849989, -0.020156398, 0.1576643, 0
422, 427701215, 0.4967554, 0.48906022, -0.48446062, 0.5285378, -0.02314499, 0.004525467, 0.18745041, 0
423, 427717882, 0.49674675, 0.48906714, -0.48446202, 0.5285383, -0.016193736, 0.013849086, 0.1750021, 0
424, 427734549, 0.49674645, 0.4890725, -0.4844435, 0.5285506, -0.005128281, -0.009442082, 0.17672253, 0
425, 427751216, 0.4967416, 0.48907423, -0.4844406, 0.52855617, -0.0020739767, 0.0011271759, 0.19677639, 0
426, 427767883, 0.49674895, 0.48905867, -0.48444355, 0.528561, -0.014838802, -0.0049919384, 0.16583157, 0
427, 427784550, 0.49675727, 0.4890481, -0.48444536, 0.52856123, -2.58828E-4, 0.007167837, 0.15046024, 0
428, 427801217, 0.49675804, 0.4890477, -0.4844518, 0.52855504, -0.015995035, 0.017952785, 0.17616749, 0
429, 427817884, 0.49674633, 0.4890509, -0.48443493, 0.5285784, -0.0018589572, 0.021491665, 0.16744041, 0
430, 427834551, 0.49675268, 0.48904735, -0.4844231, 0.5285866, -0.007365199, 0.00805116, 0.15477276, 0
431, 427851218, 0.49673754, 0.48906064, -0.4844208, 0.5285907, 0.0071714134, 9.387544E-4, 0.16854858, 0
432, 427867885, 0.49672943, 0.489068, -0.48443258, 0.5285807, -0.011573054, 0.05752419, 0.16147327, 0
433, 427884552, 0.49674413, 0.48904952, -0.48441648, 0.5285988, 0.0029450066, 0.0205994, 0.17126083, 0
434, 427901219, 0.49674264, 0.4890602, -0.48441175, 0.5285946, -0.0012923519, 0.024052229, 0.17734241, 0
435, 427917886, 0.49672872, 0.4890639, -0.4844241, 0.52859294, -5.375487E-4, 0.0033457654, 0.17029953, 0
436, 427934553, 0.49673876, 0.48905504, -0.4844047, 0.52860934, -0.013203134, -0.016402274, 0.16562557, 0
437, 427951220, 0.49672782, 0.4890632, -0.48440665, 0.5286104, -0.012434472, -0.0045379833, 0.17151546, 0
438, 427967887, 0.49672216, 0.48906493, -0.48441225, 0.528609, -0.005574413, 0.0072194682, 0.17050838, 0
439, 427984554, 0.49671775, 0.4890705, -0.48439977, 0.5286195, -0.017109023, 0.0072702058, 0.16317177, 0
440, 428001221, 0.4967079, 0.4890847, -0.4844029, 0.5286126, -0.015080643, 0.036308337, 0.18337345, 0
441, 428017888, 0.4967008, 0.48908067, -0.4843935, 0.52863157, 0.0017950325, 0.05022895, 0.16962528, 0
442, 428034555, 0.49671638, 0.48906532, -0.48438495, 0.52863914, -0.012981409, -0.01689378, 0.15753555, 0
443, 428051222, 0.4967001, 0.48908436, -0.48439455, 0.52862805, -0.0065279193, 0.029361555, 0.16832256, 0
444, 428067889, 0.4967008, 0.48908588, -0.48438254, 0.5286369, -0.002707189, 0.0032686535, 0.1616888, 0
445, 428084556, 0.49669454, 0.4890855, -0.48438063, 0.5286449, -0.0077811563, 0.007922193, 0.16281033, 0
446, 428101223, 0.4966852, 0.48909962, -0.4843944, 0.528628, -0.01923396, 0.02229564, 0.16524601, 0
447, 428117890, 0.4966852, 0.48909304, -0.4843927, 0.5286357, -0.009775786, 0.037064258, 0.16373253, 0
448, 428134557, 0.49668244, 0.48908693, -0.48439464, 0.5286422, -0.0021043746, 0.015495036, 0.15694141, 0
449, 428151224, 0.49667504, 0.48908848, -0.48439798, 0.5286446, -0.0077824974, 0.0019885947, 0.15824413, 0
450, 428167891, 0.49666473, 0.48908848, -0.4844056, 0.5286473, -0.0014456818, -0.00474965, 0.16673756, 0
451, 428184558, 0.49666148, 0.4890846, -0.48441088, 0.52864903, -0.009015172, 0.035412498, 0.17838192, 0
452, 428201225, 0.49668416, 0.489068, -0.48440075, 0.5286523, -0.007977177, 0.019837892, 0.17652225, 0
453, 428217892, 0.4966788, 0.48907268, -0.48440325, 0.52865076, -0.0020382146, -0.007527022, 0.16915703, 0
454, 428234559, 0.49666902, 0.48908094, -0.48440334, 0.5286523, -0.002985686, 0.0049257786, 0.15703201, 0
455, 428251226, 0.49665347, 0.4890925, -0.48438954, 0.5286689, 0.0016171163, -0.017021853, 0.16143417, 0
456, 428267893, 0.49664757, 0.4891042, -0.48438975, 0.5286634, 0.0019054479, -0.0012655304, 0.18377113, 0
457, 428284560, 0.4966558, 0.4891007, -0.48439977, 0.5286498, -0.003286311, 0.028487174, 0.16456413, 0
458, 428301227, 0.49665058, 0.489097, -0.48440695, 0.5286513, 0.005292116, -0.0020961044, 0.15497494, 0
459, 428317894, 0.496632, 0.48910517, -0.48441532, 0.5286535, -0.016210947, 0.008227065, 0.1775198, 0
460, 428334561, 0.49663708, 0.48910362, -0.48441383, 0.52865154, -0.026862234, 0.022133818, 0.16135788, 0
461, 428351228, 0.49664104, 0.48909357, -0.48440805, 0.52866244, -0.0105165085, 0.016828962, 0.16867256, 0
462, 428367895, 0.4966503, 0.4890894, -0.48440394, 0.5286613, 0.007617992, -0.019149026, 0.15972042, 0
463, 428384562, 0.49663502, 0.48909944, -0.4844154, 0.528656, 0.0075191995, 0.023503505, 0.1663599, 0
464, 428401229, 0.49664497, 0.48909688, -0.484397, 0.5286659, -0.0054543866, -0.00309409, 0.17373562, 0
465, 428417896, 0.4966513, 0.48909226, -0.4843862, 0.5286741, -0.020097168, 0.017999051, 0.16304398, 0
466, 428434563, 0.49664176, 0.48909116, -0.48439276, 0.5286782, -0.010754996, -0.019588005, 0.15812206, 0
467, 428451230, 0.49662605, 0.489117, -0.48439977, 0.5286625, -0.017753635, 0.012906308, 0.15844536, 0
468, 428467897, 0.49661407, 0.48912373, -0.4843935, 0.52867323, -0.01016671, 0.021388179, 0.17151356, 0
469, 428484564, 0.49662924, 0.48910916, -0.48436728, 0.52869654, 0.0043053064, -0.012152399, 0.16072178, 0
470, 428501231, 0.4966119, 0.48912597, -0.48439166, 0.5286749, -0.0034872491, -0.010309088, 0.16137505, 0
471, 428517898, 0.49661538, 0.48911977, -0.48438552, 0.52868295, -0.009537969, 0.03186289, 0.16555023, 0
472, 428534565, 0.49662185, 0.48910883, -0.4843849, 0.52868754, -0.007513388, -0.0038307887, 0.1703434, 0
473, 428551232, 0.4966258, 0.48911333, -0.48440066, 0.52866536, 0.0045822393, 0.012855571, 0.1655302, 0
474, 428567899, 0.4966282, 0.48911104, -0.48438472, 0.5286798, -0.003673659, 0.017233519, 0.16582203, 0
475, 428584566, 0.49660975, 0.4891332, -0.48439947, 0.5286631, -0.009504218, 0.023519374, 0.17460346, 0
476, 428601233, 0.49662957, 0.48912534, -0.48438543, 0.5286646, -0.011550926, 0.031434864, 0.15607738, 0
477, 428617900, 0.49662614, 0.4891385, -0.4843719, 0.5286681, -0.00632117, -0.019329848, 0.17463303, 0
478, 428634567, 0.49660847, 0.48915064, -0.484402, 0.5286458, -0.0064613125, 0.027005507, 0.17357063, 0
479, 428651234, 0.49662045, 0.4891431, -0.48438156, 0.52866036, 0.01089648, 0.01854487, 0.18118572, 0
480, 428667901, 0.49660984, 0.48914725, -0.48438212, 0.528666, 0.00778138, 0.004356044, 0.1741724, 0
481, 428684568, 0.49659875, 0.48916352, -0.48437044, 0.52867204, -0.015032364, 0.017949209, 0.18050766, 0
482, 428701235, 0.49659255, 0.48917466, -0.48434108, 0.52869445, -0.009865862, 0.009989688, 0.16176987, 0
483, 428717902, 0.49658972, 0.4891796, -0.48434857, 0.5286857, -0.0094333645, 0.0029713812, 0.16447926, 0
484, 428734569, 0.49659172, 0.48917592, -0.48435313, 0.52868307, -0.0049137087, 0.01804152, 0.15858936, 0
485, 428751236, 0.49658903, 0.48917407, -0.48435444, 0.5286862, -0.00808737, -8.050937E-4, 0.17853928, 0
486, 428767903, 0.49656805, 0.48919642, -0.4843701, 0.52867067, -0.0138604855, 0.009453257, 0.17049313, 0
487, 428784570, 0.49657902, 0.48919094, -0.48435393, 0.52868026, 0.0073356954, 0.049439725, 0.14791298, 0
488, 428801237, 0.49658975, 0.48918825, -0.48433173, 0.5286931, -0.00688107, -0.02074312, 0.16775227, 0
489, 428817904, 0.4965645, 0.48920867, -0.48438475, 0.5286493, -0.007899395, 0.016144788, 0.1808548, 0
490, 428834571, 0.49656826, 0.4892025, -0.4843583, 0.5286757, -0.010567022, 0.04634832, 0.15748501, 0
491, 428851238, 0.49658749, 0.4891864, -0.48434493, 0.52868474, -0.02141254, -0.037667744, 0.17772388, 0
492, 428867905, 0.49655727, 0.48921746, -0.48438, 0.52865225, -0.008064571, 0.026048647, 0.17311478, 0
493, 428884572, 0.4965883, 0.48918217, -0.48435763, 0.52867633, 0.016217653, 0.0029139384, 0.16066647, 0
494, 428901239, 0.4965802, 0.48919538, -0.48435947, 0.52866995, 0.0039029832, -0.047236335, 0.17320347, 0
495, 428917906, 0.49655467, 0.4892211, -0.484381, 0.5286505, 0.004373031, 0.025205333, 0.1756792, 0
496, 428934573, 0.4965814, 0.48919755, -0.48436394, 0.5286627, -0.0014541753, 0.015421276, 0.1543436, 0
497, 428951240, 0.4965644, 0.48921803, -0.48437664, 0.52864814, -0.02028246, -0.0068292147, 0.17267132, 0
498, 428967907, 0.49656215, 0.48921221, -0.48438475, 0.52864826, -0.014125125, 0.019701773, 0.1635828, 0
499, 428984574, 0.49656886, 0.4892007, -0.48438108, 0.5286559, 0.005407896, 0.0029488064, 0.16593647, 0
500, 429001241, 0.49655592, 0.48921412, -0.48438862, 0.52864873, -0.0026960133, 0.01800218, 0.1820221, 0
501, 429017908, 0.49656376, 0.48920676, -0.484368, 0.528667, 0.011428888, 7.467568E-4, 0.1543417, 0
502, 429034575, 0.49654186, 0.48922956, -0.48437425, 0.52866066, -0.013561425, -0.002934725, 0.16587734, 0
503, 429051242, 0.4965397, 0.48923218, -0.48436818, 0.528666, -0.0044025346, 0.031208668, 0.17379284, 0
504, 429067909, 0.4965491, 0.4892224, -0.48434818, 0.5286846, -0.009527687, -0.010373237, 0.16610241, 0
505, 429084576, 0.49652413, 0.48924473, -0.48436898, 0.5286683, -0.024027195, 0.021598058, 0.15975094, 0
506, 429101243, 0.49653164, 0.48922962, -0.48435566, 0.5286875, 0.009365193, 0.025163535, 0.14810371, 0
507, 429117910, 0.49652466, 0.4892446, -0.48436093, 0.52867526, -0.0053236317, -0.027419452, 0.17863941, 0
508, 429134577, 0.49652073, 0.48924145, -0.48437193, 0.52867186, -0.014431561, 0.029978676, 0.15360737, 0
509, 429151244, 0.4965438, 0.48921102, -0.4843433, 0.5287045, -0.0065976554, -0.015090925, 0.17568493, 0
510, 429167911, 0.496506, 0.48924744, -0.48436287, 0.5286883, -0.0022150134, -0.011096748, 0.16785622, 0
511, 429184578, 0.49650958, 0.48923945, -0.48434886, 0.5287051, -0.005739142, 0.02949164, 0.16034603, 0
512, 429201245, 0.49651718, 0.4892285, -0.4843419, 0.5287146, -0.008637882, -0.026234386, 0.16929817, 0
513, 429217912, 0.49649903, 0.48924366, -0.48435023, 0.52871, -0.019047327, -0.0075947465, 0.17921257, 0
514, 429234579, 0.4965027, 0.48924223, -0.48433733, 0.52871966, -0.018554034, 0.010072611, 0.1759367, 0
515, 429251246, 0.4964918, 0.48926115, -0.48435098, 0.5286999, -0.011576183, -0.0026320885, 0.16984367, 0
516, 429267913, 0.49650127, 0.48925367, -0.48433512, 0.5287124, 0.010048696, 0.018510897, 0.17672634, 0
517, 429284580, 0.4964974, 0.48925903, -0.48433384, 0.5287123, 0.00793918, -0.012166928, 0.16312695, 0
518, 429301247, 0.49648637, 0.48927128, -0.4843388, 0.5287068, -0.009374133, 0.011822942, 0.17679882, 0
519, 429317914, 0.49650237, 0.489253, -0.4843136, 0.52873176, -0.01421073, 0.0054112487, 0.16209698, 0
520, 429334581, 0.4964955, 0.48926568, -0.48431996, 0.5287206, -0.007070609, -0.024980702, 0.16321278, 0
521, 429351248, 0.49649554, 0.4892657, -0.48431462, 0.52872545, -0.0050046784, 0.016458824, 0.1595478, 0
522, 429367915, 0.49651173, 0.4892526, -0.48431414, 0.52872294, -0.010563893, 5.3643107E-6, 0.17107773, 0
523, 429384582, 0.49649897, 0.48926046, -0.48432654, 0.5287162, 0.009622904, 0.026423031, 0.16973114, 0
524, 429401249, 0.49651518, 0.48924264, -0.4842967, 0.5287448, -2.1345487E-4, 0.0064416435, 0.17276955, 0
525, 429417916, 0.4965091, 0.48924726, -0.48429778, 0.52874523, -0.016946752, -0.0032217158, 0.1599617, 0
526, 429434583, 0.4965121, 0.48924878, -0.4843089, 0.5287308, -0.0103593785, 0.0275701, 0.17479134, 0
527, 429451250, 0.4965254, 0.48923117, -0.48429546, 0.5287469, -0.012402734, -0.008767296, 0.17720795, 0
528, 429467917, 0.49652326, 0.4892353, -0.48431093, 0.52873087, -0.014225929, -0.010698671, 0.17376041, 0
529, 429484584, 0.49654055, 0.48922318, -0.48429888, 0.5287368, -0.011338365, 0.0065428945, 0.17707062, 0
530, 429501251, 0.49654084, 0.4892214, -0.48430052, 0.5287367, -0.0155860055, -0.015138085, 0.16723824, 0
531, 429517918, 0.49652326, 0.48923892, -0.4842984, 0.52873904, -0.01024181, 0.015738664, 0.17117596, 0
532, 429534585, 0.49654302, 0.4892189, -0.4842739, 0.52876145, -0.0137418, 0.040303633, 0.16717243, 0
533, 429551252, 0.4965382, 0.48922607, -0.48427948, 0.5287544, -0.009434035, -0.012415921, 0.17693329, 0
534, 429567919, 0.49652928, 0.4892327, -0.48428726, 0.5287495, -0.00712157, 0.0260368, 0.17582798, 0
535, 429584586, 0.4965325, 0.48923123, -0.48428467, 0.52875024, -0.004506245, 0.006465336, 0.17433167, 0
536, 429601253, 0.49652165, 0.48924047, -0.4842863, 0.5287503, 0.0030475992, 0.017043756, 0.17509365, 0
537, 429617920, 0.49653476, 0.4892314, -0.48426914, 0.5287621, 0.008603908, 0.023241771, 0.15770626, 0
538, 429634587, 0.49653527, 0.48923308, -0.48426825, 0.52876073, -0.0116562005, -0.01865998, 0.15814972, 0
539, 429651254, 0.49652636, 0.48924908, -0.4842774, 0.52874607, -0.01821653, 0.007133863, 0.17010498, 0
540, 429667921, 0.49653262, 0.4892423, -0.48425683, 0.5287652, -0.006543118, 0.006175216, 0.18099117, 0
541, 429684588, 0.49652272, 0.48924384, -0.48425063, 0.52877873, -0.006899845, 0.0032364675, 0.17527103, 0
542, 429701255, 0.49652097, 0.48924252, -0.48424655, 0.5287854, -0.016195524, 0.009556073, 0.16121292, 0
543, 429717922, 0.49651727, 0.48924688, -0.4842416, 0.52878934, -0.008385759, -0.013503089, 0.16389084, 0
544, 429734589, 0.49649623, 0.48926234, -0.48425648, 0.5287812, -0.009394473, -0.008750532, 0.1632595, 0
545, 429751256, 0.49649933, 0.4892578, -0.48425382, 0.5287849, 0.01587322, 0.016712958, 0.17483044, 0
546, 429767923, 0.49649727, 0.48925868, -0.48423985, 0.5287988, -0.0033339192, -0.010495945, 0.16595745, 0
547, 429784590, 0.4964821, 0.48927107, -0.48426166, 0.5287816, -0.008359608, 0.008971363, 0.16452503, 0
548, 429801257, 0.4964865, 0.48927525, -0.4842438, 0.52878994, 0.0026942252, 0.024771048, 0.15333366, 0
549, 429817924, 0.49647528, 0.48928174, -0.48424345, 0.5287948, -0.001301963, -0.016471786, 0.17266273, 0
550, 429834591, 0.49647334, 0.48928612, -0.4842463, 0.5287899, -0.012668267, 0.04196031, 0.17162514, 0
551, 429851258, 0.496475, 0.48927507, -0.48423085, 0.5288127, -0.015912334, 0.012046678, 0.1575222, 0
552, 429867925, 0.49645767, 0.4892971, -0.484233, 0.52880687, -0.013571483, 0.009430235, 0.17094517, 0
553, 429884592, 0.49646014, 0.48929352, -0.48422742, 0.528813, 0.002012734, 0.021241777, 0.15189648, 0
554, 429901259, 0.4964568, 0.4892956, -0.48422116, 0.52881974, -0.0034711561, -0.012511138, 0.16553116, 0
555, 429917926, 0.4964625, 0.48929113, -0.4842398, 0.52880144, -0.013443634, 0.0045435713, 0.16608047, 0
556, 429934593, 0.4964703, 0.48926976, -0.48423278, 0.5288204, 0.0061870622, 0.015886407, 0.17252445, 0
557, 429951260, 0.49645293, 0.4892854, -0.4842331, 0.52882195, -0.0064356085, 0.010418386, 0.17695618, 0
558, 429967927, 0.49645424, 0.48929116, -0.4842227, 0.528825, 0.0043153646, 0.026526071, 0.1754427, 0
559, 429984594, 0.49646682, 0.48927322, -0.48421296, 0.5288387, -0.0067449505, -0.011533045, 0.16474533, 0
560, 430001261, 0.49645773, 0.48928815, -0.4842154, 0.52883106, -0.006400517, 0.012268179, 0.15721512, 0
561, 430017928, 0.496459, 0.4892953, -0.48421067, 0.5288275, 0.01143917, 0.021007312, 0.16951275, 0
562, 430034595, 0.49645957, 0.48928654, -0.4842129, 0.5288332, 0.0015341929, 0.010175874, 0.1625824, 0
563, 430051262, 0.49646127, 0.48928425, -0.4842185, 0.5288287, -0.0027051773, 0.024230145, 0.16777802, 0
564, 430067929, 0.49647272, 0.48927802, -0.48421034, 0.5288311, 0.0037219378, 0.0077362303, 0.166543, 0
565, 430084596, 0.4964622, 0.48928943, -0.4842189, 0.5288226, -2.6821555E-4, -0.0022981602, 0.14697456, 0
566, 430101263, 0.4964596, 0.48929185, -0.48421824, 0.5288234, -0.00774383, 0.03398537, 0.15758419, 0
567, 430117930, 0.49646202, 0.48927978, -0.4842154, 0.52883494, -0.008279144, 0.0051472797, 0.1766653, 0
568, 430134597, 0.49642873, 0.48929453, -0.48423934, 0.5288305, -0.0040603364, 0.026167557, 0.17647934, 0
569, 430151264, 0.49645805, 0.48927456, -0.4842099, 0.5288484, -0.0021005748, 0.019374102, 0.16171837, 0
570, 430167931, 0.49646014, 0.4892627, -0.4842164, 0.5288515, -0.00807977, -0.009649725, 0.1719904, 0
571, 430184598, 0.49644908, 0.48927066, -0.48422873, 0.5288432, 0.005513618, 0.039689194, 0.16015053, 0
572, 430201265, 0.49647763, 0.48925117, -0.48420292, 0.52885807, 0.0069130324, 0.0063240756, 0.16616821, 0
573, 430217932, 0.4964695, 0.489262, -0.48420382, 0.5288548, -0.0014445642, -0.022649908, 0.17789078, 0
574, 430234599, 0.49645287, 0.48927376, -0.48421928, 0.52884537, -0.0064242096, 0.01710947, 0.16664791, 0
575, 430251266, 0.49645567, 0.48925927, -0.48420075, 0.52887326, -0.011180788, 0.014183462, 0.17890644, 0
576, 430267933, 0.4964479, 0.48926702, -0.48421058, 0.5288642, -0.005181701, -0.005871238, 0.17398453, 0
577, 430284600, 0.49645728, 0.48925403, -0.4841987, 0.5288783, 7.4273354E-4, 0.021844368, 0.16674995, 0
578, 430301267, 0.49645272, 0.48924372, -0.48421142, 0.5288804, 7.554738E-4, -0.011091607, 0.16490841, 0
579, 430317934, 0.4964379, 0.48925972, -0.48422125, 0.5288705, 3.453275E-4, 0.015206927, 0.16856575, 0
580, 430334601, 0.4964409, 0.4892509, -0.48421508, 0.5288818, -0.010682131, 0.023410076, 0.17034435, 0
581, 430351268, 0.49643144, 0.48926273, -0.4842163, 0.5288784, -0.008114191, -0.005302398, 0.17216206, 0
582, 430367935, 0.4964354, 0.48926488, -0.48421618, 0.5288728, 0.008819598, 7.9570615E-5, 0.17271137, 0
583, 430384602, 0.49644783, 0.48924738, -0.48420975, 0.5288833, -0.009692416, 0.007207399, 0.16351318, 0
584, 430401269, 0.49644136, 0.48925418, -0.4842126, 0.5288805, 0.0012626246, -6.2561274E-4, 0.17054558, 0
585, 430417936, 0.49644533, 0.4892463, -0.48420864, 0.5288876, -0.016196866, 0.004745851, 0.16280651, 0
586, 430434603, 0.49644285, 0.48924607, -0.48421383, 0.52888536, -0.014858024, -0.00634598, 0.14949322, 0
587, 430451270, 0.4964256, 0.48925814, -0.48422772, 0.5288776, -0.011982976, 0.014840143, 0.16671753, 0
588, 430467937, 0.49644297, 0.48923832, -0.4842227, 0.5288842, -0.009837476, 0.019898912, 0.16293621, 0
589, 430484604, 0.49643096, 0.48923936, -0.4842257, 0.528892, -0.009014054, 0.004468024, 0.1700058, 0
590, 430501271, 0.49642164, 0.48924768, -0.4842293, 0.5288897, -3.10683E-4, 0.020652821, 0.17110443, 0
591, 430517938, 0.4964213, 0.4892495, -0.4842319, 0.52888596, 0.0010851554, 0.013231073, 0.1798296, 0
592, 430534605, 0.49641296, 0.48925924, -0.48421842, 0.52889705, -0.011695762, 0.0033929267, 0.16965961, 0
593, 430551272, 0.49642467, 0.48924455, -0.4842108, 0.5289067, 0.0073283194, -0.0075750775, 0.15161228, 0
594, 430567939, 0.49640766, 0.4892596, -0.48420325, 0.5289157, -0.015225479, 0.018085103, 0.17457867, 0
595, 430584606, 0.49641046, 0.48926216, -0.48420203, 0.5289119, -0.009832335, 0.010157099, 0.17044449, 0
596, 430601273, 0.49641833, 0.4892498, -0.4841993, 0.52891845, -0.009592952, 0.013354452, 0.16715431, 0
597, 430617940, 0.49641252, 0.4892559, -0.48419696, 0.5289203, -0.0026146546, 0.003357388, 0.1690836, 0
598, 430634607, 0.496411, 0.48926085, -0.4842062, 0.52890867, -0.0048129046, 0.008223712, 0.16297817, 0
599, 430651274, 0.49648255, 0.48934603, -0.4842251, 0.52874535, -0.014101433, 0.02554686, 0.16582203, 0
600, 430667941, 0.49648058, 0.48935276, -0.48422468, 0.5287414, -0.015080196, 0.014465535, 0.16514683, 0
601, 430684608, 0.49648193, 0.48935392, -0.48421922, 0.5287442, 0.007556079, 0.004105039, 0.15987587, 0
602, 430701275, 0.49647903, 0.48935845, -0.48422918, 0.5287333, -0.0128779225, -0.004742051, 0.15666676, 0
603, 430717942, 0.49648342, 0.489354, -0.48422068, 0.52874136, 0.013050474, -0.004006246, 0.17258453, 0
604, 430734609, 0.49648654, 0.48935294, -0.4842195, 0.52874035, -0.001923776, -0.0053888974, 0.15849209, 0
605, 430751276, 0.49648952, 0.48934653, -0.48422676, 0.5287368, -0.0017210498, 0.014358249, 0.17292118, 0
606, 430767943, 0.49649426, 0.48933625, -0.48422936, 0.5287395, -0.005962655, 0.008881511, 0.18201733, 0
607, 430784610, 0.49648014, 0.48934495, -0.48423353, 0.52874094, -0.011998176, -0.0021432657, 0.17208958, 0
608, 430801277, 0.49648362, 0.48933727, -0.48423028, 0.5287478, 0.0027036127, 0.018485863, 0.17833996, 0
609, 430817944, 0.49647695, 0.48933965, -0.48422074, 0.5287606, -0.0122860605, -0.009191523, 0.17622852, 0
610, 430834611, 0.4964704, 0.48934656, -0.48422337, 0.5287579, -0.012290307, 0.013980735, 0.17555141, 0
611, 430851278, 0.4964691, 0.48933786, -0.48422328, 0.52876735, -0.006252328, 0.0021285138, 0.16935825, 0
612, 430867945, 0.49647337, 0.48932597, -0.48423493, 0.52876365, -0.0025467067, 0.013516052, 0.17250061, 0
613, 430884612, 0.49646217, 0.4893254, -0.4842388, 0.5287712, -0.005348218, 0.011736665, 0.17221642, 0
614, 430901279, 0.49645683, 0.48931625, -0.48424447, 0.5287792, 0.001145504, 0.0111088175, 0.17119694, 0
615, 430917946, 0.49646795, 0.4893065, -0.48423603, 0.5287857, 7.3982787E-4, -0.0028176042, 0.1637764, 0
616, 430934613, 0.49646336, 0.48932105, -0.48422188, 0.5287894, -0.012892228, 0.019676963, 0.16907883, 0
617, 430951280, 0.4964503, 0.4893264, -0.48422894, 0.5287903, -0.0044718236, -0.0055938587, 0.16303253, 0
618, 430967947, 0.49645123, 0.48931864, -0.48423296, 0.52879286, -0.015756322, 0.006031497, 0.16633415, 0
619, 430984614, 0.49645364, 0.48931453, -0.48422873, 0.52879834, -0.016783364, 0.011625356, 0.17302895, 0
620, 431001281, 0.49645948, 0.48930568, -0.48422128, 0.52880776, -0.004100345, -0.008727063, 0.16446972, 0
621, 431017948, 0.49646017, 0.4893031, -0.48422533, 0.52880573, -0.013163572, 0.019277321, 0.1669035, 0
622, 431034615, 0.49646786, 0.48929152, -0.48422664, 0.5288081, -0.008141012, -0.0024783115, 0.16680717, 0
623, 431051282, 0.49646735, 0.48929244, -0.4842301, 0.52880454, -0.003000885, 0.01473755, 0.17856884, 0
624, 431067949, 0.4964774, 0.48928034, -0.48422664, 0.5288094, -0.021160195, 0.02733094, 0.18482018, 0
625, 431084616, 0.49648637, 0.48927784, -0.48422077, 0.5288087, -0.022258537, -0.0040902873, 0.16908264, 0
626, 431101283, 0.4964807, 0.48928463, -0.4842276, 0.5288017, -0.019062303, -0.008700019, 0.15332127, 0
627, 431117950, 0.4964847, 0.48928058, -0.48422784, 0.5288014, -0.0117002325, 0.016560746, 0.17481613, 0
628, 431134617, 0.49648827, 0.48927748, -0.48421505, 0.5288126, -0.009862733, 0.0115547255, 0.1728754, 0
629, 431151284, 0.4964904, 0.4892768, -0.48421562, 0.5288107, -0.020332973, 0.021310396, 0.15413857, 0
630, 431167951, 0.49648356, 0.48929107, -0.48420817, 0.5288107, 0.0035632434, 0.014294548, 0.15851974, 0
631, 431184618, 0.49647734, 0.48929283, -0.48421887, 0.52880526, -9.4680086E-4, 0.023376772, 0.16573906, 0
632, 431201285, 0.49647975, 0.48928884, -0.4842269, 0.52879936, -0.011214092, 0.019789837, 0.15577316, 0
633, 431217952, 0.4964831, 0.48928753, -0.48422125, 0.52880263, -0.004143036, 0.008094298, 0.16126442, 0
634, 431234619, 0.49647295, 0.48929423, -0.4842417, 0.5287872, 1.63835E-4, -0.0019552913, 0.16336727, 0
635, 431251286, 0.49647495, 0.48929304, -0.4842381, 0.52878976, -0.00992241, 0.035670433, 0.17755795, 0
636, 431267953, 0.49648306, 0.48929626, -0.4842205, 0.5287951, -0.010133184, 0.0050386526, 0.16045666, 0
637, 431284620, 0.49646884, 0.48930117, -0.4842275, 0.52879757, -0.005999982, -0.0014785381, 0.17310047, 0
638, 431301287, 0.49647212, 0.4893006, -0.48422584, 0.5287965, -0.019457025, -9.246731E-4, 0.16566372, 0
639, 431317954, 0.49646512, 0.48931167, -0.48422322, 0.5287952, -0.021715177, 1.9222114E-4, 0.16989899, 0
640, 431334621, 0.49646652, 0.48930463, -0.48423254, 0.5287918, -0.0013585117, 0.009264835, 0.17505074, 0
641, 431351288, 0.4964714, 0.48929393, -0.4842315, 0.5287983, 0.0022244009, -0.0041361074, 0.16743183, 0
642, 431367955, 0.49646947, 0.48930478, -0.48422083, 0.5287998, -0.0032159043, 0.017201334, 0.16382599, 0
643, 431384622, 0.49646086, 0.48930106, -0.4842261, 0.5288064, -0.008921743, -0.007255007, 0.1646986, 0
644, 431401289, 0.49646023, 0.48930353, -0.48422623, 0.52880454, -0.015915463, 0.043088827, 0.15922165, 0
645, 431417956, 0.49645796, 0.4893118, -0.484216, 0.52880836, -0.0078714555, 2.8520252E-4, 0.16224384, 0
646, 431434623, 0.49645638, 0.48931134, -0.48421127, 0.5288146, 0.0015898476, 0.022785805, 0.17516804, 0
647, 431451290, 0.49645105, 0.48931116, -0.48421127, 0.52881986, -0.001164279, 0.0028857759, 0.15987873, 0
648, 431467957, 0.49644405, 0.48931807, -0.48421225, 0.52881914, 8.158223E-5, 0.005539322, 0.16780281, 0
649, 431484624, 0.49644753, 0.48932076, -0.48420766, 0.52881765, 0.005212546, 0.024448741, 0.17204666, 0
650, 431501291, 0.49644765, 0.4893171, -0.48420298, 0.5288252, -0.010351108, -0.008680796, 0.15429592, 0
651, 431517958, 0.49644578, 0.48932204, -0.48420522, 0.52882016, -0.0041852803, -0.008578874, 0.16002941, 0
652, 431534625, 0.49644732, 0.48931575, -0.48420873, 0.52882135, -0.0053593935, 0.003138569, 0.1592331, 0
653, 431551292, 0.49644879, 0.48931983, -0.48421043, 0.5288146, -0.0068381554, 0.0046895253, 0.17523098, 0
654, 431567959, 0.49645334, 0.48931387, -0.48420343, 0.5288223, -4.5976616E-4, 0.0056609125, 0.16749668, 0
655, 431584626, 0.49645215, 0.48931342, -0.48421264, 0.5288154, -0.008094745, 0.0057990435, 0.16205215, 0
656, 431601293, 0.49643636, 0.48931462, -0.48422337, 0.5288193, -0.0067187995, -0.008942753, 0.17250156, 0
657, 431617960, 0.4964443, 0.4893165, -0.48421234, 0.5288202, -0.013277563, 0.007473156, 0.1666565, 0
658, 431634627, 0.49644053, 0.48931566, -0.48422602, 0.5288119, 0.0044539426, 0.008360279, 0.16460037, 0
659, 431651294, 0.49643624, 0.48931873, -0.48422542, 0.5288139, 0.0019832305, 0.005943433, 0.16471195, 0
660, 431667961, 0.49643454, 0.48932496, -0.48422098, 0.5288138, -0.013390438, 0.02687028, 0.14652157, 0
661, 431684628, 0.49642226, 0.48934492, -0.4842144, 0.5288129, 8.111285E-4, 0.033857074, 0.17311001, 0
662, 431701295, 0.4964291, 0.4893383, -0.48420024, 0.5288256, -0.004066148, 0.012294777, 0.17340565, 0
663, 431717962, 0.4964211, 0.48933816, -0.48419484, 0.5288382, -0.024788927, -0.018955687, 0.18651772, 0
664, 431734629, 0.49641493, 0.48933357, -0.48420036, 0.5288431, -0.012949893, 0.01607997, 0.16278839, 0
665, 431751296, 0.4964206, 0.4893265, -0.48419663, 0.52884763, -0.0069052093, 0.0059724897, 0.1610241, 0
666, 431767963, 0.49641696, 0.48933494, -0.48419473, 0.528845, 0.011250301, 0.026666213, 0.17349625, 0
667, 431784630, 0.4964195, 0.48933506, -0.4841917, 0.5288452, 0.0037925679, 0.017529227, 0.16116905, 0
668, 431801297, 0.49641657, 0.48933476, -0.48418108, 0.52885795, -0.006594526, 0.0037749102, 0.16810131, 0
669, 431817964, 0.49640173, 0.4893432, -0.48418748, 0.52885836, -0.013736213, 0.013037288, 0.17366886, 0
670, 431834631, 0.49640125, 0.48933715, -0.48417816, 0.5288729, -0.018935347, 0.0076293913, 0.16558361, 0
671, 431851298, 0.4963907, 0.4893454, -0.484184, 0.52886975, -0.012823832, -0.0054210834, 0.15853024, 0
672, 431867965, 0.49638394, 0.4893571, -0.48418692, 0.5288626, -0.0090551805, 0.028557356, 0.17295837, 0
673, 431884632, 0.49638274, 0.4893484, -0.4841723, 0.52888507, -0.003638344, 0.010422857, 0.16970444, 0
674, 431901299, 0.49637762, 0.48935357, -0.48417696, 0.52888083, 0.0030813497, -0.009867873, 0.166893, 0
675, 431917966, 0.4963717, 0.4893588, -0.48418266, 0.52887636, -0.018758325, 0.016788729, 0.14959621, 0
676, 431934633, 0.49637377, 0.4893566, -0.48419037, 0.5288694, -0.012944753, -0.011376809, 0.15574169, 0
677, 431951300, 0.4963661, 0.48935834, -0.48419362, 0.5288722, -0.013257671, -0.00851048, 0.16813374, 0
678, 431967967, 0.4963684, 0.48936325, -0.48418474, 0.5288737, -0.02486403, -7.8765966E-4, 0.16404438, 0
679, 431984634, 0.4963599, 0.48937467, -0.48419285, 0.5288634, -0.013767057, -0.003630521, 0.16265392, 0
680, 432001301, 0.49635392, 0.48938093, -0.48419666, 0.5288599, -0.0036712002, 0.021160865, 0.18048096, 0
681, 432017968, 0.49636728, 0.48936945, -0.4841804, 0.5288729, 0.017132714, -0.0018947193, 0.16266632, 0
682, 432034635, 0.49636212, 0.48937473, -0.4841891, 0.52886486, 0.003787427, -0.009487902, 0.1602354, 0
683, 432051302, 0.49636814, 0.48936936, -0.48418555, 0.52886754, 0.0026016908, 0.032113, 0.1639967, 0
684, 432067969, 0.4963712, 0.48937362, -0.48418427, 0.52886164, -0.00727937, -0.010332781, 0.16377735, 0
685, 432084636, 0.49636257, 0.48937562, -0.4841948, 0.52885836, -0.004743839, 4.7831773E-4, 0.1725378, 0
686, 432101303, 0.49636817, 0.4893673, -0.48418313, 0.5288714, -0.0037847448, -0.0033258728, 0.16677666, 0
687, 432117970, 0.49635908, 0.4893714, -0.48419854, 0.5288621, -0.006171416, -0.012818244, 0.16296387, 0
688, 432134637, 0.49634457, 0.48938206, -0.48420024, 0.52886426, -0.014143229, 0.013219004, 0.1630249, 0
689, 432151304, 0.49634558, 0.48938313, -0.4841964, 0.5288658, -4.6110724E-4, 0.005831006, 0.17114162, 0
690, 432167971, 0.49634787, 0.48938584, -0.48420128, 0.5288569, 0.002914162, 0.0063819652, 0.16071224, 0
691, 432184638, 0.49635014, 0.48937896, -0.48420957, 0.5288535, -0.005090284, 0.006985897, 0.175663, 0
692, 432201305, 0.49634996, 0.48937538, -0.48421627, 0.52885073, -0.023226796, 0.0023625318, 0.15264606, 0
693, 432217972, 0.49635145, 0.4893828, -0.48421422, 0.5288444, -0.003991718, 0.0352129, 0.16541576, 0
694, 432234639, 0.49635863, 0.4893783, -0.4842107, 0.5288451, -0.009229967, -0.008620671, 0.16359234, 0
695, 432251306, 0.49635097, 0.48938408, -0.48421073, 0.5288468, -0.0017210498, -0.013615292, 0.16786766, 0
696, 432267973, 0.49634936, 0.48938298, -0.48420978, 0.5288501, -0.021839451, 0.025547754, 0.17962074, 0
697, 432284640, 0.49634758, 0.48938006, -0.48420298, 0.5288607, -0.011266394, 0.013877026, 0.16212273, 0
698, 432301307, 0.49634132, 0.48938397, -0.4842043, 0.52886176, -0.0019792072, -0.0061993552, 0.1675539, 0
699, 432317974, 0.49633747, 0.4893915, -0.48418942, 0.5288722, 0.0063942587, 0.025837427, 0.16198063, 0
700, 432334641, 0.4963362, 0.4893825, -0.48419505, 0.52887654, -8.6745375E-4, 0.009017854, 0.16470242, 0
701, 432351308, 0.49632353, 0.4893893, -0.48419756, 0.5288798, -0.0052315444, 0.020463282, 0.15307999, 0
702, 432367975, 0.4963218, 0.4893861, -0.484191, 0.52889043, -0.015139873, 0.0025476008, 0.1637783, 0
703, 432384642, 0.49631584, 0.4893891, -0.48419175, 0.5288926, 0.008774448, -0.014226376, 0.1566658, 0
704, 432401309, 0.49631202, 0.48939708, -0.48418295, 0.5288968, 3.5359748E-4, 0.0039767427, 0.16540527, 0
705, 432417976, 0.49631962, 0.48939034, -0.48417112, 0.52890676, -0.012849984, 0.01407774, 0.17129326, 0
706, 432434643, 0.49630144, 0.48939753, -0.48418316, 0.5289061, 5.4961833E-4, -0.00664504, 0.16200542, 0
707, 432451310, 0.4962993, 0.48938856, -0.48418587, 0.52891403, 6.0661417E-4, 0.03086088, 0.16629887, 0
708, 432467977, 0.49630624, 0.48938182, -0.48416933, 0.5289288, -0.004041338, 0.011539974, 0.17789745, 0
709, 432484644, 0.49629793, 0.48939133, -0.48417237, 0.528925, -0.014265714, 0.0029633348, 0.16692638, 0
710, 432501311, 0.49629447, 0.4893911, -0.48417154, 0.5289292, -0.0058026197, 0.0068732467, 0.15963459, 0
711, 432517978, 0.49629635, 0.4893941, -0.48416126, 0.52893406, -0.009970466, 0.006288537, 0.17743492, 0
712, 432534645, 0.49628812, 0.4893915, -0.48416832, 0.52893776, -0.011844398, 0.029406259, 0.17668247, 0
713, 432551312, 0.4962843, 0.48938563, -0.48416215, 0.5289524, -0.014385518, 0.027153471, 0.18497467, 0
714, 432567979, 0.4962851, 0.4893861, -0.4841671, 0.5289467, -0.011544668, 0.03216061, 0.17305088, 0
715, 432584646, 0.4962813, 0.48939112, -0.48416573, 0.52894694, 0.0050353, 0.019211609, 0.15611076, 0
716, 432601313, 0.49629766, 0.48938727, -0.48414728, 0.52895206, 0.0015205586, 0.012868535, 0.15879917, 0
717, 432617980, 0.49627483, 0.4893967, -0.48415926, 0.52895385, -0.0011459509, 0.008929343, 0.17069817, 0
718, 432634647, 0.4962788, 0.4893898, -0.4841447, 0.52896976, -0.005352465, 0.045152523, 0.15727806, 0
719, 432651314, 0.49641326, 0.48953304, -0.48407397, 0.5287756, -0.0035520678, -0.002122926, 0.17185688, 0
720, 432667981, 0.49640158, 0.48954156, -0.48408005, 0.5287732, 0.005579554, -0.007231538, 0.17520237, 0
721, 432684648, 0.49640924, 0.48954403, -0.48406154, 0.52878076, -0.006393141, 0.0059074475, 0.14891815, 0
722, 432701315, 0.49640745, 0.4895553, -0.4840593, 0.52877414, -0.004674997, -0.0068629654, 0.16059875, 0
723, 432717982, 0.4964003, 0.48957163, -0.48406264, 0.52876246, -0.015679657, -1.6897579E-4, 0.18970299, 0
724, 432734649, 0.49640638, 0.48956785, -0.48405972, 0.5287629, -0.0074570626, 0.023875654, 0.17857742, 0
725, 432751316, 0.49640626, 0.48957145, -0.4840555, 0.5287637, 0.0015040187, -0.008687725, 0.16014767, 0
726, 432767983, 0.49641046, 0.48956737, -0.48404828, 0.5287702, -3.6477315E-4, 0.018029226, 0.17046833, 0
727, 432784650, 0.4964066, 0.48956272, -0.48405647, 0.5287704, 0.0012746943, 0.007351341, 0.15362644, 0
728, 432801317, 0.49640366, 0.48957363, -0.48405638, 0.5287631, -0.008238017, 0.010470688, 0.17593575, 0
729, 432817984, 0.4964032, 0.48957375, -0.4840522, 0.52876717, -0.013282928, 0.009952585, 0.16514969, 0
730, 432834651, 0.4963944, 0.48958144, -0.48404917, 0.5287713, 7.50333E-4, -0.0013144797, 0.16457367, 0
731, 432851318, 0.4964172, 0.4895654, -0.48402488, 0.52878696, -0.0068137925, 0.0027132237, 0.16770649, 0
732, 432867985, 0.49640992, 0.4895735, -0.48402703, 0.52878433, 0.011490578, -0.016615506, 0.16645527, 0
733, 432884652, 0.49639916, 0.489584, -0.48403314, 0.52877903, -0.003329449, 0.0031296285, 0.17805576, 0
734, 432901319, 0.49640065, 0.48957676, -0.48401955, 0.52879673, -0.007158226, 0.014126019, 0.1823206, 0
735, 432917986, 0.4964111, 0.48957363, -0.48401907, 0.52879024, -0.008429567, 0.0022659744, 0.15868759, 0
736, 432934653, 0.49640572, 0.48958784, -0.4840166, 0.52878463, -0.003070174, -0.0107435975, 0.16344547, 0
737, 432951320, 0.49640226, 0.48959303, -0.4840239, 0.52877647, 0.005966231, -0.0026311944, 0.170331, 0
738, 432967987, 0.4964015, 0.48959404, -0.4840265, 0.5287737, -0.0057239435, -0.0032290916, 0.1921978, 0
739, 432984654, 0.496409, 0.4895877, -0.48401505, 0.5287831, -0.0030811261, 0.02670667, 0.15717316, 0
740, 433001321, 0.4964151, 0.4895849, -0.48400855, 0.5287859, -0.0076615773, -0.0019953002, 0.15544605, 0
741, 433017988, 0.4964084, 0.48960027, -0.48400438, 0.5287817, 0.003570396, -0.0029990969, 0.16585541, 0
742, 433034655, 0.49640605, 0.489602, -0.48399273, 0.528793, -0.015219221, 0.03429337, 0.17780209, 0
743, 433051322, 0.4964101, 0.48960176, -0.48398748, 0.52879417, 0.0064731585, 0.004907674, 0.17588043, 0
744, 433067989, 0.49640292, 0.48960397, -0.48398584, 0.52880037, 0.007831223, -0.004515185, 0.16214561, 0
745, 433084656, 0.49639982, 0.4896062, -0.4839832, 0.52880365, -0.0073502236, 0.015302144, 0.1586132, 0
746, 433101323, 0.4964052, 0.48960927, -0.48397613, 0.5288023, 0.0017360251, 0.030659271, 0.17683792, 0
747, 433117990, 0.49641383, 0.48960212, -0.4839581, 0.5288173, -0.0060929633, -0.00806323, 0.1560173, 0
748, 433134657, 0.49640194, 0.48961288, -0.48397008, 0.5288074, 0.0063629667, -0.015187481, 0.17881584, 0
749, 433151324, 0.4963986, 0.4896247, -0.48396558, 0.5288039, -0.014933124, 0.014248951, 0.1608305, 0
750, 433167991, 0.4963987, 0.4896271, -0.4839578, 0.5288087, -0.0015111711, 0.002708977, 0.16628456, 0
751, 433184658, 0.49638522, 0.4896438, -0.483967, 0.5287975, 0.004667621, 0.014639204, 0.178051, 0
752, 433201325, 0.49639037, 0.48963857, -0.483956, 0.52880734, 0.005869897, 0.025310384, 0.15751839, 0
753, 433217992, 0.49639383, 0.48962915, -0.48394996, 0.5288185, 8.1224606E-4, -0.007436723, 0.15180111, 0
754, 433234659, 0.49637836, 0.48964718, -0.4839627, 0.5288046, 0.003167402, 0.021227472, 0.17352676, 0
755, 433251326, 0.49639717, 0.4896399, -0.4839397, 0.5288147, -0.002603032, 0.026972426, 0.17410564, 0
756, 433267993, 0.49639934, 0.48964265, -0.48393667, 0.5288129, 0.0054979715, -0.021438245, 0.1566124, 0
757, 433284660, 0.4963794, 0.48965552, -0.4839466, 0.5288106, -9.711638E-4, -0.0022302123, 0.16314983, 0
758, 433301327, 0.49638185, 0.4896555, -0.48393548, 0.52881855, -0.0014184132, 0.0011884184, 0.16269493, 0
759, 433317994, 0.49636877, 0.48966455, -0.48394197, 0.5288165, 0.007491037, -0.01675386, 0.15608215, 0
760, 433334661, 0.49636164, 0.48966932, -0.4839401, 0.5288206, 0.005014066, 0.016754754, 0.16865826, 0
761, 433351328, 0.49635908, 0.48967284, -0.48393124, 0.5288278, 0.005719473, 3.1962353E-4, 0.17599678, 0
762, 433367995, 0.49635077, 0.4896888, -0.48393127, 0.52882075, -0.0015650378, 0.017821359, 0.17234802, 0
763, 433384662, 0.4963625, 0.48967627, -0.48392326, 0.5288287, 0.0051745484, 0.017396685, 0.17774296, 0
764, 433401329, 0.4963635, 0.48967683, -0.4839203, 0.5288299, 0.0039979764, -0.0034577455, 0.16186142, 0
765, 433417996, 0.49636075, 0.48968506, -0.48391962, 0.52882546, 0.0049568466, 0.008804175, 0.17477417, 0
766, 433434663, 0.49636763, 0.48968723, -0.4839177, 0.5288187, 2.2485404E-4, 0.008739357, 0.16856384, 0
767, 433451330, 0.4963513, 0.48969856, -0.48392335, 0.52881837, -0.016700665, 0.0050598863, 0.1801529, 0
768, 433467997, 0.49635977, 0.48969978, -0.48391616, 0.5288158, -0.004148177, 0.018393105, 0.17345238, 0
769, 433484664, 0.49635753, 0.48969665, -0.48391363, 0.52882314, 0.009176101, -0.0061135264, 0.1664648, 0
770, 433501331, 0.49634764, 0.4897052, -0.48391256, 0.5288255, 0.018752066, 0.00398993, 0.16325474, 0
771, 433517998, 0.4963582, 0.48970377, -0.48390433, 0.52882445, -0.0020084875, 0.017285598, 0.16990662, 0
772, 433534665, 0.49635008, 0.48970547, -0.48390993, 0.52882534, 0.001881532, 0.011551596, 0.1699152, 0
773, 433551332, 0.49635163, 0.48969522, -0.483907, 0.528836, -0.017667359, 0.018226812, 0.15763664, 0
774, 433567999, 0.49635637, 0.4896905, -0.48389712, 0.52884513, -0.0037831804, -0.009162467, 0.16483974, 0
775, 433584666, 0.4963436, 0.4897028, -0.48391473, 0.52882963, 0.006431585, -0.004291896, 0.17089367, 0
776, 433601333, 0.49635363, 0.48969147, -0.48390198, 0.5288424, -0.0036526488, 0.0051557734, 0.15305519, 0
777, 433618000, 0.4963607, 0.48967624, -0.48389587, 0.5288555, 0.0049619875, -8.4487896E-4, 0.16675472, 0
778, 433634667, 0.49633718, 0.48969835, -0.48390633, 0.5288476, 0.0024952986, 0.013125352, 0.15747356, 0
779, 433651334, 0.49634734, 0.48969245, -0.4838992, 0.52885, -0.0021602528, 0.005504677, 0.16944599, 0
780, 433668001, 0.49636304, 0.48968127, -0.48389807, 0.5288466, -0.0051866183, -0.0095529435, 0.18349838, 0
781, 433684668, 0.49635977, 0.4896918, -0.48390055, 0.5288376, -9.4233063E-4, 0.013523651, 0.17832851, 0
782, 433701335, 0.4963625, 0.48968917, -0.48389062, 0.52884656, 0.008613295, 0.022210483, 0.15832138, 0
783, 433718002, 0.49636254, 0.4896957, -0.48388842, 0.52884245, 0.0064228685, 8.4085576E-4, 0.16198063, 0
784, 433734669, 0.4963714, 0.48969442, -0.48388666, 0.5288369, 0.005743836, 0.008317588, 0.16267109, 0
785, 433751336, 0.49636874, 0.48970097, -0.4838872, 0.5288329, -0.0069420887, -0.0062190243, 0.17292976, 0
786, 433768003, 0.49636546, 0.48971158, -0.48388416, 0.528829, 0.009952138, 0.007678117, 0.17038155, 0
787, 433784670, 0.49637237, 0.48970523, -0.48388144, 0.5288309, -0.002235353, -0.0149941435, 0.15699959, 0
788, 433801337, 0.49637067, 0.48970497, -0.4838859, 0.52882874, -0.0077706515, 2.898963E-4, 0.1668644, 0
789, 433818004, 0.49636337, 0.48971018, -0.4838973, 0.5288203, 0.014333886, 0.004448578, 0.16252422, 0
790, 433834671, 0.49637106, 0.48970726, -0.4838919, 0.52882063, -0.007017636, 0.010840379, 0.17119122, 0
791, 433851338, 0.4963676, 0.48970795, -0.48389214, 0.52882296, 0.0024132694, -0.009582671, 0.16548347, 0
792, 433868005, 0.4963616, 0.489714, -0.4839034, 0.5288127, -0.010250527, 0.0014199778, 0.15443325, 0
793, 433884672, 0.49635792, 0.48971334, -0.48389858, 0.52882123, -0.009450127, 0.003528152, 0.17709541, 0
794, 433901339, 0.496355, 0.4897302, -0.48389998, 0.52880704, 2.2798321E-4, 0.010607031, 0.176054, 0
795, 433918006, 0.49636185, 0.489715, -0.48388234, 0.52883077, 0.020935565, 0.01974357, 0.1730957, 0
796, 433934673, 0.49637207, 0.48971325, -0.48387372, 0.5288307, -6.316476E-4, -0.008480528, 0.18184853, 0
797, 433951340, 0.49635804, 0.4897273, -0.48388743, 0.5288183, 0.005331678, 0.026106983, 0.15512466, 0
798, 433968007, 0.49637344, 0.48971972, -0.48386812, 0.52882844, 0.0033886798, 0.015298791, 0.17327404, 0
799, 433984674, 0.4963628, 0.48974034, -0.48386553, 0.52882195, 0.00809184, 0.0075165173, 0.17061234, 0
800, 434001341, 0.49635342, 0.48974884, -0.48386642, 0.52882206, 0.009812666, 0.011184588, 0.16620064, 0
801, 434018008, 0.49636158, 0.4897365, -0.48385423, 0.528837, 0.010789865, -0.015333659, 0.16721916, 0
802, 434034675, 0.49634457, 0.48975486, -0.48386997, 0.5288216, -0.0038692327, 0.0066913073, 0.1681776, 0
803, 434051342, 0.49635696, 0.48974124, -0.4838553, 0.528836, 0.0049749515, 0.016955022, 0.15913582, 0
804, 434068009, 0.49635562, 0.48974526, -0.48385027, 0.52883816, 0.008188397, -0.004672315, 0.17743587, 0
805, 434084676, 0.49633327, 0.48977673, -0.48386255, 0.5288188, 0.0025876095, 0.027541937, 0.16377068, 0
806, 434101343, 0.49634027, 0.4897588, -0.4838497, 0.5288404, 0.012812656, 0.014309299, 0.17359161, 0
807, 434118010, 0.49633893, 0.48975125, -0.4838428, 0.52885514, 0.010303947, -0.024768366, 0.158185, 0
808, 434134677, 0.49632657, 0.48976392, -0.48385748, 0.52884156, 0.011932015, 0.011595852, 0.16170979, 0
809, 434151344, 0.49633265, 0.48977196, -0.48383856, 0.5288458, 0.01915752, 0.0054655625, 0.15723228, 0
810, 434168011, 0.49632335, 0.48978624, -0.48385057, 0.5288301, 0.0010062553, -0.02246037, 0.15943813, 0
811, 434184678, 0.4963097, 0.48979935, -0.48386955, 0.5288133, -0.016431779, 0.0172438, 0.17516804, 0
812, 434201345, 0.4963244, 0.48979107, -0.48385072, 0.5288244, 0.009110612, 0.018794535, 0.18095016, 0
813, 434218012, 0.49635184, 0.48976338, -0.4838144, 0.5288576, 0.023539938, -0.046757344, 0.15003014, 0
814, 434234679, 0.49631822, 0.48980066, -0.4838416, 0.52882975, 0.023389066, -0.03568742, 0.15568447, 0
815, 434251346, 0.49629974, 0.48981488, -0.48385933, 0.5288177, -0.013823606, 0.049901728, 0.17793465, 0
816, 434268013, 0.49632886, 0.4897936, -0.48382303, 0.52884334, -0.010238458, 0.002266198, 0.18111324, 0
817, 434284680, 0.49631974, 0.48980874, -0.48383316, 0.52882856, -0.0016005763, 0.02945342, 0.17668247, 0
818, 434301347, 0.49633196, 0.48979065, -0.48381683, 0.5288489, 0.006856707, 0.0024360677, 0.1727047, 0
819, 434318014, 0.4963075, 0.48981708, -0.4838344, 0.5288312, 0.009047804, -0.011147932, 0.16767216, 0
820, 434334681, 0.49630734, 0.48982733, -0.48383078, 0.5288251, 0.011541539, 0.058139294, 0.16166973, 0
821, 434351348, 0.49632257, 0.4898092, -0.48380655, 0.5288498, 0.0034695917, -0.041511275, 0.15564728, 0
822, 434368015, 0.49627593, 0.48985893, -0.483855, 0.52880317, -0.007892913, 0.0028600718, 0.19867516, 0
823, 434384682, 0.49630892, 0.48982394, -0.48382726, 0.52883005, -0.0050006555, 0.04089125, 0.18443394, 0
824, 434401349, 0.4963311, 0.48979986, -0.48380753, 0.5288496, 0.015485201, -0.066316515, 0.1384716, 0
825, 434418016, 0.49629694, 0.48983708, -0.48385146, 0.52880704, 0.019374102, 0.02146149, 0.15198612, 0
826, 434434683, 0.49632576, 0.4898109, -0.48382324, 0.52883, 0.0027896652, 0.020202888, 0.17108059, 0
827, 434451350, 0.4963087, 0.4898319, -0.48384428, 0.5288073, -0.006142136, -0.009083566, 0.17126846, 0
828, 434468017, 0.49632916, 0.48982066, -0.4838248, 0.52881646, 0.015855562, 0.019479154, 0.17110538, 0
829, 434484684, 0.49635145, 0.48979723, -0.48379728, 0.5288422, -0.013788961, -0.027344799, 0.16564655, 0
830, 434501351, 0.4963049, 0.4898547, -0.4838453, 0.5287888, 0.001467586, 0.029309925, 0.16718102, 0
831, 434518018, 0.4963369, 0.4898123, -0.4838168, 0.5288241, 0.01568681, 0.025931079, 0.1764307, 0
832, 434534685, 0.49633488, 0.48980835, -0.48381713, 0.52882934, 0.007222821, -0.06347969, 0.15027714, 0
833, 434551352, 0.4963074, 0.48983118, -0.48383906, 0.5288141, -0.012714087, 0.04396701, 0.157588, 0
834, 434568019, 0.4963474, 0.48979157, -0.48378992, 0.52885807, -0.005365205, -0.012396252, 0.16349697, 0
835, 434584686, 0.496315, 0.48982534, -0.48380938, 0.52883935, 0.009492372, -0.03853676, 0.16015053, 0
836, 434601353, 0.49630907, 0.48984176, -0.48379582, 0.5288421, 0.013321819, 0.07014932, 0.17938995, 0
837, 434618020, 0.4963411, 0.48981676, -0.4837576, 0.52887017, -0.011351553, -0.044218462, 0.16788101, 0
838, 434634687, 0.49630374, 0.48985958, -0.48378685, 0.52883875, 0.0052552368, 0.009590717, 0.16967869, 0
839, 434651354, 0.4963662, 0.48953256, -0.48405656, 0.5288363, -0.0048837583, 0.04501417, 0.17527294, 0
840, 434668021, 0.49637246, 0.4895282, -0.48404565, 0.5288444, -0.009639443, -0.027167106, 0.16942215, 0
841, 434684688, 0.49634734, 0.48955092, -0.48406485, 0.52882934, 0.003916394, 0.009265282, 0.16383076, 0
842, 434701355, 0.49636465, 0.48953623, -0.48404014, 0.52884936, -0.0011408101, 0.017205358, 0.15682411, 0
843, 434718022, 0.49635732, 0.48954824, -0.48405653, 0.5288301, -0.013219898, 9.052275E-4, 0.16653919, 0
844, 434734689, 0.49636534, 0.48954147, -0.48405147, 0.5288334, 0.0038517988, 0.027266122, 0.17145634, 0
845, 434751356, 0.49638233, 0.4895231, -0.48403805, 0.5288467, -0.002454843, -0.03665635, 0.15963173, 0
846, 434768023, 0.4963568, 0.48955485, -0.48405927, 0.52882206, 0.001000891, 0.020931765, 0.16653442, 0
847, 434784690, 0.49637514, 0.4895399, -0.48404047, 0.52883595, -0.0046224715, 0.03193486, 0.17226219, 0
848, 434801357, 0.49637946, 0.48953688, -0.48404488, 0.5288304, 4.660245E-4, -0.00284532, 0.16995716, 0
849, 434818024, 0.49636617, 0.48955274, -0.4840496, 0.5288239, -0.0038285535, 0.013427094, 0.17898273, 0
850, 434834691, 0.4963717, 0.48954102, -0.48403558, 0.5288424, -0.011736888, 0.016973797, 0.18537903, 0
851, 434851358, 0.4963644, 0.4895484, -0.48404846, 0.5288308, -0.00753261, 0.025472207, 0.17725945, 0
852, 434868025, 0.49637288, 0.48955026, -0.4840317, 0.5288364, 0.0037659698, 0.021135384, 0.18875599, 0
853, 434884692, 0.49636662, 0.48955557, -0.48402864, 0.5288401, -0.005254119, -0.022549774, 0.17586517, 0
854, 434901359, 0.49634853, 0.48957253, -0.48403546, 0.52883524, 0.009967113, 0.03249789, 0.17202663, 0
855, 434918026, 0.49636242, 0.48955286, -0.4840223, 0.52885246, -0.0018252068, -0.016572144, 0.16401291, 0
856, 434934693, 0.49636254, 0.48955017, -0.4840266, 0.5288508, 0.007875479, -0.0019700432, 0.17178345, 0
857, 434951360, 0.49636325, 0.48955745, -0.48401907, 0.5288503, -0.0070583154, 0.012032149, 0.17294884, 0
858, 434968027, 0.49637094, 0.48954484, -0.48401156, 0.5288616, -0.017952785, -0.017049791, 0.17301464, 0
859, 434984694, 0.49635854, 0.48955172, -0.4840153, 0.5288635, -0.003897172, 0.024349725, 0.17017746, 0
860, 435001361, 0.49637294, 0.48954144, -0.4840047, 0.52886915, -0.0017664229, 0.010161122, 0.17410183, 0
861, 435018028, 0.49636582, 0.4895453, -0.4839995, 0.52887696, 0.011227279, -0.018336555, 0.16668606, 0
862, 435034695, 0.49635836, 0.48955676, -0.48399988, 0.528873, -0.0013316902, 0.034106288, 0.16992569, 0
863, 435051362, 0.49636894, 0.4895503, -0.4839921, 0.5288763, 0.0024016467, -0.02142908, 0.1638031, 0
864, 435068029, 0.49636266, 0.48956126, -0.48399094, 0.5288731, -0.014915466, 0.0026738856, 0.15706348, 0
865, 435084696, 0.49637172, 0.48955408, -0.48397195, 0.52888864, 0.0016886403, 0.022133818, 0.17796612, 0
866, 435101363, 0.49637145, 0.48955756, -0.48397017, 0.5288873, 0.008407887, 0.008149953, 0.18258762, 0
867, 435118030, 0.4963599, 0.4895716, -0.48396993, 0.5288854, -0.002270668, 1.8372765E-4, 0.16561127, 0
868, 435134697, 0.49637353, 0.48955324, -0.48396492, 0.528894, 0.010671849, -0.0065297075, 0.16172409, 0
869, 435151364, 0.49636593, 0.48955914, -0.4839758, 0.52888584, 0.0152078215, 0.0044901515, 0.17212582, 0
870, 435168031, 0.49636635, 0.48956716, -0.48397195, 0.5288815, 0.002536872, -0.0011962414, 0.16847515, 0
871, 435184698, 0.49637508, 0.48956418, -0.4839606, 0.52888644, -0.013902953, 0.009906989, 0.17425823, 0
872, 435201365, 0.4963736, 0.48956528, -0.48395416, 0.52889276, -0.003954838, 0.0093392655, 0.17650509, 0
873, 435218032, 0.49637824, 0.48956007, -0.48394892, 0.52889806, 3.951709E-4, -0.0014289183, 0.15723038, 0
874, 435234699, 0.49638116, 0.4895574, -0.48395547, 0.5288918, -0.0031466153, -0.0039376277, 0.15943527, 0
875, 435251366, 0.49637267, 0.48956695, -0.48395476, 0.52889144, -3.3191673E-4, 0.019621309, 0.17301369, 0
876, 435268033, 0.49637768, 0.48957384, -0.48393914, 0.5288947, 0.0040194336, 0.014703576, 0.17095184, 0
877, 435284700, 0.49636877, 0.4895799, -0.48394686, 0.52889043, -0.003167849, 0.009630727, 0.16526413, 0
878, 435301367, 0.49636218, 0.4895767, -0.483952, 0.52889484, 0.0032753588, 0.007961308, 0.16647816, 0
879, 435318034, 0.49636608, 0.48958224, -0.48394978, 0.5288881, -0.0011875243, 0.008487457, 0.17651653, 0
880, 435334701, 0.49636295, 0.48959023, -0.48394758, 0.5288857, 0.0052657416, -0.0040415614, 0.16826534, 0
881, 435351368, 0.49636406, 0.48958874, -0.48394427, 0.528889, -0.0017132268, 0.021583306, 0.16681957, 0
882, 435368035, 0.4963665, 0.4896027, -0.48393175, 0.5288852, 0.0030721857, 0.008058759, 0.16603184, 0
883, 435384702, 0.49636137, 0.48959947, -0.483927, 0.5288974, 0.008059653, -0.002510274, 0.18775082, 0
884, 435401369, 0.49635768, 0.48959956, -0.48392466, 0.528903, 0.003228421, 0.015799908, 0.18991852, 0
885, 435418036, 0.49635264, 0.4895956, -0.48392546, 0.5289106, -0.0030107195, 0.009238908, 0.17370415, 0
886, 435434703, 0.4963528, 0.48959687, -0.48392192, 0.52891254, -6.023674E-4, 0.023261888, 0.15690231, 0
887, 435451370, 0.49635372, 0.48959735, -0.48392025, 0.5289128, 0.0016781352, 0.029201074, 0.18305779, 0
888, 435468037, 0.49634787, 0.4896056, -0.48393103, 0.52890074, 0.0018873434, 0.026509307, 0.16384602, 0
889, 435484704, 0.4963561, 0.48959398, -0.48393083, 0.52890396, -0.0068339086, -0.013229284, 0.1677351, 0
890, 435501371, 0.49636456, 0.48959193, -0.48393136, 0.52889735, -0.008772884, 0.014496603, 0.17879963, 0
891, 435518038, 0.4963567, 0.4895916, -0.4839357, 0.5289011, 7.472038E-4, 0.020825597, 0.1745081, 0
892, 435534705, 0.49635753, 0.48959234, -0.48392376, 0.5289105, 7.4273354E-4, 0.0029812157, 0.18301392, 0
893, 435551372, 0.4963514, 0.48959175, -0.48393118, 0.52891004, -0.006643699, 0.020834984, 0.16672039, 0
894, 435568039, 0.49634498, 0.48958954, -0.4839354, 0.5289142, 0.007186612, 0.012864511, 0.16586399, 0
895, 435584706, 0.49634916, 0.48958263, -0.48393264, 0.5289192, 7.6173217E-4, 0.022423714, 0.17234802, 0
896, 435601373, 0.49635205, 0.48957238, -0.48393372, 0.52892494, 0.010836355, 0.013604786, 0.1703043, 0
897, 435618040, 0.4963564, 0.48956773, -0.48393175, 0.5289272, 7.123358E-4, 0.0028068756, 0.17316914, 0
898, 435634707, 0.49635231, 0.4895782, -0.48393038, 0.5289226, 0.0037863094, -0.0016852877, 0.16710567, 0
899, 435651374, 0.49636576, 0.4895655, -0.48391986, 0.5289314, -0.0029827803, 0.020225687, 0.16867733, 0
900, 435668041, 0.49637172, 0.4895602, -0.48391062, 0.5289391, -0.004043126, 0.016143447, 0.17501736, 0
901, 435684708, 0.4963688, 0.4895583, -0.48392594, 0.5289294, -0.005635879, 0.021780668, 0.1643238, 0
902, 435701375, 0.4963735, 0.4895606, -0.48391086, 0.5289367, 0.005844193, -0.014966651, 0.16054916, 0
903, 435718042, 0.49636436, 0.48956817, -0.48391026, 0.52893895, 0.007451475, 0.009349771, 0.16592884, 0
904, 435734709, 0.49635923, 0.48957092, -0.48390847, 0.52894294, 0.004332128, 0.024540829, 0.16539288, 0
905, 435751376, 0.49635315, 0.4895664, -0.4839075, 0.52895355, -0.004028821, -0.015678763, 0.17480755, 0
906, 435768043, 0.49634627, 0.48957795, -0.4839109, 0.52894616, 0.00940006, -0.004153318, 0.16529465, 0
907, 435784710, 0.49635327, 0.48956358, -0.48390523, 0.528958, 0.0055641313, -0.0012116637, 0.18052864, 0
908, 435801377, 0.4963494, 0.48957503, -0.4838973, 0.5289583, -0.0028444258, -0.011514046, 0.18491745, 0
909, 435818044, 0.49634188, 0.48957968, -0.4838991, 0.52895963, -0.0017534591, 0.01633388, 0.17441845, 0
910, 435834711, 0.4963469, 0.4895769, -0.483894, 0.52896214, -1.1577971E-4, -0.0015462626, 0.17618752, 0
911, 435851378, 0.49634483, 0.4895821, -0.4838946, 0.5289587, 0.0059780777, 0.0035750896, 0.175251, 0
912, 435868045, 0.4963396, 0.48957485, -0.48389062, 0.528974, -0.004282955, -0.0021602528, 0.16540146, 0
913, 435884712, 0.49634525, 0.48957366, -0.48389181, 0.5289687, 0.008841502, -0.009911906, 0.17920208, 0
914, 435901379, 0.496333, 0.48958284, -0.48390138, 0.52896297, -8.290096E-4, 0.0011676317, 0.1731453, 0
915, 435918046, 0.49633834, 0.4895788, -0.48389873, 0.5289641, 0.0013654407, 0.010613289, 0.15408993, 0
916, 435934713, 0.49633092, 0.48958534, -0.4838962, 0.5289673, 0.0064590774, 0.010852448, 0.16974545, 0
917, 435951380, 0.49632856, 0.48958758, -0.48389494, 0.5289686, 0.004333022, 0.02934077, 0.16485596, 0
918, 435968047, 0.49633473, 0.4895754, -0.48389107, 0.52897763, 0.008290095, 0.005474726, 0.17095184, 0
919, 435984714, 0.4963359, 0.48958164, -0.48389065, 0.52897114, 0.013125799, 0.015034823, 0.16447544, 0
920, 436001381, 0.4963317, 0.4895853, -0.48387966, 0.5289817, 0.0033533648, 0.023714948, 0.15921879, 0
921, 436018048, 0.49633545, 0.489572, -0.483884, 0.52898645, -0.010965993, 0.009126034, 0.17451954, 0
922, 436034715, 0.49632916, 0.48957524, -0.48387882, 0.52899414, 0.008217901, -0.0042103133, 0.16214657, 0
923, 436051382, 0.49633726, 0.48956558, -0.48386428, 0.5290087, 3.7416068E-4, 0.0021604763, 0.17948437, 0
924, 436068049, 0.4963406, 0.48957077, -0.48385125, 0.52901274, -0.006368778, -0.0013571706, 0.16204262, 0
925, 436084716, 0.4963349, 0.48957446, -0.4838572, 0.5290092, -0.0038437522, 0.015838128, 0.16034985, 0
926, 436101383, 0.4963282, 0.48956975, -0.4838497, 0.52902675, 0.0026810379, 0.012502197, 0.16464043, 0
927, 436118050, 0.49632755, 0.4895751, -0.4838507, 0.52902156, 0.0051354337, 0.011731525, 0.17293644, 0
928, 436134717, 0.4963347, 0.48957464, -0.48384738, 0.5290183, -0.0019380809, 0.015679434, 0.16547775, 0
929, 436151384, 0.49633932, 0.48957887, -0.48383254, 0.5290235, -0.0010601219, 0.0041642697, 0.16734505, 0
930, 436168051, 0.49633458, 0.4895829, -0.48383415, 0.52902275, 0.0019367398, 0.015881266, 0.16059685, 0
931, 436184718, 0.49633443, 0.48958182, -0.4838287, 0.5290289, 0.010678555, 0.0040551955, 0.1533966, 0
932, 436201385, 0.4963388, 0.48958242, -0.48382112, 0.52903116, -0.0015259229, -0.014715423, 0.15802288, 0
933, 436218052, 0.49633667, 0.48959082, -0.48382795, 0.5290192, 0.00486096, 0.01738752, 0.17879868, 0
934, 436234719, 0.49633935, 0.48959413, -0.4838175, 0.5290231, -0.0041135326, 0.02539353, 0.16745663, 0
935, 436251386, 0.4963437, 0.4895861, -0.48381147, 0.52903193, -0.0036180043, 0.014588467, 0.16366673, 0
936, 436268053, 0.49635258, 0.48957875, -0.48380795, 0.52903366, -0.0076620243, -0.009859827, 0.17465878, 0
937, 436284720, 0.49635017, 0.48957887, -0.48380584, 0.5290378, -0.011916817, 0.040322408, 0.17081356, 0
938, 436301387, 0.4963526, 0.48957735, -0.48380235, 0.5290401, -0.007009813, 0.01764903, 0.17227364, 0
939, 436318054, 0.49636388, 0.4895761, -0.48378795, 0.529044, -0.0038692327, 0.0035641375, 0.16039371, 0
940, 436334721, 0.4963667, 0.48957202, -0.48378533, 0.5290475, -0.0101128435, -0.0083256345, 0.16169262, 0
941, 436351388, 0.49636185, 0.48957023, -0.48379272, 0.529047, 0.0068377084, 0.002365661, 0.17802525, 0
942, 436368055, 0.49636474, 0.48957837, -0.4837801, 0.529048, -6.276244E-4, 0.007467121, 0.15354347, 0
943, 436384722, 0.49636316, 0.48958582, -0.48378366, 0.5290396, -0.0061707455, 0.0029079036, 0.17923832, 0
944, 436401389, 0.49637017, 0.48958004, -0.4837814, 0.5290404, -0.0038752677, 0.017695073, 0.1776762, 0
945, 436418056, 0.49636117, 0.48958287, -0.48378366, 0.52904415, -0.0066725323, -0.0131986635, 0.16122246, 0
946, 436434723, 0.49635118, 0.4895948, -0.48378813, 0.5290382, 0.003035306, 0.02968118, 0.15793228, 0
947, 436451390, 0.49635422, 0.4895904, -0.48378167, 0.5290455, 0.0016086227, 0.021809723, 0.16639614, 0
948, 436468057, 0.49635154, 0.4895979, -0.48378167, 0.5290411, -0.005653537, -7.7983673E-4, 0.17626095, 0
949, 436484724, 0.4963554, 0.48959568, -0.48377025, 0.52904993, 0.0026902019, 0.005166949, 0.15647125, 0
950, 436501391, 0.49634466, 0.48960868, -0.48377445, 0.5290442, -0.005615316, 0.013474478, 0.15619278, 0
951, 436518058, 0.49634722, 0.489607, -0.4837736, 0.52904403, -0.0058669914, 0.03163781, 0.1648922, 0
952, 436534725, 0.49635544, 0.48959857, -0.4837569, 0.52905935, 0.008091169, 0.0033958324, 0.1629982, 0
953, 436551392, 0.49633744, 0.48961473, -0.4837566, 0.5290615, 0.002355156, 0.005640573, 0.17968464, 0
954, 436568059, 0.49633646, 0.4896028, -0.48375094, 0.52907866, -0.0058864374, 0.012864735, 0.17403412, 0
955, 436584726, 0.4963375, 0.48960182, -0.48375466, 0.52907526, -0.005358723, 0.0041933265, 0.17074394, 0
956, 436601393, 0.49632874, 0.48960635, -0.48375815, 0.52907604, 0.008318929, 0.041665275, 0.15841389, 0
957, 436618060, 0.49634436, 0.48958758, -0.4837418, 0.52909374, 0.006168958, -0.0043341396, 0.17146873, 0
958, 436634727, 0.4963374, 0.48959976, -0.48374322, 0.5290877, -0.0035679373, 0.013872332, 0.1724472, 0
959, 436651394, 0.49628022, 0.48960254, -0.48402524, 0.5288808, -0.012085569, 0.014597855, 0.15476322, 0
960, 436668061, 0.496288, 0.48959973, -0.4840282, 0.5288734, -1.7545767E-4, 0.0065314956, 0.17552376, 0
961, 436684728, 0.49629316, 0.48960158, -0.48403376, 0.5288617, 0.005895601, 0.029114798, 0.1770277, 0
962, 436701395, 0.49630302, 0.48959258, -0.48402417, 0.5288696, -0.0060750823, 7.4273354E-4, 0.16130543, 0
963, 436718062, 0.49629095, 0.48960268, -0.48402774, 0.52886844, 0.0019108122, -0.0013178324, 0.17136669, 0
964, 436734729, 0.49629152, 0.4896065, -0.4840159, 0.5288752, -0.007707174, 0.016720781, 0.17071724, 0
965, 436751396, 0.49628356, 0.4896187, -0.48401713, 0.5288703, 0.0019324931, -0.016257439, 0.15136528, 0
966, 436768063, 0.49628425, 0.4896262, -0.48401967, 0.5288604, 0.006902974, 0.0119963875, 0.16422844, 0
967, 436784730, 0.49628985, 0.48961124, -0.48401505, 0.528873, 0.0060670357, 0.005009596, 0.17385006, 0
968, 436801397, 0.49628597, 0.48961452, -0.4840163, 0.5288725, 9.461303E-4, 0.0041282843, 0.16564274, 0
969, 436818064, 0.49628794, 0.48960468, -0.4840194, 0.52887684, 1.1779133E-4, 0.027177164, 0.16524029, 0
970, 436834731, 0.49627775, 0.48960632, -0.4840192, 0.52888507, -0.0038184954, -0.0036805877, 0.18148899, 0
971, 436851398, 0.49627042, 0.489611, -0.48402032, 0.5288866, -0.0060596596, 0.0011924417, 0.16499615, 0
972, 436868065, 0.4962725, 0.48961532, -0.48400673, 0.5288931, -0.0020073699, -3.419748E-5, 0.16843224, 0
973, 436884732, 0.49627024, 0.4896193, -0.48400557, 0.52889264, -0.021396002, -0.001526817, 0.17006493, 0
974, 436901399, 0.49626574, 0.48962253, -0.4840067, 0.5288929, -0.0013408542, -0.0045223376, 0.16741371, 0
975, 436918066, 0.4962705, 0.4896267, -0.48399672, 0.5288937, -8.815351E-4, 0.0034552868, 0.17463207, 0
976, 436934733, 0.49626225, 0.48963913, -0.48399848, 0.52888834, -0.013066344, 0.003124264, 0.16223335, 0
977, 436951400, 0.4962679, 0.48963365, -0.48400658, 0.5288808, -0.0074579567, -0.02227843, 0.17237663, 0
978, 436968067, 0.4962626, 0.48963085, -0.48400953, 0.52888536, -0.0025817982, 0.014941841, 0.16024876, 0
979, 436984734, 0.4962597, 0.48963198, -0.4840117, 0.5288851, 4.2243948E-4, 0.018819567, 0.17434978, 0
980, 437001401, 0.4962675, 0.48961458, -0.4840077, 0.5288976, 0.0019877008, -0.008955941, 0.18086338, 0
981, 437018068, 0.49625963, 0.48960802, -0.48402187, 0.52889824, -0.0056982394, 0.0033828686, 0.17328262, 0
982, 437034735, 0.4962634, 0.4896055, -0.48402128, 0.5288974, -0.009700239, 0.027663974, 0.1781578, 0
983, 437051402, 0.49625817, 0.4896103, -0.48401707, 0.5289019, -0.002036203, 0.008504668, 0.17622471, 0
984, 437068069, 0.4962564, 0.48960915, -0.484019, 0.5289026, -0.021703778, 0.02021697, 0.18025589, 0
985, 437084736, 0.49625927, 0.48959386, -0.48401225, 0.5289205, -0.0059145996, 0.013172513, 0.17334557, 0
986, 437101403, 0.49625278, 0.48959813, -0.48400214, 0.5289319, 0.008282943, 0.012963528, 0.16907215, 0
987, 437118070, 0.4962536, 0.48959473, -0.48400682, 0.52893, -0.001933834, 6.957958E-4, 0.18016815, 0
988, 437134737, 0.49625182, 0.48959592, -0.48400965, 0.528928, -0.013904741, 0.001829677, 0.17162609, 0
989, 437151404, 0.4962496, 0.48959818, -0.48401397, 0.5289238, -0.0025545296, 0.022090456, 0.15344238, 0
990, 437168071, 0.4962529, 0.4895845, -0.48401555, 0.528932, -0.014704918, -5.069274E-4, 0.1672678, 0
991, 437184738, 0.49626142, 0.48957852, -0.48399645, 0.52894706, 0.0012713417, 0.020670254, 0.16923904, 0
992, 437201405, 0.49626523, 0.4895879, -0.48399052, 0.5289402, 0.01486607, -0.0023131357, 0.17970657, 0
993, 437218072, 0.49627307, 0.48957798, -0.48398605, 0.52894616, -0.007878832, 0.0069271135, 0.17123413, 0
994, 437234739, 0.4962744, 0.4895749, -0.4839812, 0.5289522, 0.0020661538, -0.033602715, 0.14932632, 0
995, 437251406, 0.4962767, 0.4895744, -0.48398516, 0.52894694, -0.013710508, -0.0024228804, 0.16364574, 0
996, 437268073, 0.49627998, 0.48957068, -0.48397613, 0.5289556, -0.015590923, -0.0020324034, 0.1790247, 0
997, 437284740, 0.49627596, 0.48956934, -0.48398134, 0.5289557, -0.0016522078, -0.004394712, 0.15668488, 0
998, 437301407, 0.49627328, 0.48956624, -0.48397776, 0.5289643, -0.010016733, 0.0041951146, 0.16725731, 0
999, 437318074, 0.49627635, 0.48955852, -0.4839765, 0.52896965, -0.0027695491, -0.028611893, 0.17602444, 0
1000, 437334741, 0.49627402, 0.489559, -0.4839886, 0.52896047, 0.005920858, 0.012567687, 0.17184734, 0
1001, 437351408, 0.49628073, 0.48954904, -0.48397896, 0.52897215, -0.012633399, -0.019910088, 0.16955757, 0
1002, 437368075, 0.49627703, 0.48955527, -0.48398247, 0.5289666, -0.005687287, -0.013392673, 0.17456913, 0
1003, 437384742, 0.49627241, 0.48955145, -0.4839796, 0.5289771, 0.0016830525, 0.017865168, 0.17370701, 0
1004, 437401409, 0.49626994, 0.4895579, -0.48397282, 0.5289798, -0.010788971, -0.012585344, 0.16404247, 0
1005, 437418076, 0.49625903, 0.48956016, -0.48397765, 0.5289835, -0.009314008, 0.0100757405, 0.18199253, 0
1006, 437434743, 0.49626842, 0.48955265, -0.48397425, 0.5289847, -0.009825182, 0.006092069, 0.16842365, 0
1007, 437451410, 0.4962631, 0.48954993, -0.48398194, 0.52898514, -0.018638074, 0.0025064743, 0.17218399, 0
1008, 437468077, 0.49625197, 0.48956457, -0.4839864, 0.5289779, 0.0054342705, 0.030368036, 0.1728363, 0
1009, 437484744, 0.4962627, 0.48955774, -0.4839732, 0.52898645, -0.0047255107, 0.008850442, 0.15898609, 0
1010, 437501411, 0.49626142, 0.48956212, -0.48396742, 0.52898884, 0.0057362365, -7.036188E-4, 0.1661005, 0
1011, 437518078, 0.49626142, 0.48956913, -0.48396814, 0.52898175, -0.009726836, -0.0025160853, 0.17818451, 0
1012, 437534745, 0.496266, 0.48957014, -0.4839644, 0.5289799, -0.012259909, 0.00705541, 0.1658144, 0
1013, 437551412, 0.4962679, 0.48957175, -0.4839571, 0.5289833, 0.00545461, 0.011589594, 0.18605518, 0
1014, 437568079, 0.4962653, 0.48957106, -0.48395374, 0.5289895, 0.0106866015, 0.009635867, 0.1723671, 0
1015, 437584746, 0.49625745, 0.4895758, -0.48395136, 0.5289945, -0.0048363735, 0.008758131, 0.16724014, 0
1016, 437601413, 0.49625164, 0.48957846, -0.48395705, 0.5289923, 4.0679358E-4, -0.009410342, 0.16077518, 0
1017, 437618080, 0.49624956, 0.4895799, -0.48395255, 0.52899706, 0.0023598499, 0.0034434407, 0.16798782, 0
1018, 437634747, 0.49625993, 0.4895769, -0.4839479, 0.52899444, -0.0026059377, 0.0028864464, 0.16562366, 0
1019, 437651414, 0.49625558, 0.48958266, -0.48395133, 0.52899, -0.00264237, 0.013313326, 0.16639328, 0
1020, 437668081, 0.4962595, 0.48958144, -0.48394918, 0.52898943, -0.0021095152, -0.0015748723, 0.1607008, 0
1021, 437684748, 0.4962554, 0.48957893, -0.48394743, 0.5289971, -0.010843955, 0.01089134, 0.17544079, 0
1022, 437701415, 0.49625304, 0.4895768, -0.48394564, 0.5290029, -0.009118882, -0.0072024814, 0.16148186, 0
1023, 437718082, 0.49625504, 0.48958403, -0.48394287, 0.5289968, 0.0020650362, 0.009229744, 0.16698551, 0
1024, 437734749, 0.49625608, 0.48958054, -0.4839444, 0.5289979, -0.0065489295, 0.0198855, 0.16309452, 0
1025, 437751416, 0.4962653, 0.48957887, -0.4839377, 0.528997, -0.006172757, -0.0078710085, 0.17622757, 0
1026, 437768083, 0.49626595, 0.48958686, -0.48394093, 0.528986, -0.017279563, 0.0058848727, 0.17595673, 0
1027, 437784750, 0.49626654, 0.48958698, -0.48393586, 0.52898985, -0.011195764, -4.847996E-4, 0.17038345, 0
1028, 437801417, 0.49627283, 0.48958287, -0.48392347, 0.52899915, 0.0027210468, 0.015353999, 0.17436504, 0
1029, 437818084, 0.49627015, 0.4895849, -0.4839164, 0.5290063, -0.0047322162, 0.023819776, 0.1619854, 0
1030, 437834751, 0.49626613, 0.48958707, -0.4839089, 0.52901495, -0.0043502324, -0.008566134, 0.16214275, 0
1031, 437851418, 0.49626014, 0.48958483, -0.4839202, 0.529012, -7.232879E-4, -0.0134262, 0.16596985, 0
1032, 437868085, 0.49625385, 0.4895915, -0.4839276, 0.52900517, -0.009889554, 0.0016079522, 0.17087364, 0
1033, 437884752, 0.49626145, 0.48957813, -0.48392558, 0.52901226, -0.0015829188, -0.015009565, 0.14938736, 0
1034, 437901419, 0.49626428, 0.48958308, -0.4839247, 0.5290058, -0.010009133, -0.002112868, 0.16368866, 0
1035, 437918086, 0.49625596, 0.48958847, -0.48391652, 0.5290162, -0.029537683, 0.01655404, 0.18619442, 0
1036, 437934753, 0.4962558, 0.4895883, -0.48391867, 0.52901447, -0.007010707, 0.0024678065, 0.17072773, 0
1037, 437951420, 0.49626255, 0.48958877, -0.48391515, 0.5290109, 0.0014619982, 0.01080931, 0.17450428, 0
1038, 437968087, 0.49627945, 0.48958772, -0.48390213, 0.529008, -0.00440924, 0.027312389, 0.18139839, 0
1039, 437984754, 0.49626467, 0.48959804, -0.48391688, 0.52899873, 1.6361149E-4, 0.014987438, 0.17348099, 0
1040, 438001421, 0.4962617, 0.4896048, -0.48390555, 0.52900565, -0.0055549676, 0.008726616, 0.18228531, 0
1041, 438018088, 0.49625143, 0.4896102, -0.4839088, 0.5290073, -0.012464647, 0.0066289473, 0.17093945, 0
1042, 438034755, 0.4962558, 0.48960447, -0.4839113, 0.5290062, -4.0791114E-4, 0.0013893566, 0.17113781, 0
1043, 438051422, 0.49625385, 0.48960158, -0.48391187, 0.52901024, -0.0010469346, -0.0069425358, 0.17736912, 0
1044, 438068089, 0.49626228, 0.4895939, -0.48391154, 0.5290097, -0.0025046861, -0.0028252038, 0.16267109, 0
1045, 438084756, 0.4962722, 0.4895766, -0.483908, 0.52901965, -0.002533296, 0.018267713, 0.17527771, 0
1046, 438101423, 0.49625668, 0.4895871, -0.4839121, 0.52902067, -0.013113952, 0.0045784395, 0.18580818, 0
1047, 438118090, 0.49625158, 0.48958927, -0.4839103, 0.52902514, -0.0059161643, 0.006711647, 0.15983677, 0
1048, 438134757, 0.4962565, 0.48959348, -0.48389754, 0.52902824, -0.014191955, -0.03239485, 0.17860031, 0
1049, 438151424, 0.4962521, 0.489607, -0.4839014, 0.5290163, -0.015348635, 0.016987208, 0.16804409, 0
1050, 438168091, 0.49626926, 0.48958972, -0.48388833, 0.52902824, -0.009236002, -0.0030509518, 0.17235374, 0
1051, 438184758, 0.49626473, 0.48959893, -0.48388934, 0.52902305, -0.0037556882, -0.0036904225, 0.1686163, 0
1052, 438201425, 0.49627066, 0.4896048, -0.483886, 0.5290151, 7.078655E-4, 0.017753635, 0.16870785, 0
1053, 438218092, 0.49627078, 0.48960048, -0.48387823, 0.52902603, -0.013512252, -0.00205319, 0.16598797, 0
1054, 438234759, 0.49626273, 0.48961234, -0.48388687, 0.52901465, 0.007312003, 0.010961299, 0.17217636, 0
1055, 438251426, 0.49627182, 0.48961166, -0.4838764, 0.5290163, -0.009038193, 0.008920179, 0.17224693, 0
1056, 438268093, 0.49626726, 0.4896109, -0.48386997, 0.5290272, -0.0077599226, -0.008927108, 0.17065525, 0
1057, 438284760, 0.49626476, 0.48960757, -0.483876, 0.5290271, -0.012788964, 0.04689816, 0.16956711, 0
1058, 438301427, 0.4962742, 0.48958775, -0.48387435, 0.52903813, -0.0050882725, 0.010663356, 0.1826086, 0
1059, 438318094, 0.4962713, 0.48958626, -0.48387805, 0.5290389, -0.009087366, 0.017801913, 0.17897224, 0
1060, 438334761, 0.49626717, 0.48959073, -0.48388082, 0.5290361, -7.398279E-5, 0.031212913, 0.17520523, 0
1061, 438351428, 0.49627522, 0.48958766, -0.48387995, 0.52903223, -0.009885754, 0.0024979808, 0.1690731, 0
1062, 438368095, 0.49627587, 0.4895934, -0.4838803, 0.52902603, -0.012533712, 0.016122213, 0.18266487, 0
1063, 438384762, 0.496292, 0.489575, -0.48388362, 0.5290249, 0.0035332928, 0.00547115, 0.18079281, 0
1064, 438401429, 0.49628147, 0.48958018, -0.48388755, 0.5290264, -0.014386188, 0.023557596, 0.16427326, 0
1065, 438418096, 0.49628356, 0.48957726, -0.48388046, 0.52903366, 0.0044324854, 0.010347309, 0.16719818, 0
1066, 438434763, 0.49629223, 0.48957062, -0.4838787, 0.5290332, -0.015290968, 0.0027825127, 0.15371132, 0
1067, 438451430, 0.49629295, 0.48956674, -0.48387784, 0.5290368, -0.011482084, 0.02358464, 0.18077087, 0
1068, 438468097, 0.49630222, 0.48955637, -0.48387787, 0.5290377, 0.006568822, 0.018587785, 0.16742611, 0
1069, 438484764, 0.4962986, 0.4895562, -0.4838872, 0.52903277, -0.009103683, 0.0045583234, 0.17254353, 0
1070, 438501431, 0.49629942, 0.4895507, -0.48388255, 0.5290413, -0.0011003542, 0.022878563, 0.1758318, 0
1071, 438518098, 0.49630237, 0.48954532, -0.4838853, 0.52904093, -0.018897349, 0.019638743, 0.17626286, 0
1072, 438534765, 0.49629056, 0.48954597, -0.48388967, 0.52904755, -0.016806386, -0.005278482, 0.17433357, 0
1073, 438551432, 0.49629796, 0.4895414, -0.48389268, 0.529042, -0.0046077194, 0.02427753, 0.1755228, 0
1074, 438568099, 0.4963006, 0.4895427, -0.48387986, 0.52905, -0.020937577, 0.022741325, 0.1660366, 0
1075, 438584766, 0.49629605, 0.48954314, -0.4838809, 0.529053, -0.008307083, 0.0039628847, 0.16916561, 0
1076, 438601433, 0.4962822, 0.48954964, -0.4838912, 0.52905065, 9.975383E-4, 0.012238229, 0.16609097, 0
1077, 438618100, 0.4962879, 0.48954338, -0.48387876, 0.52906245, 0.0018781794, 0.0013585117, 0.1789236, 0
1078, 438634767, 0.4962836, 0.48954564, -0.48387843, 0.5290647, -0.019245137, 0.009184371, 0.16983986, 0
1079, 438651434, 0.49618277, 0.4896963, -0.48404223, 0.5288699, -0.012070593, 0.0039353925, 0.16838169, 0
1080, 438668101, 0.4961863, 0.4896882, -0.48403424, 0.5288815, -0.0053971675, 0.02012153, 0.18090916, 0
1081, 438684768, 0.49617845, 0.48969018, -0.4840414, 0.5288804, -0.013136527, 0.009015842, 0.17520237, 0
1082, 438701435, 0.49617654, 0.489697, -0.48403946, 0.52887774, -0.014196649, 0.00414773, 0.15707016, 0
1083, 438718102, 0.49616945, 0.48970512, -0.48404503, 0.5288716, -0.0014783146, -0.004882864, 0.1771059, 0
1084, 438734769, 0.49616218, 0.4897152, -0.48403817, 0.5288754, 0.005700251, 0.031320423, 0.16338158, 0
1085, 438751436, 0.4961673, 0.48971123, -0.4840281, 0.5288835, -0.010609266, 0.019491894, 0.15847969, 0
1086, 438768103, 0.49616808, 0.48971125, -0.4840293, 0.5288816, -0.009237343, -0.002320288, 0.1722107, 0
1087, 438784770, 0.49617398, 0.48971426, -0.48402122, 0.5288807, 0.008466671, -0.0107301865, 0.1698122, 0
1088, 438801437, 0.49617067, 0.48972794, -0.484005, 0.528886, 0.0018576161, 0.0015469332, 0.18024349, 0
1089, 438818104, 0.49617416, 0.48973098, -0.48400906, 0.5288762, -0.0066392287, -0.010473593, 0.16593838, 0
1090, 438834771, 0.4961685, 0.4897309, -0.48400074, 0.5288892, -0.013581988, 7.887772E-4, 0.16756248, 0
1091, 438851438, 0.49616978, 0.4897275, -0.48401123, 0.5288816, -0.00427625, 0.014478946, 0.1632452, 0
1092, 438868105, 0.49617305, 0.48972747, -0.48401466, 0.52887547, -0.007382856, 0.029513992, 0.1712122, 0
1093, 438884772, 0.49617222, 0.48972833, -0.48401013, 0.5288796, 0.005836147, -0.006322511, 0.1786375, 0
1094, 438901439, 0.4961615, 0.48973015, -0.48401988, 0.5288791, -1.8573926E-4, 0.0074917073, 0.17274857, 0
1095, 438918106, 0.49616247, 0.4897249, -0.4840175, 0.52888507, -0.0042250655, -0.0017543532, 0.17336369, 0
1096, 438934773, 0.4961582, 0.48972097, -0.4840163, 0.5288939, -3.0621275E-4, 0.008235334, 0.15982246, 0
1097, 438951440, 0.49614772, 0.48973054, -0.48400873, 0.52890176, 0.002864542, -0.002107727, 0.16376781, 0
1098, 438968107, 0.49614727, 0.48972574, -0.4840044, 0.5289105, -0.008953482, -0.019277768, 0.16839409, 0
1099, 438984774, 0.49614367, 0.48973122, -0.4840122, 0.5289017, -0.010549365, -0.0092576835, 0.17237186, 0
1100, 439001441, 0.49615163, 0.48972628, -0.48399743, 0.5289123, -0.006875929, 0.0047451803, 0.16545773, 0
1101, 439018108, 0.4961585, 0.48971444, -0.48399746, 0.5289167, -0.014578185, -0.021594705, 0.16542435, 0
1102, 439034775, 0.49613154, 0.48974723, -0.4840174, 0.5288935, 0.006064577, 0.013667594, 0.17297173, 0
1103, 439051442, 0.4961464, 0.48973104, -0.4839979, 0.52891237, -0.019388631, 0.016608577, 0.1881361, 0
1104, 439068109, 0.4961545, 0.4897217, -0.48399153, 0.5289192, -0.007990141, -0.02296171, 0.17049885, 0
1105, 439084776, 0.4961287, 0.4897399, -0.48401034, 0.5289095, 0.00140612, 0.0043884534, 0.17136288, 0
1106, 439101443, 0.49614042, 0.48972538, -0.48400694, 0.52891505, -0.0047109826, -0.010551153, 0.1716528, 0
1107, 439118110, 0.49614727, 0.4897285, -0.4840047, 0.5289077, 0.0071432507, -0.0029432187, 0.16951656, 0
1108, 439134777, 0.496141, 0.48972368, -0.48400503, 0.5289178, 3.79972E-4, 0.009456386, 0.16157055, 0
1109, 439151444, 0.496143, 0.4897264, -0.4839944, 0.5289232, -0.0036633774, -0.006700248, 0.16098213, 0
1110, 439168111, 0.49612147, 0.48973778, -0.4840019, 0.528926, -0.010494157, 0.030535, 0.1576662, 0
1111, 439184778, 0.49612516, 0.48972958, -0.48399094, 0.5289402, 0.0012724593, 0.022938687, 0.17102623, 0
1112, 439201445, 0.49611813, 0.48973313, -0.48400146, 0.52893376, -0.007007355, 0.0070703854, 0.18995571, 0
1113, 439218112, 0.4961183, 0.48971385, -0.4840127, 0.5289412, -0.018766595, 0.01833812, 0.18839741, 0
1114, 439234779, 0.49614042, 0.48969272, -0.48399237, 0.5289586, 0.0050382055, -0.014065223, 0.13665104, 0
1115, 439251446, 0.4961317, 0.48969144, -0.48399857, 0.5289623, -0.0063017244, -0.02495187, 0.16955566, 0
1116, 439268113, 0.49610946, 0.48971918, -0.4840209, 0.528937, 0.0011434923, 0.025065413, 0.19484043, 0
1117, 439284780, 0.4961194, 0.48970026, -0.4840186, 0.52894735, -0.0062572453, 0.019977141, 0.16767311, 0
1118, 439301447, 0.49613154, 0.48968652, -0.48400453, 0.52896154, -0.0063001597, -0.023577487, 0.14536381, 0
1119, 439318114, 0.49612305, 0.48969033, -0.48402062, 0.52895135, -0.0032036111, -0.0022420585, 0.1658411, 0
1120, 439334781, 0.4961064, 0.4896996, -0.48403165, 0.5289483, -0.012311317, 0.02305335, 0.1873188, 0
1121, 439351448, 0.49611416, 0.48968238, -0.48403218, 0.5289562, 0.0043859947, 0.020054923, 0.17717361, 0
1122, 439368115, 0.49612597, 0.4896754, -0.48402402, 0.52895904, -0.0014020968, -0.012920837, 0.15537357, 0
1123, 439384782, 0.4961192, 0.48969302, -0.4840175, 0.52895516, -0.01760321, -0.016909426, 0.18212223, 0
1124, 439401449, 0.49610916, 0.48970944, -0.48402599, 0.52894163, -0.0065236725, 0.021974675, 0.19461727, 0
1125, 439418116, 0.4961109, 0.48971072, -0.48401797, 0.5289462, -0.0024134929, 0.0231812, 0.18367004, 0
1126, 439434783, 0.49611807, 0.4897049, -0.48400924, 0.52895284, -0.010727281, -0.0069365012, 0.16691399, 0
1127, 439451450, 0.4961149, 0.48971182, -0.48400652, 0.5289519, -0.007863185, -0.0059619844, 0.18090057, 0
1128, 439468117, 0.49609962, 0.48972633, -0.484001, 0.5289578, -1.2427321E-4, 0.020130023, 0.1554718, 0
1129, 439484784, 0.496096, 0.48973376, -0.4839974, 0.52895766, -0.005307762, 0.011686374, 0.1671381, 0
1130, 439501451, 0.49610108, 0.48974246, -0.48398566, 0.5289555, -0.010304171, 0.010742033, 0.1638012, 0
1131, 439518118, 0.49610427, 0.48974186, -0.48397577, 0.5289623, 0.015058515, -0.016551582, 0.18363476, 0
1132, 439534785, 0.49609166, 0.4897499, -0.48398688, 0.52895623, 0.0073424005, -0.015563877, 0.1757412, 0
1133, 439551452, 0.4960921, 0.48975646, -0.48398152, 0.52895474, -6.8439665E-4, 0.007504671, 0.16175175, 0
1134, 439568119, 0.49610168, 0.48974022, -0.48398143, 0.5289608, -0.0029879212, -0.0040686065, 0.16267967, 0
1135, 439584786, 0.4960899, 0.48974186, -0.483998, 0.52895534, -0.007714773, -0.02186292, 0.15660572, 0
1136, 439601453, 0.4960821, 0.48974344, -0.48400864, 0.5289514, 0.001794362, 0.002760385, 0.1595726, 0
1137, 439618120, 0.49608216, 0.48974064, -0.48401776, 0.5289456, -0.014249622, 0.004684608, 0.17430687, 0
1138, 439634787, 0.4960802, 0.4897454, -0.484012, 0.5289484, -0.010892234, 0.015863609, 0.1622057, 0
1139, 439651454, 0.49608308, 0.48973846, -0.48401132, 0.52895254, -0.009089154, -0.01330148, 0.17040634, 0
1140, 439668121, 0.49607664, 0.48974082, -0.48401558, 0.52895266, -0.002926008, -0.0014126019, 0.16886902, 0
1141, 439684788, 0.49608168, 0.4897421, -0.48400226, 0.528959, -0.0059385155, 0.006766855, 0.17810822, 0
1142, 439701455, 0.49608383, 0.48973623, -0.48400518, 0.5289596, 0.0018690153, -0.01695368, 0.16580582, 0
1143, 439718122, 0.4960804, 0.48974404, -0.48401514, 0.5289464, -0.009784056, -0.017866733, 0.16599846, 0
1144, 439734789, 0.49608904, 0.48973313, -0.48400703, 0.5289558, -0.009143021, 0.0020312858, 0.15681076, 0
