sep=,
DeviceTag:,Xsens_5,,,,,,,,,,,,,,,,,
FirmwareVersion:,2.2.1,,,,,,,,,,,,,,,,,
AppVersion:,2023.0.0,,,,,,,,,,,,,,,,,
StartTime:,2023-06-20 14:10:10.000 +0200,,,,,,,,,,,,,,,,,
© Movella Technologies B. V. 2005-2023,,,,,,,,,,,,,,,,,,,

PacketCounter,SampleTimeFine,Euler_X,Euler_Y,Euler_Z,Acc_X,Acc_Y,Acc_Z,Gyr_X,Gyr_Y,Gyr_Z,Status,
0, 716344758, 0.7918803691864014, -0.5135125517845154, -98.79724884033203, 0.0, 0.0, 0.0, 0.0, 0.0, 0.0, 0, 
1, 716361425, 0.7894225716590881, -0.5318846702575684, -98.79093170166016, 0.10915642976760864, 0.11399375647306442, 9.885466575622559, 1.0269603729248047, -0.7597751617431641, 0.48685264587402344, 0, 
2, 716378092, 0.7819004654884338, -0.5619845986366272, -98.77359771728516, 0.08300594985485077, 0.11333867162466049, 9.928472518920898, 1.0269603729248047, -0.7589298486709595, 0.5056906938552856, 0, 
3, 716394759, 0.7758263349533081, -0.575575590133667, -98.76859283447266, 0.09532863646745682, 0.12817035615444183, 9.910995483398438, 0.9712271690368652, -0.7622083425521851, 0.4975331425666809, 0, 
4, 716411426, 0.779276430606842, -0.5879366397857666, -98.76715850830078, 0.0920640304684639, 0.12907665967941284, 9.899041175842285, 0.958907425403595, -0.794173002243042, 0.49101462960243225, 0, 
5, 716428093, 0.7891607880592346, -0.5986794233322144, -98.76287841796875, 0.08237356692552567, 0.12448862940073013, 9.909089088439941, 1.0540202856063843, -0.8097454905509949, 0.5352221727371216, 0, 
6, 716444760, 0.8005461692810059, -0.6069818735122681, -98.75689697265625, 0.0939096137881279, 0.1330079585313797, 9.913575172424316, 1.0728071928024292, -0.8376889228820801, 0.4860585629940033, 0, 
7, 716461427, 0.8144849538803101, -0.6143405437469482, -98.74805450439453, 0.0953303650021553, 0.12333653122186661, 9.90714168548584, 1.1064751148223877, -0.7344313859939575, 0.4899773895740509, 0, 
8, 716478094, 0.8271726965904236, -0.621695339679718, -98.73950958251953, 0.09199093282222748, 0.13293729722499847, 9.900668144226074, 1.0573370456695557, -0.7024154663085938, 0.5006450414657593, 0, 
9, 716494761, 0.840120792388916, -0.629332423210144, -98.73553466796875, 0.0958668515086174, 0.1222207173705101, 9.90614128112793, 1.0319676399230957, -0.7187180519104004, 0.5400373935699463, 0, 
10, 716511428, 0.8524580597877502, -0.6364299058914185, -98.7259292602539, 0.0887560173869133, 0.11881372332572937, 9.899725914001465, 1.0246167182922363, -0.6638043522834778, 0.5309320688247681, 0, 
11, 716528095, 0.8646247386932373, -0.6441069841384888, -98.71758270263672, 0.09893698990345001, 0.12170035392045975, 9.896899223327637, 1.0491154193878174, -0.7139156460762024, 0.49248743057250977, 0, 
12, 716544762, 0.8753376603126526, -0.6511623859405518, -98.70735168457031, 0.08466332405805588, 0.1313343495130539, 9.919750213623047, 0.9729431867599487, -0.6491153836250305, 0.4801676273345947, 0, 
13, 716561429, 0.8875834941864014, -0.6605925559997559, -98.694580078125, 0.09563681483268738, 0.1347511112689972, 9.898612022399902, 1.0408425331115723, -0.8155084252357483, 0.5074836611747742, 0, 
14, 716578096, 0.9001487493515015, -0.6693810224533081, -98.68611145019531, 0.08882924914360046, 0.1332239955663681, 9.896769523620605, 1.0351052284240723, -0.7639116048812866, 0.48687824606895447, 0, 
15, 716594763, 0.9135177731513977, -0.678460955619812, -98.6778564453125, 0.09559345990419388, 0.12337005138397217, 9.90317153930664, 1.0719746351242065, -0.7860921025276184, 0.48521333932876587, 0, 
16, 716611430, 0.9259254336357117, -0.6875718832015991, -98.66620635986328, 0.08896692097187042, 0.14775289595127106, 9.94330883026123, 1.025295615196228, -0.777768075466156, 0.5098912119865417, 0, 
17, 716628097, 0.9387878775596619, -0.6958202719688416, -98.65631103515625, 0.0836917832493782, 0.12585751712322235, 9.90863037109375, 1.019596815109253, -0.7319213151931763, 0.49335822463035583, 0, 
18, 716644764, 0.9519917964935303, -0.7049755454063416, -98.64488220214844, 0.10036157816648483, 0.12123826146125793, 9.889331817626953, 1.050626516342163, -0.797541081905365, 0.4828442335128784, 0, 
19, 716661431, 0.964635968208313, -0.7140594124794006, -98.63461303710938, 0.10729139298200607, 0.12156186252832413, 9.895671844482422, 1.0317500829696655, -0.7779473662376404, 0.4574108421802521, 0, 
20, 716678098, 0.976639449596405, -0.7234334945678711, -98.62107849121094, 0.08946101367473602, 0.1200767308473587, 9.91771125793457, 1.0050615072250366, -0.771685004234314, 0.5968079566955566, 0, 
21, 716694765, 0.9900193810462952, -0.7331896424293518, -98.60665130615234, 0.08416915684938431, 0.12309080362319946, 9.915854454040527, 1.0991625785827637, -0.7998590469360352, 0.5564935803413391, 0, 
22, 716711432, 1.0019365549087524, -0.7419952750205994, -98.5937271118164, 0.10128980129957199, 0.1260370910167694, 9.899248123168945, 1.016279935836792, -0.7548831105232239, 0.4901566803455353, 0, 
23, 716728099, 1.0142489671707153, -0.7513055205345154, -98.58262634277344, 0.10174480825662613, 0.13909918069839478, 9.908276557922363, 1.040727138519287, -0.7763849496841431, 0.44838228821754456, 0, 
24, 716744766, 1.026207685470581, -0.7599146366119385, -98.57084655761719, 0.09477006644010544, 0.12293029576539993, 9.912076950073242, 1.0090571641921997, -0.7252364158630371, 0.5187532305717468, 0, 
25, 716761433, 1.0378146171569824, -0.7670624256134033, -98.55718231201172, 0.09050175547599792, 0.12693360447883606, 9.920289993286133, 0.9935998916625977, -0.6375897526741028, 0.5004017353057861, 0, 
26, 716778100, 1.0505906343460083, -0.7752590775489807, -98.54497528076172, 0.0876714214682579, 0.14054423570632935, 9.8972806930542, 1.0638362169265747, -0.704285204410553, 0.4595046043395996, 0, 
27, 716794767, 1.0629616975784302, -0.7840911746025085, -98.53091430664062, 0.0778532326221466, 0.13085398077964783, 9.906566619873047, 1.0319037437438965, -0.7458291053771973, 0.5040515065193176, 0, 
28, 716811434, 1.0756841897964478, -0.7930387854576111, -98.51643371582031, 0.08997678011655807, 0.12541928887367249, 9.898283958435059, 1.052509069442749, -0.7620930671691895, 0.5433926582336426, 0, 
29, 716828101, 1.0888922214508057, -0.8022547364234924, -98.50312805175781, 0.08118309825658798, 0.10662144422531128, 9.910407066345215, 1.084307312965393, -0.778702974319458, 0.511402428150177, 0, 
30, 716844768, 1.1010632514953613, -0.8108189702033997, -98.48957824707031, 0.08430960029363632, 0.10694003105163574, 9.903969764709473, 1.036168098449707, -0.7440105676651001, 0.545006275177002, 0, 
31, 716861435, 1.1129868030548096, -0.8192421197891235, -98.47676849365234, 0.08201318234205246, 0.140101358294487, 9.895403861999512, 1.0302003622055054, -0.7402198314666748, 0.4818965792655945, 0, 
32, 716878102, 1.1250298023223877, -0.826614260673523, -98.46472930908203, 0.08687108755111694, 0.13854461908340454, 9.894458770751953, 1.0309816598892212, -0.6814643740653992, 0.4324128329753876, 0, 
33, 716894769, 1.1364206075668335, -0.83537757396698, -98.45259857177734, 0.0969911590218544, 0.10295690596103668, 9.89748764038086, 0.9865819811820984, -0.7656916379928589, 0.4477803707122803, 0, 
34, 716911436, 1.148252248764038, -0.8441540002822876, -98.43924713134766, 0.09480337053537369, 0.12427876889705658, 9.913750648498535, 1.0244245529174805, -0.7615039348602295, 0.47957858443260193, 0, 
35, 716928103, 1.1601580381393433, -0.8526270389556885, -98.42613983154297, 0.08854284882545471, 0.11971068382263184, 9.89278793334961, 1.0310839414596558, -0.7409369945526123, 0.49582985043525696, 0, 
36, 716944770, 1.1716245412826538, -0.8613058924674988, -98.41162872314453, 0.08640409260988235, 0.13394519686698914, 9.91735553741455, 1.0073795318603516, -0.7530645728111267, 0.5148472189903259, 0, 
37, 716961437, 1.1832270622253418, -0.871104896068573, -98.39802551269531, 0.08113808184862137, 0.12116508930921555, 9.911142349243164, 1.0138723850250244, -0.8209511041641235, 0.5439049005508423, 0, 
38, 716978104, 1.1947494745254517, -0.8789055347442627, -98.3831558227539, 0.09231491386890411, 0.10279727727174759, 9.889287948608398, 1.0109269618988037, -0.7045413255691528, 0.5456721782684326, 0, 
39, 716994771, 1.2060561180114746, -0.8861492276191711, -98.36943817138672, 0.09467209875583649, 0.12433014065027237, 9.909147262573242, 1.004946231842041, -0.6713984608650208, 0.46926942467689514, 0, 
40, 717011438, 1.2180811166763306, -0.8946039080619812, -98.3559799194336, 0.09486420452594757, 0.13724496960639954, 9.911728858947754, 1.0490834712982178, -0.7427299618721008, 0.4851045310497284, 0, 
41, 717028105, 1.2302439212799072, -0.903556764125824, -98.34132385253906, 0.08247511833906174, 0.14225846529006958, 9.921850204467773, 1.0557682514190674, -0.7703146934509277, 0.5319629907608032, 0, 
42, 717044772, 1.2413434982299805, -0.9114159941673279, -98.32647705078125, 0.08912838995456696, 0.13143736124038696, 9.91093921661377, 0.9880418181419373, -0.7068721055984497, 0.5531767010688782, 0, 
43, 717061439, 1.2530070543289185, -0.9196808338165283, -98.31290435791016, 0.09360204637050629, 0.12291084229946136, 9.884461402893066, 1.020499587059021, -0.7327153086662292, 0.5032127499580383, 0, 
44, 717078106, 1.2643952369689941, -0.9286186695098877, -98.2981948852539, 0.0995626300573349, 0.1268848329782486, 9.900833129882812, 1.0075459480285645, -0.7707757353782654, 0.5617312788963318, 0, 
45, 717094773, 1.2764992713928223, -0.9375174045562744, -98.2864761352539, 0.0873449444770813, 0.1220184713602066, 9.922094345092773, 1.0493971109390259, -0.770391583442688, 0.4074147939682007, 0, 
46, 717111440, 1.287840723991394, -0.9455806016921997, -98.2743148803711, 0.0821511521935463, 0.13040727376937866, 9.907383918762207, 1.0062652826309204, -0.7216634154319763, 0.4359729588031769, 0, 
47, 717128107, 1.2990520000457764, -0.9535338282585144, -98.2607421875, 0.10085074603557587, 0.1297207772731781, 9.921855926513672, 0.9990296959877014, -0.7165536880493164, 0.45890915393829346, 0, 
48, 717144774, 1.3108271360397339, -0.9621788859367371, -98.24675750732422, 0.08722065389156342, 0.14063221216201782, 9.906277656555176, 1.0352972745895386, -0.7555618286132812, 0.5221468806266785, 0, 
49, 717161441, 1.3224005699157715, -0.9703842997550964, -98.2322998046875, 0.08354756981134415, 0.115056112408638, 9.892074584960938, 1.0223501920700073, -0.7300131916999817, 0.5334933400154114, 0, 
50, 717178108, 1.3338987827301025, -0.9779770970344543, -98.21813201904297, 0.0878954529762268, 0.11131860315799713, 9.933307647705078, 1.0225293636322021, -0.6955128312110901, 0.5430468916893005, 0, 
51, 717194775, 1.3463222980499268, -0.98452228307724, -98.20552062988281, 0.09888143092393875, 0.12042858451604843, 9.915653228759766, 1.0802987813949585, -0.6376280784606934, 0.4283275306224823, 0, 
52, 717211442, 1.3577444553375244, -0.9925731420516968, -98.19203186035156, 0.09699056297540665, 0.1178058609366417, 9.906574249267578, 1.0255005359649658, -0.7253004908561707, 0.5080471634864807, 0, 
53, 717228109, 1.3699944019317627, -1.000443696975708, -98.17921447753906, 0.09912597388029099, 0.13715685904026031, 9.901671409606934, 1.0787492990493774, -0.7141589522361755, 0.494536429643631, 0, 
54, 717244776, 1.3821465969085693, -1.0089672803878784, -98.1658935546875, 0.08846829831600189, 0.1286359578371048, 9.914777755737305, 1.0728967189788818, -0.7533975839614868, 0.5022585988044739, 0, 
55, 717261443, 1.3953543901443481, -1.0174200534820557, -98.151611328125, 0.07130059599876404, 0.13084274530410767, 9.908567428588867, 1.137619972229004, -0.7512844204902649, 0.49530473351478577, 0, 
56, 717278110, 1.406270146369934, -1.0252124071121216, -98.13756561279297, 0.08930665999650955, 0.13335174322128296, 9.922057151794434, 1.0025898218154907, -0.7161823511123657, 0.5073171257972717, 0, 
57, 717294777, 1.4171591997146606, -1.0334080457687378, -98.12394714355469, 0.0927310660481453, 0.12012408673763275, 9.893875122070312, 1.0033453702926636, -0.7423584461212158, 0.5132848620414734, 0, 
58, 717311444, 1.42933988571167, -1.0414910316467285, -98.11107635498047, 0.0875229761004448, 0.11766932159662247, 9.897683143615723, 1.0832058191299438, -0.7384781837463379, 0.438150018453598, 0, 
59, 717328111, 1.4411625862121582, -1.0497584342956543, -98.0980224609375, 0.08929530531167984, 0.11879013478755951, 9.938873291015625, 1.0651490688323975, -0.7514638304710388, 0.44329822063446045, 0, 
60, 717344778, 1.4522625207901, -1.0591661930084229, -98.08331298828125, 0.07759176194667816, 0.11981400102376938, 9.926223754882812, 1.0284332036972046, -0.8203107714653015, 0.5138612389564514, 0, 
61, 717361445, 1.463192105293274, -1.0679280757904053, -98.07105255126953, 0.10148686170578003, 0.12105921655893326, 9.890182495117188, 1.0196479558944702, -0.7885125875473022, 0.4046230614185333, 0, 
62, 717378112, 1.474475383758545, -1.0765695571899414, -98.05681610107422, 0.0875132605433464, 0.13442426919937134, 9.902978897094727, 1.046362042427063, -0.7798426747322083, 0.46909019351005554, 0, 
63, 717394779, 1.484959363937378, -1.0852173566818237, -98.04210662841797, 0.08525243401527405, 0.1203140988945961, 9.915220260620117, 1.0004768371582031, -0.7828521132469177, 0.4735468327999115, 0, 
64, 717411446, 1.4956213235855103, -1.0934720039367676, -98.02701568603516, 0.08560413122177124, 0.11861888319253922, 9.915285110473633, 1.016548752784729, -0.7602362036705017, 0.5297538638114929, 0, 
65, 717428113, 1.506050705909729, -1.1022647619247437, -98.0129623413086, 0.09861627221107483, 0.1256302446126938, 9.896673202514648, 1.0061949491500854, -0.797592282295227, 0.4785861372947693, 0, 
66, 717444780, 1.5156089067459106, -1.1101151704788208, -97.99736022949219, 0.09451425075531006, 0.13580842316150665, 9.89198112487793, 0.9594709277153015, -0.7400405406951904, 0.5545469522476196, 0, 
67, 717461447, 1.5261859893798828, -1.11836576461792, -97.98222351074219, 0.09253112226724625, 0.1320142298936844, 9.927839279174805, 1.0222091674804688, -0.7677534818649292, 0.5215961933135986, 0, 
68, 717478114, 1.5372225046157837, -1.1281640529632568, -97.96771240234375, 0.07586805522441864, 0.12340604513883591, 9.895339012145996, 1.0525474548339844, -0.8634424805641174, 0.4789254665374756, 0, 
69, 717494781, 1.5477374792099, -1.1369138956069946, -97.95350646972656, 0.08976943790912628, 0.12511059641838074, 9.922605514526367, 1.0250139236450195, -0.8058523535728455, 0.48262646794319153, 0, 
70, 717511448, 1.5583544969558716, -1.1457799673080444, -97.93848419189453, 0.09142512083053589, 0.11900768429040909, 9.886117935180664, 1.0366612672805786, -0.8146631717681885, 0.5088731646537781, 0, 
71, 717528115, 1.568777322769165, -1.1543176174163818, -97.9235610961914, 0.09553566575050354, 0.11915477365255356, 9.88335132598877, 1.0303541421890259, -0.7972081899642944, 0.5284091830253601, 0, 
72, 717544782, 1.5793483257293701, -1.162632942199707, -97.9087142944336, 0.08174461126327515, 0.1291336864233017, 9.902631759643555, 1.0441594123840332, -0.7868734002113342, 0.5068561434745789, 0, 
73, 717561449, 1.590337872505188, -1.1715278625488281, -97.89299774169922, 0.09395752102136612, 0.11106619983911514, 9.908378601074219, 1.0726405382156372, -0.8263681530952454, 0.5070610046386719, 0, 
74, 717578116, 1.6004328727722168, -1.1805838346481323, -97.87743377685547, 0.08539566397666931, 0.12234051525592804, 9.901900291442871, 1.0266849994659424, -0.8392192721366882, 0.5084248781204224, 0, 
75, 717594783, 1.610829472541809, -1.1881853342056274, -97.8628158569336, 0.08421577513217926, 0.12192081660032272, 9.908401489257812, 1.047104835510254, -0.7572907209396362, 0.4441946744918823, 0, 
76, 717611450, 1.6215535402297974, -1.1965107917785645, -97.8481674194336, 0.10413583368062973, 0.13505055010318756, 9.921534538269043, 1.0741775035858154, -0.8037649393081665, 0.4781058728694916, 0, 
77, 717628117, 1.6320641040802002, -1.2050927877426147, -97.83290100097656, 0.09592355042695999, 0.12765756249427795, 9.900837898254395, 1.0653538703918457, -0.8213481307029724, 0.5120042562484741, 0, 
78, 717644784, 1.6420836448669434, -1.2131518125534058, -97.81817626953125, 0.09172429889440536, 0.12154659628868103, 9.895620346069336, 1.0406503677368164, -0.7937504053115845, 0.47827237844467163, 0, 
79, 717661451, 1.6529662609100342, -1.221856713294983, -97.804443359375, 0.11063839495182037, 0.12451434880495071, 9.903507232666016, 1.0963836908340454, -0.8374841213226318, 0.4152010977268219, 0, 
80, 717678118, 1.6631109714508057, -1.2292771339416504, -97.78816986083984, 0.11464764922857285, 0.12916700541973114, 9.890546798706055, 1.0601671934127808, -0.7604410648345947, 0.5285115838050842, 0, 
81, 717694785, 1.673841118812561, -1.237204670906067, -97.77365112304688, 0.09890040010213852, 0.12658515572547913, 9.913847923278809, 1.0996365547180176, -0.7933405637741089, 0.4736492931842804, 0, 
82, 717711452, 1.68401038646698, -1.2462478876113892, -97.75855255126953, 0.10541065037250519, 0.14226394891738892, 9.938143730163574, 1.0715649127960205, -0.8633401393890381, 0.49939003586769104, 0, 
83, 717728119, 1.6937198638916016, -1.2544920444488525, -97.74394989013672, 0.10031851381063461, 0.13099683821201324, 9.877192497253418, 1.0476425886154175, -0.8195294737815857, 0.4523266553878784, 0, 
84, 717744786, 1.7030328512191772, -1.2614022493362427, -97.7283935546875, 0.09006917476654053, 0.13900041580200195, 9.886398315429688, 1.0315066576004028, -0.7423712611198425, 0.5162432193756104, 0, 
85, 717761453, 1.7125403881072998, -1.268599033355713, -97.71172332763672, 0.10308443754911423, 0.12273337692022324, 9.893960952758789, 1.0483342409133911, -0.7614142894744873, 0.5728984475135803, 0, 
86, 717778120, 1.7217919826507568, -1.2743233442306519, -97.6955337524414, 0.08243989199399948, 0.13158045709133148, 9.89236068725586, 1.0385501384735107, -0.6783908009529114, 0.5235300064086914, 0, 
87, 717794787, 1.7302063703536987, -1.2803279161453247, -97.6802978515625, 0.09347473829984665, 0.13512906432151794, 9.882953643798828, 0.9935421943664551, -0.7027100324630737, 0.46200183033943176, 0, 
88, 717811454, 1.7392514944076538, -1.2864892482757568, -97.66495513916016, 0.10139714181423187, 0.14116039872169495, 9.902836799621582, 1.0362961292266846, -0.71661776304245, 0.4847267270088196, 0, 
89, 717828121, 1.7474550008773804, -1.2922502756118774, -97.64797973632812, 0.1007494255900383, 0.1369747370481491, 9.908519744873047, 0.9937663078308105, -0.6931565403938293, 0.5610525608062744, 0, 
90, 717844788, 1.7561078071594238, -1.2978442907333374, -97.63233184814453, 0.10190316289663315, 0.12736296653747559, 9.919817924499512, 1.024411916732788, -0.6891865134239197, 0.508239209651947, 0, 
91, 717861455, 1.764119029045105, -1.3036961555480957, -97.61719512939453, 0.10317934304475784, 0.14487995207309723, 9.915706634521484, 0.9925369620323181, -0.711085319519043, 0.4514686167240143, 0, 
92, 717878122, 1.7725560665130615, -1.3087620735168457, -97.60147857666016, 0.09014350920915604, 0.11686170101165771, 9.917749404907227, 1.0226960182189941, -0.6665449142456055, 0.4841633141040802, 0, 
93, 717894789, 1.780326008796692, -1.3147974014282227, -97.58547973632812, 0.10566183924674988, 0.1192590668797493, 9.907344818115234, 0.991089940071106, -0.7302821278572083, 0.483753502368927, 0, 
94, 717911456, 1.788315773010254, -1.3199936151504517, -97.56983184814453, 0.09711793810129166, 0.11973325163125992, 9.882851600646973, 1.0127837657928467, -0.6844737529754639, 0.4877874553203583, 0, 
95, 717928123, 1.7961621284484863, -1.3252569437026978, -97.55388641357422, 0.08387549966573715, 0.13585805892944336, 9.889148712158203, 1.0101072788238525, -0.6928620338439941, 0.47400787472724915, 0, 
96, 717944790, 1.8044358491897583, -1.3292350769042969, -97.53782653808594, 0.0863838866353035, 0.13060595095157623, 9.921384811401367, 1.0433908700942993, -0.6217866539955139, 0.4725991487503052, 0, 
97, 717961457, 1.8122891187667847, -1.3345357179641724, -97.5224380493164, 0.08432415872812271, 0.12602174282073975, 9.913393020629883, 1.0237972736358643, -0.7079350352287292, 0.4601641893386841, 0, 
98, 717978124, 1.8200945854187012, -1.3389500379562378, -97.50575256347656, 0.09627067297697067, 0.12686733901500702, 9.90860652923584, 1.0295857191085815, -0.6588995456695557, 0.5060877799987793, 0, 
99, 717994791, 1.8274433612823486, -1.3437827825546265, -97.48943328857422, 0.09964729100465775, 0.12652064859867096, 9.892120361328125, 1.0104913711547852, -0.6882771849632263, 0.5059212446212769, 0, 
100, 718011458, 1.8350718021392822, -1.3482242822647095, -97.47293090820312, 0.09072709828615189, 0.1216520294547081, 9.901712417602539, 1.0334148406982422, -0.6715008616447449, 0.4890040457248688, 0, 
101, 718028125, 1.8438985347747803, -1.353182315826416, -97.4565200805664, 0.08090364933013916, 0.1396980732679367, 9.940850257873535, 1.1135441064834595, -0.7072433829307556, 0.49606025218963623, 0, 
102, 718044792, 1.8514410257339478, -1.35849928855896, -97.44009399414062, 0.08969157189130783, 0.13557811081409454, 9.91520881652832, 1.043634295463562, -0.7354558706283569, 0.49317893385887146, 0, 
103, 718061459, 1.8578823804855347, -1.3623687028884888, -97.4237289428711, 0.09748910367488861, 0.12318359315395355, 9.891684532165527, 0.983418881893158, -0.6549038887023926, 0.4786565601825714, 0, 
104, 718078126, 1.8651379346847534, -1.365617275238037, -97.4061279296875, 0.09133975207805634, 0.13814549148082733, 9.896011352539062, 1.0425200462341309, -0.6208774447441101, 0.532379150390625, 0, 
105, 718094793, 1.8719463348388672, -1.3698575496673584, -97.39022827148438, 0.07684869319200516, 0.13201338052749634, 9.946111679077148, 1.0206788778305054, -0.6882644295692444, 0.46159204840660095, 0, 
106, 718111460, 1.8778021335601807, -1.3735631704330444, -97.37284088134766, 0.09570472687482834, 0.1312367022037506, 9.924702644348145, 0.9724181890487671, -0.6614992022514343, 0.5223646759986877, 0, 
107, 718128127, 1.8848143815994263, -1.3781225681304932, -97.35655975341797, 0.0953870639204979, 0.13311056792736053, 9.86883544921875, 1.0481548309326172, -0.7206517457962036, 0.45031607151031494, 0, 
108, 718144794, 1.8908019065856934, -1.3820761442184448, -97.33875274658203, 0.11888440698385239, 0.12819086015224457, 9.88958740234375, 0.9965454339981079, -0.6855494976043701, 0.5659317374229431, 0, 
109, 718161461, 1.8973559141159058, -1.3865272998809814, -97.3219985961914, 0.0915759727358818, 0.13186082243919373, 9.92686653137207, 1.0362129211425781, -0.7217403054237366, 0.4791751801967621, 0, 
110, 718178128, 1.9036232233047485, -1.390640139579773, -97.30638122558594, 0.0940471738576889, 0.12065450102090836, 9.912616729736328, 1.0257822275161743, -0.7103042602539062, 0.4241783320903778, 0, 
111, 718194795, 1.9101994037628174, -1.3944708108901978, -97.28961181640625, 0.10035345703363419, 0.1311844289302826, 9.895707130432129, 1.0543276071548462, -0.6966526508331299, 0.4686804413795471, 0, 
112, 718211462, 1.9156943559646606, -1.3985713720321655, -97.27203369140625, 0.10641536116600037, 0.13188022375106812, 9.911202430725098, 0.999157726764679, -0.7164896130561829, 0.5279096961021423, 0, 
113, 718228129, 1.9209749698638916, -1.402570128440857, -97.25472259521484, 0.08727548271417618, 0.13305455446243286, 9.904400825500488, 0.9919989705085754, -0.7164640426635742, 0.4796426296234131, 0, 
114, 718244796, 1.9256384372711182, -1.4071086645126343, -97.23887634277344, 0.09064978361129761, 0.1371992975473404, 9.916178703308105, 0.9625765681266785, -0.7561317086219788, 0.4479020833969116, 0, 
115, 718261463, 1.9315077066421509, -1.4112976789474487, -97.2212142944336, 0.09075865894556046, 0.1308138370513916, 9.91649341583252, 1.0438584089279175, -0.7401238083839417, 0.5113832354545593, 0, 
116, 718278130, 1.9366382360458374, -1.415082335472107, -97.20452117919922, 0.08570290356874466, 0.11940918862819672, 9.893305778503418, 1.0073282718658447, -0.7226495742797852, 0.4623284637928009, 0, 
117, 718294797, 1.9427140951156616, -1.4183369874954224, -97.1866683959961, 0.09286446869373322, 0.12388308346271515, 9.915056228637695, 1.0740877389907837, -0.6948596835136414, 0.5347739458084106, 0, 
118, 718311464, 1.9469562768936157, -1.4227961301803589, -97.16838073730469, 0.09939819574356079, 0.15018591284751892, 9.9277925491333, 0.9738653302192688, -0.7728504538536072, 0.5727192163467407, 0, 
119, 718328131, 1.951198935508728, -1.4265464544296265, -97.15142059326172, 0.07955017685890198, 0.12694750726222992, 9.904516220092773, 0.9777582287788391, -0.7386702299118042, 0.47039639949798584, 0, 
120, 718344798, 1.9555518627166748, -1.4300068616867065, -97.13362884521484, 0.08043815940618515, 0.11773324012756348, 9.902180671691895, 0.9954055547714233, -0.7249929904937744, 0.5543676614761353, 0, 
121, 718361465, 1.959641933441162, -1.4327715635299683, -97.11688995361328, 0.08203070610761642, 0.12833161652088165, 9.910112380981445, 0.985192596912384, -0.6941425800323486, 0.444072961807251, 0, 
122, 718378132, 1.9635730981826782, -1.436177134513855, -97.09906005859375, 0.08847412467002869, 0.11384416371583939, 9.9169921875, 0.986613929271698, -0.7370821833610535, 0.5169923305511475, 0, 
123, 718394799, 1.9687228202819824, -1.4395586252212524, -97.08126068115234, 0.0886845588684082, 0.12825126945972443, 9.907392501831055, 1.0691572427749634, -0.7430116534233093, 0.5020536780357361, 0, 
124, 718411466, 1.9733396768569946, -1.4435534477233887, -97.06254577636719, 0.09932653605937958, 0.12339262664318085, 9.921143531799316, 1.0457090139389038, -0.7836718559265137, 0.5523442625999451, 0, 
125, 718428133, 1.9790347814559937, -1.4468638896942139, -97.04556274414062, 0.08534342795610428, 0.1267300695180893, 9.89677906036377, 1.1176806688308716, -0.7517070770263672, 0.45810234546661377, 0, 
126, 718444800, 1.9829134941101074, -1.4481301307678223, -97.0272445678711, 0.0736633688211441, 0.11314356327056885, 9.904169082641602, 1.0190074443817139, -0.6328896880149841, 0.5350812673568726, 0, 
127, 718461467, 1.9858455657958984, -1.4503296613693237, -97.00865173339844, 0.09428529441356659, 0.1162094697356224, 9.918243408203125, 0.9711886644363403, -0.6951542496681213, 0.5566215515136719, 0, 
128, 718478134, 1.9891759157180786, -1.4541491270065308, -96.9918441772461, 0.08838232606649399, 0.1319507658481598, 9.918834686279297, 1.00358247756958, -0.8010627627372742, 0.48200544714927673, 0, 
129, 718494801, 1.9922319650650024, -1.4554920196533203, -96.97427368164062, 0.10129901021718979, 0.13429918885231018, 9.906580924987793, 0.9941057562828064, -0.6593477129936218, 0.4703260362148285, 0, 
130, 718511468, 1.9960942268371582, -1.4580891132354736, -96.95584106445312, 0.09538010507822037, 0.12937819957733154, 9.89513874053955, 1.0524834394454956, -0.7373512387275696, 0.5349916815757751, 0, 
131, 718528135, 1.999648094177246, -1.4601781368255615, -96.93810272216797, 0.0788758397102356, 0.12822654843330383, 9.918701171875, 1.041822075843811, -0.713800311088562, 0.5182857513427734, 0, 
132, 718544802, 2.004289150238037, -1.4629535675048828, -96.9203872680664, 0.0856676772236824, 0.13131959736347198, 9.92400074005127, 1.1145942211151123, -0.7628486156463623, 0.4796810448169708, 0, 
133, 718561469, 2.0075178146362305, -1.4649620056152344, -96.90240478515625, 0.09516936540603638, 0.127175435423851, 9.92585563659668, 1.0373334884643555, -0.7224061489105225, 0.4955737292766571, 0, 
134, 718578136, 2.0105695724487305, -1.4671863317489624, -96.88435363769531, 0.0875895544886589, 0.11406813561916351, 9.88732624053955, 1.0364371538162231, -0.7410906553268433, 0.5041539072990417, 0, 
135, 718594803, 2.012134075164795, -1.468950629234314, -96.8665771484375, 0.08573884516954422, 0.12231096625328064, 9.90092658996582, 0.9551551342010498, -0.7210999727249146, 0.4811793565750122, 0, 
136, 718611470, 2.0140678882598877, -1.4710592031478882, -96.84758758544922, 0.08977190405130386, 0.11536882817745209, 9.913125991821289, 0.9880291223526001, -0.7444075345993042, 0.558235228061676, 0, 
137, 718628137, 2.01698637008667, -1.4733710289001465, -96.82941436767578, 0.10361643880605698, 0.12482762336730957, 9.901440620422363, 1.05405855178833, -0.7653330564498901, 0.4912707507610321, 0, 
138, 718644804, 2.0191962718963623, -1.4746099710464478, -96.81060791015625, 0.07676727324724197, 0.12434922158718109, 9.912508010864258, 1.0208133459091187, -0.7051687836647034, 0.5298819541931152, 0, 
139, 718661471, 2.0218515396118164, -1.476139783859253, -96.79339599609375, 0.08398137986660004, 0.12885774672031403, 9.930559158325195, 1.0553264617919922, -0.7300003170967102, 0.4962652325630188, 0, 
140, 718678138, 2.0234105587005615, -1.478425145149231, -96.77526092529297, 0.1026797965168953, 0.12673310935497284, 9.904537200927734, 0.9976978898048401, -0.7814947366714478, 0.5154619812965393, 0, 
141, 718694805, 2.026103973388672, -1.4790502786636353, -96.75666046142578, 0.1030830442905426, 0.12713438272476196, 9.909225463867188, 1.0754836797714233, -0.6848067045211792, 0.5498982071876526, 0, 
142, 718711472, 2.0282766819000244, -1.4799087047576904, -96.73857116699219, 0.09146465361118317, 0.13060520589351654, 9.911404609680176, 1.0500118732452393, -0.7059884071350098, 0.5064975619316101, 0, 
143, 718728139, 2.0298306941986084, -1.4811663627624512, -96.719970703125, 0.08965178579092026, 0.12533481419086456, 9.909996032714844, 1.0226318836212158, -0.7341112494468689, 0.5575436353683472, 0, 
144, 718744806, 2.0309932231903076, -1.4827638864517212, -96.7017822265625, 0.08200730383396149, 0.10977556556463242, 9.901890754699707, 1.0056827068328857, -0.760581910610199, 0.5387375354766846, 0, 
145, 718761473, 2.0319478511810303, -1.4844385385513306, -96.68289947509766, 0.10049881041049957, 0.1212981715798378, 9.918354034423828, 1.0030701160430908, -0.7712624669075012, 0.5365476608276367, 0, 
146, 718778140, 2.0337748527526855, -1.485074758529663, -96.66516876220703, 0.08300628513097763, 0.11426767706871033, 9.911120414733887, 1.061582326889038, -0.7168866991996765, 0.4663560390472412, 0, 
147, 718794807, 2.0349113941192627, -1.4859440326690674, -96.64563751220703, 0.08838627487421036, 0.12200865149497986, 9.896081924438477, 1.0308151245117188, -0.7342648506164551, 0.5541371703147888, 0, 
148, 718811474, 2.0354273319244385, -1.4877134561538696, -96.62694549560547, 0.08936458081007004, 0.13734103739261627, 9.906512260437012, 1.0002976655960083, -0.7942883372306824, 0.5322127342224121, 0, 
149, 718828141, 2.0344061851501465, -1.4875280857086182, -96.6095199584961, 0.10622194409370422, 0.12472070008516312, 9.912174224853516, 0.9147767424583435, -0.683577299118042, 0.49174460768699646, 0, 
150, 718844808, 2.0339770317077637, -1.4885926246643066, -96.59090423583984, 0.07515653222799301, 0.12519821524620056, 9.912400245666504, 0.9580686092376709, -0.7618048191070557, 0.5346394777297974, 0, 
151, 718861475, 2.0333070755004883, -1.4887655973434448, -96.57183837890625, 0.08264364302158356, 0.12670308351516724, 9.90672779083252, 0.9520624279975891, -0.7149657011032104, 0.5361250042915344, 0, 
152, 718878142, 2.033975601196289, -1.4907594919204712, -96.55305480957031, 0.0830400362610817, 0.12517720460891724, 9.915175437927246, 1.0393635034561157, -0.8299219012260437, 0.5365220308303833, 0, 
153, 718894809, 2.0339910984039307, -1.4915919303894043, -96.53500366210938, 0.08150480687618256, 0.11902999877929688, 9.912922859191895, 1.0073155164718628, -0.7663448452949524, 0.5396788120269775, 0, 
154, 718911476, 2.034348249435425, -1.4915982484817505, -96.51673889160156, 0.09273943305015564, 0.11540307849645615, 9.913787841796875, 1.035207748413086, -0.7230977416038513, 0.5094942450523376, 0, 
155, 718928143, 2.033688545227051, -1.4913851022720337, -96.49932098388672, 0.0871296375989914, 0.13341271877288818, 9.916960716247559, 0.9804285168647766, -0.7169250249862671, 0.4668298363685608, 0, 
156, 718944810, 2.0334088802337646, -1.490549921989441, -96.482177734375, 0.08553487062454224, 0.12624646723270416, 9.897323608398438, 1.009069800376892, -0.6850372552871704, 0.4417998194694519, 0, 
157, 718961477, 2.031938314437866, -1.490552544593811, -96.46515655517578, 0.09602649509906769, 0.12026478350162506, 9.908403396606445, 0.9446539282798767, -0.7414364218711853, 0.45245474576950073, 0, 
158, 718978144, 2.0321578979492188, -1.4905754327774048, -96.44737243652344, 0.07361678779125214, 0.11856377869844437, 9.920422554016113, 1.0552113056182861, -0.7450094223022461, 0.49410101771354675, 0, 
159, 718994811, 2.032282829284668, -1.4909052848815918, -96.43089294433594, 0.08819093555212021, 0.11324258893728256, 9.886398315429688, 1.055083155632019, -0.7713392376899719, 0.4570137858390808, 0, 
160, 719011478, 2.031245231628418, -1.4923046827316284, -96.41374206542969, 0.08379846066236496, 0.11722099035978317, 9.903956413269043, 0.9929788112640381, -0.8392640948295593, 0.4671371877193451, 0, 
161, 719028145, 2.031486988067627, -1.4924973249435425, -96.39661407470703, 0.07281618565320969, 0.11745528876781464, 9.918266296386719, 1.0768731832504272, -0.7726199626922607, 0.48291465640068054, 0, 
162, 719044812, 2.030163288116455, -1.4926930665969849, -96.37834167480469, 0.08117161691188812, 0.12078795582056046, 9.907894134521484, 0.992793083190918, -0.7756550312042236, 0.5525234937667847, 0, 
163, 719061479, 2.029522180557251, -1.4924564361572266, -96.36030578613281, 0.08394420892000198, 0.13555748760700226, 9.88980484008789, 1.0401891469955444, -0.753551185131073, 0.5740894079208374, 0, 
164, 719078146, 2.0285496711730957, -1.4916833639144897, -96.34373474121094, 0.0823812335729599, 0.1472400426864624, 9.93164348602295, 1.0238229036331177, -0.73055100440979, 0.4688596725463867, 0, 
165, 719094813, 2.026763916015625, -1.4902980327606201, -96.32530212402344, 0.08375662565231323, 0.11995073407888412, 9.932198524475098, 0.981542706489563, -0.6958778500556946, 0.5565127730369568, 0, 
166, 719111480, 2.0247271060943604, -1.4891254901885986, -96.30842590332031, 0.07763167470693588, 0.14074836671352386, 9.920548439025879, 0.9719250202178955, -0.7162654995918274, 0.49159732460975647, 0, 
167, 719128147, 2.0223405361175537, -1.4878336191177368, -96.29114532470703, 0.10376168042421341, 0.12343593686819077, 9.915101051330566, 0.955737829208374, -0.7133969068527222, 0.500011146068573, 0, 
168, 719144814, 2.0211293697357178, -1.4866204261779785, -96.27387237548828, 0.09836643189191818, 0.13507024943828583, 9.906615257263184, 1.0327552556991577, -0.721682608127594, 0.5021113157272339, 0, 
169, 719161481, 2.0205702781677246, -1.4855477809906006, -96.25749969482422, 0.0855860635638237, 0.12041707336902618, 9.913508415222168, 1.0759767293930054, -0.7357696890830994, 0.4532807469367981, 0, 
170, 719178148, 2.01865816116333, -1.484244465827942, -96.2405776977539, 0.09214099496603012, 0.1275375336408615, 9.904828071594238, 1.0014309883117676, -0.7255629897117615, 0.4954136908054352, 0, 
171, 719194815, 2.016803026199341, -1.482901692390442, -96.22306823730469, 0.09429103881120682, 0.1290866881608963, 9.932360649108887, 1.0116952657699585, -0.7259150743484497, 0.518202543258667, 0, 
172, 719211482, 2.013930320739746, -1.4814244508743286, -96.20458221435547, 0.0868920385837555, 0.11185824871063232, 9.911688804626465, 0.9570249915122986, -0.7189356684684753, 0.5706957578659058, 0, 
173, 719228149, 2.011610746383667, -1.4815477132797241, -96.1878890991211, 0.0888248160481453, 0.12929667532444, 9.89529037475586, 0.9929722547531128, -0.8239861726760864, 0.46042028069496155, 0, 
174, 719244816, 2.009012222290039, -1.4792770147323608, -96.17156982421875, 0.07411722838878632, 0.11691506206989288, 9.892102241516113, 0.9834699630737305, -0.6822582483291626, 0.5126445293426514, 0, 
175, 719261483, 2.00581431388855, -1.4775463342666626, -96.15455627441406, 0.08706711232662201, 0.11528586596250534, 9.917545318603516, 0.9528053402900696, -0.7194223403930664, 0.51914381980896, 0, 
176, 719278150, 2.002234935760498, -1.4768238067626953, -96.13687896728516, 0.08673802018165588, 0.12724581360816956, 9.918936729431152, 0.9371366500854492, -0.7821733951568604, 0.5571978688240051, 0, 
177, 719294817, 1.9994173049926758, -1.4761430025100708, -96.12147521972656, 0.09921401739120483, 0.12598226964473724, 9.900338172912598, 0.9841102361679077, -0.7930459380149841, 0.4491378664970398, 0, 
178, 719311484, 1.9972201585769653, -1.4740866422653198, -96.10641479492188, 0.1005348414182663, 0.12273699045181274, 9.905230522155762, 1.0272997617721558, -0.7120522856712341, 0.464191734790802, 0, 
179, 719328151, 1.995060920715332, -1.4719957113265991, -96.08940124511719, 0.09097297489643097, 0.12069045007228851, 9.89305591583252, 1.0358928442001343, -0.7113479375839233, 0.5246762037277222, 0, 
180, 719344818, 1.9915589094161987, -1.4711178541183472, -96.07357788085938, 0.10038461536169052, 0.13250118494033813, 9.90782642364502, 0.9595541954040527, -0.7891848683357239, 0.4905727803707123, 0, 
181, 719361485, 1.988347053527832, -1.4697961807250977, -96.0572280883789, 0.1032382920384407, 0.12473238259553909, 9.883541107177734, 0.9816514253616333, -0.7642701864242554, 0.5124140381813049, 0, 
182, 719378152, 1.986527442932129, -1.4679111242294312, -96.04177856445312, 0.08283340185880661, 0.11400911211967468, 9.926433563232422, 1.0699512958526611, -0.7324975728988647, 0.5179976224899292, 0, 
183, 719394819, 1.9840540885925293, -1.4663676023483276, -96.02700805664062, 0.08021444082260132, 0.1301306039094925, 9.911172866821289, 1.0341575145721436, -0.7588273882865906, 0.46778392791748047, 0, 
184, 719411486, 1.9812551736831665, -1.4652451276779175, -96.01178741455078, 0.0891307070851326, 0.13241177797317505, 9.919132232666016, 1.020147442817688, -0.7858232259750366, 0.5229536890983582, 0, 
185, 719428153, 1.9779982566833496, -1.4633623361587524, -95.99620056152344, 0.09924200177192688, 0.12275997549295425, 9.893755912780762, 0.9953927993774414, -0.7446380257606506, 0.4878386855125427, 0, 
186, 719444820, 1.9758986234664917, -1.4612658023834229, -95.98221588134766, 0.09323479235172272, 0.11859054863452911, 9.87883186340332, 1.0679212808609009, -0.7369029521942139, 0.4189212918281555, 0, 
187, 719461487, 1.9726547002792358, -1.458033800125122, -95.96753692626953, 0.0914459079504013, 0.11953788995742798, 9.91943645477295, 1.0042930841445923, -0.668990969657898, 0.4699738621711731, 0, 
188, 719478154, 1.9695684909820557, -1.4579757452011108, -95.95272064208984, 0.0781581923365593, 0.12038568407297134, 9.928383827209473, 1.0190141201019287, -0.8614512085914612, 0.5169539451599121, 0, 
189, 719494821, 1.9671871662139893, -1.4564260244369507, -95.93783569335938, 0.0895221158862114, 0.1206955835223198, 9.901493072509766, 1.0655138492584229, -0.7768139243125916, 0.4873584508895874, 0, 
190, 719511488, 1.964458703994751, -1.4538536071777344, -95.9241714477539, 0.0903579518198967, 0.13536439836025238, 9.92562198638916, 1.0474249124526978, -0.7186923027038574, 0.445859432220459, 0, 
191, 719528155, 1.961246132850647, -1.4516832828521729, -95.90963745117188, 0.0837632417678833, 0.12698286771774292, 9.899961471557617, 1.0216330289840698, -0.745111882686615, 0.48490607738494873, 0, 
192, 719544822, 1.9562567472457886, -1.4498586654663086, -95.89468383789062, 0.0970359817147255, 0.13314691185951233, 9.898322105407715, 0.9207060933113098, -0.7668185830116272, 0.5360289216041565, 0, 
193, 719561489, 1.9535226821899414, -1.4480794668197632, -95.88101196289062, 0.09966464340686798, 0.1373567283153534, 9.909168243408203, 1.0569913387298584, -0.773964524269104, 0.4694103002548218, 0, 
194, 719578156, 1.9492108821868896, -1.447746753692627, -95.86656951904297, 0.0832253098487854, 0.13349735736846924, 9.925002098083496, 0.9651504755020142, -0.8622834086418152, 0.49034228920936584, 0, 
195, 719594823, 1.9443960189819336, -1.4450312852859497, -95.85224151611328, 0.07245992124080658, 0.11469496041536331, 9.908431053161621, 0.9383083581924438, -0.7218747735023499, 0.4826841354370117, 0, 
196, 719611490, 1.940395474433899, -1.4436376094818115, -95.83675384521484, 0.09271527081727982, 0.12805180251598358, 9.897772789001465, 0.9928827285766602, -0.8024587035179138, 0.5577229261398315, 0, 
197, 719628157, 1.937309741973877, -1.4412976503372192, -95.82420349121094, 0.09482892602682114, 0.12634137272834778, 9.896161079406738, 1.0464707612991333, -0.7523282170295715, 0.42222538590431213, 0, 
198, 719644824, 1.933295726776123, -1.4375407695770264, -95.81019592285156, 0.09433605521917343, 0.11954356729984283, 9.883950233459473, 0.9961163997650146, -0.6672044992446899, 0.501150906085968, 0, 
199, 719661491, 1.9300251007080078, -1.434911847114563, -95.79647064208984, 0.08652698993682861, 0.11903239786624908, 9.915740013122559, 1.0439096689224243, -0.7373768091201782, 0.4825304448604584, 0, 
200, 719678158, 1.92670476436615, -1.4321926832199097, -95.7837905883789, 0.07317927479743958, 0.12660638988018036, 9.893153190612793, 1.0429234504699707, -0.7343672513961792, 0.4726311266422272, 0, 
201, 719694825, 1.9225859642028809, -1.429531455039978, -95.77212524414062, 0.07872267812490463, 0.11716689169406891, 9.915725708007812, 0.9971151947975159, -0.7422047853469849, 0.40825361013412476, 0, 
202, 719711492, 1.9186593294143677, -1.4263612031936646, -95.75877380371094, 0.09071239084005356, 0.1230011135339737, 9.909542083740234, 1.0140259265899658, -0.7111366391181946, 0.5217627286911011, 0, 
203, 719728159, 1.915568232536316, -1.4229207038879395, -95.74592590332031, 0.08345980942249298, 0.11987922340631485, 9.911191940307617, 1.0652449131011963, -0.6980677247047424, 0.491520494222641, 0, 
204, 719744826, 1.9116541147232056, -1.4200869798660278, -95.73200225830078, 0.08514612913131714, 0.09388820081949234, 9.901910781860352, 1.0200001001358032, -0.7361666560173035, 0.5109477043151855, 0, 
205, 719761493, 1.9072479009628296, -1.4155848026275635, -95.71930694580078, 0.08648096024990082, 0.1273658275604248, 9.903707504272461, 0.9933245778083801, -0.6387999653816223, 0.4634106159210205, 0, 
206, 719778160, 1.9036012887954712, -1.4130414724349976, -95.70852661132812, 0.08552490174770355, 0.1277950406074524, 9.924121856689453, 1.0403878688812256, -0.7597559690475464, 0.448081374168396, 0, 
207, 719794827, 1.9001693725585938, -1.4112849235534668, -95.69536590576172, 0.07900739461183548, 0.1285817176103592, 9.91541862487793, 1.0575226545333862, -0.8064414858818054, 0.5114728212356567, 0, 
208, 719811494, 1.8960808515548706, -1.40907883644104, -95.68281555175781, 0.08153326064348221, 0.12671297788619995, 9.88076400756836, 1.018380045890808, -0.7825832366943359, 0.4689749479293823, 0, 
209, 719828161, 1.8916999101638794, -1.4061243534088135, -95.67041778564453, 0.09712863713502884, 0.13348565995693207, 9.889029502868652, 1.0026026964187622, -0.7405271530151367, 0.4680016338825226, 0, 
210, 719844828, 1.887433409690857, -1.402430534362793, -95.65721130371094, 0.08030065894126892, 0.13295985758304596, 9.899253845214844, 1.013648271560669, -0.6934830546379089, 0.5606235861778259, 0, 
211, 719861495, 1.8830541372299194, -1.398942232131958, -95.6463851928711, 0.09102403372526169, 0.12792454659938812, 9.892864227294922, 1.005477786064148, -0.7122123837471008, 0.4317917227745056, 0, 
212, 719878162, 1.8798949718475342, -1.3966758251190186, -95.63443756103516, 0.08669572323560715, 0.12310375273227692, 9.900019645690918, 1.080593466758728, -0.7861434817314148, 0.46522271633148193, 0, 
213, 719894829, 1.8755232095718384, -1.3936115503311157, -95.6225814819336, 0.09696453809738159, 0.13650959730148315, 9.906277656555176, 1.0105938911437988, -0.7382605075836182, 0.4923849403858185, 0, 
214, 719911496, 1.8714059591293335, -1.389090657234192, -95.61094665527344, 0.09037470072507858, 0.128631591796875, 9.904572486877441, 1.0265185832977295, -0.651862382888794, 0.48350369930267334, 0, 
215, 719928163, 1.8661329746246338, -1.3859471082687378, -95.59862518310547, 0.07126236706972122, 0.115416519343853, 9.915738105773926, 0.9595285654067993, -0.7350908517837524, 0.5156732797622681, 0, 
216, 719944830, 1.8614263534545898, -1.382365345954895, -95.58789825439453, 0.08724596351385117, 0.130257710814476, 9.90965461730957, 0.9947717189788818, -0.7127053737640381, 0.46406370401382446, 0, 
217, 719961497, 1.8566395044326782, -1.3793654441833496, -95.57588195800781, 0.09220246225595474, 0.1349000185728073, 9.911174774169922, 0.9921078085899353, -0.7471672892570496, 0.5128302574157715, 0, 
218, 719978164, 1.8524870872497559, -1.3759173154830933, -95.56292724609375, 0.09242045879364014, 0.12157940864562988, 9.902154922485352, 1.0328001976013184, -0.7192429900169373, 0.5839759707450867, 0, 
219, 719994831, 1.847825050354004, -1.3731367588043213, -95.55180358886719, 0.08867179602384567, 0.12451974302530289, 9.912495613098145, 1.0010660886764526, -0.7629767656326294, 0.4860842525959015, 0, 
220, 720011498, 1.8434747457504272, -1.3703498840332031, -95.5406723022461, 0.0996837317943573, 0.12627387046813965, 9.886356353759766, 1.0223244428634644, -0.7623236179351807, 0.5159229636192322, 0, 
221, 720028165, 1.838922381401062, -1.367281198501587, -95.53050994873047, 0.0846664234995842, 0.12686046957969666, 9.911190032958984, 1.0099278688430786, -0.7481085062026978, 0.46898773312568665, 0, 
222, 720044832, 1.8350422382354736, -1.364355444908142, -95.52010345458984, 0.07558224350214005, 0.12189585715532303, 9.912210464477539, 1.0513564348220825, -0.7562917470932007, 0.49039995670318604, 0, 
223, 720061499, 1.830817461013794, -1.361484408378601, -95.51044464111328, 0.08152251690626144, 0.12612679600715637, 9.931188583374023, 1.0309624671936035, -0.7628934979438782, 0.4312410354614258, 0, 
224, 720078166, 1.8263894319534302, -1.3602099418640137, -95.50010681152344, 0.08888024091720581, 0.12881053984165192, 9.9042387008667, 1.0219147205352783, -0.8590115308761597, 0.4954072833061218, 0, 
225, 720094833, 1.8217755556106567, -1.3590548038482666, -95.49044799804688, 0.08787208795547485, 0.13116280734539032, 9.90715217590332, 1.008756160736084, -0.867514967918396, 0.43204787373542786, 0, 
226, 720111500, 1.817270278930664, -1.3553749322891235, -95.47979736328125, 0.09128555655479431, 0.13222751021385193, 9.852964401245117, 1.0188219547271729, -0.7150745987892151, 0.5053898096084595, 0, 
227, 720128167, 1.8142369985580444, -1.3492223024368286, -95.4695816040039, 0.12019120901823044, 0.1266070157289505, 9.753806114196777, 1.107256293296814, -0.5674622654914856, 0.4981478452682495, 0, 
228, 720144834, 1.8126338720321655, -1.3345448970794678, -95.45951843261719, 0.10452402383089066, 0.14477139711380005, 9.681929588317871, 1.19259774684906, -0.05679616704583168, 0.45390188694000244, 0, 
229, 720161501, 1.8080531358718872, -1.325188159942627, -95.44815063476562, 0.09366251528263092, 0.14235588908195496, 10.487743377685547, 1.0148519277572632, -0.3715057671070099, 0.5446540117263794, 0, 
230, 720178168, 1.7983636856079102, -1.33945631980896, -95.43788146972656, -0.07652171701192856, 0.08218901604413986, 10.37594223022461, 0.7079733610153198, -1.7926135063171387, 0.5129070281982422, 0, 
231, 720194835, 1.7915847301483154, -1.3468480110168457, -95.42988586425781, 0.07956389337778091, 0.1014346331357956, 9.121833801269531, 0.8848932385444641, -1.3908400535583496, 0.42640024423599243, 0, 
232, 720211502, 1.7905884981155396, -1.337356448173523, -95.41959381103516, 0.3228875696659088, 0.24179419875144958, 9.740200996398926, 1.2331362962722778, -0.37600085139274597, 0.4749234914779663, 0, 
233, 720228169, 1.786250352859497, -1.3274352550506592, -95.40890502929688, 0.07541055232286453, 0.1190972551703453, 10.254375457763672, 1.0307062864303589, -0.3366469442844391, 0.5869918465614319, 0, 
234, 720244836, 1.7813127040863037, -1.3260180950164795, -95.40046691894531, -0.08339272439479828, 0.024208983406424522, 9.868853569030762, 0.9913395643234253, -0.8531141877174377, 0.4174613952636719, 0, 
235, 720261503, 1.776721715927124, -1.3224284648895264, -95.39134216308594, 0.14040690660476685, 0.17988644540309906, 9.986218452453613, 1.019641637802124, -0.7291808128356934, 0.4788166582584381, 0, 
236, 720278170, 1.771281361579895, -1.3207168579101562, -95.3808364868164, 0.14923857152462006, 0.16803881525993347, 9.837010383605957, 0.9680255651473999, -0.8369206190109253, 0.5857048034667969, 0, 
237, 720294837, 1.7662948369979858, -1.3148365020751953, -95.3721694946289, 0.020300548523664474, 0.0943654328584671, 9.872275352478027, 0.9919925928115845, -0.5864732265472412, 0.4875505864620209, 0, 
238, 720311504, 1.762107253074646, -1.3126649856567383, -95.36348724365234, 0.07445749640464783, 0.135530486702919, 10.00918960571289, 1.0406951904296875, -0.81393963098526, 0.46079814434051514, 0, 
239, 720328171, 1.7570680379867554, -1.310287594795227, -95.35391235351562, 0.11797887086868286, 0.13925676047801971, 9.861656188964844, 0.9917876720428467, -0.7997757792472839, 0.5575628876686096, 0, 
240, 720344838, 1.7531605958938599, -1.3073524236679077, -95.34427642822266, 0.07569734752178192, 0.12538380920886993, 9.863338470458984, 1.0579837560653687, -0.7663383483886719, 0.49310851097106934, 0, 
241, 720361505, 1.7474743127822876, -1.3038052320480347, -95.33552551269531, 0.07564414292573929, 0.1330776810646057, 9.975217819213867, 0.9515630602836609, -0.7302373647689819, 0.5093597769737244, 0, 
242, 720378172, 1.7425471544265747, -1.3012828826904297, -95.32776641845703, 0.09870043396949768, 0.13510842621326447, 9.900541305541992, 0.9953607320785522, -0.7942882180213928, 0.43914249539375305, 0, 
243, 720394839, 1.7374862432479858, -1.2992819547653198, -95.31798553466797, 0.08679324388504028, 0.12517735362052917, 9.883790969848633, 0.9892328381538391, -0.8226030468940735, 0.5371688008308411, 0, 
244, 720411506, 1.7326561212539673, -1.2958263158798218, -95.3104248046875, 0.09052076935768127, 0.13427643477916718, 9.9052734375, 1.0012773275375366, -0.7374984622001648, 0.46973687410354614, 0, 
245, 720428173, 1.7282463312149048, -1.2934160232543945, -95.30291748046875, 0.08670386672019958, 0.12745249271392822, 9.920949935913086, 1.025942325592041, -0.8009731769561768, 0.45173120498657227, 0, 
246, 720444840, 1.7231823205947876, -1.2891340255737305, -95.29413604736328, 0.09097468107938766, 0.11642058938741684, 9.881361961364746, 0.9886565804481506, -0.6864075660705566, 0.5141429901123047, 0, 
247, 720461507, 1.717719316482544, -1.2845373153686523, -95.2853012084961, 0.07324089854955673, 0.10968557000160217, 9.879429817199707, 0.9647727608680725, -0.6665961742401123, 0.528012216091156, 0, 
248, 720478174, 1.7131717205047607, -1.28085196018219, -95.27780151367188, 0.07190301269292831, 0.1290009319782257, 9.927072525024414, 1.0187835693359375, -0.7239109873771667, 0.4696216583251953, 0, 
249, 720494841, 1.7083346843719482, -1.27924382686615, -95.27020263671875, 0.09196265786886215, 0.13223141431808472, 9.952654838562012, 1.001104474067688, -0.8497269749641418, 0.4764282703399658, 0, 
250, 720511508, 1.7029527425765991, -1.277206540107727, -95.26171875, 0.08838798105716705, 0.12250102311372757, 9.917084693908691, 0.9697545170783997, -0.8212840557098389, 0.5410619378089905, 0, 
251, 720528175, 1.699293613433838, -1.2755991220474243, -95.25393676757812, 0.08805875480175018, 0.12954026460647583, 9.849841117858887, 1.0724486112594604, -0.8483951091766357, 0.5031551122665405, 0, 
252, 720544842, 1.6952303647994995, -1.2621749639511108, -95.24593353271484, 0.11443575471639633, 0.10016227513551712, 9.421335220336914, 1.0468871593475342, -0.13925625383853912, 0.4721252918243408, 0, 
253, 720561509, 1.6952793598175049, -1.2417155504226685, -95.23738861083984, 0.17193344235420227, 0.1630309671163559, 9.955140113830566, 1.2955416440963745, 0.2864396572113037, 0.5443338751792908, 0, 
254, 720578176, 1.688610553741455, -1.244313359260559, -95.22924041748047, -0.053128015249967575, 0.12108760327100754, 11.084066390991211, 0.8897660374641418, -1.094136118888855, 0.5350942015647888, 0, 
255, 720594843, 1.6764582395553589, -1.263360857963562, -95.22435760498047, -0.09217982739210129, 0.053286366164684296, 9.671920776367188, 0.5583632588386536, -2.0926215648651123, 0.3806239366531372, 0, 
256, 720611510, 1.6727592945098877, -1.2637712955474854, -95.21865844726562, 0.2684898376464844, 0.20594686269760132, 9.068949699401855, 1.0688947439193726, -0.9794425368309021, 0.40325915813446045, 0, 
257, 720628177, 1.6709703207015991, -1.2516522407531738, -95.21070098876953, 0.27877020835876465, 0.19912581145763397, 10.129439353942871, 1.1818468570709229, -0.21603673696517944, 0.5266099572181702, 0, 
258, 720644844, 1.6658449172973633, -1.244136095046997, -95.20375061035156, -0.06613383442163467, 0.02164430171251297, 9.974691390991211, 0.9779888391494751, -0.48609060049057007, 0.4902718961238861, 0, 
259, 720661511, 1.6624348163604736, -1.239823341369629, -95.19709777832031, -0.01134131196886301, 0.08633093535900116, 9.981546401977539, 1.0835515260696411, -0.6843329071998596, 0.4662728011608124, 0, 
260, 720678178, 1.6571558713912964, -1.239256739616394, -95.19051361083984, 0.17723791301250458, 0.19281715154647827, 10.107996940612793, 0.9725526571273804, -0.9128557443618774, 0.4668426811695099, 0, 
261, 720694845, 1.6506093740463257, -1.2394399642944336, -95.18274688720703, 0.07992537319660187, 0.10074513405561447, 9.679586410522461, 0.895778477191925, -0.9519535899162292, 0.5633128881454468, 0, 
262, 720711512, 1.6466782093048096, -1.2335721254348755, -95.17596435546875, 0.07701923698186874, 0.10887173563241959, 9.892839431762695, 1.052214503288269, -0.5892969965934753, 0.5109413862228394, 0, 
263, 720728179, 1.64179527759552, -1.2298575639724731, -95.17054748535156, 0.1045755073428154, 0.13738252222537994, 10.005192756652832, 0.9921207427978516, -0.7214072942733765, 0.42021477222442627, 0, 
264, 720744846, 1.6372097730636597, -1.2272974252700806, -95.16340637207031, 0.06362288445234299, 0.1238216981291771, 9.805665016174316, 1.011964201927185, -0.7868477702140808, 0.49773797392845154, 0, 
265, 720761513, 1.6341924667358398, -1.2243356704711914, -95.15741729736328, 0.08373528718948364, 0.13922011852264404, 9.968236923217773, 1.103235125541687, -0.765794038772583, 0.4319005310535431, 0, 
266, 720778180, 1.6290051937103271, -1.2224698066711426, -95.1520004272461, 0.09251900762319565, 0.1253548264503479, 9.931402206420898, 0.9718610048294067, -0.8308632373809814, 0.44487980008125305, 0, 
267, 720794847, 1.62497878074646, -1.2206242084503174, -95.14515686035156, 0.091143898665905, 0.12285716086626053, 9.853782653808594, 1.0429106950759888, -0.8294224739074707, 0.5158141851425171, 0, 
268, 720811514, 1.6202784776687622, -1.216697335243225, -95.13965606689453, 0.08437191694974899, 0.1273050457239151, 9.933298110961914, 1.0010212659835815, -0.7052841186523438, 0.4595174789428711, 0, 
269, 720828181, 1.615891933441162, -1.2129839658737183, -95.13282012939453, 0.07862316071987152, 0.13925908505916595, 9.951382637023926, 1.019852876663208, -0.71632319688797, 0.5209815502166748, 0, 
270, 720844848, 1.6113191843032837, -1.2096567153930664, -95.12567901611328, 0.11461466550827026, 0.12117078900337219, 9.901268005371094, 1.0076676607131958, -0.7390928864479065, 0.5403383374214172, 0, 
271, 720861515, 1.6060682535171509, -1.2056748867034912, -95.11898803710938, 0.09161816537380219, 0.12965668737888336, 9.890325546264648, 0.9663030505180359, -0.6977219581604004, 0.5291967391967773, 0, 
272, 720878182, 1.6030868291854858, -1.2027690410614014, -95.11375427246094, 0.06974434852600098, 0.12372766435146332, 9.8970308303833, 1.1003215312957764, -0.7646350264549255, 0.4425874352455139, 0, 
273, 720894849, 1.5990077257156372, -1.199471354484558, -95.1075439453125, 0.09122277796268463, 0.1261531561613083, 9.896773338317871, 1.0342408418655396, -0.7398804426193237, 0.49444034695625305, 0, 
274, 720911516, 1.5945508480072021, -1.197017788887024, -95.10325622558594, 0.08985239267349243, 0.12934738397598267, 9.897838592529297, 1.0086408853530884, -0.7919447422027588, 0.4136195182800293, 0, 
275, 720928183, 1.5908538103103638, -1.194025993347168, -95.0979232788086, 0.08336017280817032, 0.1279776394367218, 9.908787727355957, 1.0549551248550415, -0.7574443221092224, 0.456783264875412, 0, 
276, 720944850, 1.5859832763671875, -1.1906181573867798, -95.092041015625, 0.08014671504497528, 0.115329310297966, 9.905752182006836, 0.984475314617157, -0.7302564382553101, 0.5242791175842285, 0, 
277, 720961517, 1.580517292022705, -1.1882246732711792, -95.08805084228516, 0.10043024271726608, 0.1200668066740036, 9.914536476135254, 0.9461330771446228, -0.7941409349441528, 0.41071242094039917, 0, 
278, 720978184, 1.5755834579467773, -1.1842944622039795, -95.08180236816406, 0.09437847882509232, 0.12140470743179321, 9.916031837463379, 0.9801852107048035, -0.6982597708702087, 0.5222557187080383, 0, 
279, 720994851, 1.5721553564071655, -1.1810877323150635, -95.07638549804688, 0.08915772289037704, 0.13414962589740753, 9.9110107421875, 1.068920373916626, -0.740456759929657, 0.49833348393440247, 0, 
280, 721011518, 1.568799376487732, -1.178437352180481, -95.07086944580078, 0.09039462357759476, 0.1273130476474762, 9.90261459350586, 1.0726150274276733, -0.7738236784934998, 0.5070098042488098, 0, 
281, 721028185, 1.5640922784805298, -1.1749308109283447, -95.06544494628906, 0.09398443251848221, 0.13821110129356384, 9.918400764465332, 0.9891048073768616, -0.7223933935165405, 0.4795018136501312, 0, 
282, 721044852, 1.5595303773880005, -1.1719304323196411, -95.06121826171875, 0.09601732343435287, 0.12965962290763855, 9.924819946289062, 0.9958857893943787, -0.7527252435684204, 0.42558062076568604, 0, 
283, 721061519, 1.5543442964553833, -1.1689238548278809, -95.05421447753906, 0.08767405897378922, 0.13191655278205872, 9.903379440307617, 0.9604889750480652, -0.7479612231254578, 0.5791671872138977, 0, 
284, 721078186, 1.5494132041931152, -1.1661518812179565, -95.04771423339844, 0.08844327926635742, 0.12626385688781738, 9.901359558105469, 0.9747297763824463, -0.7609724998474121, 0.5702667832374573, 0, 
285, 721094853, 1.5451627969741821, -1.1630220413208008, -95.04312896728516, 0.08852013200521469, 0.1399327665567398, 9.91894245147705, 1.0130462646484375, -0.7411611676216125, 0.49517035484313965, 0, 
286, 721111520, 1.5399187803268433, -1.1597076654434204, -95.03723907470703, 0.09549190104007721, 0.12870705127716064, 9.917008399963379, 0.9522160887718201, -0.7293855547904968, 0.510525107383728, 0, 
287, 721128187, 1.5356618165969849, -1.1553469896316528, -95.03157043457031, 0.08589953184127808, 0.12082577496767044, 9.884533882141113, 1.0104018449783325, -0.665469229221344, 0.5174469947814941, 0, 
288, 721144854, 1.5309888124465942, -1.1516337394714355, -95.02611541748047, 0.0956496149301529, 0.13731755316257477, 9.89663314819336, 0.9845458269119263, -0.7030302286148071, 0.5289086699485779, 0, 
289, 721161521, 1.5274312496185303, -1.1494659185409546, -95.02140045166016, 0.09405109286308289, 0.1354500949382782, 9.915620803833008, 1.049973487854004, -0.795760989189148, 0.5045894384384155, 0, 
290, 721178188, 1.5233995914459229, -1.1464838981628418, -95.01693725585938, 0.08752007782459259, 0.13879908621311188, 9.935449600219727, 1.0188026428222656, -0.7464821338653564, 0.47143375873565674, 0, 
291, 721194855, 1.5185800790786743, -1.1436049938201904, -95.01187896728516, 0.08948253095149994, 0.12940381467342377, 9.91067886352539, 0.971656084060669, -0.750970721244812, 0.5150073170661926, 0, 
292, 721211522, 1.5146546363830566, -1.1417430639266968, -95.0064697265625, 0.09439118951559067, 0.129429891705513, 9.912513732910156, 1.024111032485962, -0.8107380270957947, 0.5258031487464905, 0, 
293, 721228189, 1.5114160776138306, -1.1384294033050537, -95.001708984375, 0.10061633586883545, 0.12757712602615356, 9.890514373779297, 1.0637850761413574, -0.7231937646865845, 0.5009971857070923, 0, 
294, 721244856, 1.5064618587493896, -1.1346590518951416, -94.99613189697266, 0.08887683600187302, 0.11632388830184937, 9.899067878723145, 0.9607835412025452, -0.6943666338920593, 0.5465621948242188, 0, 
295, 721261523, 1.5016180276870728, -1.1310040950775146, -94.99105834960938, 0.08676088601350784, 0.12107587605714798, 9.919373512268066, 0.9664504528045654, -0.7004690170288086, 0.5228256583213806, 0, 
296, 721278190, 1.4978625774383545, -1.127577781677246, -94.98773956298828, 0.0860072523355484, 0.1270284801721573, 9.901738166809082, 1.0283564329147339, -0.7164128422737122, 0.41563647985458374, 0, 
297, 721294857, 1.493041753768921, -1.123650312423706, -94.98322296142578, 0.09163490682840347, 0.14173270761966705, 9.891193389892578, 0.9653553366661072, -0.6822262406349182, 0.5261872410774231, 0, 
298, 721311524, 1.4890542030334473, -1.1200648546218872, -94.97845458984375, 0.08006202429533005, 0.12328299134969711, 9.925227165222168, 1.0138658285140991, -0.7026011347770691, 0.5164929032325745, 0, 
299, 721328191, 1.484475016593933, -1.1177828311920166, -94.97221374511719, 0.08251835405826569, 0.13558757305145264, 9.939046859741211, 0.9798139333724976, -0.7780818343162537, 0.6301748752593994, 0, 
300, 721344858, 1.4804571866989136, -1.1145803928375244, -94.968017578125, 0.10429630428552628, 0.11030817031860352, 9.890430450439453, 1.0090187788009644, -0.7253773212432861, 0.48316439986228943, 0, 
301, 721361525, 1.4773820638656616, -1.1115280389785767, -94.96333312988281, 0.1029992327094078, 0.12091323733329773, 9.93321418762207, 1.0653795003890991, -0.7322542667388916, 0.5038082003593445, 0, 
302, 721378192, 1.4740350246429443, -1.1088818311691284, -94.95984649658203, 0.07977576553821564, 0.11858892440795898, 9.913251876831055, 1.0475274324417114, -0.7569448947906494, 0.47595441341400146, 0, 
303, 721394859, 1.4695314168930054, -1.1051336526870728, -94.9544448852539, 0.09160520136356354, 0.12578806281089783, 9.902950286865234, 0.9789366722106934, -0.6873296499252319, 0.5653811097145081, 0, 
304, 721411526, 1.4655221700668335, -1.1032055616378784, -94.9515151977539, 0.08430467545986176, 0.13124492764472961, 9.897771835327148, 1.004888653755188, -0.799090564250946, 0.4316764175891876, 0, 
305, 721428193, 1.4613093137741089, -1.099912405014038, -94.94708251953125, 0.0795651450753212, 0.1331826001405716, 9.90380859375, 0.9933949708938599, -0.7153114676475525, 0.4988521635532379, 0, 
306, 721444860, 1.4581146240234375, -1.0961073637008667, -94.94476318359375, 0.07804975658655167, 0.1359131932258606, 9.919678688049316, 1.0503575801849365, -0.6862794756889343, 0.38971641659736633, 0, 
307, 721461527, 1.4539722204208374, -1.09318208694458, -94.94042205810547, 0.09800522029399872, 0.1354357898235321, 9.9011812210083, 0.9948611259460449, -0.7355775237083435, 0.505517840385437, 0, 
308, 721478194, 1.4498424530029297, -1.0899289846420288, -94.9371566772461, 0.09465155005455017, 0.13854917883872986, 9.901474952697754, 0.9937471747398376, -0.7146648168563843, 0.5316940546035767, 0, 
309, 721494861, 1.4462651014328003, -1.0872063636779785, -94.93407440185547, 0.09109480679035187, 0.13025657832622528, 9.907441139221191, 1.0246487855911255, -0.747986912727356, 0.44762033224105835, 0, 
310, 721511528, 1.4430006742477417, -1.0843344926834106, -94.93012237548828, 0.07892093807458878, 0.13942094147205353, 9.908729553222656, 1.0431668758392334, -0.7361026406288147, 0.5006514191627502, 0, 
311, 721528195, 1.4398585557937622, -1.0803704261779785, -94.92664337158203, 0.07288115471601486, 0.13608676195144653, 9.915352821350098, 1.0488337278366089, -0.67039954662323, 0.503142237663269, 0, 
312, 721544862, 1.4362431764602661, -1.0774016380310059, -94.92302703857422, 0.08664380013942719, 0.14262813329696655, 9.90953540802002, 1.0186489820480347, -0.7301539778709412, 0.475762277841568, 0, 
313, 721561529, 1.4324640035629272, -1.0738192796707153, -94.91886138916016, 0.08347896486520767, 0.12337468564510345, 9.915582656860352, 1.0071297883987427, -0.6911394596099854, 0.4965149462223053, 0, 
314, 721578196, 1.4283379316329956, -1.0715253353118896, -94.91610717773438, 0.07732468098402023, 0.12276259064674377, 9.904457092285156, 0.9849236607551575, -0.771025538444519, 0.42876943945884705, 0, 
315, 721594863, 1.423583745956421, -1.0691758394241333, -94.91331481933594, 0.09106061607599258, 0.12755407392978668, 9.882200241088867, 0.9464083909988403, -0.7654995918273926, 0.4749939441680908, 0, 
316, 721611530, 1.4204872846603394, -1.065782904624939, -94.91020965576172, 0.09643255919218063, 0.12009158730506897, 9.911443710327148, 1.045337438583374, -0.7013525366783142, 0.490732878446579, 0, 
317, 721628197, 1.4171392917633057, -1.0629656314849854, -94.9073486328125, 0.08777632564306259, 0.1256062090396881, 9.91375732421875, 1.0282474756240845, -0.7355966567993164, 0.46996739506721497, 0, 
318, 721644864, 1.4134395122528076, -1.05991792678833, -94.90382385253906, 0.0922188013792038, 0.13855449855327606, 9.913516998291016, 1.0076675415039062, -0.719249427318573, 0.5282106995582581, 0, 
319, 721661531, 1.4101171493530273, -1.0566320419311523, -94.8997573852539, 0.08662378042936325, 0.1473393440246582, 9.90423583984375, 1.0288364887237549, -0.7040610909461975, 0.5127918124198914, 0, 
320, 721678198, 1.406164526939392, -1.054951786994934, -94.89644622802734, 0.08363436907529831, 0.13721249997615814, 9.919600486755371, 0.989264965057373, -0.8005953431129456, 0.501560628414154, 0, 
321, 721694865, 1.4027584791183472, -1.05199134349823, -94.8936767578125, 0.0831771045923233, 0.12405623495578766, 9.90466022491455, 1.0197311639785767, -0.7226302623748779, 0.4983975291252136, 0, 
322, 721711532, 1.40003502368927, -1.0500807762145996, -94.89129638671875, 0.08866627514362335, 0.13757236301898956, 9.892294883728027, 1.059328556060791, -0.7868669629096985, 0.42866697907447815, 0, 
323, 721728199, 1.397112488746643, -1.0471224784851074, -94.88893127441406, 0.09265115112066269, 0.1344228982925415, 9.89545726776123, 1.0468167066574097, -0.7216891050338745, 0.49657905101776123, 0, 
324, 721744866, 1.3942339420318604, -1.0443189144134521, -94.88529205322266, 0.08218264579772949, 0.12288814783096313, 9.910612106323242, 1.0481356382369995, -0.7290719151496887, 0.5149816870689392, 0, 
325, 721761533, 1.3901160955429077, -1.0411945581436157, -94.8813247680664, 0.10129052400588989, 0.13899964094161987, 9.920049667358398, 0.9737436771392822, -0.7091196775436401, 0.5346907377243042, 0, 
326, 721778200, 1.386112093925476, -1.0381883382797241, -94.88093566894531, 0.10185842961072922, 0.1363992840051651, 9.901265144348145, 0.9761254787445068, -0.7182888984680176, 0.39875131845474243, 0, 
327, 721794867, 1.3828074932098389, -1.0353754758834839, -94.87889862060547, 0.09318438172340393, 0.1255464404821396, 9.8894681930542, 1.0178359746932983, -0.7265490293502808, 0.4682898223400116, 0, 
328, 721811534, 1.3799406290054321, -1.033300757408142, -94.87673950195312, 0.07993696630001068, 0.1332346349954605, 9.902993202209473, 1.0438200235366821, -0.7711023688316345, 0.4432790279388428, 0, 
329, 721828201, 1.376559853553772, -1.032467007637024, -94.8734130859375, 0.08849525451660156, 0.12072406709194183, 9.899348258972168, 1.0127710103988647, -0.841658890247345, 0.5636777877807617, 0, 
330, 721844868, 1.3739432096481323, -1.0295069217681885, -94.87158966064453, 0.0893767923116684, 0.12344221770763397, 9.904051780700684, 1.055025577545166, -0.716662585735321, 0.42130327224731445, 0, 
331, 721861535, 1.3711552619934082, -1.025672197341919, -94.86915588378906, 0.10622048377990723, 0.12173020094633102, 9.908889770507812, 1.0455807447433472, -0.6625236868858337, 0.4649537205696106, 0, 
332, 721878202, 1.3676068782806396, -1.0229547023773193, -94.86688995361328, 0.09069284051656723, 0.12911537289619446, 9.91800594329834, 0.9991834759712219, -0.726120114326477, 0.5182666182518005, 0, 
333, 721894869, 1.3643364906311035, -1.02132248878479, -94.86422729492188, 0.0872030109167099, 0.12135506421327591, 9.91110610961914, 1.0146214962005615, -0.7917077541351318, 0.5119466185569763, 0, 
334, 721911536, 1.3614635467529297, -1.0193477869033813, -94.86245727539062, 0.09724500775337219, 0.1306157112121582, 9.88586139678955, 1.036699652671814, -0.7707437872886658, 0.4493108093738556, 0, 
335, 721928203, 1.358482837677002, -1.0162122249603271, -94.86153411865234, 0.0886152908205986, 0.11637651920318604, 9.901241302490234, 1.0289198160171509, -0.7013397812843323, 0.43707430362701416, 0, 
336, 721944870, 1.3553584814071655, -1.0142449140548706, -94.8600082397461, 0.08207422494888306, 0.1267751008272171, 9.916776657104492, 1.0195581912994385, -0.7694438695907593, 0.45072585344314575, 0, 
337, 721961537, 1.35213041305542, -1.0116511583328247, -94.85710144042969, 0.08040590584278107, 0.12229911237955093, 9.932517051696777, 1.013552188873291, -0.7303077578544617, 0.5072787404060364, 0, 
338, 721978204, 1.3486521244049072, -1.009736180305481, -94.85546112060547, 0.10449767112731934, 0.1301523894071579, 9.90077018737793, 0.9970639944076538, -0.7706798315048218, 0.46476802229881287, 0, 
339, 721994871, 1.3456228971481323, -1.005880355834961, -94.85327911376953, 0.08852885663509369, 0.12139382213354111, 9.91341495513916, 1.0235475301742554, -0.6524514555931091, 0.5251755714416504, 0, 
340, 722011538, 1.3429508209228516, -1.0036648511886597, -94.8511734008789, 0.09604812413454056, 0.12971056997776031, 9.897618293762207, 1.044281005859375, -0.7494852542877197, 0.5498790144920349, 0, 
341, 722028205, 1.3406157493591309, -1.0004764795303345, -94.848876953125, 0.0799562931060791, 0.12727858126163483, 9.916126251220703, 1.062171459197998, -0.6919975280761719, 0.4616689383983612, 0, 
342, 722044872, 1.3379250764846802, -0.9986352324485779, -94.84741973876953, 0.09175430983304977, 0.1318138986825943, 9.935464859008789, 1.0408488512039185, -0.7709102630615234, 0.5149816870689392, 0, 
343, 722061539, 1.334801197052002, -0.9971717596054077, -94.84442901611328, 0.09206581860780716, 0.1339331567287445, 9.9088716506958, 1.0138914585113525, -0.7922967672348022, 0.533525288105011, 0, 
344, 722078206, 1.3328666687011719, -0.9953627586364746, -94.84366607666016, 0.09820127487182617, 0.13536202907562256, 9.88744068145752, 1.0828791856765747, -0.7717938423156738, 0.5183882713317871, 0, 
345, 722094873, 1.329612374305725, -0.9922508597373962, -94.84160614013672, 0.09192278981208801, 0.11546112596988678, 9.900537490844727, 1.003147006034851, -0.6926122903823853, 0.48607784509658813, 0, 
346, 722111540, 1.3266613483428955, -0.9897516369819641, -94.84056854248047, 0.09466908872127533, 0.1171656996011734, 9.898702621459961, 1.0198657512664795, -0.7289758920669556, 0.47419992089271545, 0, 
347, 722128207, 1.322829008102417, -0.9870401620864868, -94.84004974365234, 0.0961112305521965, 0.12126468122005463, 9.900431632995605, 0.9661815166473389, -0.7153499126434326, 0.4574492573738098, 0, 
348, 722144874, 1.3186712265014648, -0.9841150045394897, -94.8394546508789, 0.09447886794805527, 0.12879729270935059, 9.908493995666504, 0.9447179436683655, -0.7026075720787048, 0.42392224073410034, 0, 
349, 722161541, 1.3153196573257446, -0.9833406209945679, -94.83916473388672, 0.0849761813879013, 0.14088252186775208, 9.932366371154785, 0.9935358762741089, -0.8294032216072083, 0.47386693954467773, 0, 
350, 722178208, 1.3115309476852417, -0.9822121858596802, -94.83929443359375, 0.09046473354101181, 0.13054221868515015, 9.89649486541748, 0.9661878943443298, -0.8064926266670227, 0.537815511226654, 0, 
351, 722194875, 1.3080954551696777, -0.9812146425247192, -94.83661651611328, 0.08456338196992874, 0.1341102123260498, 9.909008026123047, 0.9867997169494629, -0.8132289052009583, 0.5447757244110107, 0, 
352, 722211542, 1.3057719469070435, -0.9795650243759155, -94.83441162109375, 0.09832347184419632, 0.13629043102264404, 9.890562057495117, 1.0526372194290161, -0.7728760838508606, 0.5631400346755981, 0, 
353, 722228209, 1.3035601377487183, -0.9780189394950867, -94.83326721191406, 0.07285068184137344, 0.13038702309131622, 9.93242359161377, 1.0576380491256714, -0.7780305743217468, 0.5459859371185303, 0, 
354, 722244876, 1.3005492687225342, -0.9775288105010986, -94.83274841308594, 0.0849136933684349, 0.12483704090118408, 9.908470153808594, 1.0075267553329468, -0.8433300852775574, 0.4831707775592804, 0, 
355, 722261543, 1.2979751825332642, -0.9774933457374573, -94.83219146728516, 0.08422376215457916, 0.1362706422805786, 9.909612655639648, 1.033280372619629, -0.8690324425697327, 0.5073747634887695, 0, 
356, 722278210, 1.2952769994735718, -0.9763445258140564, -94.83267211914062, 0.08685674518346786, 0.13224376738071442, 9.90381908416748, 1.0244439840316772, -0.8030093908309937, 0.44671112298965454, 0, 
357, 722294877, 1.2922567129135132, -0.9756206274032593, -94.83418273925781, 0.09367959946393967, 0.1199890747666359, 9.876363754272461, 1.0023529529571533, -0.8283339142799377, 0.42344191670417786, 0, 
358, 722311544, 0.7662704586982727, -0.45959728956222534, -96.49649047851562, 0.08057184517383575, 0.13817067444324493, 9.916584968566895, 1.0513628721237183, -0.7740734815597534, 0.46383312344551086, 0, 
359, 722328211, 0.7659332752227783, -0.46106472611427307, -96.49406433105469, 0.08160348981618881, 0.14373178780078888, 9.897879600524902, 0.9967950582504272, -0.8296914100646973, 0.5338582992553711, 0, 
360, 722344878, 0.7665515542030334, -0.4633779227733612, -96.49365997314453, 0.0883241593837738, 0.10233735293149948, 9.866135597229004, 1.0523170232772827, -0.8828442096710205, 0.4129343628883362, 0, 
361, 722361545, 0.766554594039917, -0.4639449417591095, -96.49280548095703, 0.1088789850473404, 0.1252540946006775, 9.89482593536377, 1.0159341096878052, -0.7768971920013428, 0.44071128964424133, 0, 
362, 722378212, 0.7661300301551819, -0.46392133831977844, -96.49137115478516, 0.09399759769439697, 0.11871473491191864, 9.918424606323242, 0.9904367923736572, -0.7405015826225281, 0.4783620238304138, 0, 
363, 722394879, 0.7654106020927429, -0.46439269185066223, -96.49000549316406, 0.06150120124220848, 0.12391522526741028, 9.908038139343262, 0.9724246263504028, -0.7712303996086121, 0.47912395000457764, 0, 
364, 722411546, 0.7657027840614319, -0.46626654267311096, -96.48792266845703, 0.08736676722764969, 0.1277785450220108, 9.904060363769531, 1.034631371498108, -0.8540170788764954, 0.528012216091156, 0, 
365, 722428213, 0.7660311460494995, -0.46618565917015076, -96.48707580566406, 0.10130203515291214, 0.15260890126228333, 9.9053316116333, 1.034932255744934, -0.7379082441329956, 0.4575836658477783, 0, 
366, 722444880, 0.7666885852813721, -0.4671560823917389, -96.48468017578125, 0.09666555374860764, 0.128122478723526, 9.921711921691895, 1.0561524629592896, -0.7996477484703064, 0.5562438368797302, 0, 
367, 722461547, 0.7656086087226868, -0.46810105443000793, -96.48343658447266, 0.07274998724460602, 0.12692320346832275, 9.90490436553955, 0.9509610533714294, -0.7986487746238708, 0.4938640296459198, 0, 
368, 722478214, 0.7645677328109741, -0.46908700466156006, -96.48272705078125, 0.09190823882818222, 0.13607870042324066, 9.903671264648438, 0.9539577960968018, -0.8018248081207275, 0.46761107444763184, 0, 
369, 722494881, 0.763461709022522, -0.47013771533966064, -96.48147583007812, 0.10452248901128769, 0.11700236797332764, 9.886631965637207, 0.9497252106666565, -0.8052760362625122, 0.5074323415756226, 0, 
370, 722511548, 0.7618502974510193, -0.47120121121406555, -96.48113250732422, 0.0876399427652359, 0.11888647824525833, 9.911395072937012, 0.9189836978912354, -0.8063262701034546, 0.4585953950881958, 0, 
371, 722528215, 0.7598008513450623, -0.4718225300312042, -96.48021697998047, 0.08948273956775665, 0.11549294739961624, 9.87414836883545, 0.8926026225090027, -0.779554545879364, 0.4992939829826355, 0, 
372, 722544882, 0.7591995000839233, -0.473350465297699, -96.47956848144531, 0.09828747063875198, 0.12795387208461761, 9.915887832641602, 0.9803260564804077, -0.8342376351356506, 0.4897404611110687, 0, 
373, 722561549, 0.757860004901886, -0.47329768538475037, -96.4795150756836, 0.1033594012260437, 0.11101804673671722, 9.928872108459473, 0.9347482323646545, -0.7394706010818481, 0.4575580656528473, 0, 
374, 722578216, 0.7582710385322571, -0.47284695506095886, -96.48018646240234, 0.09791751205921173, 0.13817448914051056, 9.897196769714355, 1.0406055450439453, -0.7158173322677612, 0.4173973798751831, 0, 
375, 722594883, 0.7577642202377319, -0.47338035702705383, -96.48045349121094, 0.0911564975976944, 0.11053389310836792, 9.900333404541016, 0.9851861596107483, -0.7750915288925171, 0.4476523697376251, 0, 
376, 722611550, 0.7570852041244507, -0.47259941697120667, -96.47987365722656, 0.07610967755317688, 0.13320526480674744, 9.888477325439453, 0.9747297763824463, -0.6954233050346375, 0.5003185272216797, 0, 
377, 722628217, 0.7565659880638123, -0.4737779498100281, -96.47989654541016, 0.0895223394036293, 0.15307201445102692, 9.914205551147461, 0.9850196838378906, -0.8133952617645264, 0.46873167157173157, 0, 
378, 722644884, 0.7566304206848145, -0.4755561947822571, -96.4803695678711, 0.08793492615222931, 0.13115860521793365, 9.906135559082031, 1.0192253589630127, -0.8493940234184265, 0.44469407200813293, 0, 
379, 722661551, 0.7562999129295349, -0.47736603021621704, -96.48016357421875, 0.08655176311731339, 0.11720645427703857, 9.870376586914062, 0.9954887628555298, -0.8512444496154785, 0.48772984743118286, 0, 
380, 722678218, 0.7559789419174194, -0.4773595929145813, -96.47819519042969, 0.09283407777547836, 0.13577976822853088, 9.895965576171875, 0.9972689151763916, -0.7400341629981995, 0.5947781205177307, 0, 
381, 722694885, 0.7560098767280579, -0.477409690618515, -96.47833251953125, 0.09124190360307693, 0.12213709205389023, 9.918428421020508, 1.0181944370269775, -0.74610435962677, 0.46931424736976624, 0, 
382, 722711552, 0.755702018737793, -0.4784272313117981, -96.478759765625, 0.07814785838127136, 0.14192599058151245, 9.89838981628418, 0.9962252378463745, -0.803931474685669, 0.45381224155426025, 0, 
383, 722728219, 0.7547293901443481, -0.47843217849731445, -96.47830963134766, 0.10278074443340302, 0.13436156511306763, 9.89755916595459, 0.957466721534729, -0.7422495484352112, 0.5078229904174805, 0, 
384, 722744886, 0.7545828819274902, -0.47845402359962463, -96.47758483886719, 0.10103128105401993, 0.12600955367088318, 9.903708457946777, 1.00747549533844, -0.7434919476509094, 0.5246889591217041, 0, 
385, 722761553, 0.7552512288093567, -0.47775182127952576, -96.47639465332031, 0.09437594562768936, 0.12060275673866272, 9.915532112121582, 1.0559604167938232, -0.6988489627838135, 0.5529910326004028, 0, 
386, 722778220, 0.7558215856552124, -0.4777171015739441, -96.47684478759766, 0.10166332870721817, 0.12766899168491364, 9.896987915039062, 1.0499286651611328, -0.7412124276161194, 0.45703303813934326, 0, 
387, 722794887, 0.7555160522460938, -0.47688204050064087, -96.4760971069336, 0.09435988962650299, 0.12817128002643585, 9.918399810791016, 0.9976146817207336, -0.6912676095962524, 0.5279033780097961, 0, 
388, 722811554, 0.7548672556877136, -0.47642630338668823, -96.4751968383789, 0.0834193006157875, 0.13836315274238586, 9.889052391052246, 0.9768683910369873, -0.7147672176361084, 0.5383790135383606, 0, 
389, 722828221, 0.7548623085021973, -0.47668132185935974, -96.47386932373047, 0.08998586237430573, 0.13607564568519592, 9.903046607971191, 1.0162862539291382, -0.7562726140022278, 0.5645807981491089, 0, 
390, 722844888, 0.7546664476394653, -0.47618958353996277, -96.4737777709961, 0.09540152549743652, 0.1361030638217926, 9.910436630249023, 1.0036592483520508, -0.7133969664573669, 0.49029114842414856, 0, 
391, 722861555, 0.7550837993621826, -0.47460994124412537, -96.47441101074219, 0.10180377960205078, 0.1322450339794159, 9.901517868041992, 1.0399011373519897, -0.6478668451309204, 0.4479532539844513, 0, 
392, 722878222, 0.7537500858306885, -0.47497519850730896, -96.47325134277344, 0.10011323541402817, 0.11575385183095932, 9.916040420532227, 0.9360672831535339, -0.7634953856468201, 0.5569738149642944, 0, 
393, 722894889, 0.7541670799255371, -0.47459885478019714, -96.47383117675781, 0.10661110281944275, 0.11120203882455826, 9.918288230895996, 1.0405031442642212, -0.7200178503990173, 0.4521409869194031, 0, 
394, 722911556, 0.7532851099967957, -0.4737684428691864, -96.47389221191406, 0.09892831742763519, 0.12148149311542511, 9.90532398223877, 0.9620707035064697, -0.6929131746292114, 0.4835101068019867, 0, 
395, 722928223, 0.7529847621917725, -0.47403913736343384, -96.50656127929688, 0.0942293033003807, 0.1326126605272293, 9.895647048950195, 0.9968334436416626, -0.758065402507782, 0.4554322063922882, 0, 
396, 722944890, 0.7527572512626648, -0.473978728055954, -96.5162124633789, 0.10424220561981201, 0.11625608056783676, 9.915624618530273, 1.001796007156372, -0.7389008402824402, 0.4623156487941742, 0, 
397, 722961557, 0.7527877688407898, -0.4732398986816406, -96.52057647705078, 0.0997132658958435, 0.11920573562383652, 9.913378715515137, 1.0172532796859741, -0.6970240473747253, 0.5249515175819397, 0, 
398, 722978224, 0.7532570362091064, -0.472864031791687, -96.52568817138672, 0.08596789091825485, 0.13456837832927704, 9.902201652526855, 1.0429491996765137, -0.7205812931060791, 0.43152278661727905, 0, 
399, 722994891, 0.7536504864692688, -0.4722827076911926, -96.52965545654297, 0.09214089065790176, 0.13583730161190033, 9.897340774536133, 1.038825511932373, -0.7072755098342896, 0.4596967101097107, 0, 
400, 723011558, 0.753200352191925, -0.4717475175857544, -96.5316162109375, 0.0936957523226738, 0.12158290296792984, 9.915081024169922, 0.9884709715843201, -0.7097470760345459, 0.5319245457649231, 0, 
401, 723028225, 0.7531436681747437, -0.4713888168334961, -96.53512573242188, 0.09128004312515259, 0.12742529809474945, 9.891948699951172, 1.011317491531372, -0.7218619585037231, 0.42312178015708923, 0, 
402, 723044892, 0.7530766725540161, -0.4717368483543396, -96.5366439819336, 0.09198746830224991, 0.14738501608371735, 9.895551681518555, 1.0119450092315674, -0.7624197006225586, 0.5011892914772034, 0, 
403, 723061559, 0.7533136010169983, -0.4704025089740753, -96.5387191772461, 0.0867130309343338, 0.14419744908809662, 9.932076454162598, 1.0294960737228394, -0.6620754599571228, 0.49686717987060547, 0, 
404, 723078226, 0.7537853717803955, -0.47133710980415344, -96.54037475585938, 0.09113684296607971, 0.14140714704990387, 9.932459831237793, 1.043256402015686, -0.7983798384666443, 0.506952166557312, 0, 
405, 723094893, 0.7541086673736572, -0.4713301360607147, -96.54206848144531, 0.09929443150758743, 0.13377222418785095, 9.900720596313477, 1.0350476503372192, -0.7417117357254028, 0.4882548451423645, 0, 
406, 723111560, 0.7538220286369324, -0.4710976779460907, -96.54449462890625, 0.10052022337913513, 0.12285332381725311, 9.899638175964355, 0.9972112774848938, -0.7294241189956665, 0.4423249363899231, 0, 
407, 723128227, 0.7552564740180969, -0.4698340892791748, -96.54562377929688, 0.0896129161119461, 0.13219936192035675, 9.91666030883789, 1.1017494201660156, -0.6654050946235657, 0.5316619873046875, 0, 
408, 723144894, 0.7554522752761841, -0.46960583329200745, -96.54735565185547, 0.0807829275727272, 0.13525891304016113, 9.918549537658691, 1.027248501777649, -0.7283867597579956, 0.4878322184085846, 0, 
409, 723161561, 0.7564882636070251, -0.4689610004425049, -96.54823303222656, 0.07703550904989243, 0.12423551082611084, 9.91515064239502, 1.0768859386444092, -0.7033055424690247, 0.5326160788536072, 0, 
410, 723178228, 0.7557729482650757, -0.4697243273258209, -96.54854583740234, 0.0960625410079956, 0.12933826446533203, 9.916969299316406, 0.9733210802078247, -0.7875200510025024, 0.5711888074874878, 0, 
411, 723194895, 0.7552892565727234, -0.4698409140110016, -96.54937744140625, 0.10391910374164581, 0.12521947920322418, 9.922779083251953, 0.9862233996391296, -0.7487233281135559, 0.5394483208656311, 0, 
412, 723211562, 0.7552982568740845, -0.4696722626686096, -96.55022430419922, 0.11081032454967499, 0.13030391931533813, 9.869218826293945, 1.0164399147033691, -0.7306662797927856, 0.5402870774269104, 0, 
413, 723228229, 0.755138099193573, -0.469738632440567, -96.55171203613281, 0.08205556869506836, 0.12801414728164673, 9.909749984741211, 1.005548119544983, -0.746225893497467, 0.5096734762191772, 0, 
414, 723244896, 0.7559572458267212, -0.469535231590271, -96.55397033691406, 0.08685120940208435, 0.13020925223827362, 9.919715881347656, 1.0635161399841309, -0.7308967709541321, 0.4534856081008911, 0, 
415, 723261563, 0.7562145590782166, -0.4700170159339905, -96.55461120605469, 0.09451146423816681, 0.13129572570323944, 9.899910926818848, 1.0306934118270874, -0.7698216438293457, 0.5527860522270203, 0, 
416, 723278230, 0.7555384039878845, -0.4697376787662506, -96.55593872070312, 0.09671299159526825, 0.12416642159223557, 9.885343551635742, 0.974742591381073, -0.7258959412574768, 0.5049159526824951, 0, 
417, 723294897, 0.7559930682182312, -0.46789801120758057, -96.55738830566406, 0.09909328073263168, 0.13672548532485962, 9.903520584106445, 1.0426098108291626, -0.6316732168197632, 0.5058316588401794, 0, 
418, 723311564, 0.7564544081687927, -0.4671750068664551, -96.55885314941406, 0.0854266956448555, 0.12212660908699036, 9.896907806396484, 1.0422574281692505, -0.6985927224159241, 0.4878450334072113, 0, 
419, 723328231, 0.7561666965484619, -0.4667755663394928, -96.55998992919922, 0.09567047655582428, 0.10858409106731415, 9.886984825134277, 0.9973456263542175, -0.7182248830795288, 0.5075668692588806, 0, 
420, 723344898, 0.7570318579673767, -0.4654732346534729, -96.5622329711914, 0.11166689544916153, 0.11769560724496841, 9.9052095413208, 1.0668714046478271, -0.6647199988365173, 0.4632056653499603, 0, 
421, 723361565, 0.7561003565788269, -0.46534526348114014, -96.56414794921875, 0.09014549106359482, 0.1366892158985138, 9.897101402282715, 0.9593044519424438, -0.7345722317695618, 0.47746551036834717, 0, 
422, 723378232, 0.7557429671287537, -0.46631088852882385, -96.5652847290039, 0.08438899368047714, 0.12723515927791595, 9.921544075012207, 0.9935870170593262, -0.7999230623245239, 0.5145527124404907, 0, 
423, 723394899, 0.7560960054397583, -0.46682673692703247, -96.56627655029297, 0.1018591970205307, 0.14891821146011353, 9.901924133300781, 1.0360785722732544, -0.7725815176963806, 0.5256814360618591, 0, 
424, 723411566, 0.756834089756012, -0.46736371517181396, -96.56653594970703, 0.11109832674264908, 0.14223961532115936, 9.894962310791016, 1.0597702264785767, -0.7734395265579224, 0.5756390690803528, 0, 
425, 723428233, 0.7558470368385315, -0.46784767508506775, -96.56809997558594, 0.09366849064826965, 0.13800446689128876, 9.936657905578613, 0.9556225538253784, -0.7706668972969055, 0.49148210883140564, 0, 
426, 723444900, 0.7557961940765381, -0.46717721223831177, -96.56934356689453, 0.07205774635076523, 0.1310102939605713, 9.915106773376465, 1.012201189994812, -0.7019992470741272, 0.5124717354774475, 0, 
427, 723461567, 0.7559239268302917, -0.4671904444694519, -96.571044921875, 0.08400968462228775, 0.1251096874475479, 9.908698081970215, 1.0227152109146118, -0.742889940738678, 0.48250484466552734, 0, 
428, 723478234, 0.756906270980835, -0.46626341342926025, -96.5732421875, 0.09708584100008011, 0.116185262799263, 9.885894775390625, 1.0731209516525269, -0.6873103976249695, 0.45029687881469727, 0, 
429, 723494901, 0.7566989064216614, -0.4658548831939697, -96.57435607910156, 0.09855092316865921, 0.12092031538486481, 9.898652076721191, 1.002993106842041, -0.7169826030731201, 0.5179911255836487, 0, 
430, 723511568, 0.7559106945991516, -0.4670008420944214, -96.57588958740234, 0.09337803721427917, 0.12621834874153137, 9.9073486328125, 0.967513382434845, -0.8114486932754517, 0.49032312631607056, 0, 
431, 723528235, 0.755626916885376, -0.4656694531440735, -96.57733917236328, 0.09060876071453094, 0.11498285084962845, 9.90308666229248, 0.9971983432769775, -0.662216305732727, 0.497469037771225, 0, 
432, 723544902, 0.7559182643890381, -0.46506592631340027, -96.57959747314453, 0.0905609130859375, 0.13111069798469543, 9.9117431640625, 1.0321661233901978, -0.7060076594352722, 0.4476587772369385, 0, 
433, 723561569, 0.7561224699020386, -0.4650379717350006, -96.581298828125, 0.10117296129465103, 0.1268274188041687, 9.909893989562988, 1.0271462202072144, -0.7412188053131104, 0.4863723814487457, 0, 
434, 723578236, 0.7556977272033691, -0.4639074206352234, -96.58248901367188, 0.10362950712442398, 0.13526339828968048, 9.909114837646484, 0.9892392754554749, -0.6735691428184509, 0.5093084573745728, 0, 
435, 723594903, 0.7551126480102539, -0.463778555393219, -96.58380126953125, 0.09430290013551712, 0.14156441390514374, 9.923645973205566, 0.9794042110443115, -0.7348860502243042, 0.4981158375740051, 0, 
436, 723611570, 0.754971444606781, -0.46429023146629333, -96.5845947265625, 0.08898305147886276, 0.1320938616991043, 9.911978721618652, 1.0072323083877563, -0.7718963623046875, 0.5370470881462097, 0, 
437, 723628237, 0.7551507353782654, -0.46504446864128113, -96.5851821899414, 0.09195950627326965, 0.1292637586593628, 9.904224395751953, 1.0255324840545654, -0.786431610584259, 0.5503016710281372, 0, 
438, 723644904, 0.7540968656539917, -0.4650689661502838, -96.58588409423828, 0.09656402468681335, 0.12682439386844635, 9.912978172302246, 0.9517679810523987, -0.7433381676673889, 0.5444363355636597, 0, 
439, 723661571, 0.7529991865158081, -0.46490222215652466, -96.58745574951172, 0.09643033146858215, 0.12113725394010544, 9.904040336608887, 0.9488736987113953, -0.7318509221076965, 0.4928011894226074, 0, 
440, 723678238, 0.7521010637283325, -0.46543407440185547, -96.58827209472656, 0.0965038537979126, 0.13376781344413757, 9.874146461486816, 0.9608732461929321, -0.7733690738677979, 0.5303366184234619, 0, 
441, 723694905, 0.7527721524238586, -0.4643164873123169, -96.58894348144531, 0.09207697212696075, 0.1233360767364502, 9.903366088867188, 1.0556658506393433, -0.6748113632202148, 0.5365860462188721, 0, 
442, 723711572, 0.7519130706787109, -0.46425414085388184, -96.58902740478516, 0.09186343103647232, 0.12583400309085846, 9.89896011352539, 0.9633705615997314, -0.7376393675804138, 0.5748002529144287, 0, 
443, 723728239, 0.7518537044525146, -0.46280747652053833, -96.59037017822266, 0.09380001574754715, 0.11471346765756607, 9.89795207977295, 1.0111125707626343, -0.6550768613815308, 0.5028926134109497, 0, 
444, 723744906, 0.752004086971283, -0.46298155188560486, -96.59249877929688, 0.0974048376083374, 0.14686287939548492, 9.903204917907715, 1.0236371755599976, -0.753403902053833, 0.45284539461135864, 0, 
445, 723761573, 0.7517056465148926, -0.4637303650379181, -96.59439086914062, 0.08514875173568726, 0.12032799422740936, 9.91865348815918, 0.9962315559387207, -0.7868157625198364, 0.46955758333206177, 0, 
446, 723778240, 0.7508360147476196, -0.4642624855041504, -96.5958251953125, 0.10372453927993774, 0.12234704941511154, 9.905902862548828, 0.9628582000732422, -0.7745087146759033, 0.5024570822715759, 0, 
447, 723794907, 0.7503321170806885, -0.4649140238761902, -96.59737396240234, 0.09514373540878296, 0.12600651383399963, 9.907771110534668, 0.9842960238456726, -0.7809696197509766, 0.4903295338153839, 0, 
448, 723811574, 0.7504836916923523, -0.465217649936676, -96.59923553466797, 0.07658639550209045, 0.1305677741765976, 9.891059875488281, 1.0237524509429932, -0.7602297067642212, 0.4755125939846039, 0, 
449, 723828241, 0.7497584819793701, -0.46451011300086975, -96.6007080078125, 0.08391111344099045, 0.1280825287103653, 9.90047550201416, 0.9712144136428833, -0.7000719308853149, 0.48805639147758484, 0, 
450, 723844908, 0.7491799592971802, -0.46371787786483765, -96.60252380371094, 0.10394401848316193, 0.1347561776638031, 9.90269660949707, 0.9790839552879333, -0.6945331692695618, 0.47662678360939026, 0, 
451, 723861575, 0.7501832842826843, -0.4628548324108124, -96.60357666015625, 0.09392949938774109, 0.12484109401702881, 9.912971496582031, 1.0751186609268188, -0.6899357438087463, 0.5185035467147827, 0, 
452, 723878242, 0.7508239150047302, -0.46208685636520386, -96.60508728027344, 0.09598858654499054, 0.12377318739891052, 9.916250228881836, 1.0528483390808105, -0.6962108016014099, 0.48793473839759827, 0, 
453, 723894909, 0.750866174697876, -0.4617878198623657, -96.60630798339844, 0.08502420783042908, 0.1256401687860489, 9.915836334228516, 1.0176821947097778, -0.7239878177642822, 0.5104867219924927, 0, 
454, 723911576, 0.7501495480537415, -0.46252983808517456, -96.60882568359375, 0.1006297916173935, 0.12853877246379852, 9.901389122009277, 0.9704266786575317, -0.7880450487136841, 0.4291151463985443, 0, 
455, 723928243, 0.7510871291160583, -0.4617278277873993, -96.60992431640625, 0.09841903299093246, 0.11784408241510391, 9.87572193145752, 1.0714176893234253, -0.69367516040802, 0.5107044577598572, 0, 
456, 723944910, 0.7505107522010803, -0.46182677149772644, -96.61199951171875, 0.09767800569534302, 0.12408267706632614, 9.930328369140625, 0.9792888164520264, -0.7481021285057068, 0.46466562151908875, 0, 
457, 723961577, 0.750667929649353, -0.46241122484207153, -96.61408996582031, 0.08531923592090607, 0.1388944834470749, 9.904175758361816, 1.0238292217254639, -0.7775182723999023, 0.45294779539108276, 0, 
458, 723978244, 0.7488760948181152, -0.4606250822544098, -96.61662292480469, 0.08639086782932281, 0.12537920475006104, 9.903692245483398, 0.9060876965522766, -0.6365459561347961, 0.4236980080604553, 0, 
459, 723994911, 0.7463183999061584, -0.45686906576156616, -96.61783599853516, 0.10487072914838791, 0.12774042785167694, 9.895425796508789, 0.8614703416824341, -0.5159998536109924, 0.5040963292121887, 0, 
460, 724011578, 0.7402586340904236, -0.4493981599807739, -96.61917114257812, 0.09232792258262634, 0.12311205267906189, 9.908994674682617, 0.6509082913398743, -0.2939889132976532, 0.5068496465682983, 0, 
461, 724028245, 0.7349053025245667, -0.4407099783420563, -96.6287612915039, 0.06604181230068207, 0.11657006293535233, 9.869950294494629, 0.6896987557411194, -0.2268964797258377, 0.004046806134283543, 0, 
462, 724044912, 0.7337385416030884, -0.44241276383399963, -96.66580963134766, 0.39771896600723267, 0.1720248907804489, 9.91347885131836, 0.9277687072753906, -0.871734619140625, -1.6475049257278442, 0, 
463, 724061579, 0.7455219626426697, -0.4554646611213684, -96.71897888183594, -0.15721707046031952, 0.0788237601518631, 9.894558906555176, 1.6975198984146118, -1.565031886100769, -2.595597267150879, 0, 
464, 724078246, 0.7466635704040527, -0.4611011743545532, -96.7578125, -0.02613164857029915, 0.10732197016477585, 9.905577659606934, 1.064489483833313, -1.1089338064193726, -1.737546443939209, 0, 
465, 724094913, 0.7475525736808777, -0.4655189514160156, -96.8284912109375, 0.08133234083652496, 0.1261400431394577, 9.896916389465332, 1.0340489149093628, -1.0616145133972168, -3.657756805419922, 0, 
466, 724111580, 0.751382052898407, -0.473826140165329, -96.96206665039062, -0.11603567749261856, -0.020805226638913155, 9.913700103759766, 1.179247260093689, -1.3450191020965576, -7.441982269287109, 0, 
467, 724128247, 0.7657505869865417, -0.48352280259132385, -97.31771087646484, -0.2804378271102905, -0.13475222885608673, 9.917243003845215, 1.6992131471633911, -1.6057074069976807, -20.751907348632812, 0, 
468, 724144914, 0.7516836524009705, -0.46510717272758484, -97.66905975341797, 0.41994568705558777, 0.29258766770362854, 9.89965534210205, -0.0027085470501333475, 0.08370242267847061, -20.51793670654297, 0, 
469, 724161581, 0.7523941993713379, -0.46611788868904114, -97.8904037475586, 0.30676063895225525, 0.23526114225387573, 9.889250755310059, 0.9508718252182007, -0.9767471551895142, -12.704936027526855, 0, 
470, 724178248, 0.7552894949913025, -0.4583781659603119, -98.0127944946289, 0.21098101139068604, 0.24840861558914185, 9.927760124206543, 1.1292706727981567, -0.37359970808029175, -6.77441930770874, 0, 
471, 724194915, 0.7563374638557434, -0.4527676999568939, -98.05900573730469, 0.12234713137149811, 0.15923021733760834, 9.918423652648926, 1.0562998056411743, -0.44092264771461487, -2.2053945064544678, 0, 
472, 724211582, 0.7554628849029541, -0.45155853033065796, -98.06229400634766, 0.08774074912071228, 0.14807897806167603, 9.913917541503906, 0.9606875777244568, -0.671424150466919, 0.3774735927581787, 0, 
473, 724228249, 0.7557952404022217, -0.45226529240608215, -98.06096649169922, 0.10510792583227158, 0.13225525617599487, 9.912946701049805, 1.035591959953308, -0.7819429039955139, 0.6522594094276428, 0, 
474, 724244916, 0.7558501362800598, -0.4519910216331482, -98.04655456542969, 0.11193989217281342, 0.12777777016162872, 9.902429580688477, 1.0244439840316772, -0.7134225368499756, 1.4388062953948975, 0, 
475, 724261583, 0.7552197575569153, -0.45162418484687805, -98.01185607910156, 0.10349708050489426, 0.12176214158535004, 9.92327880859375, 0.994067370891571, -0.6909729838371277, 2.6567413806915283, 0, 
476, 724278250, 0.7550131678581238, -0.4526987671852112, -97.9632568359375, 0.11318911612033844, 0.12841325998306274, 9.894002914428711, 1.0250202417373657, -0.7673757672309875, 3.487720012664795, 0, 
477, 724294917, 0.753705620765686, -0.4540395438671112, -97.90668487548828, 0.09071715921163559, 0.14755861461162567, 9.885885238647461, 0.9639339447021484, -0.7770316004753113, 3.9672915935516357, 0, 
478, 724311584, 0.7510094046592712, -0.4582277238368988, -97.83885192871094, 0.10995452851057053, 0.13906019926071167, 9.928398132324219, 0.8849444389343262, -0.9381740093231201, 4.646309852600098, 0, 
479, 724328251, 0.7496052980422974, -0.45975279808044434, -97.75113677978516, 0.08250820636749268, 0.13599558174610138, 9.907251358032227, 0.9729753136634827, -0.7638540267944336, 5.8351240158081055, 0, 
480, 724344918, 0.7511696219444275, -0.44907116889953613, -97.57600402832031, 0.13666842877864838, 0.09708256274461746, 9.915816307067871, 1.1916440725326538, 0.03780435398221016, 11.073653221130371, 0, 
481, 724361585, 0.7455894351005554, -0.44069546461105347, -97.43538665771484, 0.07523482292890549, 0.14526644349098206, 9.904821395874023, 0.746008574962616, -0.1279674917459488, 9.004377365112305, 0, 
482, 724378252, 0.7357162833213806, -0.41897231340408325, -97.28263854980469, 0.12750142812728882, 0.10574541240930557, 9.914209365844727, 0.49082913994789124, 0.6809266209602356, 9.7219820022583, 0, 
483, 724394919, 0.7259595394134521, -0.3789265751838684, -97.131591796875, 0.06298968940973282, 0.10083585232496262, 9.89571475982666, 0.4923531115055084, 1.7770226001739502, 9.601422309875488, 0, 
484, 724411586, 0.7212687134742737, -0.3389967679977417, -97.03567504882812, 0.0422280952334404, 0.089960016310215, 9.911330223083496, 0.7699306607246399, 1.7268598079681396, 6.298112392425537, 0, 
485, 724428253, 0.7221126556396484, -0.3052402436733246, -96.9714126586914, 0.05533471331000328, 0.1073656976222992, 9.89897346496582, 1.08722722530365, 1.3330068588256836, 4.40366268157959, 0, 
486, 724444920, 0.7207819819450378, -0.2908318340778351, -96.90656280517578, 0.04552121087908745, 0.12387658655643463, 9.912737846374512, 0.9552449584007263, 0.1726488322019577, 4.45477294921875, 0, 
487, 724461587, 0.7164285778999329, -0.28890568017959595, -96.85948181152344, 0.03435179218649864, 0.11742944270372391, 9.910615921020508, 0.7676510214805603, -0.5903534889221191, 3.393413782119751, 0, 
488, 724478254, 0.7114788293838501, -0.2736060321331024, -96.80236053466797, 0.03759920969605446, 0.10670816153287888, 9.900036811828613, 0.7341369390487671, 0.21988506615161896, 3.983710527420044, 0, 
489, 724494921, 0.7147939801216125, -0.24767059087753296, -96.73110961914062, 0.10693048685789108, 0.12591296434402466, 9.902993202209473, 1.233097791671753, 0.8680400252342224, 4.826623439788818, 0, 
490, 724511588, 0.7176276445388794, -0.22300423681735992, -96.67362213134766, 0.0755976215004921, 0.10330595821142197, 9.8903169631958, 1.1989558935165405, 0.7814561724662781, 3.9941465854644775, 0, 
491, 724528255, 0.7203903794288635, -0.20230528712272644, -96.62187194824219, 0.04180014505982399, 0.1346408724784851, 9.908380508422852, 1.1923609972000122, 0.5400054454803467, 3.6613874435424805, 0, 
492, 724544922, 0.7211812734603882, -0.19283507764339447, -96.59101867675781, 0.0356760174036026, 0.12180307507514954, 9.910323143005371, 1.068036675453186, -0.15005838871002197, 2.4138686656951904, 0, 
493, 724561589, 0.7199182510375977, -0.18525946140289307, -96.5632095336914, 0.04412965476512909, 0.13092100620269775, 9.918761253356934, 0.9442762136459351, -0.26580220460891724, 2.233581066131592, 0, 
494, 724578256, 0.7176597714424133, -0.17597095668315887, -96.54412078857422, 0.025841960683465004, 0.14187926054000854, 9.896378517150879, 0.8830682039260864, -0.1692230999469757, 1.7109218835830688, 0, 
495, 724594923, 0.7171825170516968, -0.16751110553741455, -96.52093505859375, 0.0701504647731781, 0.10493341833353043, 9.895342826843262, 0.9895467162132263, -0.2162032127380371, 1.955939531326294, 0, 
496, 724611590, 0.6899933815002441, -0.15639977157115936, -96.47289276123047, 0.02768661640584469, 0.13475295901298523, 9.90328598022461, -0.6083847880363464, -0.03896331787109375, 3.4467008113861084, 0, 
497, 724628257, 0.6795596480369568, -0.13169968128204346, -96.42713928222656, 0.08441726118326187, 0.10891768336296082, 9.938794136047363, 0.3953447937965393, 0.7739133238792419, 3.293370485305786, 0, 
498, 724644924, 0.6841897964477539, -0.10983055084943771, -96.41563415527344, -0.10233743488788605, 0.044688597321510315, 9.920235633850098, 1.294164776802063, 0.5782259106636047, 1.240570306777954, 0, 
499, 724661591, 0.6577373147010803, -0.07035522907972336, -96.40074157714844, 0.10332139581441879, 0.20788954198360443, 9.876811981201172, -0.5714705586433411, 1.637426495552063, 1.4309110641479492, 0, 
500, 724678258, 0.6458159685134888, 0.053333837538957596, -96.45178985595703, 0.06740530580282211, 0.197483628988266, 9.988913536071777, 0.298490434885025, 6.644716262817383, -2.5788087844848633, 0, 
501, 724694925, 0.6487966179847717, 0.2375897616147995, -96.49836730957031, -0.03928692638874054, 0.07588876783847809, 9.92432975769043, 1.1993408203125, 10.281774520874023, -2.3471169471740723, 0, 
502, 724711592, 0.6651573181152344, 0.4514431655406952, -96.53557586669922, -0.06358758360147476, 0.13943763077259064, 9.979852676391602, 2.009291887283325, 12.063126564025879, -1.8185733556747437, 0, 
503, 724728259, 0.7029182314872742, 0.720234215259552, -96.61612701416016, -0.10008940100669861, 0.14350779354572296, 9.95730209350586, 3.3285272121429443, 15.327472686767578, -4.457555294036865, 0, 
504, 724744926, 0.7491886019706726, 0.9832748770713806, -96.67733001708984, -0.14487324655056, 0.0965309739112854, 9.891648292541504, 3.8436052799224854, 14.99274730682373, -3.303375244140625, 0, 
505, 724761593, 0.8046231269836426, 1.2811059951782227, -96.77226257324219, -0.2433473765850067, 0.19406457245349884, 9.948634147644043, 4.450973987579346, 17.049814224243164, -5.368736267089844, 0, 
506, 724778260, 0.8358100056648254, 1.5989341735839844, -96.82474517822266, -0.18526415526866913, 0.07510892301797867, 9.933082580566406, 2.9623496532440186, 18.28077507019043, -2.8485584259033203, 0, 
507, 724794927, 0.8345221877098083, 1.9989863634109497, -96.94097137451172, -0.5019474029541016, 0.08442921191453934, 10.083639144897461, 1.1532461643218994, 23.157392501831055, -6.749293327331543, 0, 
508, 724811594, 0.856842041015625, 2.5414340496063232, -97.0510025024414, -0.293548047542572, 0.18517029285430908, 9.955979347229004, 2.610417127609253, 31.704805374145508, -6.491222858428955, 0, 
509, 724828261, 0.8891844749450684, 3.00551176071167, -97.06895446777344, -0.2086765319108963, 0.14320306479930878, 9.7295503616333, 3.003429651260376, 27.08310317993164, -0.9354614615440369, 0, 
510, 724844928, 0.9299643039703369, 3.380664825439453, -97.0242691040039, -0.584402322769165, 0.14134584367275238, 9.887319564819336, 3.306156873703003, 21.80756187438965, 2.905381441116333, 0, 
511, 724861595, 1.020105004310608, 3.7968318462371826, -96.9251480102539, -0.7205748558044434, 0.09339192509651184, 9.934669494628906, 6.044713497161865, 24.32674217224121, 6.079150199890137, 0, 
512, 724878262, 1.1127249002456665, 4.136935234069824, -96.80936431884766, -0.7097058892250061, 0.19935022294521332, 9.850168228149414, 6.08536958694458, 19.7898006439209, 7.115885257720947, 0, 
513, 724894929, 1.2304537296295166, 4.28183126449585, -96.6006088256836, -0.441367506980896, 0.29213201999664307, 9.6815767288208, 7.153557777404785, 8.206713676452637, 12.877388000488281, 0, 
514, 724911596, 1.3482617139816284, 4.356985569000244, -96.36368560791016, -0.7588213086128235, 0.20798645913600922, 9.845741271972656, 7.00532341003418, 4.0868940353393555, 14.637850761413574, 0, 
515, 724928263, 1.4429951906204224, 4.3977813720703125, -96.15312957763672, -0.6830607652664185, 0.24318039417266846, 9.871054649353027, 5.728540420532227, 2.013697624206543, 13.098753929138184, 0, 
516, 724944930, 1.5434470176696777, 4.379141330718994, -95.89068603515625, -0.6504147052764893, 0.35829997062683105, 9.982010841369629, 5.829918384552002, -1.4491491317749023, 16.29124641418457, 0, 
517, 724961597, 1.6675230264663696, 4.367741584777832, -95.63842010498047, -1.056165099143982, 0.34528931975364685, 10.25207233428955, 7.298141956329346, -0.9999528527259827, 15.668585777282715, 0, 
518, 724978264, 1.7659789323806763, 4.518581867218018, -95.49382781982422, -1.0665597915649414, 0.15301018953323364, 10.130023002624512, 6.243854999542236, 8.565237998962402, 8.937378883361816, 0, 
519, 724994931, 1.8279402256011963, 4.803368091583252, -95.42884826660156, -1.0544939041137695, 0.240027517080307, 10.188803672790527, 4.409217357635498, 16.45970916748047, 3.909359931945801, 0, 
520, 725011598, 1.8906055688858032, 5.202051639556885, -95.42406463623047, -1.0526652336120605, 0.4171549081802368, 10.286886215209961, 4.7420854568481445, 23.17641258239746, 0.07459713518619537, 0, 
521, 725028265, 1.9661325216293335, 5.660581588745117, -95.40592193603516, -0.8350569009780884, 0.4151650369167328, 10.0831937789917, 5.4357590675354, 26.791889190673828, 0.7182204127311707, 0, 
522, 725044932, 2.049067258834839, 6.11749267578125, -95.34459686279297, -0.7364836931228638, 0.42158326506614685, 9.870933532714844, 5.605251789093018, 26.784488677978516, 3.254370927810669, 0, 
523, 725061599, 2.1422319412231445, 6.579437732696533, -95.24117279052734, -0.8247613310813904, 0.4995802044868469, 9.823042869567871, 5.910416603088379, 27.182785034179688, 5.704246520996094, 0, 
524, 725078266, 2.258202314376831, 6.955224514007568, -95.11103057861328, -1.1242347955703735, 0.372219055891037, 9.701830863952637, 7.044928073883057, 22.087860107421875, 7.430438041687012, 0, 
525, 725094933, 2.3510336875915527, 7.304433345794678, -95.0077896118164, -1.1875593662261963, 0.28573116660118103, 9.483216285705566, 5.814579486846924, 20.439891815185547, 5.791284561157227, 0, 
526, 725111600, 2.4181735515594482, 7.600924015045166, -94.943359375, -1.45929753780365, 0.28428763151168823, 9.580472946166992, 4.5408935546875, 17.19066047668457, 3.5809409618377686, 0, 
527, 725128267, 2.475677013397217, 7.789627552032471, -94.92288970947266, -1.2625751495361328, 0.30155354738235474, 9.485355377197266, 4.2988762855529785, 10.621898651123047, 1.2263237237930298, 0, 
528, 725144934, 2.513901948928833, 7.908290386199951, -94.86557006835938, -0.9901695251464844, 0.43909183144569397, 9.40511703491211, 2.838540554046631, 6.518151760101318, 3.5845746994018555, 0, 
529, 725161601, 2.5301172733306885, 8.010221481323242, -94.76730346679688, -1.1239955425262451, 0.45792967081069946, 9.520363807678223, 1.170513391494751, 5.625036716461182, 6.056393146514893, 0, 
530, 725178268, 2.548398494720459, 8.162822723388672, -94.7254638671875, -1.5338796377182007, 0.508897066116333, 9.925040245056152, 1.7571213245391846, 8.514778137207031, 2.570875406265259, 0, 
531, 725194935, 2.59440541267395, 8.301377296447754, -94.69131469726562, -1.6529945135116577, 0.4035499393939972, 9.997193336486816, 3.4809205532073975, 7.653679370880127, 2.1437196731567383, 0, 
532, 725211602, 2.6451940536499023, 8.427115440368652, -94.6536636352539, -1.4010721445083618, 0.4149957001209259, 9.90195083618164, 3.732001781463623, 6.896502494812012, 2.3797531127929688, 0, 
533, 725228269, 2.6800003051757812, 8.569403648376465, -94.60398864746094, -1.4116497039794922, 0.3831433057785034, 9.797658920288086, 2.662517547607422, 7.921881675720215, 3.0383453369140625, 0, 
534, 725244936, 2.7079858779907227, 8.731611251831055, -94.56653594970703, -1.530247688293457, 0.5477110147476196, 9.89036750793457, 2.3551523685455322, 9.083251953125, 2.251574754714966, 0, 
535, 725261603, 2.738176107406616, 8.927066802978516, -94.551025390625, -1.5777753591537476, 0.4777899384498596, 9.825716018676758, 2.6821377277374268, 11.015849113464355, 0.8542864322662354, 0, 
536, 725278270, 2.7742421627044678, 9.091119766235352, -94.53801727294922, -1.5115832090377808, 0.46550866961479187, 9.692020416259766, 3.0555832386016846, 9.126358032226562, 0.7898190021514893, 0, 
537, 725294937, 2.831205368041992, 9.202040672302246, -94.51022338867188, -1.5821263790130615, 0.5243889689445496, 9.817927360534668, 4.166419506072998, 5.984703540802002, 1.8101141452789307, 0, 
538, 725311604, 2.900595188140869, 9.280058860778809, -94.48576354980469, -1.5454092025756836, 0.4905639886856079, 9.740239143371582, 4.941227912902832, 4.005147933959961, 1.7028604745864868, 0, 
539, 725328271, 2.968839645385742, 9.341046333312988, -94.4514389038086, -1.4967783689498901, 0.5043169856071472, 9.663128852844238, 4.774668216705322, 3.0153448581695557, 2.3349051475524902, 0, 
540, 725344938, 3.0340588092803955, 9.39181900024414, -94.40711212158203, -1.575493574142456, 0.4541536867618561, 9.688383102416992, 4.494337558746338, 2.4377787113189697, 2.952965259552002, 0, 
541, 725361605, 3.111008882522583, 9.424640655517578, -94.33890533447266, -1.520287036895752, 0.6168716549873352, 9.790438652038574, 4.961795330047607, 1.4402533769607544, 4.417973041534424, 0, 
542, 725378272, 3.205883264541626, 9.465837478637695, -94.27191162109375, -1.6296849250793457, 0.5833345651626587, 9.859565734863281, 6.045917510986328, 1.9444011449813843, 4.314268112182617, 0, 
543, 725394939, 3.291043281555176, 9.532609939575195, -94.20658111572266, -1.591160774230957, 0.4945354163646698, 9.752549171447754, 5.4762139320373535, 3.4763996601104736, 4.125143527984619, 0, 
544, 725411606, 3.3557920455932617, 9.575088500976562, -94.10594940185547, -1.5001118183135986, 0.463507741689682, 9.60910415649414, 3.896716833114624, 2.1480863094329834, 6.287970066070557, 0, 
545, 725428273, 3.3992278575897217, 9.587457656860352, -94.01557159423828, -1.7208104133605957, 0.5093497633934021, 9.653368949890137, 2.717290163040161, 0.31330737471580505, 5.78507661819458, 0, 
546, 725444940, 3.440035104751587, 9.622258186340332, -93.95647430419922, -1.79849112033844, 0.5721895694732666, 9.721735000610352, 2.870760917663574, 1.5507465600967407, 3.8567991256713867, 0, 
547, 725461607, 3.48305082321167, 9.683732986450195, -93.91534423828125, -1.7033541202545166, 0.5763205885887146, 9.7052001953125, 3.1812002658843994, 3.086151599884033, 2.6973636150360107, 0, 
548, 725478274, 3.5231642723083496, 9.788087844848633, -93.89535522460938, -1.5691006183624268, 0.6358439326286316, 9.74025821685791, 3.2170968055725098, 5.57899808883667, 1.2893052101135254, 0, 
549, 725494941, 3.552029848098755, 9.886631965637207, -93.88423919677734, -1.6526094675064087, 0.5310117602348328, 9.722622871398926, 2.631948232650757, 5.1997880935668945, 0.7829161882400513, 0, 
550, 725511608, 3.5636026859283447, 10.012333869934082, -93.8846435546875, -1.6345160007476807, 0.6110767126083374, 9.789244651794434, 1.7123758792877197, 6.783422946929932, 1.2806353879568633E-5, 0, 
551, 725528275, 3.5829315185546875, 10.169297218322754, -93.89500427246094, -1.777661681175232, 0.7082070112228394, 9.924857139587402, 2.282527446746826, 8.619251251220703, -0.7057260870933533, 0, 
552, 725544942, 3.6243033409118652, 10.33198070526123, -93.90786743164062, -1.867479920387268, 0.6489081978797913, 9.964784622192383, 3.6333162784576416, 8.951103210449219, -0.880212664604187, 0, 
553, 725561609, 3.6750080585479736, 10.490687370300293, -93.9197769165039, -1.687122106552124, 0.6587705016136169, 9.808113098144531, 4.185500144958496, 8.71603012084961, -0.815194845199585, 0, 
554, 725578276, 3.71114444732666, 10.696551322937012, -93.93025970458984, -1.8540308475494385, 0.5685436129570007, 9.745847702026367, 3.297559976577759, 11.543265342712402, -0.9208729863166809, 0, 
555, 725594943, 3.728307008743286, 10.931451797485352, -93.93910217285156, -1.7955242395401, 0.6493924856185913, 9.770352363586426, 2.1426827907562256, 13.288159370422363, -0.9428359866142273, 0, 
556, 725611610, 3.7375640869140625, 11.161033630371094, -93.93214416503906, -1.8962759971618652, 0.6013413071632385, 9.682764053344727, 1.4893922805786133, 13.029674530029297, 0.004059615079313517, 0, 
557, 725628277, 3.73913836479187, 11.410737991333008, -93.93624877929688, -1.9192287921905518, 0.6257659792900085, 9.574100494384766, 1.1563756465911865, 14.191967010498047, -0.7261013388633728, 0, 
558, 725644944, 3.7439730167388916, 11.650312423706055, -93.92054748535156, -1.9056981801986694, 0.6814059615135193, 9.636725425720215, 1.1159331798553467, 13.662014961242676, 0.47532081604003906, 0, 
559, 725661611, 3.7549567222595215, 11.850996017456055, -93.90596008300781, -2.014458179473877, 0.6324885487556458, 9.587932586669922, 1.49457848072052, 11.32907772064209, 0.5597529411315918, 0, 
560, 725678278, 3.7543933391571045, 12.09930419921875, -93.93976593017578, -1.9954174757003784, 0.6674299836158752, 9.627767562866211, 1.4001448154449463, 13.994226455688477, -2.461951971054077, 0, 
561, 725694945, 3.744624376296997, 12.372086524963379, -94.00452423095703, -2.0018234252929688, 0.6291152834892273, 9.63895034790039, 1.2510660886764526, 15.340611457824707, -4.367909908294678, 0, 
562, 725711612, 3.740187406539917, 12.594999313354492, -94.04363250732422, -1.9893574714660645, 0.6227541565895081, 9.58340835571289, 1.2546900510787964, 12.454463005065918, -2.6654703617095947, 0, 
563, 725728279, 3.7328286170959473, 12.777684211730957, -94.0643310546875, -2.1150848865509033, 0.5453687310218811, 9.539470672607422, 0.844361424446106, 10.116519927978516, -1.4310524463653564, 0, 
564, 725744946, 3.725447416305542, 12.935479164123535, -94.05692291259766, -2.100724220275879, 0.6433066129684448, 9.61283016204834, 0.4715426564216614, 8.734251022338867, 0.30819764733314514, 0, 
565, 725761613, 3.7592644691467285, 13.061408042907715, -94.01895141601562, -2.241669178009033, 0.7183075547218323, 9.75954818725586, 2.531277656555176, 6.942451477050781, 2.212655544281006, 0, 
566, 725778280, 3.814615488052368, 13.148749351501465, -93.95860290527344, -2.2493138313293457, 0.5380319952964783, 9.595609664916992, 3.5131537914276123, 4.719563961029053, 3.6640512943267822, 0, 
567, 725794947, 3.846999406814575, 13.286806106567383, -93.92973327636719, -2.2880747318267822, 0.538054883480072, 9.527937889099121, 2.5607712268829346, 7.635903358459473, 1.6210025548934937, 0, 
568, 725811614, 3.8791534900665283, 13.415555000305176, -93.88479614257812, -2.3051743507385254, 0.6407196521759033, 9.59093952178955, 2.320216655731201, 7.14182186126709, 2.588496685028076, 0, 
569, 725828281, 3.9264652729034424, 13.519928932189941, -93.82196044921875, -2.427464485168457, 0.6416165232658386, 9.616338729858398, 2.9740707874298096, 5.755354881286621, 3.7226150035858154, 0, 
570, 725844948, 3.9487786293029785, 13.64893627166748, -93.78459930419922, -2.435774803161621, 0.5089903473854065, 9.423683166503906, 1.8265700340270996, 7.130128383636475, 2.1334612369537354, 0, 
571, 725861615, 3.9612672328948975, 13.789278984069824, -93.74437713623047, -2.306673049926758, 0.6416144967079163, 9.443568229675293, 1.1912341117858887, 7.819162368774414, 2.2490901947021484, 0, 
572, 725878282, 3.983335256576538, 13.940223693847656, -93.6947021484375, -2.209459066390991, 0.7274924516677856, 9.494889259338379, 1.6234999895095825, 8.49316120147705, 2.7506253719329834, 0, 
573, 725894949, 4.029778480529785, 14.07689094543457, -93.62255096435547, -2.2684881687164307, 0.7878731489181519, 9.613935470581055, 2.7530839443206787, 7.7312331199646, 4.107279300689697, 0, 
574, 725911616, 4.081410884857178, 14.194165229797363, -93.57247924804688, -2.33964467048645, 0.6910844445228577, 9.53477954864502, 3.3778932094573975, 6.482767581939697, 2.898564338684082, 0, 
575, 725928283, 4.13931941986084, 14.279923439025879, -93.50562286376953, -2.280200481414795, 0.7379768490791321, 9.483089447021484, 3.5018584728240967, 4.668927192687988, 4.001075744628906, 0, 
576, 725944950, 4.188345909118652, 14.3421630859375, -93.42108154296875, -2.304079294204712, 0.7075061202049255, 9.415753364562988, 2.701256275177002, 3.339691400527954, 5.123257637023926, 0, 
577, 725961617, 4.216858386993408, 14.447380065917969, -93.37240600585938, -2.482238531112671, 0.7157965898513794, 9.549190521240234, 1.9982389211654663, 5.760834217071533, 2.847709894180298, 0, 
578, 725978284, 4.248180866241455, 14.600613594055176, -93.3686294555664, -2.5443124771118164, 0.8342337012290955, 9.70140266418457, 2.836427927017212, 8.443164825439453, 0.030760863795876503, 0, 
579, 725994951, 4.281516075134277, 14.744022369384766, -93.36275482177734, -2.501230239868164, 0.6888599395751953, 9.555231094360352, 2.924086809158325, 7.864482402801514, 0.19148056209087372, 0, 
580, 726011618, 4.291160583496094, 14.910656929016113, -93.36326599121094, -2.4727673530578613, 0.7407038807868958, 9.55993938446045, 1.6000514030456543, 9.22533893585205, -0.2847684919834137, 0, 
581, 726028285, 4.2873101234436035, 15.065048217773438, -93.36279296875, -2.5344855785369873, 0.6786426305770874, 9.523573875427246, 0.7753734588623047, 8.497834205627441, -0.17476189136505127, 0, 
582, 726044952, 4.2654571533203125, 15.222314834594727, -93.3602066040039, -2.464259147644043, 0.6673581600189209, 9.367568969726562, -0.33836308121681213, 8.67943000793457, -0.06356433779001236, 0, 
583, 726061619, 4.250400543212891, 15.429991722106934, -93.36738586425781, -2.6432108879089355, 0.7989351749420166, 9.600394248962402, 0.22461064159870148, 11.652731895446777, -0.8482736349105835, 0, 
584, 726078286, 4.2750043869018555, 15.614432334899902, -93.35819244384766, -2.760016918182373, 0.7564495205879211, 9.61950397491455, 2.3413093090057373, 10.334012031555176, 0.19926689565181732, 0, 
585, 726094953, 4.319303512573242, 15.749197006225586, -93.32877349853516, -2.6215765476226807, 0.6949227452278137, 9.486860275268555, 3.194403886795044, 7.4486494064331055, 1.5813157558441162, 0, 
586, 726111620, 4.364015579223633, 15.870477676391602, -93.27476501464844, -2.617765426635742, 0.7133132815361023, 9.392987251281738, 2.813594341278076, 6.749614238739014, 3.0488085746765137, 0, 
587, 726128287, 4.407232284545898, 15.978221893310547, -93.20085906982422, -2.5829076766967773, 0.7404888868331909, 9.391045570373535, 2.390075206756592, 6.029640197753906, 4.24817419052124, 0, 
588, 726144954, 4.447505950927734, 16.082780838012695, -93.12943267822266, -2.676596164703369, 0.7007232904434204, 9.39743423461914, 2.2460296154022217, 5.831321716308594, 4.114399433135986, 0, 
589, 726161621, 4.505940914154053, 16.14138412475586, -93.03387451171875, -2.7116215229034424, 0.7542189955711365, 9.459704399108887, 2.9283385276794434, 3.193545341491699, 5.707213878631592, 0, 
590, 726178288, 4.561481952667236, 16.19066047668457, -92.94385528564453, -2.7409157752990723, 0.6839830875396729, 9.391144752502441, 2.8417420387268066, 2.6155436038970947, 5.429457664489746, 0, 
591, 726194955, 4.5947346687316895, 16.28631019592285, -92.89151000976562, -2.811394691467285, 0.7064803838729858, 9.42593002319336, 2.130387783050537, 5.219472408294678, 3.0390241146087646, 0, 
592, 726211622, 4.627258777618408, 16.380531311035156, -92.83756256103516, -2.8293662071228027, 0.6942731738090515, 9.469176292419434, 2.054804801940918, 5.143466472625732, 3.13289475440979, 0, 
593, 726228289, 4.642885208129883, 16.484237670898438, -92.81306457519531, -2.7580955028533936, 0.7295520305633545, 9.376460075378418, 1.5354559421539307, 5.573938369750977, 1.3945475816726685, 0, 
594, 726244956, 4.6789870262146, 16.539363861083984, -92.77273559570312, -2.7128169536590576, 0.8610755801200867, 9.481026649475098, 2.4917826652526855, 2.742518186569214, 2.5334672927856445, 0, 
595, 726261623, 4.734287738800049, 16.57556915283203, -92.7260513305664, -2.8619484901428223, 0.7660696506500244, 9.459820747375488, 3.5335662364959717, 1.6438997983932495, 2.9898087978363037, 0, 
