sep=,
DeviceTag:,Xsens_4,,,,,,,,,,,,,,,,,
FirmwareVersion:,2.2.1,,,,,,,,,,,,,,,,,
AppVersion:,2023.0.0,,,,,,,,,,,,,,,,,
StartTime:,2023-07-03 16:01:46.000 +0200,,,,,,,,,,,,,,,,,
© Movella Technologies B. V. 2005-2023,,,,,,,,,,,,,,,,,,,

PacketCounter,SampleTimeFine,Quat_W,Quat_X,Quat_Y,Quat_Z,Acc_X,Acc_Y,Acc_Z,Gyr_X,Gyr_Y,Gyr_Z,Mag_X,Mag_Y,Mag_Z,Status,
0, 2164100448, 0.7252823, 0.31222168, -0.5907659, 0.16576813, 0.0, 0.0, 0.0, 0.0, 0.0, 0.0, -0.525146484375, 0.1044921875, -0.248046875, 0, 
1, 2164117115, 0.7214846, 0.3055061, -0.5994815, 0.16354817, 9.757896423339844, 2.0145325660705566, 1.9105615615844727, -20.812767028808594, -89.0088119506836, 15.792966842651367, -0.531494140625, 0.11279296875, -0.225341796875, 0, 
2, 2164133782, 0.71954334, 0.2973434, -0.60615236, 0.16255423, 9.40910816192627, 2.253389596939087, 1.9211180210113525, -23.63279151916504, -85.87771606445312, 11.544988632202148, -0.540283203125, 0.117431640625, -0.203857421875, 0, 
3, 2164150449, 0.718479, 0.29114434, -0.61105114, 0.16012387, 9.542986869812012, 3.008402109146118, 2.3440351486206055, -29.879779815673828, -81.3554458618164, 8.72400188446045, -0.5478515625, 0.1240234375, -0.1806640625, 0, 
4, 2164167116, 0.7190651, 0.2863259, -0.6140907, 0.15445356, 9.93555736541748, 3.093754768371582, 2.70383358001709, -39.490745544433594, -77.48994445800781, 7.273708343505859, -0.558349609375, 0.132568359375, -0.15625, 0, 
5, 2164183783, 0.7208568, 0.2809505, -0.6162127, 0.14735818, 10.328530311584473, 2.2299509048461914, 2.7190279960632324, -49.900917053222656, -71.73700714111328, 7.231947898864746, -0.564208984375, 0.138671875, -0.134033203125, 0, 
6, 2164200450, 0.72298574, 0.27372202, -0.6183858, 0.14130482, 10.372650146484375, 1.401267170906067, 2.303469657897949, -55.49457550048828, -62.34488296508789, 9.356647491455078, -0.570068359375, 0.14208984375, -0.111572265625, 0, 
7, 2164217117, 0.7250248, 0.26497433, -0.6207397, 0.13715075, 9.890613555908203, 1.5911076068878174, 2.1882081031799316, -56.286407470703125, -48.96786880493164, 12.743965148925781, -0.5732421875, 0.1494140625, -0.0927734375, 0, 
8, 2164233784, 0.72756326, 0.2558304, -0.6225061, 0.13300031, 9.377418518066406, 2.610957622528076, 2.7826106548309326, -60.28483581542969, -35.9032096862793, 9.769285202026367, -0.57666015625, 0.1630859375, -0.077392578125, 0, 
9, 2164250451, 0.73068345, 0.2471958, -0.62340736, 0.12790422, 9.464252471923828, 3.3614134788513184, 2.8954923152923584, -63.16301345825195, -29.49080467224121, 6.785336494445801, -0.580810546875, 0.16650390625, -0.060302734375, 0, 
10, 2164267118, 0.7343173, 0.23981391, -0.6232879, 0.121572345, 9.647192001342773, 2.5741400718688965, 2.173431634902954, -63.37833786010742, -23.522899627685547, 0.2165396362543106, -0.5810546875, 0.1708984375, -0.04833984375, 0, 
11, 2164283785, 0.7378577, 0.23292875, -0.6229687, 0.11498163, 10.446672439575195, 1.5532493591308594, 1.003891110420227, -62.916751861572266, -18.360626220703125, -2.7460944652557373, -0.585693359375, 0.172607421875, -0.03369140625, 0, 
12, 2164300452, 0.74072415, 0.22863546, -0.6218407, 0.11121134, 11.019269943237305, 1.4371094703674316, 0.2299593836069107, -37.337074279785156, -5.976446151733398, -3.919620990753174, -0.583984375, 0.17822265625, -0.025634765625, 0, 
13, 2164317119, 0.74232024, 0.22922502, -0.6194427, 0.11272727, 10.808201789855957, 2.3172011375427246, 0.3915233612060547, 11.662846565246582, 8.270148277282715, -1.6460782289505005, -0.585205078125, 0.176025390625, -0.02685546875, 0, 
14, 2164333786, 0.7428222, 0.2323768, -0.616992, 0.11634925, 10.222872734069824, 2.989927053451538, 1.150463342666626, 34.264984130859375, 10.714012145996094, -0.3355022668838501, -0.58447265625, 0.172607421875, -0.03369140625, 0, 
15, 2164350453, 0.74334294, 0.23326617, -0.61599433, 0.11653036, 9.743484497070312, 3.0357754230499268, 0.8862339854240417, 6.204723358154297, 1.7254449129104614, -3.782343626022339, -0.583984375, 0.17041015625, -0.037109375, 0, 
16, 2164367120, 0.74423146, 0.23020868, -0.61682755, 0.11246094, 9.384684562683105, 3.419955015182495, 0.5404500365257263, -34.648807525634766, -7.8381876945495605, -4.426906585693359, -0.586181640625, 0.17431640625, -0.035400390625, 0, 
17, 2164383787, 0.7449368, 0.22442216, -0.6193119, 0.10562709, 9.404358863830566, 3.1956470012664795, 0.49941352009773254, -61.97711181640625, -17.484188079833984, -2.308403968811035, -0.588623046875, 0.176513671875, -0.02392578125, 0, 
18, 2164400454, 0.74529797, 0.21655418, -0.6230505, 0.09717738, 9.458230018615723, 2.1185128688812256, 0.1612343043088913, -80.30748748779297, -25.012523651123047, 1.4676249027252197, -0.5927734375, 0.182861328125, -0.003662109375, 0, 
19, 2164417121, 0.74549836, 0.20777945, -0.6270263, 0.0888712, 9.294730186462402, 1.9384093284606934, 0.43679118156433105, -84.43495178222656, -24.675861358642578, 5.782219409942627, -0.590576171875, 0.1884765625, 0.012939453125, 0, 
20, 2164433788, 0.74505776, 0.20013466, -0.6309695, 0.08193285, 9.342849731445312, 1.310895562171936, 0.3281186521053314, -71.82586669921875, -25.348169326782227, 7.525633335113525, -0.59130859375, 0.1923828125, 0.030517578125, 0, 
21, 2164450455, 0.74439895, 0.193532, -0.63452643, 0.076105274, 9.57951831817627, 1.169155478477478, 0.051242727786302567, -61.09001922607422, -22.769792556762695, 7.026905536651611, -0.591552734375, 0.1982421875, 0.0400390625, 0, 
22, 2164467122, 0.744064, 0.18598036, -0.63787013, 0.070013836, 9.622013092041016, 2.305485486984253, 0.6967015862464905, -67.40184783935547, -19.38285255432129, 8.238873481750488, -0.59326171875, 0.200927734375, 0.05810546875, 0, 
23, 2164483789, 0.74387515, 0.17675254, -0.6414237, 0.06312329, 9.511625289916992, 2.649327039718628, 0.8963977098464966, -79.75284576416016, -20.11771583557129, 11.913660049438477, -0.590576171875, 0.205078125, 0.072265625, 0, 
24, 2164500456, 0.7437613, 0.16627021, -0.6450681, 0.055322796, 9.502668380737305, 2.382087469100952, 0.6218966245651245, -90.2948989868164, -21.127952575683594, 13.387537002563477, -0.592529296875, 0.214111328125, 0.090087890625, 0, 
25, 2164517123, 0.743541, 0.15545087, -0.64865065, 0.047270037, 9.537252426147461, 1.9114477634429932, 0.5696895122528076, -92.97616577148438, -21.527231216430664, 13.805893898010254, -0.592529296875, 0.217529296875, 0.10693359375, 0, 
26, 2164533790, 0.7429409, 0.14575258, -0.6520583, 0.04019018, 9.739733695983887, 1.208087682723999, 0.3407265841960907, -82.39695739746094, -21.709877014160156, 13.598580360412598, -0.587158203125, 0.223388671875, 0.122314453125, 0, 
27, 2164550457, 0.7420241, 0.13809015, -0.6550781, 0.03470387, 9.84263801574707, 0.9653415679931641, 0.540077805519104, -64.36264038085938, -20.00457763671875, 11.7421875, -0.5888671875, 0.228515625, 0.13818359375, 0, 
28, 2164567124, 0.7408214, 0.13170767, -0.65797824, 0.03002373, 9.98031234741211, 1.678980827331543, 0.677478551864624, -53.807491302490234, -20.267560958862305, 9.435774803161621, -0.590087890625, 0.231201171875, 0.150146484375, 0, 
29, 2164583791, 0.73943526, 0.12582813, -0.66085917, 0.025851343, 10.111587524414062, 2.382211208343506, 0.823343813419342, -48.73061752319336, -20.78476333618164, 9.683741569519043, -0.585693359375, 0.234619140625, 0.16259765625, 0, 
30, 2164600458, 0.737976, 0.12046644, -0.66361547, 0.02222699, 10.168892860412598, 2.034080743789673, 0.9281425476074219, -43.499603271484375, -20.324438095092773, 10.335369110107422, -0.584716796875, 0.23876953125, 0.178466796875, 0, 
31, 2164617125, 0.73662764, 0.11537817, -0.66612417, 0.018616205, 10.024752616882324, 1.5798050165176392, 1.1850510835647583, -42.052940368652344, -18.864337921142578, 9.025876998901367, -0.5830078125, 0.24267578125, 0.1875, 0, 
32, 2164633792, 0.73572665, 0.110006414, -0.6681297, 0.0144276, 9.817862510681152, 2.0132064819335938, 1.3829209804534912, -46.34788131713867, -15.075557708740234, 6.819676399230957, -0.583740234375, 0.2421875, 0.19775390625, 0, 
33, 2164650459, 0.7349526, 0.10454339, -0.66993326, 0.010242887, 9.636470794677734, 2.1376867294311523, 1.1948654651641846, -46.80438995361328, -13.905804634094238, 7.2053680419921875, -0.58203125, 0.2451171875, 0.20751953125, 0, 
34, 2164667126, 0.73439884, 0.09925336, -0.6713938, 0.00616081, 9.621297836303711, 1.8530056476593018, 1.082617998123169, -45.55136489868164, -11.421881675720215, 6.825281143188477, -0.579833984375, 0.243896484375, 0.214111328125, 0, 
35, 2164683793, 0.7340744, 0.094296806, -0.6724867, 0.0021680074, 9.67898178100586, 1.8630200624465942, 1.0708523988723755, -43.55979919433594, -8.704113960266113, 5.504098892211914, -0.5810546875, 0.246826171875, 0.227783203125, 0, 
36, 2164700460, 0.73406917, 0.08934202, -0.6731698, -0.0018269508, 9.812373161315918, 2.1782002449035645, 1.1526579856872559, -43.727508544921875, -5.371033191680908, 5.240746974945068, -0.578857421875, 0.248046875, 0.232421875, 0, 
37, 2164717127, 0.7342188, 0.084454976, -0.6736138, -0.005912764, 9.95462417602539, 1.960842251777649, 0.9351602792739868, -43.88987731933594, -3.716735363006592, 4.453086853027344, -0.57958984375, 0.245849609375, 0.239013671875, 0, 
38, 2164733794, 0.7345166, 0.079599895, -0.67382854, -0.0102179395, 9.998176574707031, 1.622408151626587, 0.8532283902168274, -44.82984161376953, -2.1084392070770264, 3.102161407470703, -0.576171875, 0.252197265625, 0.25, 0, 
39, 2164750461, 0.7349199, 0.07517407, -0.6738233, -0.01429594, 9.884502410888672, 1.5913856029510498, 0.891973078250885, -41.67523956298828, -0.4204734265804291, 2.066784620285034, -0.5791015625, 0.248046875, 0.25390625, 0, 
40, 2164767128, 0.73553926, 0.070720665, -0.67352957, -0.018411495, 9.810257911682129, 2.0390512943267822, 1.1324195861816406, -42.11094665527344, 1.9497087001800537, 1.799655556678772, -0.580810546875, 0.248046875, 0.260009765625, 0, 
41, 2164783795, 0.7363189, 0.06619196, -0.67302245, -0.022230228, 9.874812126159668, 2.0327343940734863, 1.0428404808044434, -41.21642303466797, 3.7780563831329346, 3.6316661834716797, -0.58203125, 0.246337890625, 0.267333984375, 0, 
42, 2164800462, 0.73728514, 0.061616328, -0.6722583, -0.026135992, 9.805356979370117, 1.5675508975982666, 0.8482638597488403, -41.98256301879883, 5.815906047821045, 3.37199068069458, -0.57861328125, 0.248291015625, 0.26953125, 0, 
43, 2164817129, 0.73857653, 0.056759045, -0.6710694, -0.030813474, 9.805792808532715, 1.77849280834198, 0.8445788025856018, -47.18960189819336, 9.079500198364258, 0.5671402215957642, -0.576904296875, 0.24755859375, 0.27587890625, 0, 
44, 2164833796, 0.7399596, 0.052215613, -0.6697013, -0.035129536, 9.782051086425781, 1.7079733610153198, 0.7170904874801636, -44.01179504394531, 10.615253448486328, 0.8909377455711365, -0.5751953125, 0.2470703125, 0.28271484375, 0, 
45, 2164850463, 0.74138045, 0.047683846, -0.66820407, -0.039808284, 9.675456047058105, 1.5616179704666138, 0.6095765829086304, -45.67924499511719, 11.356956481933594, -1.070644736289978, -0.580322265625, 0.24365234375, 0.284912109375, 0, 
46, 2164867130, 0.7429281, 0.04279023, -0.66647285, -0.045175936, 9.753188133239746, 1.8785579204559326, 0.6619570851325989, -50.80819320678711, 12.872893333435059, -3.017115592956543, -0.578125, 0.244384765625, 0.287109375, 0, 
47, 2164883797, 0.7444915, 0.03746362, -0.66460866, -0.051231872, 9.620171546936035, 2.029874086380005, 0.6794304847717285, -56.239959716796875, 13.344240188598633, -4.562610626220703, -0.579833984375, 0.240478515625, 0.2919921875, 0, 
48, 2164900464, 0.74604607, 0.031346075, -0.66262364, -0.057990674, 9.806796073913574, 1.9385380744934082, 0.468851774930954, -63.56232833862305, 13.513057708740234, -4.527880668640137, -0.583251953125, 0.2353515625, 0.296630859375, 0, 
49, 2164917131, 0.7475825, 0.02518629, -0.6605103, -0.06490334, 9.769318580627441, 1.5798192024230957, 0.4847099483013153, -64.55896759033203, 14.141865730285645, -5.13554048538208, -0.582275390625, 0.23193359375, 0.30224609375, 0, 
50, 2164933798, 0.7490238, 0.01955932, -0.6583372, -0.07192482, 9.86732292175293, 1.4606132507324219, 0.5054594874382019, -62.3434944152832, 14.336281776428223, -8.215149879455566, -0.584716796875, 0.229736328125, 0.308837890625, 0, 
51, 2164950465, 0.75043064, 0.014355831, -0.6560753, -0.07882462, 10.040789604187012, 1.6486035585403442, 0.6579096913337708, -59.667964935302734, 14.965967178344727, -9.60414981842041, -0.588623046875, 0.22509765625, 0.316162109375, 0, 
52, 2164967132, 0.7519317, 0.0097625395, -0.65369624, -0.08476408, 9.97614574432373, 1.5919976234436035, 1.2397395372390747, -52.278053283691406, 16.505966186523438, -7.395657062530518, -0.589111328125, 0.22021484375, 0.319580078125, 0, 
53, 2164983799, 0.7536237, 0.0063657146, -0.65118873, -0.089243576, 9.883584022521973, 1.4218353033065796, 1.6665064096450806, -39.62312698364258, 18.811330795288086, -5.164745807647705, -0.591064453125, 0.216796875, 0.320556640625, 0, 
54, 2165000466, 0.7555931, 0.003593808, -0.6484321, -0.0927492, 9.919583320617676, 1.1733359098434448, 1.46871018409729, -32.183349609375, 21.69927978515625, -2.82749080657959, -0.59326171875, 0.2138671875, 0.31884765625, 0, 
55, 2165017133, 0.757701, 0.001342641, -0.645554, -0.0956444, 9.976397514343262, 1.1329138278961182, 1.452093482017517, -26.832773208618164, 23.279233932495117, -2.0012567043304443, -0.59033203125, 0.212158203125, 0.318359375, 0, 
56, 2165033800, 0.75981003, -3.2585615E-4, -0.6427169, -0.09799852, 9.75632095336914, 1.3752814531326294, 1.3347901105880737, -21.36206817626953, 23.46521759033203, -1.8746386766433716, -0.595947265625, 0.21435546875, 0.314208984375, 0, 
57, 2165050467, 0.7616652, -0.0016854559, -0.6402374, -0.099797614, 9.663445472717285, 1.5643073320388794, 1.5330471992492676, -17.060970306396484, 20.716045379638672, -0.571010947227478, -0.599365234375, 0.212646484375, 0.3125, 0, 
58, 2165067134, 0.7632877, -0.0027411068, -0.6381049, -0.101028115, 9.819448471069336, 1.345583438873291, 1.7680684328079224, -12.734271049499512, 18.087596893310547, 0.8833770751953125, -0.59765625, 0.211669921875, 0.30859375, 0, 
59, 2165083801, 0.76478255, -0.0033403623, -0.6361563, -0.101990834, 10.010824203491211, 1.3867086172103882, 1.9636589288711548, -9.033726692199707, 16.863506317138672, 0.13725224137306213, -0.595947265625, 0.21044921875, 0.30810546875, 0, 
60, 2165100468, 0.7661747, -0.003870358, -0.6343811, -0.10258014, 10.150378227233887, 1.7412948608398438, 2.040947437286377, -6.912208557128906, 15.518590927124023, 1.6730809211730957, -0.596435546875, 0.213134765625, 0.302978515625, 0, 
61, 2165117135, 0.76752096, -0.004460214, -0.632726, -0.10271045, 9.99630069732666, 1.2694851160049438, 1.8873566389083862, -5.147132396697998, 14.611642837524414, 4.31662130355835, -0.595458984375, 0.2099609375, 0.30126953125, 0, 
62, 2165133802, 0.7687722, -0.005077554, -0.63116634, -0.10292175, 9.704691886901855, 1.0959646701812744, 1.8099256753921509, -5.570959091186523, 13.683921813964844, 3.879539728164673, -0.59423828125, 0.212158203125, 0.299072265625, 0, 
63, 2165150469, 0.7698299, -0.005470554, -0.6298472, -0.10307626, 9.550932884216309, 1.3860446214675903, 1.8800054788589478, -3.9660139083862305, 11.740233421325684, 2.9883060455322266, -0.59521484375, 0.21044921875, 0.29736328125, 0, 
64, 2165167136, 0.77080256, -0.005722321, -0.6286576, -0.10305628, 9.533855438232422, 1.6628526449203491, 2.0099189281463623, -2.3729796409606934, 10.784917831420898, 3.2091128826141357, -0.595947265625, 0.216064453125, 0.29638671875, 0, 
65, 2165183803, 0.7716159, -0.005827276, -0.62766355, -0.10302355, 9.58318042755127, 1.6239266395568848, 1.9520223140716553, -1.4124767780303955, 9.1557035446167, 2.533205509185791, -0.595947265625, 0.213134765625, 0.2939453125, 0, 
66, 2165200470, 0.77231, -0.0059439167, -0.6268015, -0.10306395, 9.658308029174805, 1.6197113990783691, 1.874129295349121, -1.7050247192382812, 7.939675807952881, 2.112516164779663, -0.593017578125, 0.21484375, 0.291748046875, 0, 
67, 2165217137, 0.7728987, -0.006123197, -0.6260406, -0.10326406, 9.695740699768066, 1.7763911485671997, 1.9117815494537354, -2.66448974609375, 6.92990779876709, 1.4605581760406494, -0.596923828125, 0.216064453125, 0.287841796875, 0, 
68, 2165233804, 0.77337384, -0.0063150316, -0.62542194, -0.10344436, 9.697176933288574, 1.8111143112182617, 1.8689855337142944, -2.5606558322906494, 5.694235801696777, 1.5547232627868652, -0.597412109375, 0.21435546875, 0.28662109375, 0, 
69, 2165250471, 0.77379006, -0.006681043, -0.6248582, -0.10371562, 9.658087730407715, 1.5659375190734863, 1.8850979804992676, -3.8500239849090576, 5.0517401695251465, 1.8028841018676758, -0.595703125, 0.21484375, 0.287109375, 0, 
70, 2165267138, 0.77415943, -0.00702963, -0.624305, -0.104265645, 9.626422882080078, 1.5360225439071655, 2.0382742881774902, -4.952511787414551, 4.84067964553833, 0.20919819176197052, -0.596923828125, 0.216064453125, 0.28955078125, 0, 
71, 2165283805, 0.77449334, -0.0070426427, -0.62381864, -0.104696706, 9.676044464111328, 1.6579424142837524, 2.054133415222168, -2.6099472045898438, 4.57204008102417, -0.6303157806396484, -0.596923828125, 0.21435546875, 0.28662109375, 0, 
72, 2165300472, 0.77482396, -0.006986851, -0.623338, -0.10511498, 9.724157333374023, 1.826255440711975, 2.0012080669403076, -2.1878621578216553, 4.5813889503479, -0.8502007126808167, -0.595703125, 0.21484375, 0.28662109375, 0, 
73, 2165317139, 0.7750369, -0.0069802334, -0.6229973, -0.10556375, 9.774837493896484, 1.6477748155593872, 1.9842441082000732, -2.4955732822418213, 3.311945915222168, -0.8691285252571106, -0.5986328125, 0.21435546875, 0.28662109375, 0, 
74, 2165333806, 0.77520835, -0.006862774, -0.62268335, -0.10616352, 9.839578628540039, 1.6061975955963135, 2.1900155544281006, -2.538628578186035, 3.096147060394287, -2.1749536991119385, -0.59521484375, 0.21435546875, 0.285400390625, 0, 
75, 2165350473, 0.77533275, -0.006655303, -0.62242234, -0.106797986, 9.857868194580078, 1.8769826889038086, 2.1594016551971436, -2.1707916259765625, 2.678070306777954, -2.7823588848114014, -0.596923828125, 0.216552734375, 0.28564453125, 0, 
76, 2165367140, 0.7754234, -0.0063520046, -0.62224114, -0.10721293, 9.833685874938965, 1.9256211519241333, 2.1281328201293945, -0.6743056774139404, 2.171938180923462, -2.025081157684326, -0.59814453125, 0.213134765625, 0.288818359375, 0, 
77, 2165383807, 0.7754996, -0.006059059, -0.62210906, -0.10744366, 9.724698066711426, 1.5722194910049438, 2.095937490463257, 0.08816531300544739, 1.8396000862121582, -0.9822469353675842, -0.596923828125, 0.213623046875, 0.28662109375, 0, 
78, 2165400474, 0.77549845, -0.005395067, -0.62206876, -0.10772029, 9.548836708068848, 1.1587343215942383, 1.9762402772903442, 1.9354816675186157, 1.3039491176605225, -2.880481243133545, -0.59912109375, 0.21484375, 0.287841796875, 0, 
79, 2165417141, 0.7754257, -0.004323328, -0.62210274, -0.10809606, 9.567267417907715, 1.717454195022583, 2.123131275177002, 3.7464916706085205, 0.9212184548377991, -5.253561973571777, -0.596923828125, 0.209716796875, 0.287109375, 0, 
80, 2165433808, 0.7754079, -0.003425131, -0.62206763, -0.108457394, 9.718541145324707, 2.240582227706909, 2.1607768535614014, 2.82915997505188, 1.3986135721206665, -4.380784034729004, -0.59814453125, 0.212646484375, 0.287841796875, 0, 
81, 2165450475, 0.7753609, -0.0029578723, -0.62207943, -0.108739026, 9.756916046142578, 1.6944745779037476, 1.9351167678833008, 0.8953879475593567, 0.7057387828826904, -2.0818259716033936, -0.5986328125, 0.209716796875, 0.287109375, 0, 
82, 2165467142, 0.77525896, -0.0022414199, -0.6221441, -0.10911208, 9.713611602783203, 1.090744972229004, 1.8484570980072021, 1.8655842542648315, 0.4001152217388153, -3.6759729385375977, -0.600830078125, 0.20751953125, 0.284912109375, 0, 
83, 2165483809, 0.77501637, -3.0128838E-4, -0.62247336, -0.10898077, 9.658716201782227, 1.1935648918151855, 1.7906466722488403, 10.750825881958008, -0.6716549396514893, -6.388065814971924, -0.596923828125, 0.209716796875, 0.28662109375, 0, 
84, 2165500476, 0.7746412, 0.0020635491, -0.62296784, -0.10880234, 9.735335350036621, 2.1785247325897217, 1.9841042757034302, 13.342621803283691, -1.7682640552520752, -8.099780082702637, -0.6015625, 0.20703125, 0.28369140625, 0, 
85, 2165517143, 0.77409667, 0.0035478063, -0.62364817, -0.10874268, 9.887410163879395, 2.9850409030914307, 2.065098285675049, 8.275997161865234, -4.123171806335449, -5.044665813446045, -0.603271484375, 0.205322265625, 0.285888671875, 0, 
86, 2165533810, 0.7735595, 0.0037424539, -0.62428546, -0.10890168, 10.009517669677734, 2.051514148712158, 2.0301008224487305, 0.4150858223438263, -4.817441463470459, -0.5680512189865112, -0.603759765625, 0.206298828125, 0.285888671875, 0, 
87, 2165550477, 0.7730941, 0.003668054, -0.62478673, -0.10933494, 9.9217529296875, 0.9010122418403625, 2.02877140045166, -2.298983335494995, -3.980534315109253, -0.8013190031051636, -0.60791015625, 0.2080078125, 0.288818359375, 0, 
88, 2165567144, 0.7727328, 0.004574253, -0.62519157, -0.10953997, 9.881937980651855, 1.3439489603042603, 2.163997173309326, 3.8367764949798584, -2.270604133605957, -3.802140951156616, -0.60205078125, 0.205322265625, 0.288818359375, 0, 
89, 2165583811, 0.7724953, 0.0057468135, -0.6255199, -0.109285615, 9.915750503540039, 2.2690954208374023, 2.1323187351226807, 7.17498254776001, -1.119902491569519, -2.4535303115844727, -0.603271484375, 0.20458984375, 0.289306640625, 0, 
90, 2165600478, 0.77239805, 0.005560601, -0.62564844, -0.109245926, 9.873525619506836, 2.2816214561462402, 1.993715763092041, -1.1304805278778076, -0.48465636372566223, 2.387571096420288, -0.600830078125, 0.205322265625, 0.289306640625, 0, 
91, 2165617145, 0.7723354, 0.0046256143, -0.62568605, -0.10951615, 9.682411193847656, 1.411116600036621, 1.8687334060668945, -6.517587661743164, -0.41461846232414246, 4.0245819091796875, -0.603271484375, 0.205322265625, 0.289794921875, 0, 
92, 2165633812, 0.77223796, 0.004212051, -0.6257705, -0.10973783, 9.55506420135498, 1.1517364978790283, 1.7585198879241943, -3.4986956119537354, -0.4059613347053528, 1.9861818552017212, -0.60107421875, 0.20703125, 0.291015625, 0, 
93, 2165650479, 0.77210224, 0.004501952, -0.6259593, -0.10960515, 9.571704864501953, 1.691083312034607, 1.813141942024231, 1.8509080410003662, -0.5615327954292297, 0.7679519653320312, -0.6044921875, 0.20849609375, 0.29052734375, 0, 
94, 2165667146, 0.7719125, 0.0045140367, -0.6261955, -0.10959046, 9.67594051361084, 2.171657085418701, 1.8622856140136719, -0.09800698608160019, -1.2408840656280518, 1.2951380014419556, -0.599853515625, 0.2041015625, 0.292236328125, 0, 
95, 2165683813, 0.7717396, 0.003861923, -0.626378, -0.10979109, 9.788427352905273, 1.922214388847351, 1.848219871520996, -4.602474212646484, -1.3755046129226685, 3.057753324508667, -0.6015625, 0.20458984375, 0.292236328125, 0, 
96, 2165700480, 0.7715765, 0.002946215, -0.6264769, -0.110400006, 9.80226993560791, 1.7310889959335327, 1.8802069425582886, -7.826408863067627, -1.08138108253479, 2.046781539916992, -0.60205078125, 0.20751953125, 0.29443359375, 0, 
97, 2165717147, 0.7713946, 0.002317075, -0.62662286, -0.11085568, 9.774258613586426, 1.7248859405517578, 1.8040705919265747, -5.611140727996826, -1.1798235177993774, 1.6131839752197266, -0.5986328125, 0.209716796875, 0.29833984375, 0, 
98, 2165733814, 0.7711822, 0.0019683975, -0.6268109, -0.111276664, 9.78152084350586, 1.7366960048675537, 1.7363083362579346, -3.942409038543701, -1.3018293380737305, 0.5660086274147034, -0.59765625, 0.20703125, 0.296630859375, 0, 
99, 2165750481, 0.7709287, 0.001786365, -0.62704796, -0.111700155, 9.766648292541504, 1.8626759052276611, 1.7542637586593628, -3.03543758392334, -1.5873725414276123, -0.19374725222587585, -0.5947265625, 0.208251953125, 0.299560546875, 0, 
100, 2165767148, 0.77064, 0.0014811922, -0.62730974, -0.112224095, 9.675189018249512, 1.9587520360946655, 1.7355045080184937, -4.106061935424805, -1.9433507919311523, -0.2115609049797058, -0.60107421875, 0.208740234375, 0.299560546875, 0, 
101, 2165783815, 0.7703482, 8.115906E-4, -0.62754375, -0.11292467, 9.63048267364502, 1.8489713668823242, 1.6669648885726929, -6.825439453125, -2.074014186859131, 0.4427731931209564, -0.6015625, 0.2080078125, 0.30224609375, 0, 
102, 2165800482, 0.770053, 3.2566386E-5, -0.6277863, -0.11359107, 9.596814155578613, 1.6474239826202393, 1.60432767868042, -7.25657844543457, -2.1939969062805176, 1.1057709455490112, -0.6015625, 0.2080078125, 0.30224609375, 0, 
103, 2165817149, 0.7697028, -2.651484E-4, -0.62812376, -0.114097394, 9.582862854003906, 1.4218862056732178, 1.6519267559051514, -3.9462900161743164, -2.5317132472991943, -0.1701323688030243, -0.59716796875, 0.208740234375, 0.303466796875, 0, 
104, 2165833816, 0.7692732, 8.028894E-5, -0.62858325, -0.11446397, 9.636008262634277, 1.6985505819320679, 1.5894081592559814, 0.15807518362998962, -2.9933691024780273, -2.2893271446228027, -0.598876953125, 0.2099609375, 0.303466796875, 0, 
105, 2165850483, 0.76878464, 3.5092124E-4, -0.6290888, -0.114968196, 9.728005409240723, 2.0261764526367188, 1.5394320487976074, -0.7987320423126221, -3.5245633125305176, -2.740354061126709, -0.596435546875, 0.204833984375, 0.306396484375, 0, 
106, 2165867150, 0.7683195, 1.0544274E-4, -0.62950367, -0.11580418, 9.741519927978516, 1.970287799835205, 1.5885294675827026, -5.041220664978027, -3.318445920944214, -2.219148635864258, -0.599365234375, 0.20654296875, 0.30810546875, 0, 
107, 2165883817, 0.7679039, -4.9745105E-4, -0.6298058, -0.11691236, 9.725754737854004, 1.874283790588379, 1.6440333127975464, -8.205375671386719, -2.7682979106903076, -2.0532939434051514, -0.59423828125, 0.20654296875, 0.31201171875, 0, 
108, 2165900484, 0.7675297, -0.0010285907, -0.63006634, -0.11795642, 9.799700736999512, 1.6116236448287964, 1.7947447299957275, -7.588800430297852, -2.2926185131073, -1.9789143800735474, -0.599365234375, 0.204833984375, 0.31201171875, 0, 
109, 2165917151, 0.76725364, -0.0010494832, -0.63025934, -0.11871882, 9.900656700134277, 1.5668847560882568, 1.9396566152572632, -3.7281720638275146, -1.090857744216919, -2.6303348541259766, -0.598876953125, 0.20361328125, 0.315185546875, 0, 
110, 2165933818, 0.7671582, -6.4974895E-4, -0.6303308, -0.11896, 9.958222389221191, 1.6410213708877563, 1.8747756481170654, 0.6507737636566162, 0.6741966009140015, -1.5688802003860474, -0.6005859375, 0.204833984375, 0.314208984375, 0, 
111, 2165950485, 0.7671436, -2.3824541E-4, -0.6303083, -0.11917347, 10.010794639587402, 1.73063063621521, 1.7641584873199463, 0.7581807374954224, 1.537562370300293, -1.417022705078125, -0.598876953125, 0.201416015625, 0.3134765625, 0, 
112, 2165967152, 0.76715297, -7.450121E-5, -0.63024145, -0.11946715, 10.013434410095215, 1.8285783529281616, 1.746416449546814, -0.9361313581466675, 1.6877038478851318, -0.7500806450843811, -0.598876953125, 0.204833984375, 0.314697265625, 0, 
113, 2165983819, 0.7671819, -1.1593907E-4, -0.63013506, -0.11984286, 9.97482967376709, 1.6509952545166016, 1.7343592643737793, -2.4081575870513916, 1.830277442932129, -0.27534934878349304, -0.6005859375, 0.203125, 0.31201171875, 0, 
114, 2166000486, 0.7671926, 2.9768405E-4, -0.63011485, -0.11987822, 9.846004486083984, 1.4909148216247559, 1.6979585886001587, 1.5365251302719116, 1.6895995140075684, -0.476665198802948, -0.599365234375, 0.20361328125, 0.314208984375, 0, 
115, 2166017153, 0.7671936, 9.2444965E-4, -0.6301325, -0.11977648, 9.818843841552734, 1.610527753829956, 1.798701524734497, 3.2866153717041016, 1.6413322687149048, -0.7046566605567932, -0.599365234375, 0.204345703125, 0.314697265625, 0, 
116, 2166033820, 0.76728714, 0.0013827544, -0.63002485, -0.11973951, 9.76484489440918, 1.8525011539459229, 1.8762569427490234, 2.0119993686676025, 2.5753378868103027, -0.25293824076652527, -0.598876953125, 0.20361328125, 0.31201171875, 0, 
117, 2166050487, 0.76742584, 0.0017297177, -0.6298777, -0.11962133, 9.712600708007812, 1.7658690214157104, 1.7724330425262451, 1.741990089416504, 2.8940746784210205, 0.7007570266723633, -0.601806640625, 0.203125, 0.3134765625, 0, 
118, 2166067154, 0.76756, 0.0020198473, -0.6297199, -0.1195855, 9.682868957519531, 1.6204781532287598, 1.6230677366256714, 1.071718692779541, 2.894280195236206, 0.507893443107605, -0.59765625, 0.20361328125, 0.31201171875, 0, 
119, 2166083821, 0.76767004, 0.0023707617, -0.62958115, -0.1196041, 9.70340347290039, 1.7409251928329468, 1.5801739692687988, 1.174143671989441, 2.7617855072021484, -0.07012756913900375, -0.59716796875, 0.203125, 0.31201171875, 0, 
120, 2166100488, 0.7677233, 0.0027132123, -0.6295179, -0.11958621, 9.743288040161133, 1.8503284454345703, 1.637001395225525, 1.3438150882720947, 2.1354777812957764, 0.10978242754936218, -0.60009765625, 0.2001953125, 0.314208984375, 0, 
121, 2166117155, 0.7677177, 0.0030839457, -0.6295125, -0.11964173, 9.794400215148926, 1.7705515623092651, 1.784371018409729, 1.2222827672958374, 1.6192923784255981, -0.4406280517578125, -0.59423828125, 0.204345703125, 0.311279296875, 0, 
122, 2166133822, 0.76769316, 0.0035026474, -0.62950367, -0.11983475, 9.810144424438477, 1.8968613147735596, 1.7760580778121948, 0.8749746084213257, 1.604424238204956, -1.3914612531661987, -0.596435546875, 0.201904296875, 0.310791015625, 0, 
123, 2166150489, 0.7676418, 0.0036487582, -0.6295077, -0.120137826, 9.825486183166504, 1.9868963956832886, 1.8259193897247314, -1.0365588665008545, 1.2054425477981567, -0.8069537878036499, -0.60107421875, 0.205322265625, 0.310302734375, 0, 
124, 2166167156, 0.76759875, 0.0035645156, -0.62948704, -0.12052307, 9.797525405883789, 1.8145779371261597, 1.8729108572006226, -2.631308078765869, 1.1891143321990967, -0.22344519197940826, -0.598876953125, 0.204345703125, 0.30908203125, 0, 
125, 2166183823, 0.7675659, 0.00372941, -0.62946326, -0.12085172, 9.703573226928711, 1.6556816101074219, 1.8685328960418701, -1.0788068771362305, 1.4642843008041382, -0.9934654235839844, -0.601806640625, 0.205322265625, 0.31201171875, 0, 
126, 2166200490, 0.7674728, 0.004214006, -0.62952024, -0.121129505, 9.672245025634766, 1.7114598751068115, 1.8493512868881226, 0.8990121483802795, 1.0471431016921997, -2.1646573543548584, -0.598876953125, 0.2001953125, 0.3125, 0, 
127, 2166217157, 0.7673383, 0.0049506766, -0.6296317, -0.121374324, 9.662696838378906, 1.8269025087356567, 1.8913531303405762, 2.417973756790161, 0.7985080480575562, -3.1190381050109863, -0.60107421875, 0.201416015625, 0.3134765625, 0, 
128, 2166233824, 0.7672388, 0.005500383, -0.6296638, -0.12181225, 9.737236976623535, 2.085832118988037, 1.9962654113769531, 0.5251820087432861, 1.2088361978530884, -3.2988388538360596, -0.6044921875, 0.203125, 0.310791015625, 0, 
129, 2166250491, 0.76722753, 0.0057822578, -0.6295922, -0.12223917, 9.735544204711914, 1.9698283672332764, 1.9483453035354614, -0.9329425096511841, 1.9111106395721436, -1.9946016073226929, -0.602783203125, 0.197509765625, 0.31005859375, 0, 
130, 2166267158, 0.76729864, 0.0058131507, -0.62939394, -0.12281047, 9.697582244873047, 1.7191663980484009, 1.8423044681549072, -2.994291067123413, 2.7196781635284424, -1.5944163799285889, -0.602294921875, 0.2001953125, 0.311767578125, 0, 
131, 2166283825, 0.7673909, 0.0060947803, -0.62918335, -0.12329864, 9.671172142028809, 1.6288915872573853, 1.789100170135498, -1.324650526046753, 3.096658706665039, -2.2306101322174072, -0.601806640625, 0.2001953125, 0.3134765625, 0, 
132, 2166300492, 0.7674492, 0.0066787824, -0.62903535, -0.12366027, 9.696646690368652, 1.7025504112243652, 1.7528526782989502, 0.8716961741447449, 2.8907582759857178, -2.9109346866607666, -0.60009765625, 0.200927734375, 0.3125, 0, 
133, 2166317159, 0.76748854, 0.0072792345, -0.6288986, -0.12407713, 9.759941101074219, 1.8231139183044434, 1.7934962511062622, 0.7281627058982849, 2.77341365814209, -3.2991206645965576, -0.6015625, 0.19970703125, 0.31005859375, 0, 
134, 2166333826, 0.76752305, 0.007690048, -0.6287567, -0.124556705, 9.792686462402344, 1.895477056503296, 1.8397215604782104, -0.5503145456314087, 2.627101421356201, -2.816385507583618, -0.60107421875, 0.19970703125, 0.310791015625, 0, 
135, 2166350493, 0.76757854, 0.00789617, -0.62858474, -0.12506938, 9.790149688720703, 1.8493614196777344, 1.882110595703125, -1.8007779121398926, 2.7080249786376953, -2.089369297027588, -0.60400390625, 0.195068359375, 0.3095703125, 0, 
136, 2166367160, 0.76766855, 0.008053486, -0.62836933, -0.1255885, 9.724459648132324, 1.7872768640518188, 1.886645793914795, -2.1301825046539307, 3.0510170459747314, -1.8881808519363403, -0.6044921875, 0.195068359375, 0.310546875, 0, 
137, 2166383827, 0.76780057, 0.00829503, -0.62811, -0.12606157, 9.6646089553833, 1.7533040046691895, 1.9297696352005005, -1.524147868156433, 3.5437541007995605, -1.9808350801467896, -0.605712890625, 0.198486328125, 0.307373046875, 0, 
138, 2166400494, 0.76795256, 0.008678449, -0.62782204, -0.12654373, 9.668023109436035, 1.8204761743545532, 1.976558804512024, -0.8422353863716125, 3.9053544998168945, -2.6343562602996826, -0.605712890625, 0.1962890625, 0.31005859375, 0, 
139, 2166417161, 0.7681293, 0.008939815, -0.62750316, -0.12703303, 9.711777687072754, 2.003049850463867, 1.9399837255477905, -1.546507716178894, 4.069326400756836, -2.1292731761932373, -0.6044921875, 0.193359375, 0.30712890625, 0, 
140, 2166433828, 0.7682706, 0.009009212, -0.62722814, -0.12753187, 9.710559844970703, 1.8919456005096436, 1.9939663410186768, -2.564804792404175, 3.5189871788024902, -1.3746721744537354, -0.60400390625, 0.1962890625, 0.307861328125, 0, 
141, 2166450495, 0.7684144, 0.009140294, -0.62693906, -0.12807587, 9.715128898620605, 1.7979282140731812, 1.9892023801803589, -2.4471144676208496, 3.6565141677856445, -1.8776414394378662, -0.60400390625, 0.190673828125, 0.312255859375, 0, 
142, 2166467162, 0.7685155, 0.009525529, -0.62674195, -0.12840535, 9.691853523254395, 1.7149070501327515, 1.9917007684707642, -0.09615007787942886, 3.224581480026245, -1.8810352087020874, -0.606201171875, 0.191650390625, 0.30615234375, 0, 
143, 2166483829, 0.76859236, 0.010012413, -0.6265969, -0.12861592, 9.668824195861816, 1.7298234701156616, 1.9795523881912231, 1.00369131565094, 2.94341778755188, -1.7212245464324951, -0.60791015625, 0.19580078125, 0.307861328125, 0, 
144, 2166500496, 0.76868194, 0.010556, -0.6264641, -0.12868433, 9.635946273803711, 1.7683820724487305, 1.9733926057815552, 1.9254153966903687, 2.9963977336883545, -1.2155659198760986, -0.609619140625, 0.195068359375, 0.3056640625, 0, 
145, 2166517163, 0.76875484, 0.011066674, -0.6263672, -0.12867706, 9.607799530029297, 1.8310884237289429, 1.9857639074325562, 2.1133229732513428, 2.7135818004608154, -0.6961659789085388, -0.6083984375, 0.19287109375, 0.306640625, 0, 
146, 2166533830, 0.7687861, 0.011580343, -0.62632704, -0.12864105, 9.607340812683105, 1.8339531421661377, 2.036226749420166, 2.3084020614624023, 2.24088716506958, -0.5972241163253784, -0.609130859375, 0.191162109375, 0.3037109375, 0, 
147, 2166550497, 0.7687828, 0.012101427, -0.62633973, -0.12855117, 9.599655151367188, 1.8789626359939575, 1.9748802185058594, 2.6291370391845703, 1.8230029344558716, -0.37735188007354736, -0.606201171875, 0.18896484375, 0.302734375, 0, 
148, 2166567164, 0.76878446, 0.012478693, -0.6263489, -0.12846032, 9.659867286682129, 1.934605360031128, 2.0215067863464355, 1.870143175125122, 1.7381865978240967, 0.24686157703399658, -0.606201171875, 0.190673828125, 0.306640625, 0, 
149, 2166583831, 0.76878196, 0.0127599025, -0.6263964, -0.12821525, 9.685687065124512, 1.8818680047988892, 1.9609899520874023, 2.0647871494293213, 1.4482252597808838, 1.4738253355026245, -0.6044921875, 0.1923828125, 0.304443359375, 0, 
150, 2166600498, 0.76879424, 0.01295521, -0.6264394, -0.12791215, 9.700455665588379, 1.717678427696228, 1.8855563402175903, 1.8522653579711914, 1.4692531824111938, 2.1572487354278564, -0.607421875, 0.194580078125, 0.304443359375, 0, 
151, 2166617165, 0.76877725, 0.013135806, -0.6265193, -0.12760396, 9.68007755279541, 1.6457070112228394, 1.8701996803283691, 1.8341702222824097, 1.1440746784210205, 2.208448648452759, -0.60498046875, 0.194580078125, 0.303955078125, 0, 
152, 2166633832, 0.76871824, 0.013575749, -0.6266845, -0.1271018, 9.656784057617188, 1.7322109937667847, 1.837211012840271, 4.122025012969971, 0.7663897275924683, 2.0679118633270264, -0.605712890625, 0.19287109375, 0.301513671875, 0, 
153, 2166650499, 0.7686323, 0.014066927, -0.6268968, -0.1265199, 9.643362045288086, 1.8699125051498413, 1.9061882495880127, 4.783038139343262, 0.46669551730155945, 2.2347021102905273, -0.606201171875, 0.195068359375, 0.30322265625, 0, 
154, 2166667166, 0.7685686, 0.014330253, -0.62707645, -0.12598613, 9.663806915283203, 1.9735270738601685, 1.9234896898269653, 3.341080665588379, 0.537322461605072, 2.9737308025360107, -0.605712890625, 0.197265625, 0.302734375, 0, 
155, 2166683833, 0.76854366, 0.01437433, -0.62719977, -0.12551832, 9.657313346862793, 1.82349693775177, 1.8967630863189697, 1.8445944786071777, 0.8127613663673401, 3.5984880924224854, -0.606689453125, 0.19970703125, 0.303466796875, 0, 
156, 2166700500, 0.7685036, 0.014240575, -0.6273051, -0.12525265, 9.643677711486816, 1.8001028299331665, 1.8706573247909546, 0.02232787199318409, 0.6749778389930725, 3.2753071784973145, -0.60400390625, 0.19970703125, 0.303466796875, 0, 
157, 2166717167, 0.7684423, 0.01404669, -0.62744033, -0.12497183, 9.69475269317627, 1.7889246940612793, 1.9585602283477783, -0.20214824378490448, 0.38168683648109436, 3.591944456100464, -0.603271484375, 0.201416015625, 0.30517578125, 0, 
158, 2166733834, 0.7683601, 0.013817254, -0.6275921, -0.12474065, 9.737092971801758, 1.8397026062011719, 2.0666191577911377, -0.58381587266922, 0.17195725440979004, 3.458207368850708, -0.6044921875, 0.2001953125, 0.306884765625, 0, 
159, 2166750501, 0.7683094, 0.01354879, -0.6277116, -0.12447994, 9.755091667175293, 1.8479132652282715, 2.149617910385132, -0.6894810795783997, 0.44402819871902466, 3.80214786529541, -0.606201171875, 0.198486328125, 0.30615234375, 0, 
160, 2166767168, 0.76827127, 0.01332664, -0.62780464, -0.12427059, 9.759907722473145, 1.8271911144256592, 2.1632280349731445, -0.6889688968658447, 0.6640540957450867, 3.3350493907928467, -0.59814453125, 0.201904296875, 0.303955078125, 0, 
161, 2166783835, 0.76825243, 0.01322043, -0.62788117, -0.12401178, 9.744471549987793, 1.7435482740402222, 2.1152713298797607, 0.12479148060083389, 0.9276214241981506, 3.1045475006103516, -0.59765625, 0.2001953125, 0.3056640625, 0, 
162, 2166800502, 0.768225, 0.013175308, -0.6279669, -0.12375142, 9.697773933410645, 1.7017594575881958, 2.162010669708252, 0.4669003188610077, 0.8876529932022095, 2.834026336669922, -0.602783203125, 0.2041015625, 0.30224609375, 0, 
163, 2166817169, 0.7681642, 0.013006201, -0.62807536, -0.12359731, 9.656153678894043, 1.6958051919937134, 2.1132497787475586, -0.6181240677833557, 0.4978020191192627, 2.771389961242676, -0.6015625, 0.20751953125, 0.30224609375, 0, 
164, 2166833836, 0.7680583, 0.0128227705, -0.62823033, -0.12348618, 9.607809066772461, 1.5719783306121826, 2.085340976715088, -0.8328352570533752, 0.03305959329009056, 2.561365842819214, -0.6005859375, 0.205322265625, 0.303955078125, 0, 
165, 2166850503, 0.76793176, 0.012873423, -0.6284183, -0.12331172, 9.649325370788574, 1.5270349979400635, 2.086087703704834, 0.7128205895423889, -0.03432101756334305, 1.8531620502471924, -0.6015625, 0.205810546875, 0.307373046875, 0, 
166, 2166867170, 0.7677903, 0.01319279, -0.6286458, -0.12300002, 9.755708694458008, 1.6152949333190918, 2.0381226539611816, 2.766267776489258, -0.07367493212223053, 1.3884453773498535, -0.599365234375, 0.20703125, 0.307373046875, 0, 
167, 2166883837, 0.7676688, 0.013429033, -0.62885946, -0.12263827, 9.804525375366211, 1.6624480485916138, 1.9856516122817993, 2.5315396785736084, 0.016296079382300377, 2.0109875202178955, -0.599853515625, 0.2099609375, 0.30859375, 0, 
168, 2166900504, 0.76755255, 0.01351483, -0.6290372, -0.12244577, 9.757720947265625, 1.631698489189148, 1.9343384504318237, 0.9811007380485535, 0.08689748495817184, 1.7566276788711548, -0.598876953125, 0.20703125, 0.3056640625, 0, 
169, 2166917171, 0.7673644, 0.013540774, -0.62928665, -0.12234083, 9.74972152709961, 1.6809698343276978, 1.84062659740448, 0.35566434264183044, -0.6598600149154663, 1.4848641157150269, -0.59716796875, 0.208740234375, 0.306884765625, 0, 
170, 2166933838, 0.76709056, 0.013604474, -0.62963814, -0.12224199, 9.767937660217285, 1.6553691625595093, 1.7824431657791138, 0.6231761574745178, -1.5295007228851318, 1.2158668041229248, -0.599365234375, 0.21044921875, 0.306884765625, 0, 
171, 2166950505, 0.7667839, 0.01366996, -0.63002384, -0.12217133, 9.773552894592285, 1.6042635440826416, 1.8607583045959473, 0.5465430021286011, -1.842795491218567, 1.0225167274475098, -0.599365234375, 0.208740234375, 0.307373046875, 0, 
172, 2166967172, 0.7664417, 0.013804836, -0.6304561, -0.12207323, 9.699814796447754, 1.6457267999649048, 1.8632261753082275, 1.0804141759872437, -2.174992084503174, 0.8263232707977295, -0.59765625, 0.20703125, 0.309814453125, 0, 
173, 2166983839, 0.7660667, 0.0138700865, -0.6309032, -0.1221097, 9.718788146972656, 1.6850115060806274, 1.877582311630249, 0.1425410807132721, -2.464902400970459, 0.3813667297363281, -0.59765625, 0.212158203125, 0.306884765625, 0, 
174, 2167000506, 0.765733, 0.013781909, -0.63128644, -0.1222318, 9.772470474243164, 1.7579935789108276, 1.925301194190979, -1.094443440437317, -2.0853734016418457, 0.6133537292480469, -0.595947265625, 0.21337890625, 0.30859375, 0, 
175, 2167017173, 0.765431, 0.013618933, -0.6316204, -0.12241619, 9.802027702331543, 1.7158136367797852, 1.8587177991867065, -1.7975375652313232, -1.7567237615585327, 0.6274150609970093, -0.59765625, 0.21044921875, 0.31201171875, 0, 
176, 2167033840, 0.76509035, 0.01347017, -0.63199276, -0.1226404, 9.773313522338867, 1.713227391242981, 1.807971477508545, -1.8515676259994507, -2.1145076751708984, 0.32004988193511963, -0.59765625, 0.211669921875, 0.313720703125, 0, 
177, 2167050507, 0.764671, 0.0132954335, -0.6324524, -0.12290492, 9.77988338470459, 1.6764044761657715, 1.8528575897216797, -2.086615800857544, -2.9385452270507812, 0.1535801738500595, -0.59716796875, 0.208251953125, 0.314697265625, 0, 
178, 2167067174, 0.7642734, 0.013048037, -0.63287777, -0.12321534, 9.793442726135254, 1.6103888750076294, 1.8946269750595093, -2.6950840950012207, -2.726600408554077, 0.23414494097232819, -0.595947265625, 0.2109375, 0.317138671875, 0, 
179, 2167083841, 0.7638825, 0.012760527, -0.6332824, -0.123588786, 9.723417282104492, 1.6297200918197632, 1.919567584991455, -3.198296308517456, -2.6315383911132812, 0.0662536472082138, -0.594970703125, 0.21044921875, 0.31591796875, 0, 
180, 2167100508, 0.7634784, 0.012617516, -0.63371384, -0.12389001, 9.690438270568848, 1.561745047569275, 1.837808609008789, -2.0947985649108887, -2.703842878341675, -0.20282694697380066, -0.594970703125, 0.21044921875, 0.317138671875, 0, 
181, 2167117175, 0.7630752, 0.012577845, -0.63416207, -0.12408366, 9.6862154006958, 1.3881502151489258, 1.7783535718917847, -1.0666921138763428, -2.690934181213379, -0.10228432714939117, -0.595947265625, 0.211181640625, 0.31884765625, 0, 
182, 2167133842, 0.7626856, 0.012780531, -0.63460314, -0.124203086, 9.721150398254395, 1.3035027980804443, 1.7527917623519897, 0.5241318345069885, -2.380444049835205, -0.7835565209388733, -0.598388671875, 0.2099609375, 0.321044921875, 0, 
183, 2167150509, 0.762321, 0.013272411, -0.63503414, -0.1241869, 9.781661987304688, 1.539075493812561, 1.7168776988983154, 2.628932237625122, -1.956464409828186, -1.3442567586898804, -0.594970703125, 0.208740234375, 0.31884765625, 0, 
184, 2167167176, 0.7620084, 0.0137234805, -0.6354071, -0.12414858, 9.86900520324707, 1.6876730918884277, 1.7495850324630737, 2.460503339767456, -1.4526243209838867, -1.0291310548782349, -0.598876953125, 0.208740234375, 0.321533203125, 0, 
185, 2167183843, 0.7617757, 0.014078356, -0.63568664, -0.12410584, 9.87380599975586, 1.6335914134979248, 1.7172322273254395, 1.8915809392929077, -0.6922600269317627, -0.5373032093048096, -0.59619140625, 0.20947265625, 0.321533203125, 0, 
186, 2167200510, 0.76160574, 0.014279813, -0.63586974, -0.124188684, 9.91812801361084, 1.678789734840393, 1.7023676633834839, 0.45346641540527344, -0.050328951328992844, -0.49467089772224426, -0.591064453125, 0.20947265625, 0.321533203125, 0, 
187, 2167217177, 0.7615057, 0.0143639855, -0.6359803, -0.1242258, 9.915550231933594, 1.6316802501678467, 1.7070811986923218, -0.03443627059459686, 0.5434438586235046, 0.29719051718711853, -0.59375, 0.21044921875, 0.31982421875, 0, 
188, 2167233844, 0.76144636, 0.014574675, -0.636055, -0.12418245, 9.9111328125, 1.5000191926956177, 1.7577170133590698, 0.9498276710510254, 1.031160831451416, 0.18248409032821655, -0.595458984375, 0.20947265625, 0.321533203125, 0, 
189, 2167250511, 0.76144344, 0.014917345, -0.6360521, -0.12417439, 9.888532638549805, 1.5508687496185303, 1.7603458166122437, 1.4158381223678589, 1.7947779893875122, -0.5620835423469543, -0.594970703125, 0.2099609375, 0.323974609375, 0, 
190, 2167267178, 0.76149243, 0.015286641, -0.63600045, -0.12409415, 9.870899200439453, 1.7143691778182983, 1.7368028163909912, 1.83682119846344, 2.3093369007110596, -0.27759042382240295, -0.594970703125, 0.21044921875, 0.31982421875, 0, 
191, 2167283845, 0.7615954, 0.015527918, -0.6358933, -0.12398097, 9.87606143951416, 1.695965051651001, 1.7582870721817017, 1.2601513862609863, 2.733790874481201, 0.4852646291255951, -0.595458984375, 0.212158203125, 0.320556640625, 0, 
192, 2167300512, 0.76176816, 0.0156282, -0.6356853, -0.123974025, 9.843092918395996, 1.6254433393478394, 1.768273949623108, -0.045180801302194595, 3.4360268115997314, 0.5806206464767456, -0.59619140625, 0.208740234375, 0.321533203125, 0, 
193, 2167317179, 0.76198393, 0.015694967, -0.6354265, -0.12396656, 9.810341835021973, 1.6093651056289673, 1.7191745042800903, -0.27395346760749817, 3.8602757453918457, 0.7458099126815796, -0.5908203125, 0.21337890625, 0.31884765625, 0, 
194, 2167333846, 0.7621979, 0.015733367, -0.635166, -0.12398134, 9.79103946685791, 1.5783621072769165, 1.719978928565979, -0.49898669123649597, 3.842987537384033, 0.7402904033660889, -0.598388671875, 0.212158203125, 0.3193359375, 0, 
195, 2167350513, 0.7623985, 0.015796414, -0.63492906, -0.12395347, 9.767513275146484, 1.53775155544281, 1.7567301988601685, -0.14745229482650757, 3.691743850708008, 0.8348011374473572, -0.59375, 0.2099609375, 0.3193359375, 0, 
196, 2167367180, 0.7625897, 0.015967062, -0.63472366, -0.12380804, 9.733129501342773, 1.55859375, 1.7701396942138672, 0.9406073689460754, 3.5880515575408936, 0.9543485045433044, -0.59619140625, 0.211669921875, 0.31982421875, 0, 
197, 2167383847, 0.7627706, 0.016275411, -0.6345409, -0.12358956, 9.746213912963867, 1.565134882926941, 1.7505570650100708, 2.006056785583496, 3.551053285598755, 0.7149336934089661, -0.599365234375, 0.212158203125, 0.317626953125, 0, 
198, 2167400514, 0.76290417, 0.016461272, -0.63438874, -0.12352153, 9.775392532348633, 1.600355863571167, 1.7699443101882935, 0.7076852917671204, 3.0575735569000244, 0.40144702792167664, -0.59423828125, 0.2138671875, 0.317138671875, 0, 
199, 2167417181, 0.7630047, 0.016683992, -0.6342927, -0.12336314, 9.751792907714844, 1.5601181983947754, 1.7872207164764404, 1.370234727859497, 2.6682353019714355, 0.683225154876709, -0.59375, 0.212890625, 0.320068359375, 0, 
200, 2167433848, 0.7630483, 0.016973043, -0.63425046, -0.123271435, 9.74577808380127, 1.5222690105438232, 1.8158094882965088, 1.4823671579360962, 2.185755729675293, -0.013408249244093895, -0.59326171875, 0.211669921875, 0.313720703125, 0, 
201, 2167450515, 0.7630852, 0.017163761, -0.63419837, -0.12328452, 9.77829647064209, 1.6774574518203735, 1.8744165897369385, 0.5301253199577332, 2.1177797317504883, -0.15347129106521606, -0.59326171875, 0.211181640625, 0.3154296875, 0, 
202, 2167467182, 0.7630783, 0.01733119, -0.63422316, -0.1231762, 9.7278470993042, 1.6002004146575928, 1.7728691101074219, 1.0181368589401245, 1.5149974822998047, 0.5499110221862793, -0.59423828125, 0.216064453125, 0.31494140625, 0, 
203, 2167483849, 0.7629981, 0.01755543, -0.6343178, -0.12315428, 9.703941345214844, 1.451697587966919, 1.784837245941162, 0.9625701308250427, 0.8589538931846619, -0.22781215608119965, -0.5966796875, 0.21337890625, 0.31591796875, 0, 
204, 2167500516, 0.762825, 0.017912053, -0.63451123, -0.12317835, 9.753398895263672, 1.476603627204895, 1.756559133529663, 1.5810651779174805, 0.04822229966521263, -1.1282649040222168, -0.5966796875, 0.212646484375, 0.313720703125, 0, 
205, 2167517183, 0.76267177, 0.01838574, -0.6346537, -0.1233234, 9.83321475982666, 1.6922656297683716, 1.875731348991394, 1.6496306657791138, 0.4931149184703827, -2.276252031326294, -0.59423828125, 0.211181640625, 0.31494140625, 0, 
206, 2167533850, 0.7625377, 0.018711258, -0.6347805, -0.123449795, 9.831098556518555, 1.8822355270385742, 1.89755380153656, 0.9696007370948792, 0.537975549697876, -1.5212661027908325, -0.59423828125, 0.211181640625, 0.316650390625, 0, 
207, 2167550517, 0.76238644, 0.018705534, -0.63492537, -0.12364115, 9.771551132202148, 1.698512077331543, 1.8350770473480225, -1.0906270742416382, 0.06293680518865585, -0.4397956430912018, -0.59375, 0.21337890625, 0.316650390625, 0, 
208, 2167567184, 0.76219916, 0.018644974, -0.63510907, -0.123860724, 9.708885192871094, 1.4059467315673828, 1.7700961828231812, -1.410683512687683, -0.3401750922203064, -0.3722037672996521, -0.59375, 0.215576171875, 0.317138671875, 0, 
209, 2167583851, 0.76195186, 0.018944914, -0.63536465, -0.124026716, 9.690452575683594, 1.3513314723968506, 1.8113032579421997, 0.7209269404411316, -0.6770203709602356, -1.741586446762085, -0.595458984375, 0.20947265625, 0.3154296875, 0, 
210, 2167600518, 0.7616459, 0.01950315, -0.6356973, -0.12411376, 9.759377479553223, 1.604933500289917, 1.8510189056396484, 2.619788408279419, -1.0851588249206543, -2.4977376461029053, -0.598876953125, 0.211669921875, 0.317626953125, 0, 
211, 2167617185, 0.76140696, 0.019844761, -0.63594234, -0.12427038, 9.79598617553711, 1.845913290977478, 1.9425318241119385, 1.0560563802719116, -0.5405944585800171, -1.8918949365615845, -0.598876953125, 0.207763671875, 0.318115234375, 0, 
212, 2167633852, 0.7612012, 0.019929977, -0.6361532, -0.12443885, 9.748590469360352, 1.7624543905258179, 1.8548402786254883, -0.045475345104932785, -0.3833836615085602, -0.7480060458183289, -0.595458984375, 0.21044921875, 0.317626953125, 0, 
213, 2167650519, 0.76096416, 0.019947814, -0.6364153, -0.12454578, 9.66096305847168, 1.4556200504302979, 1.777010202407837, -0.007952743209898472, -0.8269188404083252, -0.14222730696201324, -0.59716796875, 0.21337890625, 0.318359375, 0, 
214, 2167667186, 0.760662, 0.020198943, -0.6367682, -0.1245467, 9.665203094482422, 1.3142074346542358, 1.777915358543396, 1.3721171617507935, -1.452265739440918, -0.7484031319618225, -0.595458984375, 0.21044921875, 0.3193359375, 0, 
215, 2167683853, 0.76030856, 0.020795176, -0.6372172, -0.124309525, 9.73478889465332, 1.3751163482666016, 1.7813245058059692, 4.316259384155273, -1.8532968759536743, -1.0715585947036743, -0.595458984375, 0.2099609375, 0.322265625, 0, 
216, 2167700520, 0.7599555, 0.021526182, -0.63766277, -0.12405895, 9.769182205200195, 1.641709327697754, 1.887481689453125, 4.918554306030273, -1.750781774520874, -1.648177146911621, -0.59716796875, 0.20947265625, 0.318115234375, 0, 
217, 2167717187, 0.75959826, 0.02201946, -0.63809574, -0.12393377, 9.840519905090332, 2.0009055137634277, 1.9258803129196167, 3.139803886413574, -1.929558515548706, -1.27492356300354, -0.59765625, 0.20703125, 0.3193359375, 0, 
218, 2167733854, 0.7592268, 0.022090888, -0.63855344, -0.123839855, 9.780088424682617, 1.8961201906204224, 1.8245428800582886, 0.6688692569732666, -2.524310827255249, 0.3803677558898926, -0.5966796875, 0.2099609375, 0.321044921875, 0, 
219, 2167750521, 0.75879496, 0.021906972, -0.63905394, -0.123937465, 9.703574180603027, 1.6319459676742554, 1.8376134634017944, -1.377886414527893, -3.248394727706909, 0.47245821356773376, -0.59619140625, 0.21044921875, 0.323974609375, 0, 
220, 2167767188, 0.75827974, 0.021947933, -0.63967, -0.12390573, 9.638422966003418, 1.4763377904891968, 1.9036853313446045, 0.5075477361679077, -4.008823394775391, 0.09998559206724167, -0.594482421875, 0.212890625, 0.3232421875, 0, 
221, 2167783855, 0.7577171, 0.02219176, -0.64034015, -0.123842515, 9.66395092010498, 1.4589598178863525, 2.0003366470336914, 2.007478952407837, -4.285132884979248, -0.6329538822174072, -0.59619140625, 0.2099609375, 0.32568359375, 0, 
222, 2167800522, 0.7570991, 0.022477763, -0.6410786, -0.12374991, 9.74733829498291, 1.4271456003189087, 1.8950875997543335, 2.982848644256592, -4.751322269439697, -0.6210824251174927, -0.594970703125, 0.212158203125, 0.326171875, 0, 
223, 2167817189, 0.7564836, 0.022858802, -0.64178824, -0.12376728, 9.797656059265137, 1.3803962469100952, 1.9076285362243652, 2.5922935009002686, -4.613205909729004, -1.7052809000015259, -0.594970703125, 0.211181640625, 0.32666015625, 0, 
224, 2167833856, 0.7558193, 0.023446448, -0.6425372, -0.123829074, 9.8292875289917, 1.6252400875091553, 1.8591030836105347, 3.3152377605438232, -4.917305946350098, -2.945012331008911, -0.594970703125, 0.211669921875, 0.326171875, 0, 
225, 2167850523, 0.7551715, 0.024213646, -0.6432867, -0.12374243, 9.835822105407715, 1.7061797380447388, 1.72149658203125, 4.504857540130615, -4.7623491287231445, -3.0358989238739014, -0.59375, 0.2099609375, 0.328369140625, 0, 
226, 2167867190, 0.7545555, 0.02485324, -0.6440026, -0.12364926, 9.837918281555176, 1.7325526475906372, 1.6034560203552246, 3.4113876819610596, -4.646515846252441, -2.500171422958374, -0.59619140625, 0.211181640625, 0.3330078125, 0, 
227, 2167883857, 0.7540018, 0.025144562, -0.64461535, -0.12377629, 9.897740364074707, 1.6388309001922607, 1.5852771997451782, 1.7418878078460693, -3.924800395965576, -1.8637595176696777, -0.597412109375, 0.208740234375, 0.33056640625, 0, 
228, 2167900524, 0.7535921, 0.025373876, -0.6450214, -0.1241081, 9.945068359375, 1.7677050828933716, 1.6227186918258667, 0.3126606047153473, -2.303145170211792, -2.5782127380371094, -0.593994140625, 0.212158203125, 0.331298828125, 0, 
229, 2167917191, 0.7533414, 0.025475595, -0.6452703, -0.12431586, 9.875301361083984, 2.034576892852783, 1.5809191465377808, -0.2640540897846222, -0.934338390827179, -1.3218841552734375, -0.59619140625, 0.204833984375, 0.33349609375, 0, 
230, 2167933858, 0.7532717, 0.025273845, -0.6453422, -0.12440528, 9.801201820373535, 2.0038692951202393, 1.5812824964523315, -2.5217623710632324, 0.3354174792766571, 0.590251088142395, -0.595703125, 0.208984375, 0.3330078125, 0, 
231, 2167950525, 0.75334406, 0.024636824, -0.6452087, -0.124786675, 9.77262020111084, 1.8392305374145508, 1.5827220678329468, -5.567612171173096, 1.7494051456451416, 1.2190430164337158, -0.5966796875, 0.207763671875, 0.335693359375, 0, 
232, 2167967192, 0.7534469, 0.023885341, -0.6450537, -0.12511349, 9.75526237487793, 1.6387706995010376, 1.5118852853775024, -5.6019463539123535, 1.9762439727783203, 2.0885560512542725, -0.598388671875, 0.2099609375, 0.331787109375, 0, 
233, 2167983859, 0.7535547, 0.023303166, -0.6449031, -0.12535009, 9.715291023254395, 1.4592074155807495, 1.4880715608596802, -4.452025890350342, 2.1106982231140137, 1.7744673490524292, -0.598388671875, 0.20654296875, 0.33349609375, 0, 
234, 2168000526, 0.7536427, 0.023028396, -0.644773, -0.12554033, 9.732029914855957, 1.5598162412643433, 1.618430256843567, -2.6731464862823486, 2.1828360557556152, 0.6114072203636169, -0.595703125, 0.207763671875, 0.335205078125, 0, 
235, 2168017193, 0.75374246, 0.022971788, -0.64465815, -0.12554157, 9.747420310974121, 1.741931438446045, 1.7195429801940918, -0.839776337146759, 2.340520143508911, 0.5965389609336853, -0.594482421875, 0.208251953125, 0.335205078125, 0, 
236, 2168033860, 0.7538169, 0.02276308, -0.64456284, -0.12562196, 9.797685623168945, 1.7519322633743286, 1.717757225036621, -1.789853811264038, 2.0096170902252197, 0.8643965721130371, -0.595703125, 0.20947265625, 0.335693359375, 0, 
237, 2168050527, 0.75382656, 0.022524195, -0.64451736, -0.12584035, 9.811484336853027, 1.555663824081421, 1.7135570049285889, -2.582221031188965, 1.3946563005447388, 0.2149738073348999, -0.594482421875, 0.212158203125, 0.335693359375, 0, 
238, 2168067194, 0.75381756, 0.022459915, -0.64447093, -0.12614243, 9.892508506774902, 1.5158793926239014, 1.7568943500518799, -2.053882360458374, 1.4460352659225464, -1.0243157148361206, -0.598388671875, 0.21044921875, 0.33349609375, 0, 
239, 2168083861, 0.7537858, 0.02276985, -0.64446974, -0.1262834, 9.896480560302734, 1.6342947483062744, 1.7307682037353516, 0.22416876256465912, 1.3685059547424316, -1.949933409690857, -0.59326171875, 0.2099609375, 0.335205078125, 0, 
240, 2168100528, 0.75371975, 0.023141446, -0.6445071, -0.12641908, 9.877168655395508, 1.747601866722107, 1.6908341646194458, 1.2871854305267334, 1.2011524438858032, -2.1145973205566406, -0.594970703125, 0.20947265625, 0.334716796875, 0, 
241, 2168117195, 0.7536549, 0.02350565, -0.64454037, -0.12656942, 9.821420669555664, 1.664550542831421, 1.643776297569275, 1.1661269664764404, 1.2116663455963135, -2.1669623851776123, -0.594482421875, 0.208984375, 0.335693359375, 0, 
242, 2168133862, 0.7536102, 0.024015743, -0.64454156, -0.12673348, 9.77390193939209, 1.6421806812286377, 1.6189695596694946, 1.5233087539672852, 1.5259982347488403, -2.935112714767456, -0.59619140625, 0.2060546875, 0.336181640625, 0, 
243, 2168150529, 0.7535676, 0.024584671, -0.6445362, -0.12690513, 9.759221076965332, 1.7405551671981812, 1.6215505599975586, 2.7122247219085693, 1.8070977926254272, -3.087111711502075, -0.59619140625, 0.208984375, 0.335693359375, 0, 
244, 2168167196, 0.75354254, 0.025193568, -0.6445197, -0.1270178, 9.770549774169922, 1.818224310874939, 1.6772633790969849, 2.6085703372955322, 1.8697208166122437, -3.0490000247955322, -0.60009765625, 0.2060546875, 0.33349609375, 0, 
245, 2168183863, 0.75359267, 0.025689006, -0.6444125, -0.12716478, 9.793071746826172, 1.7128130197525024, 1.6786787509918213, 1.8746126890182495, 2.583482265472412, -2.6606855392456055, -0.59912109375, 0.2060546875, 0.332763671875, 0, 
246, 2168200530, 0.75368196, 0.02615051, -0.644259, -0.12731975, 9.781981468200684, 1.7103849649429321, 1.6106654405593872, 1.3229535818099976, 2.9011824131011963, -2.5858964920043945, -0.595703125, 0.203369140625, 0.3349609375, 0, 
247, 2168217197, 0.75373894, 0.026457388, -0.6440965, -0.12774129, 9.781656265258789, 1.7076976299285889, 1.6528916358947754, 2.8439383506774902, 3.354783773422241, -2.7131025791168213, -0.597900390625, 0.204833984375, 0.331787109375, 0, 
248, 2168233864, 0.7538421, 0.02695271, -0.6439163, -0.12793665, 9.744232177734375, 1.8177905082702637, 1.620500087738037, 2.870421886444092, 3.452150344848633, -2.6820337772369385, -0.601806640625, 0.204833984375, 0.328369140625, 0, 
249, 2168250531, 0.7539114, 0.02719399, -0.64378095, -0.1281583, 9.738526344299316, 1.7525774240493774, 1.6564193964004517, 2.1234018802642822, 2.9765610694885254, -1.6062365770339966, -0.598388671875, 0.203857421875, 0.3310546875, 0, 
250, 2168267198, 0.7539989, 0.027648212, -0.64367795, -0.1280635, 9.714622497558594, 1.5388022661209106, 1.7068740129470825, 2.3113861083984375, 2.6379222869873047, -1.3049030303955078, -0.601806640625, 0.20361328125, 0.328857421875, 0, 
251, 2168283865, 0.7541029, 0.02832683, -0.64357275, -0.12783182, 9.7684965133667, 1.494199514389038, 1.6869728565216064, 3.199110269546509, 2.751451015472412, -1.7445580959320068, -0.6025390625, 0.203125, 0.331787109375, 0, 
252, 2168300532, 0.7541808, 0.028904246, -0.6434491, -0.1278647, 9.725444793701172, 1.6993874311447144, 1.6595025062561035, 3.798511028289795, 3.078845500946045, -2.3111751079559326, -0.6005859375, 0.197998046875, 0.329833984375, 0, 
253, 2168317199, 0.7542678, 0.02954697, -0.6433496, -0.12770593, 9.689974784851074, 1.9114083051681519, 1.643755555152893, 3.246006965637207, 2.710470676422119, -1.9133201837539673, -0.599609375, 0.205322265625, 0.32666015625, 0, 
254, 2168333866, 0.75430787, 0.029673712, -0.6432779, -0.12780024, 9.703285217285156, 1.8427703380584717, 1.6350475549697876, 0.361529678106308, 2.0383803844451904, -0.8235764503479004, -0.599609375, 0.200927734375, 0.325927734375, 0, 
255, 2168350533, 0.7543809, 0.029628001, -0.6431745, -0.1279005, 9.733722686767578, 1.5887904167175293, 1.6822258234024048, -0.7517712116241455, 2.1620898246765137, -0.10356496274471283, -0.603515625, 0.201416015625, 0.32763671875, 0, 
256, 2168367200, 0.7544966, 0.02968072, -0.64301336, -0.12801595, 9.746994972229004, 1.6093701124191284, 1.7789266109466553, -0.9188554286956787, 2.610849618911743, -0.7043107748031616, -0.598876953125, 0.19921875, 0.32666015625, 0, 
257, 2168383867, 0.7546112, 0.029732723, -0.6428568, -0.12811545, 9.77245807647705, 1.765246868133545, 1.7068710327148438, 0.10326401144266129, 2.7822630405426025, -0.46508824825286865, -0.60009765625, 0.20263671875, 0.325927734375, 0, 
258, 2168400534, 0.7547866, 0.02989933, -0.6426829, -0.12791431, 9.738068580627441, 1.7325667142868042, 1.678197979927063, -0.5916662216186523, 2.7402708530426025, 0.17290493845939636, -0.597900390625, 0.200927734375, 0.32666015625, 0, 
259, 2168417201, 0.7548259, 0.029570108, -0.6425992, -0.12817915, 9.71216106414795, 1.6043452024459839, 1.6138566732406616, -0.9280377626419067, 2.041594982147217, 0.5775343775749207, -0.599609375, 0.19970703125, 0.3271484375, 0, 
260, 2168433868, 0.75485957, 0.029540507, -0.64257026, -0.12813339, 9.702314376831055, 1.5218571424484253, 1.735010027885437, -0.16302484273910522, 1.5816417932510376, 0.4627254605293274, -0.599609375, 0.19921875, 0.3271484375, 0, 
261, 2168450535, 0.7547761, 0.029171724, -0.64259225, -0.12859845, 9.738749504089355, 1.6574277877807617, 1.7856428623199463, 0.49346068501472473, 1.386703610420227, 0.021303363144397736, -0.60009765625, 0.2021484375, 0.32666015625, 0, 
262, 2168467202, 0.75487006, 0.029640922, -0.642593, -0.12793386, 9.767557144165039, 1.7244532108306885, 1.8566186428070068, 1.3312777280807495, 1.418655514717102, 0.822327733039856, -0.60009765625, 0.20361328125, 0.325927734375, 0, 
263, 2168483869, 0.75482506, 0.028766265, -0.6425227, -0.12874916, 9.791248321533203, 1.7869027853012085, 1.9110324382781982, -1.3710606098175049, 2.0173778533935547, 0.8643710017204285, -0.599609375, 0.201416015625, 0.3271484375, 0, 
264, 2168500536, 0.75498563, 0.028620137, -0.642368, -0.1286121, 9.775992393493652, 1.8099076747894287, 1.8295238018035889, -2.367138385772705, 2.2779102325439453, 1.164961576461792, -0.601806640625, 0.204833984375, 0.3271484375, 0, 
265, 2168517203, 0.755117, 0.0284517, -0.6422612, -0.12841104, 9.77543830871582, 1.7023929357528687, 1.7998862266540527, -2.370506525039673, 1.8403174877166748, 1.538804531097412, -0.599609375, 0.204833984375, 0.326171875, 0, 
266, 2168533870, 0.7551226, 0.027888544, -0.642236, -0.1286287, 9.744311332702637, 1.5265840291976929, 1.7963242530822754, -2.1160190105438232, 1.2926794290542603, 1.7287484407424927, -0.598388671875, 0.201416015625, 0.3271484375, 0, 
267, 2168550537, 0.75514954, 0.027646229, -0.6422154, -0.12862596, 9.79501724243164, 1.5492154359817505, 1.8424251079559326, -1.5988343954086304, 1.230440616607666, 1.0769691467285156, -0.598876953125, 0.204833984375, 0.328857421875, 0, 
268, 2168567204, 0.7550924, 0.0273691, -0.6422603, -0.12879653, 9.825632095336914, 1.664894700050354, 1.8596084117889404, 0.05366501212120056, 0.9859289526939392, 0.7106178998947144, -0.6005859375, 0.20361328125, 0.3271484375, 0, 
269, 2168583871, 0.75509703, 0.027359916, -0.64228064, -0.12866901, 9.845970153808594, 1.7809624671936035, 1.8316097259521484, -0.2201027274131775, 1.0439032316207886, 0.5867292881011963, -0.6005859375, 0.20654296875, 0.329345703125, 0, 
270, 2168600538, 0.7550629, 0.02709535, -0.64232284, -0.12871478, 9.790420532226562, 1.8175636529922485, 1.8380322456359863, -0.6428532004356384, 0.8437016010284424, 1.0736523866653442, -0.597900390625, 0.203857421875, 0.3271484375, 0, 
271, 2168617205, 0.7550589, 0.02681904, -0.6423471, -0.12867552, 9.733821868896484, 1.6439334154129028, 1.8376256227493286, -1.7204049825668335, 0.7782354950904846, 1.3412026166915894, -0.598388671875, 0.203125, 0.328369140625, 0, 
272, 2168633872, 0.7549826, 0.026510065, -0.6424316, -0.12876552, 9.713789939880371, 1.5398900508880615, 1.7646265029907227, -0.222574383020401, 0.5453392267227173, 1.1402966976165771, -0.6005859375, 0.203125, 0.328369140625, 0, 
273, 2168650539, 0.7550146, 0.027022688, -0.642498, -0.12813853, 9.766186714172363, 1.4057234525680542, 1.869605541229248, 2.600041151046753, 1.0047030448913574, 0.4959707260131836, -0.597900390625, 0.207763671875, 0.327880859375, 0, 
274, 2168667206, 0.7549606, 0.027245235, -0.64254344, -0.12818068, 9.773412704467773, 1.6775617599487305, 1.9293551445007324, 4.536105155944824, 1.6977311372756958, -0.6489489078521729, -0.597900390625, 0.208251953125, 0.326171875, 0, 
275, 2168683873, 0.75510305, 0.028075617, -0.6425115, -0.12732019, 9.862605094909668, 1.934800624847412, 1.8665757179260254, 3.8460731506347656, 2.025625228881836, 0.12440729141235352, -0.598388671875, 0.2060546875, 0.32666015625, 0, 
276, 2168700540, 0.7552286, 0.028060827, -0.64240384, -0.12712128, 9.863107681274414, 1.745086431503296, 1.8620316982269287, 1.244361162185669, 2.478842258453369, 1.2426193952560425, -0.59619140625, 0.208251953125, 0.32666015625, 0, 
277, 2168717207, 0.7554185, 0.028070606, -0.6422428, -0.12680496, 9.819452285766602, 1.4720855951309204, 1.8586400747299194, 0.9479708075523376, 2.8910911083221436, 1.6287178993225098, -0.59716796875, 0.20556640625, 0.324951171875, 0, 
278, 2168733874, 0.7555906, 0.02809708, -0.6420881, -0.12655632, 9.78282642364502, 1.5269831418991089, 1.8680522441864014, 1.371681571006775, 2.906074285507202, 1.2852516174316406, -0.597900390625, 0.20654296875, 0.3232421875, 0, 
279, 2168750541, 0.7558216, 0.028275594, -0.6419057, -0.12606102, 9.795997619628906, 1.6477299928665161, 1.8702025413513184, 1.3808637857437134, 3.095108985900879, 1.599826693534851, -0.598388671875, 0.204345703125, 0.328369140625, 0, 
280, 2168767208, 0.7560633, 0.02819752, -0.64168435, -0.12575676, 9.756747245788574, 1.6149682998657227, 1.862890601158142, -0.4036177098751068, 3.167874574661255, 1.8065980672836304, -0.59619140625, 0.20654296875, 0.325439453125, 0, 
281, 2168783875, 0.7563244, 0.02823587, -0.6414761, -0.12523848, 9.755614280700684, 1.5870435237884521, 1.8308426141738892, -1.2728488445281982, 2.815469980239868, 1.9793304204940796, -0.597900390625, 0.20947265625, 0.3232421875, 0, 
282, 2168800542, 0.7564611, 0.027853949, -0.6413484, -0.12515317, 9.706672668457031, 1.5210710763931274, 1.8218574523925781, 0.18117780983448029, 2.5365471839904785, 2.4713244438171387, -0.597900390625, 0.2099609375, 0.323974609375, 0, 
283, 2168817209, 0.7565827, 0.027808895, -0.6412846, -0.12475466, 9.676076889038086, 1.4327675104141235, 1.7835100889205933, 0.9672955870628357, 1.9825832843780518, 2.16668701171875, -0.59619140625, 0.211669921875, 0.32275390625, 0, 
284, 2168833876, 0.75669223, 0.028060086, -0.6412668, -0.1241238, 9.689840316772461, 1.5066779851913452, 1.8103854656219482, 1.3807997703552246, 1.5317225456237793, 1.6559441089630127, -0.594970703125, 0.208740234375, 0.324951171875, 0, 
285, 2168850543, 0.7568147, 0.02860316, -0.64126015, -0.123284176, 9.7175931930542, 1.6483725309371948, 1.8617113828659058, 1.7880034446716309, 1.390058994293213, 1.0855623483657837, -0.597900390625, 0.2109375, 0.31982421875, 0, 
286, 2168867210, 0.756852, 0.02884455, -0.6413021, -0.122780554, 9.75263786315918, 1.7014113664627075, 1.8230730295181274, 2.3023831844329834, 1.1622081995010376, 1.2396225929260254, -0.59375, 0.21044921875, 0.321533203125, 0, 
287, 2168883877, 0.7568633, 0.029016854, -0.6413543, -0.12239693, 9.749927520751953, 1.6005780696868896, 1.8498611450195312, 2.2374935150146484, 1.0726280212402344, 1.0414444208145142, -0.59619140625, 0.211181640625, 0.324951171875, 0, 
288, 2168900544, 0.756828, 0.02927167, -0.64145094, -0.12204602, 9.73224925994873, 1.567481517791748, 1.8200002908706665, 1.9229565858840942, 0.5598103404045105, 0.353538453578949, -0.597900390625, 0.21044921875, 0.323974609375, 0, 
289, 2168917211, 0.75673676, 0.029329238, -0.6415689, -0.12197952, 9.763348579406738, 1.63261878490448, 1.7876768112182617, 2.2715070247650146, 0.5103010535240173, 0.16413258016109467, -0.59326171875, 0.212890625, 0.320068359375, 0, 
290, 2168933878, 0.756678, 0.029677367, -0.6416797, -0.12167732, 9.774937629699707, 1.6360549926757812, 1.8990110158920288, 2.7588913440704346, 0.5603610277175903, -0.23926104605197906, -0.59375, 0.212890625, 0.3232421875, 0, 
291, 2168950545, 0.7566287, 0.030235361, -0.64178604, -0.121285014, 9.77894401550293, 1.6628860235214233, 1.9070186614990234, 2.6221706867218018, 0.47603121399879456, -0.988125205039978, -0.5927734375, 0.212158203125, 0.3232421875, 0, 
292, 2168967212, 0.7565607, 0.030403016, -0.6418472, -0.12134222, 9.786994934082031, 1.6927956342697144, 1.8630247116088867, 1.3336340188980103, 0.7705388069152832, -1.136678695678711, -0.594970703125, 0.212890625, 0.321533203125, 0, 
293, 2168983879, 0.756546, 0.03060905, -0.6418665, -0.12128007, 9.760210037231445, 1.6834564208984375, 1.8862651586532593, 0.4996461570262909, 0.9633768200874329, -0.9238244891166687, -0.59375, 0.21337890625, 0.32275390625, 0, 
294, 2169000546, 0.75656575, 0.030872216, -0.64184415, -0.12120982, 9.78167724609375, 1.5549546480178833, 1.9211246967315674, 0.388563871383667, 1.29230797290802, -1.1900300979614258, -0.594970703125, 0.21044921875, 0.321533203125, 0, 
295, 2169017213, 0.7565868, 0.031031307, -0.64178765, -0.12133464, 9.796211242675781, 1.6033689975738525, 1.8656303882598877, -0.30635353922843933, 1.4909857511520386, -1.628135323524475, -0.59326171875, 0.21044921875, 0.324462890625, 0, 
296, 2169033880, 0.7565481, 0.030931111, -0.6417528, -0.12178535, 9.793325424194336, 1.5830082893371582, 1.8253313302993774, -0.137898787856102, 1.430424451828003, -1.704832673072815, -0.595458984375, 0.211669921875, 0.321533203125, 0, 
297, 2169050547, 0.7565277, 0.031249357, -0.6417665, -0.121758625, 9.769877433776855, 1.5172970294952393, 1.7729706764221191, 0.09073938429355621, 0.8596453666687012, -1.7835017442703247, -0.599609375, 0.208740234375, 0.322265625, 0, 
298, 2169067214, 0.75654745, 0.031709746, -0.64174575, -0.12162687, 9.775893211364746, 1.5514167547225952, 1.858601689338684, 0.022161390632390976, 1.0942193269729614, -2.0719521045684814, -0.597900390625, 0.2099609375, 0.322265625, 0, 
299, 2169083881, 0.7565416, 0.031956658, -0.6417264, -0.12170061, 9.780387878417969, 1.6193530559539795, 1.849503517150879, 0.061400044709444046, 1.1748865842819214, -1.8577020168304443, -0.5966796875, 0.21044921875, 0.32275390625, 0, 
300, 2169100548, 0.75656664, 0.03201448, -0.6416496, -0.121933885, 9.784285545349121, 1.7044647932052612, 1.8270057439804077, -0.9746272563934326, 1.5612155199050903, -1.718945026397705, -0.595458984375, 0.21044921875, 0.3232421875, 0, 
301, 2169117215, 0.75656015, 0.032016724, -0.6416262, -0.12209751, 9.785269737243652, 1.611425518989563, 1.7778897285461426, -1.1570537090301514, 1.0561844110488892, -1.1745727062225342, -0.594482421875, 0.2099609375, 0.324951171875, 0, 
302, 2169133882, 0.756425, 0.031688765, -0.6416728, -0.12277371, 9.802093505859375, 1.5028376579284668, 1.830898404121399, -0.22147302329540253, 0.7470648884773254, -1.6125372648239136, -0.59619140625, 0.20947265625, 0.321044921875, 0, 
303, 2169150549, 0.75640047, 0.03204776, -0.6416917, -0.122733295, 9.860861778259277, 1.5681889057159424, 1.9124603271484375, 1.5197744369506836, 1.0766875743865967, -1.729420781135559, -0.60009765625, 0.208740234375, 0.32373046875, 0, 
304, 2169167216, 0.7564309, 0.03237954, -0.64164627, -0.122696064, 9.898261070251465, 1.691008448600769, 1.893399953842163, 1.6448665857315063, 1.692531943321228, -1.5417563915252686, -0.597900390625, 0.208251953125, 0.321533203125, 0, 
305, 2169183883, 0.7565095, 0.032501366, -0.6415463, -0.12270172, 9.881912231445312, 1.7204712629318237, 1.8800009489059448, 0.5430597066879272, 2.049342632293701, -0.771377682685852, -0.59716796875, 0.207763671875, 0.324951171875, 0, 
306, 2169200550, 0.7566177, 0.032827716, -0.6414672, -0.12236023, 9.81461238861084, 1.6491670608520508, 1.7947121858596802, 0.6935855150222778, 1.7951748371124268, -0.2878611385822296, -0.598388671875, 0.20703125, 0.32275390625, 0, 
307, 2169217217, 0.7565934, 0.032751422, -0.6414479, -0.12263148, 9.849369049072266, 1.5780590772628784, 1.8267710208892822, 1.4138914346694946, 1.5711534023284912, -0.8161230683326721, -0.599609375, 0.205322265625, 0.3232421875, 0, 
308, 2169233884, 0.7565903, 0.03268138, -0.6413756, -0.12304757, 9.87720012664795, 1.6870779991149902, 1.9097517728805542, 2.5723154544830322, 2.295121908187866, -1.2723108530044556, -0.599609375, 0.208251953125, 0.322265625, 0, 
309, 2169250551, 0.7566642, 0.03307155, -0.64132833, -0.12273492, 9.806966781616211, 1.6754237413406372, 1.8112835884094238, 3.903996229171753, 2.15220308303833, -0.2161455750465393, -0.598388671875, 0.20654296875, 0.321533203125, 0, 
310, 2169267218, 0.7567957, 0.033741754, -0.64127374, -0.12202526, 9.7559175491333, 1.607351303100586, 1.765642523765564, 2.738400936126709, 1.837948203086853, -0.1358753740787506, -0.595458984375, 0.208740234375, 0.321044921875, 0, 
311, 2169283885, 0.75681484, 0.033952944, -0.6412773, -0.121828064, 9.687814712524414, 1.5504869222640991, 1.829943060874939, 2.95855450630188, 1.556451678276062, 0.00651202816516161, -0.598388671875, 0.207763671875, 0.321044921875, 0, 
312, 2169300552, 0.7568914, 0.034289587, -0.6412178, -0.12157059, 9.718836784362793, 1.6520365476608276, 1.9061530828475952, 3.0365583896636963, 2.0868141651153564, -0.3497413992881775, -0.59716796875, 0.20654296875, 0.317626953125, 0, 
313, 2169317219, 0.75698936, 0.034455117, -0.6411203, -0.12142907, 9.763684272766113, 1.7912391424179077, 1.8370740413665771, 3.038544178009033, 2.509833812713623, 0.06933999061584473, -0.599365234375, 0.207763671875, 0.3193359375, 0, 
314, 2169333886, 0.7571451, 0.03469819, -0.6409971, -0.12103885, 9.780628204345703, 1.726516842842102, 1.7929182052612305, 2.3263309001922607, 2.554783344268799, 0.667178750038147, -0.59716796875, 0.20947265625, 0.3193359375, 0, 
315, 2169350553, 0.7572853, 0.034779906, -0.6408746, -0.120787226, 9.805264472961426, 1.6446126699447632, 1.7980031967163086, 1.2408522367477417, 2.392745018005371, 0.7082744836807251, -0.59765625, 0.208740234375, 0.317626953125, 0, 
316, 2169367220, 0.7574003, 0.034734253, -0.640753, -0.12072375, 9.82047176361084, 1.6124311685562134, 1.7743016481399536, 1.2259454727172852, 2.4399874210357666, 0.5336597561836243, -0.598388671875, 0.208740234375, 0.31591796875, 0, 
317, 2169383887, 0.7575153, 0.034875024, -0.64065343, -0.12049, 9.779314041137695, 1.7229230403900146, 1.8083062171936035, 1.7768490314483643, 2.2675373554229736, 0.38127708435058594, -0.598388671875, 0.20751953125, 0.314208984375, 0, 
318, 2169400554, 0.75759023, 0.034953203, -0.64059347, -0.12031424, 9.749734878540039, 1.744991421699524, 1.8423131704330444, 2.324141263961792, 2.0482542514801025, 0.5279738306999207, -0.60009765625, 0.2109375, 0.31591796875, 0, 
319, 2169417221, 0.7576793, 0.034888845, -0.6404964, -0.120289646, 9.712979316711426, 1.6843032836914062, 1.8866733312606812, 1.667482852935791, 2.3188395500183105, 0.5160126686096191, -0.5966796875, 0.208740234375, 0.3193359375, 0, 
320, 2169433888, 0.7577653, 0.034866367, -0.6403925, -0.12030658, 9.682402610778809, 1.6648932695388794, 1.8119360208511353, 1.857439398765564, 2.3782734870910645, 0.1355103850364685, -0.595947265625, 0.2099609375, 0.3154296875, 0, 
321, 2169450555, 0.75782186, 0.035244282, -0.6403494, -0.12007003, 9.657500267028809, 1.7197390794754028, 1.7632519006729126, 2.239619255065918, 1.724919319152832, -0.8467686176300049, -0.599365234375, 0.2109375, 0.31494140625, 0, 
322, 2169467222, 0.75781524, 0.03575169, -0.6403573, -0.11991943, 9.758097648620605, 1.7653297185897827, 1.7905361652374268, 0.9737115502357483, 0.9266738891601562, -2.2024359703063965, -0.59423828125, 0.211181640625, 0.314208984375, 0, 
323, 2169483889, 0.7576981, 0.035750926, -0.64038026, -0.12053619, 9.752232551574707, 1.8444204330444336, 1.8274364471435547, -1.2153611183166504, 0.5650225877761841, -3.352715253829956, -0.598876953125, 0.20654296875, 0.3193359375, 0, 
324, 2169500556, 0.75753945, 0.035577886, -0.6403891, -0.12153373, 9.683170318603516, 1.8530962467193604, 1.836216926574707, -4.2520928382873535, 0.094197116792202, -4.703324794769287, -0.598876953125, 0.205322265625, 0.31640625, 0, 
325, 2169517223, 0.75729233, 0.03535633, -0.6404409, -0.12285793, 9.667620658874512, 1.7795724868774414, 1.647977352142334, -6.665437698364258, -0.7959533333778381, -6.393840789794922, -0.602783203125, 0.20751953125, 0.317626953125, 0, 
326, 2169533890, 0.75681776, 0.0353169, -0.64070284, -0.12441757, 9.67702579498291, 1.5819008350372314, 1.5051201581954956, -6.505871772766113, -2.7714614868164062, -8.557795524597168, -0.59765625, 0.204345703125, 0.318603515625, 0, 
327, 2169550557, 0.75616777, 0.03553032, -0.6410779, -0.1263616, 9.696749687194824, 1.7486289739608765, 1.619004487991333, -6.21254301071167, -3.889392852783203, -11.706303596496582, -0.601806640625, 0.19921875, 0.318115234375, 0, 
328, 2169567224, 0.75557, 0.03547889, -0.641267, -0.1289656, 9.780198097229004, 2.3121538162231445, 2.0287563800811768, -6.187943935394287, -2.0771660804748535, -13.15406608581543, -0.60302734375, 0.197509765625, 0.3232421875, 0, 
329, 2169583891, 0.7553385, 0.035761654, -0.64106107, -0.13124792, 9.917085647583008, 2.583484411239624, 2.168056011199951, -4.395269870758057, 1.7617130279541016, -12.88589859008789, -0.605224609375, 0.19580078125, 0.325927734375, 0, 
330, 2169600558, 0.7556474, 0.036618877, -0.64032376, -0.13282321, 10.064537048339844, 2.4279048442840576, 2.4640424251556396, -4.382541179656982, 6.341215133666992, -12.36946964263916, -0.605224609375, 0.189697265625, 0.32421875, 0, 
331, 2169617225, 0.75632626, 0.03721161, -0.6390018, -0.13514078, 10.139222145080566, 2.3366072177886963, 2.6488757133483887, -10.723695755004883, 10.29476547241211, -15.065195083618164, -0.609130859375, 0.1845703125, 0.32470703125, 0, 
332, 2169633892, 0.75706494, 0.036458608, -0.6372191, -0.13955492, 10.29538631439209, 2.049818992614746, 2.623380422592163, -10.272405624389648, 15.198346138000488, -16.85289764404297, -0.609619140625, 0.179931640625, 0.320556640625, 0, 
333, 2169650559, 0.7583934, 0.03740754, -0.6349148, -0.14256082, 10.127970695495605, 2.284606456756592, 2.5957024097442627, -9.149330139160156, 19.32638168334961, -19.07266616821289, -0.611328125, 0.173828125, 0.316650390625, 0, 
334, 2169667226, 0.7602521, 0.039858237, -0.6321543, -0.14425558, 10.129551887512207, 2.465315103530884, 2.751404285430908, -7.048574924468994, 23.115842819213867, -20.59146499633789, -0.61767578125, 0.173583984375, 0.3115234375, 0, 
335, 2169683893, 0.76201063, 0.041841436, -0.62924165, -0.14711973, 10.004988670349121, 2.435720920562744, 2.5835940837860107, -5.893685817718506, 24.87915802001953, -23.013513565063477, -0.619873046875, 0.16455078125, 0.30615234375, 0, 
336, 2169700560, 0.7634697, 0.042977188, -0.6263956, -0.15131369, 10.202367782592773, 2.328951835632324, 2.2058956623077393, -10.794496536254883, 23.314149856567383, -25.46933364868164, -0.624267578125, 0.158935546875, 0.303466796875, 0, 
337, 2169717227, 0.7651816, 0.044629533, -0.6232632, -0.15507694, 10.450267791748047, 2.284780502319336, 2.286557912826538, -13.535360336303711, 24.73607635498047, -26.801042556762695, -0.627197265625, 0.148681640625, 0.298095703125, 0, 
338, 2169733894, 0.7671497, 0.046229374, -0.6198033, -0.15870914, 10.377263069152832, 2.39119553565979, 2.820768356323242, -12.966553688049316, 27.71079444885254, -25.575870513916016, -0.630615234375, 0.144287109375, 0.29345703125, 0, 
339, 2169750561, 0.7693578, 0.047364466, -0.61584103, -0.16305023, 10.150729179382324, 2.4748101234436035, 3.308016777038574, -14.826177597045898, 31.845539093017578, -26.203594207763672, -0.635009765625, 0.135009765625, 0.285400390625, 0, 
340, 2169767228, 0.7719795, 0.048982028, -0.61133975, -0.16707006, 9.965513229370117, 2.7040653228759766, 3.225337266921997, -18.023767471313477, 35.22348403930664, -27.890384674072266, -0.640625, 0.128173828125, 0.28076171875, 0, 
341, 2169783895, 0.7745508, 0.049452417, -0.6064634, -0.17270748, 10.043121337890625, 2.89709734916687, 3.0300846099853516, -21.946199417114258, 37.915748596191406, -29.32575225830078, -0.64404296875, 0.1181640625, 0.272216796875, 0, 
342, 2169800562, 0.7782101, 0.052283056, -0.6007475, -0.17538096, 10.002406120300293, 2.885110378265381, 3.1455819606781006, -25.982789993286133, 42.23017120361328, -30.250328063964844, -0.645751953125, 0.105712890625, 0.262939453125, 0, 
343, 2169817229, 0.7820374, 0.05434847, -0.5943396, -0.17951152, 10.0305757522583, 2.95862078666687, 3.4547319412231445, -27.682287216186523, 47.934444427490234, -32.45966339111328, -0.65185546875, 0.10107421875, 0.2578125, 0, 
344, 2169833896, 0.7859332, 0.055648282, -0.5873282, -0.18509012, 9.899177551269531, 3.195293426513672, 3.602152109146118, -27.271080017089844, 53.537940979003906, -33.86354064941406, -0.6552734375, 0.088623046875, 0.246337890625, 0, 
345, 2169850563, 0.78989136, 0.05605518, -0.57982105, -0.19166963, 9.76067066192627, 3.235743522644043, 3.6842899322509766, -30.892505645751953, 56.928916931152344, -33.76152801513672, -0.66259765625, 0.083251953125, 0.232666015625, 0, 
346, 2169867230, 0.7942783, 0.056415092, -0.5715824, -0.19807361, 9.441572189331055, 3.204900026321411, 3.923383951187134, -36.66175842285156, 60.91074752807617, -34.12736511230469, -0.66455078125, 0.06982421875, 0.218505859375, 0, 
347, 2169883897, 0.79889804, 0.056414988, -0.5624527, -0.20549072, 9.214077949523926, 3.3019490242004395, 4.211841106414795, -41.262760162353516, 66.73640441894531, -37.239959716796875, -0.670166015625, 0.05908203125, 0.20751953125, 0, 
348, 2169900564, 0.8037142, 0.056693263, -0.5525912, -0.21324283, 9.054033279418945, 3.452378988265991, 4.219907760620117, -44.308250427246094, 70.99949645996094, -41.02890396118164, -0.67529296875, 0.04931640625, 0.193359375, 0, 
349, 2169917231, 0.8083232, 0.056934893, -0.54250056, -0.22150679, 8.940298080444336, 3.430875539779663, 4.131680965423584, -46.3711051940918, 71.34748840332031, -43.960411071777344, -0.674560546875, 0.03857421875, 0.17626953125, 0, 
350, 2169933898, 0.8125767, 0.057457216, -0.5325366, -0.22983158, 9.033989906311035, 3.314815044403076, 4.2346062660217285, -44.56528091430664, 69.78390502929688, -45.7620735168457, -0.678466796875, 0.02490234375, 0.161865234375, 0, 
351, 2169950565, 0.8168332, 0.058168825, -0.52226585, -0.2379886, 8.954119682312012, 3.352581739425659, 4.80210018157959, -43.69245910644531, 71.76239013671875, -45.791908264160156, -0.68505859375, 0.009033203125, 0.14306640625, 0, 
352, 2169967232, 0.82111096, 0.05870984, -0.5113621, -0.24665587, 8.841546058654785, 3.408175468444824, 5.347543239593506, -47.33009338378906, 74.99461364746094, -48.16339874267578, -0.6865234375, -7.32421875E-4, 0.124267578125, 0, 
353, 2169983899, 0.825245, 0.058663346, -0.49976128, -0.2564531, 8.81043529510498, 3.813354730606079, 5.434112548828125, -55.56006622314453, 77.0472183227539, -52.89793014526367, -0.688232421875, -0.015869140625, 0.108154296875, 0, 
354, 2170000566, 0.82912034, 0.057891853, -0.48782092, -0.26690635, 8.744479179382324, 4.014340877532959, 5.285950183868408, -62.515724182128906, 76.5116958618164, -54.76782989501953, -0.6845703125, -0.029296875, 0.094970703125, 0, 
355, 2170017233, 0.83273333, 0.05659936, -0.47573516, -0.27753967, 8.457671165466309, 3.9680511951446533, 5.400057792663574, -66.26249694824219, 75.44886016845703, -54.58066177368164, -0.68603515625, -0.04638671875, 0.074462890625, 0, 
356, 2170033900, 0.8360044, 0.056028076, -0.46386597, -0.28772593, 8.15332317352295, 3.308136463165283, 5.643616676330566, -60.14105987548828, 74.65572357177734, -54.94473648071289, -0.6904296875, -0.058837890625, 0.057373046875, 0, 
357, 2170050567, 0.8388811, 0.057006847, -0.4522116, -0.2975459, 7.829826831817627, 2.659519910812378, 5.597693920135498, -49.460243225097656, 75.3963851928711, -58.4673957824707, -0.69091796875, -0.072998046875, 0.03955078125, 0, 
358, 2170067234, 0.8412536, 0.05953327, -0.44112033, -0.30685744, 7.7854323387146, 3.053004026412964, 5.502046585083008, -37.590641021728516, 73.96501922607422, -61.16926956176758, -0.69140625, -0.08935546875, 0.020751953125, 0, 
359, 2170083901, 0.843354, 0.06260461, -0.43030572, -0.31570876, 7.686305999755859, 3.5205776691436768, 5.8536272048950195, -32.33501052856445, 72.90865325927734, -60.62111282348633, -0.68603515625, -0.105224609375, -2.44140625E-4, 0, 
360, 2170100568, 0.8452809, 0.06523462, -0.41939744, -0.32457805, 7.481135368347168, 3.5980923175811768, 6.204884052276611, -35.07489013671875, 71.99624633789062, -59.833885192871094, -0.68408203125, -0.1220703125, -0.01513671875, 0, 
361, 2170117235, 0.8469632, 0.06717889, -0.408196, -0.33394074, 7.311749458312988, 3.7511959075927734, 6.38277006149292, -41.022090911865234, 71.267578125, -61.3969612121582, -0.6845703125, -0.134033203125, -0.033447265625, 0, 
362, 2170133902, 0.8482954, 0.06846778, -0.39698237, -0.34367523, 7.259305477142334, 3.943230390548706, 6.511653900146484, -45.74720001220703, 68.7027816772461, -62.52570343017578, -0.681396484375, -0.150390625, -0.052978515625, 0, 
363, 2170150569, 0.84950227, 0.06948461, -0.38586438, -0.35302502, 7.045419692993164, 3.90570330619812, 6.540233612060547, -46.002105712890625, 67.36964416503906, -59.78425598144531, -0.675048828125, -0.167236328125, -0.06787109375, 0, 
364, 2170167236, 0.85051954, 0.07083886, -0.37485734, -0.3620506, 6.72874641418457, 3.4068987369537354, 6.66399621963501, -42.814674377441406, 67.21986389160156, -59.18695831298828, -0.6708984375, -0.178466796875, -0.087646484375, 0, 
365, 2170183903, 0.85124964, 0.07299063, -0.36394095, -0.37093627, 6.591273784637451, 3.2731540203094482, 6.76318359375, -37.4209098815918, 68.02974700927734, -61.095706939697266, -0.667236328125, -0.190185546875, -0.103759765625, 0, 
366, 2170200570, 0.8517021, 0.07586318, -0.35333526, -0.37947723, 6.433651924133301, 3.6960432529449463, 6.9526238441467285, -31.400405883789062, 67.55764770507812, -61.43499755859375, -0.661376953125, -0.207275390625, -0.124755859375, 0, 
367, 2170217237, 0.8519564, 0.07882288, -0.34305567, -0.38764694, 6.318347454071045, 4.0562286376953125, 7.0484938621521, -29.035079956054688, 65.6142349243164, -59.81724166870117, -0.656005859375, -0.22021484375, -0.144775390625, 0, 
368, 2170233904, 0.85210085, 0.0814053, -0.3328656, -0.39559832, 6.148134708404541, 3.85956072807312, 7.387904167175293, -30.441692352294922, 63.971580505371094, -57.88849639892578, -0.6484375, -0.234130859375, -0.15625, 0, 
369, 2170250571, 0.85208416, 0.0836729, -0.32242155, -0.4037279, 5.872446537017822, 3.72515606880188, 7.753915309906006, -33.295989990234375, 64.1612777709961, -58.79023361206055, -0.6416015625, -0.245361328125, -0.173828125, 0, 
370, 2170267238, 0.85183847, 0.086145595, -0.31222016, -0.41166627, 5.567461013793945, 3.7145612239837646, 7.793206214904785, -30.863725662231445, 62.93510437011719, -58.61949157714844, -0.634033203125, -0.25537109375, -0.19140625, 0, 
371, 2170283905, 0.85138935, 0.088524275, -0.3020278, -0.41961813, 5.484134674072266, 3.98689866065979, 7.965383052825928, -31.295934677124023, 62.190738677978516, -59.06330490112305, -0.62646484375, -0.27001953125, -0.2080078125, 0, 
372, 2170300572, 0.8508761, 0.09067915, -0.29183364, -0.42734134, 5.2678093910217285, 3.9306042194366455, 8.087501525878906, -32.1026496887207, 61.5843391418457, -57.44358444213867, -0.61767578125, -0.28173828125, -0.22509765625, 0, 
373, 2170317239, 0.8502588, 0.092678145, -0.28166604, -0.43489695, 4.973413944244385, 3.868726968765259, 8.032686233520508, -32.53691864013672, 60.89031219482422, -56.43380355834961, -0.610107421875, -0.29296875, -0.240478515625, 0, 
374, 2170333906, 0.8495687, 0.09451091, -0.27152845, -0.4422366, 4.761119842529297, 3.7107760906219482, 8.025242805480957, -32.95881271362305, 60.23493957519531, -55.0470085144043, -0.600830078125, -0.302001953125, -0.254638671875, 0, 
375, 2170350573, 0.848778, 0.09629908, -0.26158544, -0.44930598, 4.694768905639648, 3.5855648517608643, 8.04448413848877, -32.06071090698242, 58.97298812866211, -53.55970001220703, -0.595458984375, -0.31201171875, -0.27001953125, 0, 
376, 2170367240, 0.84799063, 0.09814447, -0.25186807, -0.45589736, 4.4496941566467285, 3.441025733947754, 8.357769012451172, -30.173166275024414, 58.179805755615234, -50.714420318603516, -0.58349609375, -0.321044921875, -0.287109375, 0, 
377, 2170383907, 0.8471877, 0.09992163, -0.2422397, -0.46217832, 4.206501483917236, 3.471311569213867, 8.61279296875, -29.740081787109375, 57.65135955810547, -48.77370834350586, -0.570068359375, -0.328125, -0.302978515625, 0, 
378, 2170400574, 0.84630555, 0.10172155, -0.23268332, -0.46827173, 4.034802436828613, 3.67848539352417, 8.658876419067383, -29.009525299072266, 57.32016372680664, -47.92018127441406, -0.56494140625, -0.337158203125, -0.314453125, 0, 
379, 2170417241, 0.84535646, 0.103388, -0.22337723, -0.4741163, 3.947885751724243, 3.776028633117676, 8.596704483032227, -28.53685760498047, 55.51966094970703, -46.29596710205078, -0.55224609375, -0.344482421875, -0.330810546875, 0, 
380, 2170433908, 0.84439415, 0.10475281, -0.2141454, -0.47975793, 3.6276066303253174, 3.5813446044921875, 8.67654800415039, -29.732332229614258, 54.250587463378906, -44.64277648925781, -0.541259765625, -0.35009765625, -0.344482421875, 0, 
381, 2170450575, 0.84341, 0.10654787, -0.20517775, -0.48498398, 3.3570005893707275, 3.115211248397827, 8.792058944702148, -25.739017486572266, 54.421409606933594, -42.740509033203125, -0.531494140625, -0.35498046875, -0.35693359375, 0, 
382, 2170467242, 0.8422358, 0.10927699, -0.196673, -0.48991573, 3.0788111686706543, 2.948791742324829, 8.809741973876953, -18.21744155883789, 54.81496810913086, -42.645729064941406, -0.52392578125, -0.36328125, -0.37060546875, 0, 
383, 2170483909, 0.84093493, 0.11212535, -0.18844503, -0.4947172, 3.1710219383239746, 3.5422284603118896, 8.798283576965332, -16.314367294311523, 53.552616119384766, -42.26997756958008, -0.512939453125, -0.3701171875, -0.38427734375, 0, 
384, 2170500576, 0.8397492, 0.114599936, -0.18033034, -0.49916884, 2.9102859497070312, 3.802747964859009, 9.084994316101074, -17.731185913085938, 52.0640983581543, -39.2817268371582, -0.500732421875, -0.37548828125, -0.397216796875, 0, 
385, 2170517243, 0.83865005, 0.11679549, -0.17214097, -0.5033811, 2.4825289249420166, 3.238476037979126, 9.257017135620117, -19.377296447753906, 51.848854064941406, -37.31095886230469, -0.48876953125, -0.382080078125, -0.40576171875, 0, 
386, 2170533910, 0.83743376, 0.1188405, -0.16418834, -0.5075669, 2.213759660720825, 3.451732635498047, 9.102761268615723, -19.2963809967041, 49.853546142578125, -37.19536209106445, -0.4755859375, -0.385498046875, -0.419921875, 0, 
387, 2170550577, 0.83627343, 0.12100085, -0.15671432, -0.51131856, 1.9974836111068726, 3.1434550285339355, 9.13420581817627, -16.522075653076172, 47.925819396972656, -34.23172378540039, -0.465087890625, -0.389892578125, -0.4306640625, 0, 
388, 2170567244, 0.83508503, 0.12336023, -0.14936282, -0.5148846, 1.7489452362060547, 2.9316582679748535, 9.024503707885742, -14.720589637756348, 48.05164337158203, -33.37074279785156, -0.45654296875, -0.39599609375, -0.4404296875, 0, 
389, 2170583911, 0.8338072, 0.12616782, -0.14270166, -0.5181543, 1.4372663497924805, 2.9431815147399902, 9.001399040222168, -9.31666088104248, 45.837669372558594, -31.856792449951172, -0.446044921875, -0.3994140625, -0.452880859375, 0, 
390, 2170600578, 0.8324136, 0.1295232, -0.13727765, -0.5210244, 1.3963751792907715, 2.548464059829712, 8.887462615966797, -1.2729498147964478, 40.9296989440918, -29.43684959411621, -0.439697265625, -0.405517578125, -0.45849609375, 0, 
391, 2170617245, 0.8308194, 0.13355947, -0.13260446, -0.523753, 1.5600095987319946, 2.359468460083008, 8.960502624511719, 5.635411739349365, 39.00937271118164, -29.319652557373047, -0.42822265625, -0.4091796875, -0.46826171875, 0, 
392, 2170633912, 0.8290408, 0.13802746, -0.1282646, -0.52648675, 1.560336947441101, 3.271357297897339, 9.119224548339844, 9.482794761657715, 38.49338912963867, -30.10123062133789, -0.417236328125, -0.4208984375, -0.4755859375, 0, 
393, 2170650579, 0.8274601, 0.14228222, -0.12439819, -0.5287635, 1.3079655170440674, 3.8205933570861816, 9.04083251953125, 10.193588256835938, 35.63883972167969, -26.1480655670166, -0.406494140625, -0.426513671875, -0.480224609375, 0, 
394, 2170667246, 0.8261751, 0.14526083, -0.120228305, -0.5309232, 1.3004671335220337, 3.726536512374878, 9.18327808380127, 1.6289197206497192, 33.1002197265625, -23.614200592041016, -0.404541015625, -0.430419921875, -0.487060546875, 0, 
395, 2170683913, 0.8250452, 0.14793287, -0.115992926, -0.5328811, 1.1957688331604004, 3.2958972454071045, 9.29495620727539, -0.34865477681159973, 32.69013214111328, -21.716243743896484, -0.396484375, -0.433837890625, -0.493896484375, 0, 
396, 2170700580, 0.823889, 0.15057452, -0.11195584, -0.5347901, 1.087349772453308, 3.3712730407714844, 9.24964714050293, 0.272693395614624, 31.490724563598633, -21.308387756347656, -0.387451171875, -0.438720703125, -0.501953125, 0, 
397, 2170717247, 0.8227934, 0.1532345, -0.10818716, -0.5364941, 0.9884863495826721, 3.4531054496765137, 9.225193977355957, 1.4577598571777344, 30.30398941040039, -19.662792205810547, -0.380615234375, -0.44091796875, -0.50634765625, 0, 
398, 2170733914, 0.8215718, 0.15531619, -0.10404719, -0.53858244, 0.8089788556098938, 3.4258124828338623, 9.334760665893555, -3.3388748168945312, 29.779499053955078, -22.265111923217773, -0.373046875, -0.447509765625, -0.51220703125, 0, 
399, 2170750581, 0.8201335, 0.15732686, -0.0996192, -0.5410226, 0.4588533341884613, 3.4957692623138428, 9.531482696533203, -4.829506874084473, 30.619970321655273, -25.309782028198242, -0.36279296875, -0.448486328125, -0.51708984375, 0, 
400, 2170767248, 0.81836545, 0.16400634, -0.09532616, -0.5424877, 0.930580198764801, 3.4355151653289795, 8.723062515258789, 23.022165298461914, 48.05457305908203, -24.090234756469727, -0.351318359375, -0.459716796875, -0.5234375, 0, 
401, 2170783915, 0.81737703, 0.16548097, -0.09131234, -0.54421777, 0.4130946397781372, 4.0091633796691895, 9.92058277130127, -6.279747486114502, 27.294227600097656, -18.952089309692383, -0.348876953125, -0.4609375, -0.527587890625, 0, 
402, 2170800582, 0.8163582, 0.1680933, -0.087713115, -0.5455367, 0.31852126121520996, 3.836665391921997, 9.359224319458008, 1.9508951902389526, 29.67466926574707, -16.998258590698242, -0.337890625, -0.46240234375, -0.5341796875, 0, 
403, 2170817249, 0.8152639, 0.17055519, -0.083914675, -0.5470046, 0.0987745150923729, 3.8375015258789062, 9.561324119567871, 0.34875044226646423, 30.014328002929688, -18.25994873046875, -0.332275390625, -0.465087890625, -0.538818359375, 0, 
404, 2170833916, 0.81410736, 0.17336638, -0.08059908, -0.5483405, 0.06455020606517792, 3.7312448024749756, 9.455962181091309, 4.265626430511475, 28.74260139465332, -17.38785171508789, -0.325927734375, -0.468505859375, -0.542236328125, 0, 
405, 2170850583, 0.8128398, 0.17638677, -0.07736367, -0.549722, 0.10376634448766708, 3.5193841457366943, 9.53390121459961, 5.841275691986084, 28.968536376953125, -18.084266662597656, -0.316162109375, -0.476318359375, -0.546875, 0, 
406, 2170867250, 0.81153834, 0.17966415, -0.07417765, -0.55102134, -0.016611596569418907, 3.7173802852630615, 9.60313892364502, 7.548434257507324, 29.75057601928711, -17.831369400024414, -0.30859375, -0.47900390625, -0.5546875, 0, 
407, 2170883917, 0.8102511, 0.18275222, -0.0708212, -0.55233973, -0.13265341520309448, 3.9369423389434814, 9.428180694580078, 5.817444801330566, 29.97168731689453, -18.001684188842773, -0.303466796875, -0.4833984375, -0.5576171875, 0, 
408, 2170900584, 0.8090194, 0.18548055, -0.06751633, -0.55364805, -0.20649850368499756, 3.998049736022949, 9.24160099029541, 3.935887098312378, 28.36186981201172, -17.49700164794922, -0.29150390625, -0.48388671875, -0.56201171875, 0, 
409, 2170917251, 0.80781895, 0.18779348, -0.06418355, -0.55501616, -0.3042638301849365, 3.6873016357421875, 9.31337833404541, 1.4419043064117432, 26.878509521484375, -17.556970596313477, -0.28515625, -0.486083984375, -0.563232421875, 0, 
410, 2170933918, 0.8066106, 0.1902436, -0.06099483, -0.55629736, -0.3383990526199341, 3.419020414352417, 9.349283218383789, 2.7992794513702393, 26.714567184448242, -16.97964096069336, -0.277099609375, -0.48876953125, -0.572265625, 0, 
411, 2170950585, 0.80531865, 0.19292745, -0.05800798, -0.55756265, -0.3843432068824768, 3.6436948776245117, 9.218645095825195, 4.984280586242676, 26.478839874267578, -17.04625701904297, -0.270751953125, -0.494384765625, -0.572998046875, 0, 
412, 2170967252, 0.8040675, 0.19547172, -0.05514841, -0.5587711, -0.5524438619613647, 3.696324110031128, 9.051612854003906, 4.665746212005615, 25.335494995117188, -16.353748321533203, -0.26171875, -0.499755859375, -0.575927734375, 0, 
413, 2170983919, 0.8028642, 0.19778854, -0.052541036, -0.5599363, -0.7657726407051086, 3.612328052520752, 9.008936882019043, 4.323672294616699, 23.146678924560547, -15.50903034210205, -0.2548828125, -0.503662109375, -0.582763671875, 0, 
414, 2171000586, 0.80162454, 0.2001981, -0.050213296, -0.56106824, -0.7033102512359619, 3.285621166229248, 9.002080917358398, 5.970700263977051, 21.992919921875, -15.1189603805542, -0.25244140625, -0.505859375, -0.583740234375, 0, 
415, 2171017253, 0.8003848, 0.2028043, -0.048128128, -0.562084, -0.9767531156539917, 3.580928087234497, 9.05154037475586, 8.032028198242188, 21.57599449157715, -14.214611053466797, -0.244384765625, -0.507080078125, -0.5859375, 0, 
416, 2171033920, 0.7991942, 0.20516984, -0.046398588, -0.5630641, -0.9160465598106384, 3.8229565620422363, 9.279585838317871, 8.023355484008789, 18.753061294555664, -13.252948760986328, -0.244384765625, -0.51220703125, -0.590576171875, 0, 
417, 2171050587, 0.7981271, 0.20710433, -0.044601627, -0.5640141, -0.8405121564865112, 3.6236467361450195, 9.267061233520508, 5.225378036499023, 17.53839683532715, -12.570324897766113, -0.234130859375, -0.514892578125, -0.5888671875, 0, 
418, 2171067254, 0.79715556, 0.20861572, -0.042567328, -0.5649875, -0.8687783479690552, 3.846940755844116, 9.459699630737305, 1.8396540880203247, 17.200420379638672, -12.539791107177734, -0.2294921875, -0.516357421875, -0.593505859375, 0, 
419, 2171083921, 0.79635215, 0.20966697, -0.04044238, -0.56588674, -0.9982260465621948, 4.152632236480713, 9.425294876098633, -1.2562918663024902, 16.07077980041504, -11.47750186920166, -0.223876953125, -0.517578125, -0.59228515625, 0, 
420, 2171100588, 0.7958052, 0.20981829, -0.03810907, -0.5667611, -1.206161618232727, 3.816908359527588, 9.264281272888184, -7.36496639251709, 13.821596145629883, -10.39634895324707, -0.22216796875, -0.51904296875, -0.595703125, 0, 
421, 2171117255, 0.7953466, 0.2097594, -0.035862368, -0.5675728, -1.1573230028152466, 3.2696428298950195, 9.127946853637695, -8.292299270629883, 12.64343547821045, -9.528792381286621, -0.217041015625, -0.51513671875, -0.597412109375, 0, 
422, 2171133922, 0.7947091, 0.21046811, -0.034154166, -0.56830835, -1.1217759847640991, 3.361490488052368, 9.22233772277832, -1.7126072645187378, 12.762094497680664, -9.219797134399414, -0.2158203125, -0.516357421875, -0.6025390625, 0, 
423, 2171150589, 0.79400027, 0.21151672, -0.03289613, -0.56898385, -1.2694957256317139, 3.8027541637420654, 9.406526565551758, 2.023923397064209, 11.703801155090332, -8.597663879394531, -0.20947265625, -0.516845703125, -0.604248046875, 0, 
424, 2171167256, 0.79340005, 0.21220283, -0.031777497, -0.5696287, -1.4200618267059326, 3.61000394821167, 9.41930866241455, 0.4367928206920624, 9.595412254333496, -7.7234883308410645, -0.208984375, -0.520263671875, -0.604736328125, 0, 
425, 2171183923, 0.7928231, 0.21282835, -0.03076809, -0.57025385, -1.3038760423660278, 3.2771921157836914, 9.275910377502441, 0.5041542053222656, 8.795104026794434, -7.352436542510986, -0.20263671875, -0.52001953125, -0.60546875, 0, 
426, 2171200590, 0.7922881, 0.21355866, -0.029809173, -0.570775, -1.2977432012557983, 3.570683002471924, 9.276823043823242, 1.2394311428070068, 9.093722343444824, -6.567176342010498, -0.20263671875, -0.51953125, -0.608154296875, 0, 
427, 2171217257, 0.79192775, 0.21373735, -0.028734474, -0.57126284, -1.3045592308044434, 3.8951010704040527, 9.330828666687012, -2.4696669578552246, 7.645899295806885, -5.758479118347168, -0.2021484375, -0.520751953125, -0.608154296875, 0, 
428, 2171233924, 0.79168487, 0.21358722, -0.027731836, -0.5717051, -1.395032286643982, 3.450083017349243, 9.289443016052246, -4.144916534423828, 6.055938243865967, -4.881192207336426, -0.2021484375, -0.51953125, -0.608154296875, 0, 
429, 2171250591, 0.79139787, 0.21386519, -0.02700994, -0.57203305, -1.3593010902404785, 3.314338207244873, 9.158278465270996, -0.6229009628295898, 6.37053918838501, -4.100043296813965, -0.195068359375, -0.518310546875, -0.61083984375, 0, 
430, 2171267258, 0.7910719, 0.2145005, -0.026603892, -0.57226515, -1.3588948249816895, 3.6103322505950928, 9.168375015258789, 2.643160820007324, 6.1923136711120605, -3.33321213722229, -0.19921875, -0.521728515625, -0.60986328125, 0, 
431, 2171283925, 0.79088706, 0.21486151, -0.026241854, -0.5724017, -1.3567296266555786, 3.620007038116455, 9.285747528076172, 1.132279872894287, 5.042135238647461, -2.1469974517822266, -0.19287109375, -0.522705078125, -0.611083984375, 0, 
432, 2171300592, 0.79080963, 0.21484208, -0.025848886, -0.5725339, -1.359643816947937, 3.495105266571045, 9.44778060913086, -1.2153609991073608, 3.740856170654297, -1.6782081127166748, -0.191162109375, -0.521728515625, -0.612060546875, 0, 
433, 2171317259, 0.7907486, 0.21479237, -0.025409682, -0.5726565, -1.4449971914291382, 3.504335641860962, 9.51292896270752, -1.5821093320846558, 3.8934695720672607, -1.623716950416565, -0.191650390625, -0.521728515625, -0.61376953125, 0, 
434, 2171333926, 0.79072416, 0.21459687, -0.025024174, -0.5727803, -1.40545654296875, 3.70833683013916, 9.433259010314941, -2.2142951488494873, 3.034317970275879, -1.3798332214355469, -0.190673828125, -0.52099609375, -0.6171875, 0, 
435, 2171350593, 0.7907996, 0.21403502, -0.024543047, -0.5729073, -1.4794952869415283, 3.5404582023620605, 9.339076042175293, -4.730922698974609, 2.1259377002716064, -1.084710717201233, -0.19580078125, -0.522216796875, -0.61376953125, 0, 
436, 2171367260, 0.790869, 0.21341349, -0.024161711, -0.5730597, -1.4934430122375488, 3.3590431213378906, 9.35912799835205, -4.656106948852539, 1.3116328716278076, -1.0874897241592407, -0.193359375, -0.521728515625, -0.61328125, 0, 
437, 2171383927, 0.7908198, 0.21324293, -0.024115346, -0.5731931, -1.444406509399414, 3.3099899291992188, 9.397445678710938, -0.70378577709198, 1.2748017311096191, -1.0337798595428467, -0.191162109375, -0.517822265625, -0.612548828125, 0, 
438, 2171400594, 0.7906187, 0.21352522, -0.024403833, -0.57335293, -1.480960726737976, 3.4300074577331543, 9.427582740783691, 3.3006763458251953, 1.176551342010498, -1.3592019081115723, -0.191650390625, -0.518310546875, -0.61328125, 0, 
439, 2171417261, 0.7903636, 0.21401587, -0.024916274, -0.5734999, -1.5451087951660156, 3.543612480163574, 9.324283599853516, 5.401237964630127, 0.7918614745140076, -1.2091628313064575, -0.1923828125, -0.518798828125, -0.61376953125, 0, 
440, 2171433928, 0.79017645, 0.21423018, -0.025336744, -0.57365906, -1.4482680559158325, 3.635233163833618, 9.347587585449219, 3.4359757900238037, 0.19449643790721893, -1.0964668989181519, -0.191650390625, -0.52099609375, -0.61279296875, 0, 
441, 2171450595, 0.79006916, 0.21420257, -0.025659999, -0.5738028, -1.4711531400680542, 3.7604637145996094, 9.478239059448242, 1.6220203638076782, -0.19409304857254028, -0.7994877099990845, -0.191162109375, -0.522216796875, -0.611572265625, 0, 
442, 2171467262, 0.7899533, 0.2141604, -0.02597149, -0.5739639, -1.513428807258606, 3.5882396697998047, 9.502345085144043, 1.504765272140503, -0.2132769674062729, -0.9448269009590149, -0.193359375, -0.52001953125, -0.61376953125, 0, 
443, 2171483929, 0.78976715, 0.21431573, -0.026386011, -0.5741434, -1.5043838024139404, 3.5308289527893066, 9.50707721710205, 3.0864131450653076, -0.03293792903423309, -1.206857442855835, -0.193359375, -0.518798828125, -0.61328125, 0, 
444, 2171500596, 0.7895194, 0.21463838, -0.026812391, -0.5743441, -1.4736851453781128, 3.686129093170166, 9.59252643585205, 4.131092071533203, 0.522057294845581, -1.57603919506073, -0.193359375, -0.521728515625, -0.615478515625, 0, 
445, 2171517263, 0.78925407, 0.21490961, -0.027233608, -0.57458717, -1.4949010610580444, 3.851269245147705, 9.657390594482422, 3.8503634929656982, 0.28230956196784973, -1.874977707862854, -0.189453125, -0.523193359375, -0.612060546875, 0, 
446, 2171533930, 0.78903985, 0.21483171, -0.027486905, -0.5748983, -1.559081792831421, 3.6139965057373047, 9.503464698791504, 1.202509880065918, -0.27625858783721924, -2.2298288345336914, -0.194091796875, -0.5244140625, -0.61376953125, 0, 
447, 2171550597, 0.78885293, 0.21457186, -0.027561583, -0.57524824, -1.4609543085098267, 3.6562228202819824, 9.473336219787598, -0.5357280373573303, -0.07855414599180222, -2.560335159301758, -0.18896484375, -0.521728515625, -0.611572265625, 0, 
448, 2171567264, 0.78864205, 0.21440352, -0.027722199, -0.5755924, -1.4275144338607788, 3.6393182277679443, 9.479899406433105, 0.33699268102645874, -0.1773679405450821, -2.5136046409606934, -0.1923828125, -0.5244140625, -0.611083984375, 0, 
449, 2171583931, 0.7884678, 0.21404392, -0.027786741, -0.57596165, -1.5373821258544922, 3.7137832641601562, 9.40512752532959, -1.1380107402801514, -0.44107627868652344, -2.6105103492736816, -0.19580078125, -0.525634765625, -0.609375, 0, 
450, 2171600598, 0.7883447, 0.21351236, -0.027680337, -0.5763325, -1.4779566526412964, 3.6589090824127197, 9.450766563415527, -2.8239288330078125, -0.18761305510997772, -2.633831024169922, -0.190673828125, -0.52099609375, -0.611083984375, 0, 
451, 2171617265, 0.7881993, 0.21303852, -0.027566805, -0.5767121, -1.4124643802642822, 3.6518445014953613, 9.493061065673828, -2.5078675746917725, 0.06361554563045502, -2.7905805110931396, -0.191650390625, -0.5205078125, -0.61328125, 0, 
452, 2171633932, 0.78796893, 0.21276309, -0.027537432, -0.5771297, -1.4465376138687134, 3.4767210483551025, 9.527743339538574, -0.9811713099479675, 0.3238149881362915, -3.2486255168914795, -0.191162109375, -0.521728515625, -0.61279296875, 0, 
453, 2171650599, 0.7877153, 0.21250889, -0.027595026, -0.5775668, -1.428218126296997, 3.673490285873413, 9.471002578735352, -0.48699986934661865, -0.09399860352277756, -3.321697950363159, -0.18994140625, -0.52490234375, -0.61328125, 0, 
454, 2171667266, 0.7875095, 0.21201769, -0.02757516, -0.5780289, -1.4251855611801147, 3.609699010848999, 9.554434776306152, -2.1537466049194336, -0.6416751146316528, -3.3355934619903564, -0.191650390625, -0.52001953125, -0.612548828125, 0, 
455, 2171683933, 0.7873431, 0.21138534, -0.02741701, -0.57849455, -1.4409608840942383, 3.4418153762817383, 9.525647163391113, -3.5241539478302, -0.44905462861061096, -3.37068247795105, -0.19287109375, -0.521728515625, -0.611572265625, 0, 
456, 2171700600, 0.78712255, 0.21085441, -0.027413258, -0.5789881, -1.351259708404541, 3.66986083984375, 9.549959182739258, -2.28438401222229, -0.9297154545783997, -3.529046058654785, -0.18896484375, -0.52001953125, -0.61328125, 0, 
457, 2171717267, 0.7868872, 0.21048398, -0.027604578, -0.57943344, -1.3696939945220947, 3.578531503677368, 9.447332382202148, -0.6088266372680664, -1.2779967784881592, -3.077544927597046, -0.194580078125, -0.51953125, -0.61328125, 0, 
458, 2171733934, 0.7867136, 0.2100685, -0.027734183, -0.5798137, -1.3615986108779907, 3.49236798286438, 9.429669380187988, -1.1748160123825073, -1.0142244100570679, -2.5596563816070557, -0.1923828125, -0.518798828125, -0.612060546875, 0, 
459, 2171750601, 0.7865692, 0.20970565, -0.027965534, -0.5801298, -1.3122367858886719, 3.5981814861297607, 9.354589462280273, -0.5124076008796692, -1.2553552389144897, -1.9581804275512695, -0.191162109375, -0.5205078125, -0.61279296875, 0, 
460, 2171767268, 0.78647727, 0.20942222, -0.028291026, -0.5803411, -1.3689171075820923, 3.466738224029541, 9.324395179748535, 0.23685984313488007, -1.2832729816436768, -1.0617743730545044, -0.194580078125, -0.51953125, -0.611083984375, 0, 
461, 2171783935, 0.78640795, 0.20922959, -0.028591456, -0.58048975, -1.3620601892471313, 3.581540822982788, 9.343181610107422, 0.6096782684326172, -0.690467119216919, -0.6878674626350403, -0.19580078125, -0.518798828125, -0.6103515625, 0, 
462, 2171800602, 0.7863832, 0.20910473, -0.028894868, -0.5805532, -1.3345911502838135, 3.667463541030884, 9.475695610046387, 0.9412475824356079, -0.3031519055366516, -0.05609181523323059, -0.19287109375, -0.517822265625, -0.608154296875, 0, 
463, 2171817269, 0.78633404, 0.2091456, -0.029190928, -0.5805902, -1.335849404335022, 3.4804418087005615, 9.528879165649414, 1.8488078117370605, 0.43310433626174927, -0.05683457851409912, -0.194091796875, -0.522216796875, -0.61328125, 0, 
464, 2171833936, 0.7862514, 0.20934975, -0.029468128, -0.5806145, -1.3782663345336914, 3.781296730041504, 9.642768859863281, 2.7101757526397705, 1.1999101638793945, -0.18149156868457794, -0.194580078125, -0.521728515625, -0.61279296875, 0, 
465, 2171850603, 0.78623605, 0.20940532, -0.029584557, -0.5806094, -1.3357819318771362, 3.6907894611358643, 9.63687801361084, 1.1739002466201782, 1.532926321029663, 0.04480300843715668, -0.191650390625, -0.517822265625, -0.611572265625, 0, 
466, 2171867270, 0.7862683, 0.20931359, -0.029484328, -0.58060384, -1.3877555131912231, 3.497653007507324, 9.55009651184082, -0.5536954402923584, 2.129894733428955, -0.04607725143432617, -0.19677734375, -0.522216796875, -0.612060546875, 0, 
467, 2171883937, 0.7862389, 0.20943993, -0.029559527, -0.58059436, -1.4592719078063965, 3.358208179473877, 9.465397834777832, 1.4179768562316895, 2.0464868545532227, -0.05897323414683342, -0.1962890625, -0.52001953125, -0.612060546875, 0, 
468, 2171900604, 0.7860952, 0.20986702, -0.029786117, -0.58062315, -1.3972152471542358, 3.539475679397583, 9.490280151367188, 3.8104593753814697, 2.350163698196411, -0.5646576285362244, -0.194091796875, -0.5205078125, -0.61328125, 0, 
469, 2171917271, 0.7859649, 0.2102779, -0.030008188, -0.5806396, -1.4045464992523193, 3.7719900608062744, 9.629611015319824, 3.690540313720703, 2.3305699825286865, -0.44772279262542725, -0.193359375, -0.51953125, -0.612548828125, 0, 
470, 2171933938, 0.78589326, 0.21042417, -0.030111082, -0.5806781, -1.3954578638076782, 3.635406732559204, 9.58763313293457, 1.6962844133377075, 1.8998668193817139, -0.44906750321388245, -0.19287109375, -0.522705078125, -0.614501953125, 0, 
471, 2171950605, 0.7858197, 0.21060535, -0.030172754, -0.58070886, -1.4821653366088867, 3.4741690158843994, 9.483885765075684, 1.7265970706939697, 2.27545166015625, -0.4822615683078766, -0.190673828125, -0.52001953125, -0.61376953125, 0, 
472, 2171967272, 0.78570515, 0.21086933, -0.030286469, -0.5807619, -1.4587464332580566, 3.5703141689300537, 9.369384765625, 2.4410758018493652, 2.2833399772644043, -0.7050791382789612, -0.19287109375, -0.521728515625, -0.61328125, 0, 
473, 2171983939, 0.78562385, 0.2109925, -0.030463569, -0.5808181, -1.4391506910324097, 3.505075693130493, 9.380249977111816, 1.885395884513855, 1.3813121318817139, -0.46551084518432617, -0.19287109375, -0.522705078125, -0.611572265625, 0, 
474, 2172000606, 0.7855751, 0.21100868, -0.03061076, -0.5808704, -1.473803997039795, 3.415189504623413, 9.434378623962402, 1.1457520723342896, 1.1278103590011597, -0.3350397050380707, -0.195068359375, -0.522216796875, -0.611572265625, 0, 
475, 2172017273, 0.78544, 0.21119854, -0.03083305, -0.5809724, -1.4359583854675293, 3.666823148727417, 9.49880599975586, 2.503455877304077, 1.3267827033996582, -0.8716898560523987, -0.188232421875, -0.523193359375, -0.6103515625, 0, 
476, 2172033940, 0.7853086, 0.21137801, -0.031048356, -0.5810731, -1.492733120918274, 3.6321990489959717, 9.571974754333496, 2.4148995876312256, 1.3262574672698975, -0.8574234843254089, -0.191650390625, -0.5205078125, -0.60986328125, 0, 
477, 2172050607, 0.78524595, 0.21130107, -0.031052105, -0.5811855, -1.4857271909713745, 3.617577314376831, 9.605788230895996, 0.0864492654800415, 1.4421552419662476, -0.8963291645050049, -0.1923828125, -0.5234375, -0.61328125, 0, 
478, 2172067274, 0.78524554, 0.21101357, -0.030905424, -0.5812984, -1.4689488410949707, 3.578247547149658, 9.535188674926758, -1.7391406297683716, 1.4249815940856934, -0.8219755291938782, -0.189453125, -0.521728515625, -0.61328125, 0, 
479, 2172083941, 0.7852716, 0.21054368, -0.030654542, -0.5814467, -1.4772803783416748, 3.526338577270508, 9.474823951721191, -3.18273663520813, 1.214099645614624, -1.0163887739181519, -0.190673828125, -0.522216796875, -0.614990234375, 0, 
480, 2172100608, 0.785255, 0.21022828, -0.030535901, -0.58158946, -1.5227314233779907, 3.477137327194214, 9.405832290649414, -1.754777431488037, 1.117117166519165, -0.9950662851333618, -0.191650390625, -0.519287109375, -0.61328125, 0, 
481, 2172117275, 0.78525203, 0.20994627, -0.03055886, -0.58169436, -1.4694054126739502, 3.4027657508850098, 9.421490669250488, -1.015184998512268, 0.5439945459365845, -0.5350365042686462, -0.18896484375, -0.5205078125, -0.612548828125, 0, 
482, 2172133942, 0.78528214, 0.20971644, -0.030563397, -0.58173645, -1.4479848146438599, 3.3958144187927246, 9.493071556091309, -0.8376377820968628, 0.9493539333343506, -0.09723861515522003, -0.18994140625, -0.52001953125, -0.614990234375, 0, 
483, 2172150609, 0.7853038, 0.2096336, -0.030707018, -0.5817295, -1.4395756721496582, 3.554443836212158, 9.477778434753418, 0.5411899089813232, 0.8571993708610535, 0.30865222215652466, -0.190673828125, -0.517578125, -0.611572265625, 0, 
484, 2172167276, 0.7854003, 0.20930657, -0.030812819, -0.5817115, -1.4063594341278076, 3.470940351486206, 9.439913749694824, -1.0315003395080566, 0.11685154587030411, 0.6662952303886414, -0.191162109375, -0.52001953125, -0.614990234375, 0, 
485, 2172183943, 0.78554416, 0.20884697, -0.03088637, -0.58167815, -1.4261207580566406, 3.339585542678833, 9.51507568359375, -1.9379850625991821, -0.20680974423885345, 0.9237796664237976, -0.191162109375, -0.518798828125, -0.6142578125, 0, 
486, 2172200610, 0.78571284, 0.20835444, -0.030971454, -0.5816224, -1.4073055982589722, 3.4223973751068115, 9.497598648071289, -2.0924038887023926, -0.36153602600097656, 1.1712367534637451, -0.18994140625, -0.51708984375, -0.614990234375, 0, 
487, 2172217277, 0.78596246, 0.20771636, -0.03100929, -0.58151144, -1.3972430229187012, 3.575556993484497, 9.401915550231934, -3.1680736541748047, -0.5909106731414795, 1.7631207704544067, -0.190673828125, -0.5166015625, -0.61376953125, 0, 
488, 2172233944, 0.78628355, 0.20690738, -0.031042416, -0.58136386, -1.4068092107772827, 3.508479118347168, 9.389856338500977, -4.201353549957275, -1.180233120918274, 2.277961492538452, -0.191162109375, -0.513671875, -0.613037109375, 0, 
489, 2172250611, 0.7866353, 0.2061357, -0.031177131, -0.581155, -1.3965409994125366, 3.3273963928222656, 9.412076950073242, -3.6202781200408936, -1.487201452255249, 2.869474172592163, -0.1923828125, -0.513671875, -0.61376953125, 0, 
490, 2172267278, 0.78692585, 0.20560451, -0.031513013, -0.5809317, -1.4344465732574463, 3.3095736503601074, 9.397808074951172, -1.4209030866622925, -1.6055066585540771, 2.943495035171509, -0.194580078125, -0.51318359375, -0.615478515625, 0, 
491, 2172283945, 0.7871667, 0.20521751, -0.031970978, -0.58071697, -1.4760068655014038, 3.474724054336548, 9.48013973236084, -0.07869501411914825, -1.7132591009140015, 2.844616413116455, -0.1962890625, -0.51220703125, -0.6142578125, 0, 
492, 2172300612, 0.7874025, 0.20476438, -0.03244305, -0.58053124, -1.3763452768325806, 3.5135834217071533, 9.550460815429688, -0.37498268485069275, -2.096911907196045, 2.7037851810455322, -0.19921875, -0.50927734375, -0.6142578125, 0, 
493, 2172317279, 0.78761744, 0.20441757, -0.03296052, -0.5803329, -1.417927861213684, 3.408226251602173, 9.520849227905273, 0.4176342785358429, -1.9043940305709839, 2.731344699859619, -0.197998046875, -0.510498046875, -0.61376953125, 0, 
494, 2172333946, 0.78778285, 0.20412615, -0.033602122, -0.5801741, -1.378254771232605, 3.478286027908325, 9.536572456359863, 1.2793607711791992, -2.4230127334594727, 2.4850404262542725, -0.197998046875, -0.510986328125, -0.612548828125, 0, 
495, 2172350613, 0.7879159, 0.20391437, -0.034260582, -0.5800295, -1.3812261819839478, 3.543186902999878, 9.575246810913086, 1.823938012123108, -2.2240023612976074, 2.286055088043213, -0.19970703125, -0.50927734375, -0.612060546875, 0, 
496, 2172367280, 0.7880671, 0.20344372, -0.034674183, -0.5799645, -1.3523237705230713, 3.575371742248535, 9.656024932861328, -0.5955848693847656, -2.037285327911377, 1.647722601890564, -0.20263671875, -0.50830078125, -0.613037109375, 0, 
497, 2172383947, 0.7882145, 0.20287047, -0.03495239, -0.5799483, -1.324389100074768, 3.5774712562561035, 9.588021278381348, -1.6937931776046753, -1.781132698059082, 1.2063260078430176, -0.201416015625, -0.51220703125, -0.611572265625, 0, 
498, 2172400614, 0.78831285, 0.20233418, -0.03523346, -0.579985, -1.392311692237854, 3.4819393157958984, 9.478891372680664, -1.4237076044082642, -1.7314058542251587, 0.7286492586135864, -0.201416015625, -0.5087890625, -0.613037109375, 0, 
499, 2172417281, 0.7883118, 0.20196678, -0.03565058, -0.5800891, -1.3880465030670166, 3.4005911350250244, 9.573384284973145, 0.15871548652648926, -1.9139214754104614, 0.11828583478927612, -0.200439453125, -0.506591796875, -0.6103515625, 0, 
500, 2172433948, 0.7881797, 0.20211722, -0.036347553, -0.5801728, -1.3131030797958374, 3.326523780822754, 9.565069198608398, 4.275022506713867, -1.3726614713668823, -0.0380476675927639, -0.2021484375, -0.506591796875, -0.61083984375, 0, 
501, 2172450615, 0.7880148, 0.20241016, -0.036924817, -0.5802582, -1.2584691047668457, 3.699810028076172, 9.644715309143066, 4.6214985847473145, -0.16746865212917328, -0.37969550490379333, -0.2060546875, -0.510009765625, -0.609130859375, 0, 
502, 2172467282, 0.7879688, 0.20216344, -0.037268538, -0.58038473, -1.2921620607376099, 3.861572742462158, 9.687677383422852, 0.5914036631584167, -1.0844801664352417, -0.3242567777633667, -0.204833984375, -0.507080078125, -0.6103515625, 0, 
503, 2172483949, 0.7880022, 0.2014631, -0.037315294, -0.58058, -1.3143748044967651, 3.4944214820861816, 9.618789672851562, -3.1800854206085205, -1.3545148372650146, -0.6623955965042114, -0.20654296875, -0.509521484375, -0.61083984375, 0, 
504, 2172500616, 0.7879528, 0.20099993, -0.037406746, -0.58080155, -1.2350122928619385, 3.387899160385132, 9.472234725952148, -1.6054039001464844, -0.7030044794082642, -1.120337724685669, -0.204833984375, -0.506103515625, -0.61083984375, 0, 
505, 2172517283, 0.7878315, 0.20083846, -0.03770133, -0.58100295, -1.3156248331069946, 3.5546255111694336, 9.544577598571777, 0.9492899179458618, -0.5899244546890259, -1.0961339473724365, -0.208984375, -0.50390625, -0.611328125, 0, 
506, 2172533950, 0.78772336, 0.20060816, -0.03802428, -0.58120817, -1.2886534929275513, 3.4751551151275635, 9.491662979125977, 0.6723525524139404, -1.0089867115020752, -0.9769195914268494, -0.207763671875, -0.5078125, -0.6103515625, 0, 
507, 2172550617, 0.7876309, 0.20025839, -0.03819754, -0.58144253, -1.2857108116149902, 3.4327917098999023, 9.602218627929688, -0.5987865328788757, -0.7129038572311401, -1.2477611303329468, -0.207763671875, -0.509521484375, -0.608154296875, 0, 
