"sep=,",,,,,,,,,
"DeviceTag:,Xsens_4,,,,,,,,,,,,,,,,,",,,,,,,,,
"FirmwareVersion:,2.2.1,,,,,,,,,,,,,,,,,",,,,,,,,,
"AppVersion:,2023.0.0,,,,,,,,,,,,,,,,,",,,,,,,,,
"SyncStatus:,Un-synced,,,,,,,,,,,,,,,,,",,,,,,,,,
"OutputRate:,60Hz,,,,,,,,,,,,,,,,,",,,,,,,,,
"FilterProfile:,General,,,,,,,,,,,,,,,,,",,,,,,,,,
"Measurement Mode:,Sensor fusion Mode - Extended (Quaternion),,,,,,,,,,,,,,,,,",,,,,,,,,
"StartTime:,2023-07-11 15:23:06.900 +0200,,,,,,,,,,,,,,,,,",,,,,,,,,
"© Movella Technologies B. V. 2005-2023,,,,,,,,,,,,,,,,,,,",,,,,,,,,
PacketCounter,SampleTimeFine,Quat_W,Quat_X,Quat_Y,Quat_Z,FreeAcc_X,FreeAcc_Y,FreeAcc_Z,Status
1,27659403,0,-9.5840659715605e-18,-0.707106781186548,-0.707106781186547,0.0108085275,0.39968872,0.013555118,0
2,27676070,0.000188828448755344,0.000151478993428426,-0.70728022354626,-0.706933254825576,-0.00395977853557487,0.436557804514858,0.000220010624915213,0
3,27692737,0.000231682821967412,0.000323664564486009,-0.70742695080406,-0.706786354452595,-0.0161059571814579,0.450276935925111,0.000204360742857123,0
4,27709404,0.000303739356320833,0.000340675262257705,-0.707565135839305,-0.706647981832168,0.00843825928255967,0.442255159465617,-0.00843559689498192,0
5,27726071,0.000317925750481137,0.000468772203306207,-0.707664444848985,-0.706548450336151,-0.00746954588667002,0.444195119171324,-0.014907918230851,0
6,27742738,0.00033285284107112,0.000558364508755098,-0.70774887854117,-0.706463801168735,-0.00525257034449257,0.422519623170177,-0.0208624977537344,0
7,27759405,0.000344319545245565,0.000647306798448092,-0.707816822266574,-0.706395645905613,0.00516051706628918,0.41154366185033,-0.0176381670175537,0
8,27776072,0.000366401091877424,0.000747311771808155,-0.707885085845276,-0.706327128541147,0.00212117599962086,0.423267224587981,-0.0111100372968157,0
9,27792739,0.000394271600578444,0.000842220432419783,-0.707955839926256,-0.706256089480974,-0.00937304560049003,0.434696221548123,-0.0207876555329713,0
10,27809406,0.000421978417611192,0.000931667383400891,-0.708026959387606,-0.70618466332146,-0.00384567150502399,0.429598190167165,-0.0224541242938446,0
11,27826073,0.000455761003233864,0.00101627718415439,-0.708105042654374,-0.706106229989539,-0.0141508468113944,0.439188980782286,-0.0217491234712168,0
12,27842740,0.000463110502560041,0.00111236386701918,-0.708180177046296,-0.706030725261987,-0.0157605974728175,0.442472433013104,-0.0254683519992625,0
13,27859407,0.000492206553951578,0.00119635223113305,-0.708254853033119,-0.705955656984971,-0.0106609224389946,0.44607154205307,-0.0285232305486955,0
14,27876074,0.000514597093731457,0.0012798629097569,-0.708332613540267,-0.705877472183365,-0.0139191424634701,0.420111498609018,-0.028297204934209,0
15,27892741,0.000522501884553057,0.00136531541262917,-0.708406364059057,-0.705803291481579,-0.00926985283003701,0.459621436444382,-0.0371323150213141,0
16,27909408,0.000533077428567706,0.00145262386205014,-0.708482362134062,-0.705726822685174,-0.00505724169589157,0.448585062426842,-0.0339027297991032,0
17,27926075,0.000540285463787124,0.00154247772195064,-0.708563384061298,-0.705645278891383,-0.00984586185006502,0.449123268242146,-0.0188501839280516,0
18,27942742,0.000566513435915842,0.00162694164086312,-0.708642099118684,-0.705566019221511,-0.0176373372840154,0.442156226242094,-0.053722185577549,0
19,27959409,0.000576981936825322,0.00172344340690663,-0.708721004939563,-0.705486522899002,-0.0178093949314477,0.445608623663723,-0.0488143149257102,0
20,27976076,0.000605876784592775,0.00180203523017033,-0.708794868678153,-0.705412092126206,-0.000551229520908392,0.433466611298255,-0.0419889948025586,0
21,27992743,0.000640644542014484,0.00188337704256548,-0.708869060430397,-0.705337293519925,-0.0183085800770493,0.448287359160154,-0.0536032916670782,0
22,28009410,0.000656238459598242,0.00197326790544544,-0.708945616203006,-0.705260085948012,-0.00395714435575042,0.441407523588975,-0.054342661804108,0
23,28026077,0.000675834959975851,0.00204733395063318,-0.709017949222753,-0.705187137822836,-0.00549720709758264,0.417404301318465,-0.0642836800519073,0
24,28042744,0.000690220524243808,0.00212711791151103,-0.709093356774835,-0.705111062416989,-0.00162588222003427,0.446138859336963,-0.0673425014852054,0
25,28059411,0.000731133917140773,0.00221127171397998,-0.709163764227174,-0.705039950093431,-0.00690045664447003,0.437058638828146,-0.06082896283734,0
26,28076078,0.000757616343509149,0.00230164787307596,-0.709237801686964,-0.704965154523816,-0.0111349329043364,0.430094856335879,-0.0824472418698851,0
27,28092745,0.000790650253577323,0.00238791141400859,-0.709309667935589,-0.704892522108413,-0.0175398334164341,0.445047869602051,-0.0750841686832539,0
28,28109412,0.000816386380464181,0.00246979307986234,-0.709382557314129,-0.704818856880182,-0.0181243709608156,0.44463083231301,-0.0789569256724547,0
29,28126079,0.000840130920808228,0.002561624824758,-0.709451855837897,-0.704748747076898,-0.0171449295089128,0.445946054493139,-0.0695106418041615,0
30,28142746,0.000847820665304721,0.00265369364190226,-0.709519540274816,-0.704680254497306,-0.0175628422946985,0.447174220394705,-0.082316743050659,0
31,28159413,0.000864043550368518,0.00275050041072129,-0.709594353327602,-0.704604528726445,-0.0141237680344897,0.424806500279905,-0.072855741280057,0
32,28176080,0.000895982292297605,0.00284145914162236,-0.709663673410554,-0.704534309999958,-0.0202625021445144,0.434894569052291,-0.0789106988676091,0
33,28192747,0.000909917686934417,0.00292902477269433,-0.709736676429452,-0.704460391359627,-0.00372549169736994,0.417394318299731,-0.0941518850114583,0
34,28209414,0.000933734791509307,0.00301807244914369,-0.709808448854845,-0.704387666922348,-0.0140813716265276,0.469334106302607,-0.0974009338600651,0
35,28226081,0.00095071679317604,0.00310746677707337,-0.709881586781385,-0.704313547034665,-0.0167236857756651,0.450512859832741,-0.0944256474536159,0
36,28242748,0.000972366424752836,0.00319626976417427,-0.709956203883361,-0.704237905065226,-0.00307070832151069,0.433999703068337,-0.104941768967984,0
37,28259415,0.000984090115623401,0.00329260516642218,-0.710023285863656,-0.704169811799142,-0.0142530665629243,0.446020878026356,-0.0883659770667847,0
38,28276082,0.00100639894637906,0.00336745159472523,-0.710093679555861,-0.704098440337525,-0.00711676662300244,0.450839023232574,-0.0884140407918437,0
39,28292749,0.00104419545907258,0.00344967570540233,-0.710163137583871,-0.704027930845363,-0.0169548606875454,0.446659112915125,-0.0987632627214218,0
40,28309416,0.00106917708238977,0.0035340874778407,-0.710236244166047,-0.703953723307841,0.00731855496585545,0.446108655235667,-0.111520121332419,0
41,28326083,0.00109432498043755,0.00361271821475621,-0.710303802327759,-0.703885117841446,-0.0309291022602284,0.446960481185469,-0.11311446869432,0
42,28342750,0.00111307988281986,0.0037006415209287,-0.710375879754631,-0.703811889476401,-0.0199275599193229,0.424578972499535,-0.108182090581363,0
43,28359417,0.00113033858949113,0.00380339347379698,-0.710443548000156,-0.703743008233621,-0.0137173836963878,0.411787640020702,-0.116196420820548,0
44,28376084,0.00114520917765802,0.00390467793712034,-0.710510296911679,-0.703675038614149,-0.01281455003831,0.43471091335034,-0.113652327582374,0
45,28392751,0.00116152651342238,0.00398735759071952,-0.710581665071029,-0.70360247945874,-0.0261277180854817,0.436667362527385,-0.129907832323935,0
46,28409418,0.00119187070678058,0.00407341496071624,-0.710650570189308,-0.703532340283222,-0.0176832834241647,0.440343688419589,-0.117518750947829,0
47,28426085,0.00120801003260737,0.00415868890854813,-0.710710189476544,-0.703471586201275,-0.0155181485922976,0.420805678599469,-0.13276277418693,0
48,28442752,0.00122749222529143,0.00424391143839985,-0.710775092159681,-0.703405466885164,-0.0189528752089088,0.446033170971957,-0.142485471776479,0
49,28459419,0.00124332883280622,0.00432442381047224,-0.710842383078677,-0.703336946215076,-0.0143373026212998,0.43397116624008,-0.138023803492079,0
50,28476086,0.00126633495219538,0.00442398973875002,-0.710908704270534,-0.703269250645136,-0.0184348414908317,0.441228112098477,-0.121033975964334,0
51,28492753,0.00128383571371994,0.00450949379302733,-0.710973257421461,-0.703203415423381,-0.023858936849762,0.427040298596084,-0.122619967763674,0
52,28509420,0.00130942170757792,0.0045863074999622,-0.711036130063329,-0.703139298391771,-0.0265048247011345,0.443961275089574,-0.137377320094926,0
53,28526087,0.00131870490278385,0.00467448150019306,-0.71110251402841,-0.703071564481567,-0.0189671825589131,0.440346827608392,-0.133009144719681,0
54,28542754,0.00134049094480432,0.00475957347526026,-0.711175977594109,-0.702996641839365,-0.0270605205986241,0.451955516342796,-0.143284955461633,0
55,28559421,0.00136709143996119,0.00483397796994344,-0.711243776232293,-0.702927488784447,-0.00752508164401427,0.423320071837611,-0.13936961721062,0
56,28576088,0.00139239996348669,0.00492862628057798,-0.711311796593986,-0.702857950009505,-0.0220242642285892,0.441330261995951,-0.129950506422082,0
57,28592755,0.00140100973152003,0.00502052472100976,-0.711378942535058,-0.702789322358387,-0.0237340153279395,0.44713110493744,-0.155955495855846,0
58,28609422,0.00141757645912023,0.00510317640365902,-0.711451583090466,-0.70271515778845,-0.0183889992157568,0.450704668948392,-0.146797771583375,0
59,28626089,0.00142781509457302,0.00520378358792639,-0.711512678377719,-0.702652538946662,-0.0308385014944131,0.425777447807865,-0.161700331374691,0
60,28642756,0.00145265957626467,0.00528140708651601,-0.711576181399005,-0.702587599225145,-0.0232984169017382,0.435290666724746,-0.155568885332059,0
61,28659423,0.00147870639563847,0.00536169446743924,-0.711638974378629,-0.702523334705094,-0.00579713277858963,0.419944199754117,-0.151662243726067,0
62,28676090,0.00149090877325032,0.0054526882298239,-0.711700541575914,-0.702460236954839,-0.0201665955402247,0.438124791202671,-0.163466891158744,0
63,28692757,0.0015021168876416,0.00553472765464755,-0.711765028137281,-0.702394230582356,-0.0322732869425454,0.4433175781859,-0.143036105517342,0
64,28709424,0.00151720335643124,0.00562501823399162,-0.711833462519146,-0.702324126669337,-0.0406045397901102,0.432614483020709,-0.16460763380465,0
65,28726091,0.00152925917179475,0.00571294541025794,-0.711895800022676,-0.702260203579271,-0.0354044699435691,0.429523311897553,-0.157451817668663,0
66,28742758,0.00154345293135281,0.0057978118829762,-0.711955920513678,-0.702198526327092,-0.0273353458764063,0.426131033672209,-0.166795359069818,0
67,28759425,0.00154431771985129,0.00589507642901745,-0.712022751238542,-0.702129948709905,-0.0257639195113841,0.4384444051255,-0.182218357819857,0
68,28776092,0.00156435453200737,0.00597484945185589,-0.712084714173984,-0.702066388462431,-0.0148373435303942,0.439388521748674,-0.177331742805232,0
69,28792759,0.00157570620530935,0.00606434070801877,-0.712148157964033,-0.70200124076113,-0.0213923256552809,0.419534919380631,-0.189995639312673,0
70,28809426,0.00160302271000804,0.00615389880943813,-0.712213581939914,-0.701934023643214,-0.0369663051880037,0.436709738642183,-0.186866366012563,0
71,28826093,0.0016223312474593,0.00622095206310464,-0.712280121387006,-0.701865867864839,-0.0428748742568657,0.446016894731672,-0.190819220559647,0
72,28842760,0.00164175071889083,0.00630636032827257,-0.712343519499012,-0.701800715803103,-0.0374420770470597,0.446507285869923,-0.184141701366047,0
73,28859427,0.00165317253425683,0.00638760031002518,-0.712398411098832,-0.701744233639801,-0.0281947823132427,0.436561917929379,-0.192226496595443,0
74,28876094,0.00166286556951753,0.00646827350377535,-0.712457456123727,-0.701683525194718,-0.0246825140052265,0.443089772354897,-0.191807781021579,0
75,28892761,0.00168781041493364,0.00655682850822476,-0.712523151478907,-0.701615933329969,-0.02711974623454,0.402419019945842,-0.173688588102361,0
76,28909428,0.0017023962558191,0.00664405789879753,-0.712579665622789,-0.701557680082358,-0.0369492270491958,0.424582043344505,-0.191265611431331,0
77,28926095,0.00171599599105589,0.00671804627421041,-0.712635114897367,-0.701500617410442,-0.0377509503472049,0.451326854543155,-0.190374636363507,0
78,28942762,0.00172385338355757,0.00680735420733734,-0.712692653903745,-0.7014412800298,-0.0365209874450281,0.433508452395268,-0.19156790465391,0
79,28959429,0.00173724831092079,0.00687830317314185,-0.712743352151992,-0.701389039604203,-0.0421653006697315,0.450147995559172,-0.189874805100019,0
80,28976096,0.00175882889162695,0.00696216807389561,-0.712805972660052,-0.701324518377048,-0.0428847041634052,0.441433487291287,-0.1837241210848,0
81,28992763,0.0017626092802646,0.00704395052027479,-0.712867326950339,-0.701261327991406,-0.038634779907141,0.42369764897485,-0.189172750158005,0
82,29009430,0.0017747065439805,0.00712368597929815,-0.712925216640739,-0.701201639325313,-0.0433754239839402,0.445440827882396,-0.193002086181376,0
83,29026097,0.00179044410199033,0.00719077403684485,-0.71298301807238,-0.701142141807972,-0.0402008049852307,0.440804690383879,-0.192256025893658,0
84,29042764,0.0018048332546313,0.00726668728200886,-0.713038476313021,-0.701084922908826,-0.0295832695939889,0.428000165875903,-0.192314796692211,0
85,29059431,0.00180355707331129,0.00735344391771004,-0.713090068741332,-0.701031545586157,-0.0329364974247109,0.440427152869845,-0.190126896628297,0
86,29076098,0.00182157604406216,0.00743426405831777,-0.713140282719533,-0.700979565138194,-0.041685181344682,0.436619587675597,-0.19698767176683,0
87,29092765,0.00183439534299944,0.00751034995272248,-0.713189416320996,-0.700928731102549,-0.0468831904126445,0.422139892027741,-0.2021003854291,0
88,29109432,0.00183314841757432,0.00758780682066302,-0.713239297550761,-0.700877142717487,-0.0579794586675738,0.442138284052665,-0.20911282867931,0
89,29126099,0.00184912919066212,0.00767630123817982,-0.713290974956208,-0.700823544243884,-0.0401206603716841,0.440997716769736,-0.207752555197949,0
90,29142766,0.00185650029932783,0.00775037384880968,-0.713344443903568,-0.700768285144064,-0.0508849523765117,0.443687985077552,-0.204483598416244,0
91,29159433,0.00185843826730911,0.00781817688416543,-0.713391571873383,-0.700719549818212,-0.053199418484555,0.457400781929577,-0.209971836749594,0
92,29176100,0.00186159988047636,0.00789630663609598,-0.713438958657735,-0.700670418282919,-0.0413565671795653,0.431954384179562,-0.231340813418967,0
93,29192767,0.00187417325626009,0.00796545575892499,-0.713489377192693,-0.700618260982642,-0.0345408626105389,0.42893440288841,-0.214295145358815,0
94,29209434,0.00188011294501692,0.00803372349034886,-0.713538052455337,-0.700567892613157,-0.053145921259203,0.436526559066128,-0.228039564296502,0
95,29226101,0.00188989566626728,0.00810950849832266,-0.713586122368821,-0.700518029838573,-0.0519632797352847,0.454530108507438,-0.226547325826201,0
96,29242768,0.00190650930174575,0.008184468173122,-0.713637426201342,-0.700464848245599,-0.0483758252063937,0.433674746679941,-0.210460252074232,0
97,29259435,0.00191797250926707,0.00824947074961396,-0.71367676247477,-0.700423976115421,-0.0568186061097664,0.440733548021501,-0.223815728587562,0
98,29276102,0.0019278011254787,0.0083212584358223,-0.713724349900389,-0.700374608763147,-0.057970900808086,0.41456699828348,-0.22156444557772,0
99,29292769,0.0019327450463036,0.00839106321964451,-0.713771691197763,-0.70032551531364,-0.0553392669725642,0.419673183571922,-0.22629971649101,0
100,29309436,0.00193301375501648,0.00845245785262381,-0.713813828745506,-0.700281827056617,-0.0464701166187084,0.428687353256129,-0.24555485191283,0
101,29326103,0.00193545768746172,0.00850620824743335,-0.713856981762919,-0.700237179827755,-0.0473430036725229,0.448327466791671,-0.237945449474464,0
102,29342770,0.00194018907720245,0.00856860548334663,-0.713900156007848,-0.700192389217696,-0.0539504009404042,0.42324723947973,-0.223669584064926,0
103,29359437,0.00194888292366331,0.00864184430182111,-0.713935774543672,-0.700155147241767,-0.0521172088362808,0.431740039487147,-0.229610327340875,0
104,29376104,0.00194454920552466,0.00871683963430102,-0.713980442444572,-0.700108679593269,-0.0365307461829142,0.443964038836587,-0.223440726650498,0
105,29392771,0.00194085028440021,0.00878686702780527,-0.714024813275555,-0.700062561557764,-0.0533479699469075,0.447524830718341,-0.239619338975722,0
106,29409438,0.0019484546498533,0.00884842666942977,-0.714061401467108,-0.700024445148012,-0.0456165049043497,0.436374789418606,-0.233211871065061,0
107,29426105,0.00194721096863475,0.00890890935315903,-0.714097152905624,-0.699987211251508,-0.0385422630645062,0.432009150793166,-0.239994007522712,0
108,29442772,0.00193456684584744,0.00897306781625225,-0.714135807984967,-0.699946990320512,-0.0531187066319942,0.430996238483829,-0.239558511828397,0
109,29459439,0.00192292728246639,0.00903469385344424,-0.714177281307467,-0.699903913063726,-0.0638570251313222,0.440644447888119,-0.240961372931864,0
110,29476106,0.00192526858728106,0.00909167355052945,-0.714219521691203,-0.699860064332939,-0.0480285209614223,0.436812547613126,-0.246069160499724,0
111,29492773,0.00192198992880906,0.00915319110854041,-0.714258361599617,-0.699819632428438,-0.0488448478301465,0.43437338505223,-0.25001920406825,0
112,29509440,0.00191300065364586,0.00921209971231554,-0.714296923690459,-0.69977952417439,-0.0545427438576007,0.424833542671131,-0.256591074078884,0
113,29526107,0.00190501657829204,0.00927481130411057,-0.714330316300401,-0.699744630562664,-0.0556613870337332,0.45124581740424,-0.235578086365008,0
114,29542774,0.00190835990961307,0.00932648853939357,-0.714362512805563,-0.69971106542065,-0.0475066033959754,0.455441376057171,-0.247203073822781,0
115,29559441,0.00189735300406069,0.00937671628694827,-0.714392837226482,-0.699679463299267,-0.0552713070490659,0.444571739668809,-0.239999795696461,0
116,29576108,0.00189251137824881,0.00942846965491463,-0.714424690124819,-0.699646256690269,-0.0561182783582134,0.44423007679687,-0.263187177610451,0
117,29592775,0.00187088726967981,0.0094945135156899,-0.71445320062482,-0.699616307779397,-0.0611942397695209,0.421164926793141,-0.252158517613165,0
118,29609442,0.00187158049774818,0.00955125365531506,-0.714483855128174,-0.699584227596102,-0.0393091415397182,0.461078552146196,-0.249059914756542,0
119,29626109,0.00227638341389288,-0.00206005271577325,0.707367440699901,0.706839358057425,-0.00433999186798204,0.430192326885984,0.00716665704109088,0
120,29642776,0.00226409643529422,-0.00205590504916534,0.707369175609855,0.706837673386751,-0.00510269688468112,0.433382629583075,3.02649286732127e-05,0
121,29659443,0.00226505053691957,-0.00205400267981828,0.707371501421855,0.706835348292123,0.00144606416983545,0.427742987205399,0.000807646279905277,0
122,29676110,0.00225427476652483,-0.00204194819096282,0.707374083904392,0.706832833216796,0.00330580296510687,0.44208597106551,0.00478734321930199,0
123,29692777,0.00225055830146572,-0.00204429260411477,0.707372417677836,0.706834505781724,-0.00606095759360954,0.426531914430358,0.00873058912542543,0
124,29709444,0.00224589912855172,-0.00203205121020443,0.707371721583352,0.706835252522954,-0.00738447255452805,0.433376509315668,-0.00978105671612795,0
125,29726111,0.0022366361054541,-0.00201995190487596,0.707367083593285,0.706839958054129,-0.00274689735780923,0.431266824152036,0.00184878595318389,0
126,29742778,0.00222263428844193,-0.00201104283838835,0.707367377052368,0.706839733946512,0.0163286156491964,0.431851581695448,-0.00141892430815487,0
127,29759445,0.00222797606665654,-0.00200742809018201,0.707359687012421,0.706847423101195,-0.000931765791184463,0.432742054731842,0.0124322007225681,0
128,29776112,0.00221494679271753,-0.00200316212750922,0.707359460262476,0.706847703065784,0.00887711861132576,0.441256614797691,0.00302474124619252,0
129,29792779,0.00221113292585994,-0.00199458475416072,0.707352604432531,0.706854599988822,0.00269408594229058,0.421845253407509,0.0144063401339377,0
130,29809446,0.00220259966697506,-0.00199128592981627,0.70734912748289,0.706858115313283,0.00523199850435841,0.433033083015333,0.0108716064265959,0
131,29826113,0.0021959246575493,-0.0019802803286769,0.707350747894797,0.706856545458405,0.0114068500607742,0.455823437027081,0.00498560114564446,0
132,29842780,0.00218066776475199,-0.00197449483021786,0.707347184053727,0.706860175189922,0.00277768693322896,0.428878595806359,0.000324009934600777,0
133,29859447,0.00218092943367617,-0.00197927615261349,0.70734226651567,0.706865081902616,0.0100811797818036,0.415830118580504,0.00364727396659757,0
134,29876114,0.00217116933907382,-0.00197188083407515,0.707343490081928,0.706863908223071,-0.00292646325116961,0.453546367256802,-0.00352480583497521,0
135,29892781,0.00215449393836767,-0.00198033066581652,0.707339938861465,0.706867489235275,0.00335349979942611,0.428895223103481,-0.0125000529460787,0
136,29909448,0.0021496200066437,-0.0019714332352961,0.707337418045848,0.706870051435947,-0.00539337879302074,0.43879026762531,0.0142107372821376,0
137,29926115,0.00214314341958361,-0.00196421071332511,0.707332428308739,0.706875084208957,-0.00159614387347354,0.438798608700161,-0.00777194914114629,0
138,29942782,0.00213204719605041,-0.00196315555712633,0.707321932593238,0.706885623044901,-0.0077969110224966,0.442724123712017,0.0118984878219855,0
139,29959449,0.00212282133492353,-0.00194941551635321,0.707322092218985,0.706885529111808,0.0204466570799612,0.457617402245273,0.0199963803460197,0
140,29976116,0.00211914665533574,-0.00194400625370945,0.707324307305785,0.706883338572589,0.0201665185207869,0.43251369818522,-0.0033677483642274,0
141,29992783,0.0021183676318942,-0.00193742472598753,0.70732071026552,0.706886958242608,-0.00136667903260173,0.433248183964606,0.00575223396773075,0
142,30009450,0.00211587255248539,-0.00192334196707864,0.707309937548905,0.706897783334751,0.0090622345261486,0.451982597548107,0.00421308339419776,0
143,30026117,0.0021100729608199,-0.00191308338924056,0.707311575054841,0.706896190043125,0.00387124645579825,0.444847209408026,-0.00648796900117908,0
144,30042784,0.00210109638458733,-0.0019000961526602,0.707313963606064,0.706893861846651,0.00583848921758484,0.442546456121155,0.0138010760071387,0
145,30059451,0.00208688766827062,-0.00189814919919256,0.707309561318947,0.706898314042604,-0.00632064021907291,0.438705160585272,-0.00582351274293336,0
146,30076118,0.00206545495586781,-0.00188383413076245,0.707303965145034,0.706904014668827,-0.00228074846756172,0.419015988680131,0.00529805227072097,0
147,30092785,0.00205792370639294,-0.00188273832167712,0.707301317883058,0.706906688302863,-0.000734783850891884,0.430380979662609,-0.00449690025794654,0
148,30109452,0.00204962341469202,-0.00187698137242254,0.707299197425044,0.70690884936226,-0.0159159189076131,0.453353393647283,-0.00315001911518262,0
149,30126119,0.00203340383453713,-0.00187720239485411,0.707297808322228,0.706910285483659,-0.0126355197716436,0.43979156432811,0.0115294437135913,0
150,30142786,0.00202100763340067,-0.00187103077403015,0.707294365325192,0.706913782261473,0.00473724227280484,0.438611508459331,0.0106793792655301,0
151,30159453,0.00202003098574256,-0.00186099180618599,0.707294516451255,0.706913660344953,0.00278683725818268,0.442231066964677,0.00154592286622063,0
152,30176120,0.00201407606688328,-0.00186022667973483,0.707292299626366,0.706915897362299,0.00458769001801305,0.443073820192419,0.00482328992619535,0
153,30192787,0.00200926200684587,-0.00185489332450548,0.707284278482908,0.706923950399089,0.00257974464240889,0.448210877147618,-0.00275089202367566,0
154,30209454,0.00200489860334561,-0.0018462334231186,0.707285299575008,0.706922963843182,-0.00235526924661156,0.471254339154372,-0.00343173244188022,0
155,30226121,0.00200796638712015,-0.00184246552074183,0.707281068377185,0.706927198307592,-0.000695500912395301,0.428395796857006,0.00258724836316534,0
156,30242788,0.00200917080487253,-0.0018371078491491,0.707288300663856,0.706919972848033,0.000238103686002221,0.44565234296195,0.00234246712744126,0
157,30259455,0.00199495379541671,-0.00182976430073464,0.707285015960123,0.706923318557427,0.013803420501493,0.430563326038348,0.00835845059254939,0
158,30276122,0.00198034015080953,-0.00183058165979874,0.707282303649502,0.706926071218149,0.0143438875962055,0.451649279885624,-0.0031917959429358,0
159,30292789,0.00197433663323651,-0.00182071758128873,0.707289763451727,0.706918649845049,0.00759766903272542,0.461646867557454,0.000832726075163868,0
160,30309456,0.00196478212964715,-0.00181786037881826,0.707290809095467,0.706917637624007,0.00269247128088398,0.437577671008187,0.0200334909495345,0
161,30326123,0.00195527005262928,-0.00180634624829302,0.707286229038571,0.706922275957301,-0.010237803613973,0.458769419122702,0.000520356114435925,0
162,30342790,0.00194729535641102,-0.00179799322520471,0.707281906772368,0.706926643728754,-0.00069867174765758,0.463503625113236,0.00468046010942636,0
163,30359457,0.00195198851326271,-0.00178733050017314,0.707288892807026,0.706919668210142,-0.0140397610629782,0.425660683531316,0.00724671284522772,0
164,30376124,0.00194444447437278,-0.00177554657616879,0.707287159432042,0.706921452972391,0.00666031627717514,0.461291651492519,0.00287402445719228,0
165,30392791,0.001945987148842,-0.00178023637735096,0.707295616503151,0.706912975385149,0.0033875266632358,0.461046829874864,-0.000210699681499533,0
166,30409458,0.00192830281462234,-0.00177297842158103,0.707293401440548,0.70691525834037,-0.00641693805578376,0.43992737097776,0.0127475667935609,0
167,30426125,0.00192715086983499,-0.00177112096334481,0.70728828485047,0.706920385427764,0.00890157874391402,0.436935733336717,0.0115835488769012,0
168,30442792,0.00191813440084068,-0.00176564962737702,0.707283347245165,0.706925363777173,-0.00444010063540639,0.467448854769269,0.00158137849833674,0
169,30459459,0.00190733856906857,-0.00175920468101446,0.707288475985847,0.706920277680652,0.0113830273331705,0.427925237771388,0.00782322738480454,0
170,30476126,0.00189966725399592,-0.00175400707378312,0.707291116052256,0.706917669801133,0.00849654529308285,0.437287446418204,0.0149494377355209,0
171,30492793,0.00189692089175499,-0.00174681922358262,0.707288514894316,0.706920297496346,-0.00823198630020521,0.436804286813209,-0.00481132750751209,0
172,30509460,0.00188242447742826,-0.00174699027784905,0.707288590313947,0.706920260365175,0.00644872061845375,0.436454317877027,0.00703620041519523,0
173,30526127,0.00187463617652183,-0.00174875908999117,0.707284409545675,0.706924459609707,0.00493932403764153,0.443414724912658,0.00745537519447288,0
174,30542794,0.00186284240896996,-0.00174153365435919,0.70728251987439,0.706926399251594,-0.00665447551237241,0.43598626442695,0.00872261947103791,0
175,30559461,0.00186536763506579,-0.00173566084003158,0.70728506417772,0.706923861442061,0.00165703301974722,0.426227094169905,0.000510234763853676,0
176,30576128,0.00185374485164549,-0.00174070591444717,0.707287656160966,0.706921286293793,0.00388268989208396,0.451833290482965,0.0130485347751316,0
177,30592795,0.00185506728250672,-0.00173869814814913,0.707292907746592,0.706916033419456,0.00549159220580043,0.450454810118759,0.00718382742911326,0
178,30609462,0.00184670071826389,-0.00173335937583029,0.707295329071685,0.706913645811924,0.00590982769778069,0.448145359318969,0.00885336360768546,0
179,30626129,0.00184609665655493,-0.00173238284270543,0.70729417566188,0.706914803814154,0.0152464966424137,0.419606860530931,0.0127968103719554,0
180,30642796,0.00184186785297973,-0.00172956432140104,0.707304826043385,0.706904165489076,0.00984974313093339,0.441384749899559,-0.00833730362018644,0
181,30659463,0.00183760246348815,-0.00172760255130929,0.707304159819484,0.706904847987807,0.00273311191299848,0.454437368374118,0.0174267223359224,0
182,30676130,0.00183561810248841,-0.00172574610539008,0.707301866049009,0.706907152736589,-0.0117939434326451,0.460521737788966,-0.0146020945929819,0
183,30692797,0.00182809521285822,-0.00172476969429772,0.70729993639205,0.706909105343251,0.0124782534614058,0.440159371212871,0.00172343076607266,0
184,30709464,0.00182697702379216,-0.00171517562774792,0.707304678427404,0.706904386888515,0.0122716477711124,0.417961049226505,0.0026594994604633,0
185,30726131,0.00181401615000445,-0.00170576531639166,0.707303821447741,0.706905300500368,-0.00213102834230344,0.423399785346086,-0.000167903344177714,0
186,30742798,0.00180322021760478,-0.0017087367396662,0.707309335976048,0.706899803265444,-0.00387577614384047,0.42220955180316,0.0172644751753824,0
187,30759465,0.00180648138867315,-0.00170830306085659,0.707311366421304,0.706897764359793,0.00755889566170552,0.437615284850977,-0.00735792955159136,0
188,30776132,0.0018079509870173,-0.00170261564050947,0.707308246544799,0.706900896012257,0.0165340279379262,0.453816903571575,0.00626065020800823,0
189,30792799,0.00179756642906926,-0.00169274640786983,0.707306362498126,0.706902831324222,0.0176469622141439,0.437566383213199,-0.00139453412326581,0
190,30809466,0.00178869535732808,-0.00168439704183422,0.707305219626776,0.706904017292477,0.0114615321135485,0.419450551071196,0.0163235028834416,0
191,30826133,0.00178417339516362,-0.0016781802810309,0.707303218550454,0.706906045712164,-0.00918985735488198,0.42838899461934,0.00809298876670381,0
192,30842800,0.00178315809667916,-0.00166950621844989,0.707306412978472,0.706902872575658,-0.00226834058650315,0.457736796191516,-0.00121609663141947,0
193,30859467,0.00177066873149522,-0.00167765047803517,0.707304883055057,0.706904415481746,-0.00420327308033,0.44611773418784,0.00735024081936128,0
194,30876134,0.00177019108821598,-0.0016812175457109,0.707302242062316,0.706907050682546,0.00147505467580129,0.433532657470017,0.00600317453398543,0
195,30892801,0.00176277361449392,-0.00168691609329551,0.707297920642115,0.706911379451921,0.0101040338229143,0.440252107065561,-0.00296157648424471,0
196,30909468,0.00176022628363167,-0.00168320668255604,0.707293013181458,0.706916304751409,-0.00144813310314945,0.442527266708752,-0.0077035393733187,0
197,30926135,0.0017658319497339,-0.00167882245599555,0.707294872226288,0.706914441156131,-0.00789990948891331,0.452169386233911,0.0010958394374328,0
198,30942802,0.00177012223882879,-0.00167868510674227,0.707292702185065,0.706916601954799,-0.00341791012721229,0.441978739343852,0.00697240888805172,0
199,30959469,0.00176831469092976,-0.00167615630138184,0.707297706005083,0.706911605961562,-0.0080005747491215,0.452603936801781,-0.00143075252182486,0
200,30976136,0.00175953703857869,-0.00167341024091987,0.707297227927425,0.70691211270833,-0.0128468539006714,0.447016368418155,-0.000920911202368148,0
201,30992803,0.00175121788369604,-0.00167413157505155,0.707296134104695,0.70691322607513,-0.00495580077131555,0.438434663565947,-0.00332659685913342,0
202,31009470,0.00175263934583463,-0.00165826864517662,0.707294913463518,0.706914481241585,-0.00291604435023292,0.462339436573317,0.0212692924664834,0
203,31026137,0.00174667804642045,-0.00164602974498189,0.707291944625392,0.706917495023225,0.00613629467363609,0.436804944773069,-0.000990985804065661,0
204,31042804,0.00173633083517204,-0.00164713756600967,0.707293615409011,0.706915846260868,-0.00525661851875458,0.453202131739089,0.000495680466390082,0
205,31059471,0.00173506376621384,-0.00164509348369747,0.707301294611622,0.706908170742057,-0.00940764984731124,0.437148241621327,-0.00237505304123465,0
206,31076138,0.00172900964963687,-0.00165006447172175,0.707296813162605,0.706912657902583,-0.00235516514340712,0.447931269613865,0.0149751668880957,0
207,31092805,0.00172349800100289,-0.00163730632708234,0.707294399085323,0.706915116407312,-0.00993644388796477,0.434931282085591,0.00949790297752184,0
208,31109472,0.00171991876764381,-0.0016402140462129,0.707294407746145,0.706915109718519,-0.00298867176617039,0.446323608625654,0.000874068292185894,0
209,31126139,0.00170845054088284,-0.00163765756151054,0.707293437834135,0.706916113885679,0.000876130444687422,0.425857280316701,0.00609684065674047,0
210,31142806,0.00169324113569934,-0.00163086918849327,0.707293271245192,0.70691633285094,-0.00409177183289103,0.459402394980656,0.00377934787377966,0
211,31159473,0.00168843970918958,-0.00162976593364989,0.707295167082581,0.706914450026292,0.000764037135339936,0.446251322079411,-0.00266475837428749,0
212,31176140,0.00168681446541186,-0.00162411021044223,0.70728713314181,0.706922505098702,-0.00519557083170927,0.437442498529796,0.00415588176855686,0
213,31192807,0.001684670124422,-0.00161763238044939,0.707285430839688,0.706924228240885,-0.00112323394946096,0.429324790035008,0.00850993324222982,0
214,31209474,0.00168110269286592,-0.00160927376694785,0.707287078355173,0.7069226074497,0.0111945890009086,0.449050269794591,-0.00455482468818071,0
215,31226141,0.00167787523144498,-0.00160745285341772,0.707289543901335,0.706920152434399,0.00245426804613943,0.448895802479002,0.0063588824379979,0
216,31242808,0.00167948915940679,-0.00161303655288659,0.707289979125478,0.706919700431331,-0.00205735061150813,0.466210477532569,0.0105956989786007,0
217,31259475,0.0016790117930611,-0.00161132511034294,0.707290657766497,0.706919026471224,-0.0181847418202807,0.445574529768185,0.00754198025068047,0
218,31276142,0.00169062692862451,-0.00159963449222295,0.707287337981423,0.706922346853763,0.00393075632976339,0.437490953176607,0.00808514717394555,0
219,31292809,0.00168931933334875,-0.00160180914845249,0.707287174773351,0.70692250834782,-0.00245957376052102,0.435359804088072,0.0108903006745542,0
220,31309476,0.00169232474327291,-0.00160928025721999,0.707285280487837,0.706924379448933,0.0154060561299287,0.457597175468202,0.00510435129244435,0
221,31326143,0.00169265007839274,-0.0016067405228136,0.707292327093499,0.706917334173712,0.00769102881481228,0.445994969536261,0.00482910560033082,0
222,31342810,0.00168790479874952,-0.00160555648431677,0.707294327620914,0.706915346615877,0.0192370389750756,0.4313703971398,0.00902981617248417,0
223,31359477,0.00166909114677714,-0.00160422413629998,0.707295390453486,0.706914330907866,0.0115832977281839,0.430079438801713,0.00528592913315178,0
224,31376144,0.00165545014895508,-0.00159330218434693,0.707292527090829,0.706917252579411,0.00986610922838168,0.454123730528913,0.00594592705335193,0
225,31392811,0.0016536200162925,-0.00158169473468765,0.707289707553835,0.706920103951655,-0.00413227962672337,0.451041900982211,0.0024030936012411,0
226,31409478,0.00165703091210622,-0.00159384013637757,0.707294570987282,0.706915202675748,0.000218713544525414,0.429789675855475,-0.000913310825408297,0
227,31426145,0.00165088253325174,-0.00159210410557216,0.707300283440641,0.706909505407989,0.00412050702637514,0.429955445655183,-0.0108794501124954,0
228,31442812,0.00164820166526431,-0.00158915275424788,0.707302039605735,0.706907761164327,0.00647900868098399,0.450492822272772,0.00714632113569977,0
229,31459479,0.00164442027439236,-0.00159037800868277,0.707301422839158,0.706908384325334,0.0127075136836356,0.421312452373491,-0.00297785865594524,0
230,31476146,0.00164306448772236,-0.00158680806194143,0.707296334995413,0.70691348613626,0.00305956942690376,0.437828403733311,0.00668368400575888,0
231,31492813,0.00163277241103642,-0.00158583405381791,0.707296092345901,0.706913754949517,0.00428328621733901,0.435059781184374,0.00317188277781343,0
232,31509480,0.00163148675194512,-0.00158861558121097,0.707293877830718,0.706915967378513,0.0180196437424452,0.440372715380656,-0.00124257883328481,0
233,31526147,0.00162829248347665,-0.00158003244562003,0.707295946820755,0.706913923877575,-0.0117874719213591,0.436764000454548,-0.00221976161244953,0
234,31542814,0.00163383918327181,-0.00157203764891813,0.707294649480334,0.706915226942838,0.0058737559698489,0.465072078427646,0.00366318709241861,0
235,31559481,0.00162201562221818,-0.00156733914819913,0.707287631351928,0.706922286428922,-0.0012688814302518,0.45245348017148,-0.00140729156704174,0
236,31576148,0.00161307915356336,-0.00155644788290463,0.707288586182646,0.706921375614987,0.0124169765775146,0.43960730739544,0.0119385632594058,0
237,31592815,0.00160217595117684,-0.00156679927415497,0.707285460501991,0.706924504833963,-0.00103658911170351,0.431788008033241,-0.00133809990049042,0
238,31609482,0.001608928010872,-0.00157301115647398,0.707280514319775,0.706929424377082,-0.00240449023904298,0.415988785493434,0.00337548719911586,0
239,31626149,0.00172007548180494,-0.00151792138939145,0.707289536246281,0.706920256585928,0.0205121527042875,0.43808861154341,0.0189642862175387,0
240,31642816,0.00171720882953907,-0.00152071668471541,0.707300637279197,0.706909150541314,0.0197227851198384,0.441273844676734,0.0121647324098129,0
241,31659483,0.00171618098733411,-0.00152339701268668,0.707303911834531,0.706905870882348,0.0125226116716607,0.436067974940558,0.000971155567738004,0
242,31676150,0.00170794609094226,-0.00151955833176922,0.707304285611664,0.706905525100774,0.00501124216020866,0.445138916093328,0.00710233686564953,0
243,31692817,0.00171806642036085,-0.00151083042061533,0.707297871728422,0.706911936727384,-3.66502637840441e-05,0.430761005394351,0.00126094642526366,0
244,31709484,0.00171603755005812,-0.00150624244416169,0.7072986107593,0.70691121201095,0.00204845746418882,0.46671584729582,0.0217617902286066,0
245,31726151,0.00170449409129582,-0.00150453026013429,0.707300032532943,0.706909821029166,0.00586575410119487,0.450752268664747,0.00424897038409028,0
246,31742818,0.00170108687203003,-0.0015053597043227,0.707300422451905,0.706909437336191,0.014693249404683,0.445975985498307,0.0189808428862575,0
247,31759485,0.00169254101556094,-0.00149422084221371,0.707298206173907,0.706911698978138,0.0127088906198494,0.459408310261731,0.0118845922936294,0
248,31776152,0.0016840445788762,-0.00148107259223438,0.707298870614608,0.7069110821349,0.0109450492845339,0.453773415117512,-0.00066199743255989,0
249,31792819,0.00167865650018776,-0.00147617840458043,0.707302425483404,0.706907548350536,-0.000318233267002122,0.452803090081001,0.0239986648817258,0
250,31809486,0.00166992356804215,-0.00146666439155222,0.70730789414386,0.706902117080305,-0.00922903163559438,0.439813944526492,0.0120935005302054,0
251,31826153,0.00166370865856068,-0.00145312017263978,0.707306579632488,0.70690347496943,-0.0132204658302995,0.438420044403494,0.00621970166338771,0
252,31842820,0.00166355639834526,-0.00145104266332601,0.707298382880307,0.706911680926409,0.00788744471233425,0.413001337104791,0.011952392504831,0
253,31859487,0.00164639083610384,-0.00143895824872402,0.70729536483628,0.706914765496864,-0.00246895861656063,0.444692898058497,0.00541611343088291,0
254,31876154,0.00164541897596098,-0.0014337016169446,0.707300244743192,0.706909895872372,-0.00100747762167518,0.423232163090546,0.0042424762943519,0
255,31892821,0.00164189647141315,-0.00142660548943373,0.707299645039818,0.706910518452868,0.00484368682731669,0.429195317095349,0.00873335663997676,0
256,31909488,0.00164323477802792,-0.00142048211917806,0.707303061189663,0.706907109627386,0.00530474072630855,0.444705137510158,-0.00864603249104723,0
257,31926155,0.00164486979474023,-0.00141748611695826,0.707310971749146,0.706899196759867,-0.00499338545738346,0.429373801069608,0.0117157218326717,0
258,31942822,0.00163985266852379,-0.00140854936718667,0.707302027354783,0.706908175770884,-0.0065394292190158,0.451564906339403,0.0144827327105834,0
259,31959489,0.00163475019119379,-0.00140887205827858,0.70730533450917,0.706904877933522,0.000736634324251389,0.435065204751829,-0.00652039507521878,0
260,31976156,0.00163149089162332,-0.00140225802321881,0.707302105202782,0.706908129735129,-0.00573447935864556,0.433369226686497,0.0223039870115504,0
261,31992823,0.00163029963757773,-0.00139868586347652,0.707305678464111,0.70690456428953,-0.008763273326991,0.414961674798619,0.000311338173866003,0
262,32009490,0.0016253101148973,-0.00138924409214033,0.707301116468041,0.70690915895251,0.00145988090620892,0.432484646298479,0.0184050226347559,0
263,32026157,0.0016182414276313,-0.00139479864982159,0.707299214831792,0.706911066917006,-0.00397124578995074,0.461759181934537,0.00695179447800823,0
264,32042824,0.00161404040983816,-0.00138606103195168,0.707299201324485,0.7069111072222,0.00958659833282306,0.419095451210477,0.0085907108873048,0
265,32059491,0.00161785505314718,-0.00138121499165897,0.707304421228752,0.706905885178808,0.0129659215370535,0.43166458570344,0.00411083582525013,0
266,32076158,0.0016168083927974,-0.00137619487031723,0.707309604005888,0.706900711627407,-0.00173774158585964,0.436324563790355,0.00414069184157188,0
267,32092825,0.00160677965079847,-0.00137801198280979,0.707307430625669,0.706902905584525,0.0133915285955238,0.433618609075016,0.0133830894900946,0
268,32109492,0.00160899710704262,-0.00138331040255859,0.707314564768047,0.706895751895304,-0.00808243540947052,0.432801012970942,0.0184617268429127,0
269,32126159,0.00160156350309885,-0.00139775779388815,0.707313280695946,0.706897025187285,0.00651165211834073,0.457922434941132,5.90022062687863e-05,0
270,32142826,0.00159775444548432,-0.00139639234449324,0.70731436306694,0.706895953495535,0.0043936818554206,0.459118808093444,0.0148811213719566,0
271,32159493,0.00158551934243217,-0.00139255250115448,0.707317785948116,0.70689256369508,0.00580150012801469,0.422742239306827,-0.00734166066059593,0
272,32176160,0.00157329132635564,-0.00138852116724158,0.707316433978283,0.706893951726576,-0.00462003721837745,0.442208289875074,-0.00674248229023124,0
273,32192827,0.00157111656278299,-0.00138080479281673,0.707316095549143,0.70689431030953,0.010696005916244,0.411067949330406,0.0149220693564233,0
274,32209494,0.00156599583478209,-0.00137220371712269,0.707314856560817,0.706895578145991,0.00274277483611936,0.453374301020498,0.00947559696153974,0
275,32226161,0.00155791640264453,-0.00137038808986586,0.707312554817031,0.706897902621849,0.00250581434198923,0.44393041890573,0.00241035284452472,0
276,32242828,0.00155081525541747,-0.00137304172886703,0.707309877480984,0.706900591983265,0.00648570726499224,0.432025442380719,0.00123774424095985,0
277,32259495,0.00155157418634944,-0.00137639264391665,0.707308654927885,0.706901807060175,0.00803357048220457,0.427854968401662,0.00992907773596398,0
278,32276162,0.00155421173551609,-0.00137872905315429,0.707311132665764,0.706899317540449,0.0105792455641915,0.443156052047639,-0.00275068386590927,0
279,32292829,0.00155350473043172,-0.0013765139342,0.707308732474037,0.706901724993236,0.00143730595452368,0.458598594859123,0.0120468000365548,0
280,32309496,0.00155329745665147,-0.00137758821640748,0.707305764876903,0.70690469264931,0.000800024839002564,0.44559636231088,0.0134983030988679,0
281,32326163,0.00154517875926871,-0.00137261398055997,0.707304856280406,0.706905629228978,-0.000428691546607523,0.420077233129019,9.52005540379685e-05,0
282,32342830,0.00154580393836599,-0.00137482651245664,0.707302923489469,0.706907557439794,-0.00274784120158104,0.445622783196375,0.00542107290835092,0
283,32359497,0.00154619794307106,-0.00137678666066394,0.707304747534025,0.706905727693757,0.00666866782985428,0.436956066624058,0.0146284142774305,0
284,32376164,0.00154259442739838,-0.00137452621557706,0.70731063726867,0.706899846857179,0.0047418464920607,0.451674184756821,-0.00181887392404747,0
285,32392831,0.00153203984475637,-0.00136820702537648,0.707307741617312,0.706902779391669,0.00817885994215074,0.44125955002447,-0.00186763321359355,0
286,32409498,0.00152798791550346,-0.00136907187070639,0.707312533372502,0.706897991954509,0.0113163206393908,0.446863648330997,0.00619793686336714,0
287,32426165,0.00152053861808385,-0.00136133358525459,0.707313514093743,0.70689704166416,0.00190244224935108,0.435907845009344,0.00553627061060059,0
288,32442832,0.00151088443320056,-0.00135719629775754,0.70731065656464,0.706899929520817,0.00268666449892311,0.447220355707416,0.0137888206929758,0
289,32459499,0.00150517587439951,-0.00135900280166212,0.707307747771702,0.706902848699236,0.0110469070580043,0.426439829168672,-0.00378454371969317,0
290,32476166,0.0015022129660764,-0.00136366120670592,0.707305434710097,0.70690516040971,0.00136997812032469,0.425130965381629,0.00493974440240077,0
291,32492833,0.00148803377116389,-0.00135925922719465,0.707305786213825,0.706904847174138,-0.00481442763931834,0.45103791700552,0.00605208264318934,0
292,32509500,0.0014894586663339,-0.00136381334399779,0.707300893250364,0.706909731106654,0.00879381010413994,0.434771418809276,-0.00230291625136026,0
293,32526167,0.00148986896621632,-0.00135583186850365,0.707304426438959,0.706906210434074,-0.000569756998716837,0.448391429920786,0.00514389385547943,0
294,32542834,0.00149026749505086,-0.00134470019936413,0.707304379179564,0.70690627814271,0.00431277244757702,0.448853312791094,0.0103675753071051,0
295,32559501,0.00148245985408329,-0.00134898908966427,0.707306583040648,0.706904081278769,0.00842793254157011,0.43215866235808,0.00581609128687642,0
296,32576168,0.00147850499612959,-0.00133841593041215,0.707306377781761,0.706904315034941,0.000732900382414687,0.426913315210943,0.00952495480661089,0
297,32592835,0.00146546289429053,-0.00134639188972125,0.707307267274171,0.706903437046765,0.00687956296544547,0.419964872670829,-0.00549854484489796,0
298,32609502,0.00146404393185904,-0.0013455976484308,0.707304208515316,0.706906501992206,0.0067203326313138,0.432947642531712,0.00538410892392246,0
299,32626169,0.00145335842881648,-0.00134371247239836,0.707300137562314,0.706910600847378,-0.00293354973775008,0.434629565626939,-0.00432834915313923,0
300,32642836,0.00146168395054835,-0.0013474331796987,0.707305000958299,0.706905710489904,-0.00611851672455665,0.440243095466041,-0.00622783460142001,0
301,32659503,0.00145988419209798,-0.00134035536369663,0.70730468316471,0.706906045637548,0.000150781032005637,0.453893836179128,0.00823709807528995,0
302,32676170,0.00144432862162692,-0.00133373962400426,0.707304425647865,0.706906347766373,0.0170438995086016,0.446967679539874,0.00497765675628094,0
303,32692837,0.0014455898833195,-0.00132323543147112,0.707301809360656,0.706908982679541,-0.00485946871829774,0.432818338547831,0.00343270570344082,0
304,32709504,0.00144586930151759,-0.00131675222962071,0.707294438450393,0.706916369143248,0.018974402127906,0.42125057660778,0.0090365825181037,0
305,32726171,0.00143679004540535,-0.00131566298576573,0.707295998011287,0.706914829284611,0.00733495610486291,0.426459151748689,0.00142134031541783,0
306,32742838,0.00143212399908664,-0.00132109075458769,0.707294875760315,0.706915951484524,0.00469183479379352,0.433956593665255,0.00441996796798947,0
307,32759505,0.0014349629823069,-0.00131468108242833,0.707300020098271,0.70691081054393,-0.0056311475704827,0.425329368116261,-0.00567057174788564,0
308,32776172,0.00143157207528846,-0.00131287051982153,0.707305212501097,0.706905625484173,0.00302939384345564,0.436045860418178,-0.00693461678544734,0
309,32792839,0.00142122253678795,-0.0013033089580451,0.707300246086797,0.7069106332471,0.00795864670429707,0.439850536777019,0.002399825932702,0
310,32809506,0.00142260923169437,-0.00128753786762734,0.707298620453087,0.706912285884447,0.00443280700005818,0.432232532254832,0.00370222629270228,0
311,32826173,0.0014124873664691,-0.00128806955008961,0.707295421895876,0.706915505503598,0.00610040479145157,0.434395714083404,0.00787424722399141,0
312,32842840,0.00141939901246614,-0.00128570759384902,0.707295522501214,0.706915395300004,0.00510245818541269,0.439699894704743,-0.00296247783112355,0
313,32859507,0.00141558647285506,-0.00128655295450211,0.707295183897243,0.706915740192704,0.0106605801271896,0.432126512401371,-0.00241234343838207,0
314,32876174,0.00140486689706319,-0.00128286256525363,0.707301587824242,0.706909360861735,0.00227220565222621,0.43696556093669,0.000125298476767698,0
315,32892841,0.00138904913150034,-0.00128080810772485,0.707309464832069,0.706901514379531,-0.00804388320014306,0.432786793194666,0.0219097143726044,0
316,32909508,0.00137828213699076,-0.00128671462229087,0.70730272625396,0.706908267130571,0.00621595619118817,0.449011350968211,0.0164420250421137,0
317,32926175,0.00137550572235776,-0.00128850155412778,0.707300682682738,0.706910313989182,0.00273904955118543,0.437208681689742,0.00402526524710332,0
318,32942842,0.00137861951038631,-0.00127648717298957,0.707298850382391,0.706912163027693,0.00265229875704069,0.447407342097383,0.00813917053822334,0
319,32959509,0.00138444345219847,-0.00127182837100508,0.707291436197953,0.706919578205299,0.0076493037777648,0.44830204234472,0.00442329301284866,0
320,32976176,0.00138096287446776,-0.00127548210403067,0.707290223703689,0.70692079156022,-0.00193665927648176,0.443167893962762,0.00440394728915674,0
321,32992843,0.00137470472345595,-0.00126525048135002,0.707293335418351,0.706917708790017,0.020776314513447,0.436359944209281,-0.0041018428571109,0
322,33009510,0.00136959694662088,-0.00126429413897533,0.707292480070371,0.706918576216835,0.00883989160795201,0.435287633196126,-0.00289099517548326,0
323,33026177,0.00136559040279493,-0.0012640130160226,0.707293174555647,0.706917889617275,0.00227993008568089,0.430644445656995,-0.00725111787946056,0
324,33042844,0.00136137901412368,-0.00126034368083353,0.707294032219207,0.706917046171672,0.0104777121184098,0.441309226256139,0.000675780301307958,0
325,33059511,0.00135978633768664,-0.00125767030444734,0.707295495381611,0.706915590052591,-0.00390313375081729,0.456002412929121,0.0117211547327949,0
326,33076178,0.00135555465680155,-0.00125677540262523,0.707293425909987,0.706917670349012,0.0139636583289963,0.434784163554597,-0.0111813440352239,0
327,33092845,0.00135515331020362,-0.00125718235331169,0.707295338524752,0.706915756758324,-0.00355301985144692,0.427028869066439,0.00464340654079973,0
328,33109512,0.00135571319728594,-0.00125547912829063,0.70730061428682,0.706910480077479,0.00649232084881158,0.460660563290976,0.00234556210538777,0
329,33126179,0.00133957187953658,-0.0012549036435398,0.707304583199282,0.706906540745886,0.00471610860068389,0.427268415759113,-0.00437783341072124,0
330,33142846,0.00132919111712728,-0.00125728244567258,0.707300259729707,0.706910881991581,0.0104921600078049,0.441942857741616,0.0040368379843579,0
331,33159513,0.00132259711416786,-0.00125092428195054,0.70730074319835,0.706910421903919,0.0027941389289738,0.427341967601522,-0.0014723062459675,0
332,33176180,0.00132747299342789,-0.00124902713441633,0.707298119527401,0.706913041229026,0.00937951189026146,0.462911692073218,0.00250988806540299,0
333,33192847,0.00132643770688611,-0.00125003394498951,0.70730103769961,0.706910121618867,0.0106057908584035,0.444534949266662,-0.0025185200211552,0
334,33209514,0.00133108403046413,-0.00125462829095158,0.707300150382368,0.706910992552977,0.00176977864070213,0.440801824612896,0.00602485265468779,0
335,33226181,0.00132659795953024,-0.00124739565389518,0.70729110033684,0.706920068696764,0.00777494526596244,0.433548617474632,0.00996798969823119,0
336,33242848,0.00133499418751211,-0.00123873688569361,0.707285545278376,0.706925626046841,0.00928892525429028,0.446582718857188,0.00833481770138061,0
337,33259515,0.00132512019186263,-0.00123578607053707,0.707286959752862,0.706924234591528,0.00982585455097184,0.454241226255028,0.00312011920414247,0
338,33276182,0.00131813815532358,-0.001235463792197,0.707280840819134,0.706930370228356,-0.00387095196429392,0.428916392977373,0.0086600475993727,0
339,33292849,0.00131562539064712,-0.00122802820617673,0.707276011596512,0.706935219448492,0.0108045536521682,0.4518763419577,0.00191635363262083,0
340,33309516,0.00131160686683346,-0.00121430794239246,0.707278700073105,0.706932560833455,0.00808576839483562,0.439050413313369,0.00512528637498325,0
341,33326183,0.00131158477183137,-0.00122635290849651,0.707282038400521,0.706929200104178,0.00764790419141206,0.416629381768095,0.0110886295883438,0
342,33342850,0.00130413035182487,-0.00122347488931457,0.707279360565513,0.706931898043412,0.0109132804247102,0.443355610505782,0.00226751070973676,0
343,33359517,0.00130125975949829,-0.00122142494249651,0.707275277395941,0.706935992030851,0.0132987862113992,0.4317014454634,0.00449980743241723,0
344,33376184,0.00129322032159619,-0.00121531658497714,0.707271035467021,0.706940261249991,0.0147215759386956,0.456427376271399,0.00357869957040172,0
345,33392851,0.0012925386441749,-0.0012049804381345,0.707268663968931,0.706942652789886,0.000533833955283423,0.445910220075755,0.00424134388785178,0
346,33409518,0.00129220527353299,-0.00121112608779198,0.707265408811333,0.706945899541166,0.00319846806878189,0.438537729480531,0.0189944858807942,0
347,33426185,0.00128892058419142,-0.00121217449192091,0.707267976090563,0.706943335291796,0.010334297456838,0.453894422570579,0.00580701758410484,0
348,33442852,0.0012804034614356,-0.00120474796225054,0.707270564717269,0.706940773639375,0.00810716265887361,0.44626377874757,0.00825781055202724,0
349,33459519,0.00127469976279271,-0.00119912329162849,0.707274399529135,0.706936956888341,0.00268809791983561,0.429869281437256,-0.004670092468738,0
350,33476186,0.0012728586941672,-0.00119782685184368,0.707279293317389,0.706932066245429,0.0131488601505988,0.434832056758332,0.0139259401767579,0
351,33492853,0.00127356935381757,-0.00120130864631286,0.707283336701449,0.706928013664123,-0.00391956045230878,0.420100412996044,0.00659083644764701,0
352,33509520,0.00127779444688929,-0.00120044567860523,0.707278597480131,0.706932749077352,0.0101615945648233,0.456162660346538,0.00157363846681925,0
353,33526187,0.00127702120016858,-0.00118966882827935,0.707277390771327,0.706933975989722,0.00174006575327751,0.459781138480368,0.0106255462689628,0
354,33542854,0.00127697061445702,-0.00119322366402345,0.707276242800085,0.70693511861693,0.000974877224802512,0.42446692746243,0.0132070307155193,0
355,33559521,0.00126420937695779,-0.00119980012200027,0.707278109802812,0.70693326251357,-0.0119058112650795,0.453367546945241,0.0047106219038287,0
356,33576188,0.00125520382106792,-0.00119559619565905,0.707275203274262,0.706936193617539,0.00676519542509096,0.463392364813958,0.00585444393221065,0
357,33592855,0.00126295472046252,-0.0011954208133626,0.707279400229372,0.706931981116736,0.0146876020472302,0.434524457710716,0.00257554918437703,0
358,33609522,0.00125844506576392,-0.00117548282409935,0.707283717422798,0.706927703251707,0.00396460176429152,0.452804272336674,0.00282389920978508,0
359,33626189,0.00135093216213181,-0.00121824321948719,0.707276282549435,0.706934898706241,0.00212873934841621,0.445919825138278,0.0096549656086603,0
360,33642856,0.00134737984481842,-0.00121890534131405,0.707274609592492,0.706936578105215,-0.00290241157221242,0.434159336781437,0.0113117911135734,0
361,33659523,0.00134292444026605,-0.00122598046657781,0.707274884490582,0.706936299318883,0.00352544022617814,0.434144799188558,-0.00966680460704015,0
362,33676190,0.00133676105332005,-0.00123503311110742,0.707278708176745,0.706932469704805,0.0136976389682551,0.444798970309935,0.000796314887733885,0
363,33692857,0.00132853993533205,-0.00123180232196752,0.70728437080249,0.706926825395108,0.00574551306764401,0.437950419432599,0.0191365683346731,0
364,33709524,0.00132678901000512,-0.0012345768683879,0.707281798915664,0.706929397021726,0.00970455222704319,0.453511385618636,0.00490907342952918,0
365,33726191,0.00131419468398584,-0.00123777227418799,0.707277495507081,0.706933720486837,0.0124322711386575,0.439267844070078,0.0108612422428712,0
366,33742858,0.00130680655346293,-0.00124002752209091,0.707277377293989,0.706933848501055,0.0120660871095035,0.439887158475315,-0.00420059633664858,0
367,33759525,0.00130755284482163,-0.00124743390431135,0.707283660198768,0.706927548076921,-0.00130663851831545,0.456065955027593,0.00184740627143407,0
368,33776192,0.00131466363106243,-0.00124736399778229,0.70728102743134,0.706930169096116,0.013536347369444,0.451953766278887,-0.007015789203801,0
369,33792859,0.00132197260529859,-0.00125241119075681,0.707280513015297,0.706930661213289,0.00370238051007482,0.441589098945296,0.00454310661811587,0
370,33809526,0.00132539159911192,-0.0012577912239397,0.707283982047829,0.706927174493181,0.000537079952466024,0.412829814681396,0.0125250023499041,0
371,33826193,0.00131372437877367,-0.0012548885116116,0.70728222684689,0.706928957512411,-0.00813878609218855,0.44210108446256,0.00643076045695786,0
372,33842860,0.00130730364439673,-0.00125308050016844,0.707285607716852,0.706925590046821,0.0120912363780469,0.449687687056238,0.00406916317831883,0
373,33859527,0.00131298347680306,-0.00124893657294294,0.707290781544078,0.706920410353665,0.00596578367452268,0.442190512827007,-0.00255873492886002,0
374,33876194,0.00131976251286417,-0.00125465482617066,0.707293149556173,0.706918018343772,0.00123078930649676,0.436614847798782,0.00638447435893308,0
375,33892861,0.0013201894940004,-0.00125405360554945,0.707294921774876,0.706916245449719,0.00599956815442131,0.42291985673097,0.00482928145332905,0
376,33909528,0.0013253160718341,-0.00125887909646608,0.707298662378244,0.706912484653282,-0.00370386285103376,0.432607135255352,0.00767119800300273,0
377,33926195,0.00131319573883217,-0.00125220019152701,0.70729824128037,0.706912940462492,0.00968599363620352,0.435540323882069,0.00906151802159953,0
378,33942862,0.00131154069018973,-0.00124672812754484,0.707297589336848,0.70691360550514,0.0126182839171518,0.442185430368727,-0.00077768140678138,0
379,33959529,0.00131063519145052,-0.00125453518549489,0.707294185920304,0.706916998621618,0.00911940610895134,0.457173723335147,-0.00785044529198006,0
380,33976196,0.00130890075921658,-0.0012571852937205,0.707300585342633,0.706910594232332,0.00773062731367113,0.451892378210982,-0.00116912014784412,0
381,33992863,0.00130291012071219,-0.00124909534903127,0.707306287262747,0.706904914528549,0.0020052716609764,0.447404089700084,0.0124893882431616,0
382,34009530,0.00130014297808422,-0.0012490454242184,0.70730328280678,0.706907925860587,-0.00234826449203695,0.455588853258061,0.00435352517935709,0
383,34026197,0.00128664111661569,-0.00125756306745173,0.707297303968814,0.706913917594084,-0.00274554867388162,0.420716140260488,0.00179230398054994,0
384,34042864,0.00128093677220139,-0.00125629336723252,0.707301350534879,0.706909881427256,-0.000815627137491748,0.45304696636738,0.00505011109385866,0
385,34059531,0.00127441821132409,-0.00125995563758551,0.70730372157194,0.706907514333026,-0.00938567688508698,0.447993901394235,-0.00162607675285332,0
386,34076198,0.0012666573094672,-0.00125388691554295,0.70730500452819,0.706906255394759,-0.0112517465439701,0.431046637436206,0.00443678952297455,0
387,34092865,0.00126261422642403,-0.0012587542987945,0.707306669886736,0.706904587675498,0.00507489060584385,0.430882658318475,-0.0106222179801718,0
388,34109532,0.00125734425341998,-0.00125612433658577,0.707307887066906,0.706903383872244,0.00230222600494116,0.463859071261664,0.00708879637557901,0
389,34126199,0.00124903464923266,-0.0012629740124041,0.70731295907904,0.706898311447935,0.000193613576944098,0.416192461791555,-0.00365341659168607,0
390,34142866,0.00124767375875304,-0.00125847122502698,0.707313559333106,0.70689772127508,0.00168021323039803,0.440184950588807,0.00131858041876101,0
391,34159533,0.00124892593595391,-0.00126083008893176,0.707318831086662,0.706892439966429,0.00658048434715557,0.436921324162321,-0.00668389550793206,0
392,34176200,0.00124964381011464,-0.00126097222229024,0.707318689153066,0.70689258046339,0.013169854765113,0.421429235886721,0.0112785995606685,0
393,34192867,0.00124398296847277,-0.00126194694919565,0.707320466186465,0.706890810599511,0.0189292492009831,0.447453099594945,-0.00171668959647075,0
394,34209534,0.00124081722699413,-0.00125769327508672,0.707323388371261,0.706887899771409,0.00438464674844984,0.418389853673898,0.000860169563297931,0
395,34226201,0.00124144562666772,-0.00126072739436564,0.70731911354595,0.706892170696327,0.000483724846286005,0.449068084416417,0.00645440364210695,0
396,34242868,0.00122789288758969,-0.001260351347416,0.70731737978558,0.706893929841528,-0.00776493032056688,0.446960597881432,-0.00827253508385663,0
397,34259535,0.00122211429083702,-0.00125296966646562,0.707323377507336,0.706887951612765,0.00131951117974285,0.440239563403244,-0.0125889798252836,0
398,34276202,0.00120804894075106,-0.00125029988519011,0.707320734090002,0.706890625552733,0.00218014311985067,0.44601145755899,0.00032591629371527,0
399,34292869,0.00121009856401493,-0.00125623727384527,0.707328145332695,0.706883195690481,0.00829613418833653,0.443642384309367,0.0142281469689226,0
400,34309536,0.00120664907629341,-0.00125440957486676,0.707328247016617,0.706883103084962,0.00822283300962624,0.443215848841696,-0.00848049301807429,0
401,34326203,0.00121229451499753,-0.0012477237503557,0.707327584585952,0.706883768105658,0.00475351631642934,0.448375702131232,-0.0108334072147849,0
402,34342870,0.00120287376881876,-0.00124470879891917,0.707320789620172,0.70689058868102,0.0109758201749087,0.436036487492343,-0.0162633564452701,0
403,34359537,0.00119033923895198,-0.00124527247532857,0.707327523381425,0.706883870983105,-0.00918050640470211,0.456852961294561,-0.0139949027666667,0
404,34376204,0.00119500607390296,-0.0012529117906177,0.707320824831693,0.706890552300666,-0.0167052796967188,0.432787723775558,-0.00125891280009168,0
405,34392871,0.00119902196131824,-0.00124802176297475,0.707326568419502,0.706884807020144,0.0136833296452716,0.430093493806445,0.00631163468667307,0
406,34409538,0.00119724917303964,-0.00124349508776298,0.707329354815919,0.706882029853695,0.0133934921065012,0.434429315503722,-0.00277476486976677,0
407,34426205,0.00119737578075092,-0.0012409872729121,0.707326784794489,0.706884605684774,-0.00107387033658714,0.45228619505629,-0.00210824089534993,0
408,34442872,0.00119164040961292,-0.00123804143476704,0.707326283124697,0.706885122525253,0.00357478196120131,0.433383127162011,-0.00133852859168139,0
409,34459539,0.00118843408118578,-0.00123421415450255,0.707325450149727,0.706885968109668,0.0043391638308119,0.43509070922998,0.00733386378144067,0
410,34476206,0.00118111737421249,-0.00122047625282222,0.707321687339424,0.706889769355007,0.00272216282600859,0.421314061437388,0.00631780043660802,0
411,34492873,0.00118883310395691,-0.00122628629574745,0.707322223408483,0.706889209968756,-0.00472064051888477,0.454083213614661,-0.00159740746388284,0
412,34509540,0.00118417825873975,-0.00122116298562472,0.707322056516896,0.706889393644807,-0.000504808951201503,0.458269937831929,0.00453463067568318,0
413,34526207,0.00117759105875895,-0.00122041775319003,0.707325426243499,0.706886034130863,0.00689394482624833,0.42216513467884,-0.00240833073880198,0
414,34542874,0.00117776801204232,-0.00122406373781736,0.707321125230645,0.706890331192137,0.0190167560398693,0.435768503508254,0.00275752254871429,0
415,34559541,0.00116464998265213,-0.0012289031144923,0.707325019005221,0.706886448361274,0.00891658551844168,0.437670231565982,0.00241888723358252,0
416,34576208,0.00117124248684773,-0.00122617834570569,0.707325705117944,0.706885755661482,0.0107931613446429,0.439770359997809,0.0055289076606656,0
417,34592875,0.00117155179943036,-0.00122355352566615,0.70732405910658,0.706887406729065,0.0093841570893081,0.449744414508984,0.00335288157952736,0
418,34609542,0.00117434232198713,-0.00121942747474185,0.707322314797278,0.706889154610936,0.00281692473000161,0.455437103065342,0.0156441138127199,0
419,34626209,0.00117513086429085,-0.00121185083238514,0.707326436127051,0.706885042450904,-0.00918891970135481,0.452984465810792,0.000728667946624759,0
420,34642876,0.00117599613462403,-0.00120458190986222,0.707321284356856,0.70689020838549,-0.00119814073966191,0.452467147344508,-0.00734859360748973,0
421,34659543,0.00116753190625129,-0.00120689980127181,0.707326819425719,0.706884679974898,0.00594929979190304,0.42094854823582,0.0106900447300411,0
422,34676210,0.0011692687844662,-0.00120080314170953,0.707323100942031,0.706888408276777,0.0106692873428472,0.445930515088736,0.00580269267996077,0
423,34692877,0.00115810213203278,-0.00119180913324616,0.707321960848513,0.706889582673176,-0.000405348075820554,0.445750379754451,0.00299434247726661,0
424,34709544,0.00115795409370043,-0.00118858946275012,0.707323054332184,0.706888494182496,0.0139095206547571,0.407460960807619,0.0183775038302871,0
425,34726211,0.00114753499537499,-0.00118429106287143,0.707319976258281,0.706891598340295,0.00891682533694929,0.453142203942414,0.0070120259313319,0
426,34742878,0.00114513531099177,-0.00118144357152964,0.707312189672781,0.70689939821484,-0.00127933193305138,0.451929357586776,0.00246517934127769,0
427,34759545,0.00114052328539053,-0.00117926159935551,0.707313632656532,0.706897965485073,-0.00347555107266395,0.431745736314693,0.00364451821091835,0
428,34776212,0.00114515139180307,-0.00118170799165461,0.70730879882013,0.706902790563269,-0.00413171097277157,0.455523290751696,0.00222142484364503,0
429,34792879,0.00114626217719249,-0.00118065855371468,0.707310308635264,0.706901279830988,0.0103598813739476,0.431221614304837,0.00741223298679159,0
430,34809546,0.00114519196920932,-0.00118402503116582,0.707304263892165,0.706907324123921,0.00145050921523919,0.439707624477052,0.00262577882390091,0
431,34826213,0.00114070252167359,-0.00118002984575642,0.707302596701304,0.706909006186024,0.00253338344475771,0.444243697304754,0.0123215418489599,0
432,34842880,0.00114021030698428,-0.00117782238679393,0.707298929595014,0.70691267979053,0.0076486533218056,0.422267424504012,-0.00840092596324322,0
433,34859547,0.00114207639825455,-0.00117604859957167,0.707298479408543,0.706913130163498,0.00232001255764292,0.429686482336967,0.00563772009723181,0
434,34876214,0.00113894057056088,-0.00118261644633561,0.707293152504137,0.706918454033757,0.0129332015433984,0.468434284081696,0.0114758998765026,0
435,34892881,0.00112286120559385,-0.00119490473554661,0.70729859349144,0.706913015179673,-0.0133812739770734,0.411292227663999,0.000941510824025475,0
436,34909548,0.00114824856601912,-0.00117424415043769,0.707291698086389,0.706919908118295,0.00567207007730264,0.404288377945636,0.018329117058586,0
437,34926215,0.00113526344263542,-0.00118335807161867,0.707293131857779,0.706918479364774,0.0192906829652998,0.488103047916041,0.0101447064203067,0
438,34942882,0.00110679574457631,-0.00120089305378375,0.70730150393551,0.706910118324543,-0.00805274684558407,0.433111870463779,0.000391046355928093,0
439,34959549,0.00110481245378559,-0.00118487788817899,0.707302003782673,0.706909648327739,0.00675468675699118,0.435643942085384,0.00258015884451089,0
440,34976216,0.00110461737964159,-0.00118187200298509,0.70730603984373,0.70690561534026,-0.00315836255860582,0.420784267657186,0.00749844023992976,0
441,34992883,0.00110958164346692,-0.00117197407425445,0.707301454693946,0.706910211761843,-0.00395241368640948,0.44639315548642,0.00341222234625225,0
442,35009550,0.00110307995964196,-0.00117675952445011,0.707306431669733,0.706905234221854,0.00496035588954064,0.439468142153706,-0.00167032589560936,0
443,35026217,0.00110633671725582,-0.00116940211948838,0.707308392472196,0.706903279420988,-0.00292828147459793,0.456630503845636,-0.0033365053854259,0
444,35042884,0.00109587586296426,-0.00117833294977511,0.707317951507168,0.706893716242588,0.0137974134276497,0.42417840550871,-0.00564653007366707,0
445,35059551,0.00109153589671086,-0.0011826757578511,0.707316290162598,0.706895378042647,0.00869849756607505,0.447341560684818,0.00587071819242083,0
446,35076218,0.00108616929056201,-0.00118690575883305,0.707311112195739,0.706900560231365,-0.00133899038977754,0.447551346158476,0.0064285833522872,0
447,35092885,0.00108563705829337,-0.00118698755163521,0.707307933642049,0.706903741297034,-0.00205895640196765,0.445844688054176,0.00919228975402024,0
448,35109552,0.00109047651752596,-0.00119098306609153,0.707308325671839,0.706903334873729,0.00149194538908017,0.434147729610706,0.00243848376951956,0
449,35126219,0.00108260803252172,-0.00118761493086927,0.707310257241328,0.706901419953186,0.00433255050050896,0.447474421381249,-0.000662655935120564,0
450,35142886,0.00107298018806805,-0.00118881867288297,0.707313298659323,0.70689838941912,-0.00709976009110134,0.450607415303127,-0.00579234399959348,0
451,35159553,0.00106983367974133,-0.0011841786212902,0.707310681404365,0.706901020757633,0.0127288465626322,0.434948132419604,0.01002778184828,0
452,35176220,0.00107011438433542,-0.00118605161344726,0.707306515090664,0.706905185896295,-0.00513885592521598,0.436220730277183,-0.00803732635543819,0
453,35192887,0.00105885015388692,-0.00118835155794091,0.707298826480484,0.706912891887152,0.00410861858902792,0.421046013538741,0.0111408200391317,0
454,35209554,0.00106370922337751,-0.00118568979399207,0.70729676893457,0.706914947725055,-0.0051371339613752,0.434147540499572,0.00289573424958063,0
455,35226221,0.00105737113408249,-0.00119133040345401,0.707298746358709,0.706912969252618,0.00542555132817509,0.447124661551362,-0.00503285206135552,0
456,35242888,0.00105516679206923,-0.00119911155723449,0.707291485414331,0.706920224222581,0.0037051023534308,0.43622832390646,0.00249816577145485,0
457,35259555,0.00105373287120141,-0.00119602299194473,0.707290801362558,0.70692091600401,-0.000138518155743093,0.454770028098618,0.00894813941153756,0
458,35276222,0.00103817843890079,-0.00121342003338807,0.707292237133327,0.706919472845589,-0.00765490706098703,0.451155386946878,0.00621702558002773,0
459,35292889,0.00103550997234452,-0.00121713777885223,0.707293422615729,0.706918284258691,-0.001145929761158,0.417389604059965,0.00865072013417084,0
460,35309556,0.00104214060661762,-0.00122129078281242,0.707293018043953,0.706918672138497,0.0152884379408775,0.418485452642799,0.00331243328346698,0
461,35326223,0.00103932784565871,-0.00121337592772977,0.707290904434779,0.706920804631127,0.000363408745534997,0.447445300668556,-0.012133663911241,0
462,35342890,0.00103438331856637,-0.0012157715159343,0.707295328634971,0.706916381223352,-0.000992323074216812,0.442603689345936,0.00706962567680771,0
463,35359557,0.00103384136253163,-0.00120837123036901,0.707290091152636,0.706921634955603,-0.00161798662625408,0.416320123040178,0.00356075161384286,0
464,35376224,0.00102783769499416,-0.00121930439889404,0.707291992359612,0.706919722734079,0.00454955030717048,0.459588161422543,0.00847121469082685,0
465,35392891,0.00102164081056046,-0.00121781609660478,0.707293285030804,0.70691844092819,-0.00480783058235863,0.438680089768854,0.00620378444662682,0
466,35409558,0.00103338815689435,-0.00121673923117261,0.707291949392088,0.706919762052032,0.00321701617165141,0.43629001428641,0.00423259974232874,0
467,35426225,0.00102988338961699,-0.00122013752442836,0.707291269864539,0.70692044119408,-0.0125573494263732,0.439529010084531,0.0163921542255457,0
468,35442892,0.00103240684727149,-0.00122647823414712,0.70728751389155,0.706924184464185,0.00350433261055462,0.437287898841536,0.00374412184957428,0
469,35459559,0.00103102608857745,-0.00121932110047969,0.707284554193456,0.706927160067162,0.0032206430701355,0.460473784914895,-0.00558439638762239,0
470,35476226,0.00101590010402403,-0.00122964203664354,0.707285264550566,0.706926453371974,0.00167861282450395,0.444747888806076,-0.00361411683673272,0
471,35492893,0.00101128668529456,-0.00122416287516269,0.707287160666116,0.706924572413041,0.0020944546549338,0.435125212931786,0.00546739732863309,0
472,35509560,0.0010212117809026,-0.00121963912798373,0.707287089029543,0.706924637637571,0.000901615743122128,0.456542278318938,0.00247070568163489,0
473,35526227,0.00102188452487903,-0.00121460792525522,0.707286249561623,0.70692548522504,-0.0191659558600971,0.452508615413947,-0.0119567736109681,0
474,35542894,0.00101958863626214,-0.00122024359297575,0.707283095258444,0.706928634733536,-0.000253608376267968,0.449083491866666,-0.00226643190630349,0
475,35559561,0.00102135522024085,-0.00121029917703461,0.707281104260285,0.706930641269543,-0.00353136292166418,0.425109360742473,0.00217980791323317,0
476,35576228,0.00102301736681611,-0.00120948350658589,0.707276400595812,0.706935346227183,0.00520152194443404,0.409812441763553,0.00169894165107718,0
477,35592895,0.00101715628871673,-0.00121644223088518,0.707267289393534,0.706944458225189,-0.011633653544053,0.434334328465013,-0.00642554172611283,0
478,35609562,0.00100541920649054,-0.00120522314666698,0.707269586440806,0.706942196127263,0.00201961894451589,0.445553992712558,-0.00580172833417836,0
479,35626229,0.00106781893188454,-0.0011522920793517,0.707263746380749,0.706948035601741,0.0033496988562359,0.444749036829877,0.00650734523407152,0
480,35642896,0.00106228809706065,-0.00116306696270328,0.707260915178666,0.706950858744704,-0.00777714754729265,0.439087865059479,0.000560512521038727,0
481,35659563,0.0010579919194534,-0.00116419501940346,0.707254698931856,0.706957082248891,-0.00793024305114278,0.438046674152777,0.00627076276163786,0
482,35676230,0.00104909322842017,-0.00116971843349267,0.707249986226002,0.706961801051164,-0.00164452698154308,0.413657121296404,-0.00209623157644932,0
483,35692897,0.00104277467698038,-0.0011624069106154,0.707251000524164,0.706960807745886,0.00230078231276968,0.461605337684593,-0.000757587505234703,0
484,35709564,0.00103569833564137,-0.00115539622741395,0.707253311115641,0.70695851809316,0.0117554446395097,0.454517754661643,-0.00500823102073451,0
485,35726231,0.00102764189504565,-0.00115849702223324,0.707253236908958,0.706958599013115,0.00618859799775981,0.446740734861591,-0.00513460526101244,0
486,35742898,0.0010290438510546,-0.00115989498327068,0.707252053708595,0.706959778373109,0.00762904302705058,0.445987793217198,-0.00219870313061688,0
487,35759565,0.0010269870684594,-0.0011521524432206,0.707251226283729,0.706960621790543,-0.0070465298605552,0.427644372148002,0.00380357403853144,0
488,35776232,0.0010305156527559,-0.00114659057676835,0.70724824819461,0.706963604999009,-0.000467086277607515,0.446778520687681,-0.00910602211946553,0
489,35792899,0.00103032635403768,-0.0011476645427038,0.707254310694352,0.706957538539592,-0.00599209104710617,0.464715888353804,0.0012153784505384,0
490,35809566,0.00103450689793317,-0.0011492474722961,0.70725068506577,0.706961156995011,-0.0122981882746034,0.438835911057883,-0.001870856437969,0
491,35826233,0.00103108112772156,-0.00114363673387756,0.707245947775247,0.70696591029711,-0.00227820558922157,0.447368865347216,0.0111757682148572,0
492,35842900,0.00103466741259189,-0.00113595369027794,0.707241047555284,0.706970819571405,-0.00814855200373501,0.420166182064932,-0.00492587140460714,0
493,35859567,0.00102893676517126,-0.00114183143702923,0.707238629847582,0.706973237089932,-0.00782315019566746,0.417638786255807,0.00125642552252591,0
494,35876234,0.00102940575397621,-0.00114231829508403,0.707236128951869,0.7069757374464,-0.00457864889148038,0.441397912311946,-0.00205132272973981,0
495,35892901,0.00103497437717637,-0.00114944604839424,0.707225508539024,0.706986341928569,0.00205076587488036,0.434732324336473,0.00108295674648936,0
496,35909568,0.00103344751133489,-0.00115736482310966,0.707224254631285,0.706987585572852,-0.00630318230641699,0.436244117817245,-0.000232710401634708,0
497,35926235,0.00103115695027447,-0.00115588198618069,0.707229245023267,0.706982599245553,-0.00952288432410459,0.438273227239238,0.00570840813085938,0
498,35942902,0.00103233982514722,-0.00115403724414625,0.707229857149903,0.70698198819224,-0.00673480411199444,0.442315412189031,-0.00206483119080978,0
499,35959569,0.00102891667177634,-0.00115662817893139,0.707232307232528,0.706979537998302,0.00761956785562529,0.435329671944775,0.0127722958384707,0
500,35976236,0.00102042428288059,-0.001156638662051,0.707233458181208,0.706978398927674,0.00299911624961523,0.459338599047767,0.0165487476281721,0
501,35992903,0.00100677272789748,-0.00116899292587991,0.707232633225281,0.706979223432661,0.00120594342620284,0.449885393670348,0.0115450293427023,0
502,36009570,0.0010039741138045,-0.00117487604091742,0.707232034767437,0.706979816332106,-0.00888106360814529,0.428009401706149,0.0122071829848812,0
503,36026237,0.000999377199031377,-0.0011629448997222,0.707234778040953,0.70697709830923,-0.000451107258043373,0.445333068187413,-0.00176322905322429,0
504,36042904,0.000999065393582135,-0.00116905876097573,0.707229278611626,0.706982590057515,-0.00868832661723888,0.442279920428385,0.0098039014488563,0
505,36059571,0.000993544311057846,-0.00116406101059945,0.707228559546536,0.706983325399826,-0.00252824514696819,0.434357473551925,-0.00117060054923023,0
506,36076238,0.000991929758142168,-0.00115300903693801,0.707234268972203,0.706977634325775,-0.00454692057575243,0.427563246015007,0.00656866735491348,0
507,36092905,0.000982214172178069,-0.00114370342937507,0.707237007326602,0.70697492364687,-0.00947634098793505,0.456361726333925,-0.00129745280257565,0
508,36109572,0.000976278726100162,-0.00115279555946409,0.707233136319626,0.70697878952183,-0.00104662356125254,0.434966686327362,0.00103435253470772,0
509,36126239,0.000969386680001683,-0.00115607949122548,0.70723068569972,0.706981245136233,-0.00832170752274756,0.456718151881439,0.00813378868376005,0
510,36142906,0.000967105699701017,-0.00115850552283016,0.707225629908274,0.706986301827952,0.00877105919374532,0.429300529787348,0.0110779648214373,0
511,36159573,0.000967581268321933,-0.00115248658627673,0.707227217976567,0.706984722405147,-0.0165626825963953,0.428380068179744,-0.00048051251122414,0
512,36176240,0.00097075615018152,-0.00114379091505236,0.707224215487514,0.70698773568069,-0.00451501505733696,0.438131021983355,0.0159036650902449,0
513,36192907,0.000966747048448642,-0.00113967360579227,0.707212370754258,0.706999596319799,-0.000714703960007134,0.448965066412586,0.0106364710969104,0
514,36209574,0.000957765579073951,-0.00113767067686763,0.707218266216312,0.706993714484449,-0.00469444081606965,0.448755931581952,0.00764050161959019,0
515,36226241,0.000960767701636312,-0.00114051412029031,0.707214959944703,0.706997013136107,0.0120549220403356,0.424617955371023,0.00813867232056927,0
516,36242908,0.000958876357550149,-0.00113780056728042,0.707218142164567,0.706993836860901,-0.00523034024815751,0.419870445097893,-0.00971800462510509,0
517,36259575,0.000962302623996823,-0.0011328687104154,0.707218774859225,0.706993207229575,0.00180866522780119,0.418799292180583,-0.00455104797519286,0
518,36276242,0.000963385093975611,-0.00113066207273192,0.707219613594106,0.70699237028432,0.00658652980519101,0.436022661354762,-0.0065608365029363,0
519,36292909,0.000959838871491266,-0.00114231603207615,0.707224745492242,0.706987222788968,-0.00631431435805314,0.429000840118059,0.00242570078416552,0
520,36309576,0.00095259009079802,-0.00114680455756042,0.707231457208136,0.706980511291989,-0.00500104579014642,0.427315988665644,-0.00563027098732097,0
521,36326243,0.000950194981046996,-0.00114155013097076,0.70723091415226,0.706981066267093,-0.00716804358448661,0.437279283114988,0.0046512042818329,0
522,36342910,0.000949583078533481,-0.00114990401656523,0.707233059120788,0.706978907817893,-0.0043095025960994,0.43412912850701,0.00554089633021153,0
523,36359577,0.000951332043417807,-0.00114683386353356,0.707229252629056,0.706982718293155,-0.00316589644235387,0.431168482963863,0.00687190790598446,0
524,36376244,0.000938967822033688,-0.00116535451229065,0.707219901081089,0.706992059222127,0.00905562663978255,0.433077820968235,-0.00866882550385007,0
525,36392911,0.0010063118626614,-0.00110075568287836,0.707238785088499,0.706973179505351,-0.0221085442432262,0.461903078023656,-0.0168986690060603,0
526,36409578,0.000974589032649836,-0.00114514613002965,0.707233734219012,0.706978206169886,0.0222531919981822,0.417335351198546,0.0223848817982786,0
527,36426245,0.00094570928702982,-0.00116878060851487,0.707224093907441,0.706987850378373,0.0078661828539887,0.422794661237787,-0.00644569296507484,0
528,36442912,0.000956372456627764,-0.00115180389197818,0.707231886764609,0.706980068349094,-0.0194858010171993,0.442962287493524,-0.0112867570018676,0
529,36459579,0.000956773795054927,-0.00115692401225492,0.707230844619681,0.706981101960489,0.00765342522331868,0.425946339010347,0.00813581899461737,0
530,36476246,0.00098089092685129,-0.00114779249121761,0.707227080033046,0.706984849691504,-0.00357363223328219,0.469119108717942,0.00427798693674336,0
531,36492913,0.000975963652585979,-0.00115577586308591,0.707227336423986,0.706984587025585,-0.0113184887463606,0.425657413932829,0.00262227304626878,0
532,36509580,0.000976965002253401,-0.00115223140871747,0.707226135062935,0.706985793199629,0.00564097009259192,0.412923444530451,0.00606278485728745,0
533,36526247,0.000988127363185793,-0.00113258805739123,0.707227651111879,0.706984292860443,-0.000751873802977255,0.463777067450647,-0.0100650442439941,0
534,36542914,0.000969694790128223,-0.00114900293980413,0.707233497368969,0.706978443577677,-0.0102159718801752,0.427573828707869,-0.0051830960172571,0
535,36559581,0.000969082071640032,-0.00115659065709145,0.707234683592375,0.706977245391946,0.00754314680495347,0.417221938489291,-0.00253961370928484,0
536,36576248,0.000989515494185839,-0.00114613327067502,0.707226677950236,0.706985242585081,0.00112711334041678,0.477526874315543,-0.000355580914348621,0
537,36592915,0.000982777828803011,-0.00116362621352352,0.70722575374327,0.70698614792939,-0.00701294126016028,0.433028693940958,0.00267846004921045,0
538,36609582,0.000968840445921822,-0.00116603128592352,0.707221132116363,0.706990786366612,-0.00267040008631387,0.422038489209027,0.00756538186325757,0
539,36626249,0.000981148574243628,-0.00116093531839742,0.707218488610672,0.706993422136231,0.00293086829795809,0.456543108531785,-0.00596004166082698,0
540,36642916,0.000969819974093197,-0.00116768839737322,0.707216829133872,0.706995086646899,-0.00324761888225521,0.426179368908215,0.0040981290476776,0
541,36659583,0.000988108972322774,-0.00116111447822874,0.707216081922124,0.706995819594817,-0.00499842891159798,0.448794468087247,0.00147772470143773,0
542,36676250,0.000993220833382493,-0.00116497374015082,0.707214030129702,0.706997858508967,0.00651414741761929,0.443153357881937,-0.00773152880616909,0
543,36692917,0.000992722927204982,-0.00116957721290457,0.707216666673566,0.70699521424792,-0.00182218778282559,0.426628711213513,0.0107186207433043,0
544,36709584,0.00100029498510866,-0.00115772007377486,0.70721244366936,0.70699944739256,0.00452377215267235,0.437442636108157,0.00725294471371086,0
545,36726251,0.00100827293013348,-0.00114901849984835,0.707218953943239,0.706992937960215,0.00353074008640495,0.46051027601407,3.40045473257741e-05,0
546,36742918,0.00100424978141835,-0.00115385135625845,0.70721522059224,0.706996670340174,0.00630496671251999,0.408531845385985,0.0120297892962519,0
547,36759585,0.00101580010339999,-0.00113880393540834,0.707209046349898,0.707002854334136,0.00185555537904696,0.455316516277518,-0.00289572520086994,0
548,36776252,0.00101343106745133,-0.00114451595194254,0.707209236001277,0.707002658803485,0.00736013752006924,0.445452505162651,0.00680505406999607,0
549,36792919,0.00100970054014453,-0.00114433940335974,0.707206959970105,0.707004941115684,-0.00645237588731185,0.437131389926737,0.0146448845372029,0
550,36809586,0.00100973901595524,-0.00114752087162152,0.707204949155603,0.7070069472875,0.00579197038691006,0.442849488417631,0.00430205065119351,0
551,36826253,0.00100973332950121,-0.00115431329567801,0.707201729307516,0.707010156973631,-0.006926636377111,0.456968368427054,0.00960537930282487,0
552,36842920,0.00100586288366073,-0.00115141914526931,0.707204763820679,0.707007131861588,-0.00940719892982476,0.440937064178045,-0.000587981817267726,0
553,36859587,0.00100663350949284,-0.001145704376969,0.707200911520926,0.707010993404226,-0.0017704236552433,0.438232783996404,0.00502231324204033,0
554,36876254,0.00100099207013117,-0.00114407778139285,0.707202205520599,0.707009709698323,-0.00895039160838567,0.444873824721848,-0.00321304093935109,0
555,36892921,0.000995061039941008,-0.00114588037451187,0.707202817842832,0.707009102661947,-0.00767799243390758,0.436105135673411,0.00638475457939736,0
556,36909588,0.00100232209622734,-0.00114137089317724,0.70720938665337,0.707002529028195,-0.00507173376869008,0.424675984016522,0.00195037721670473,0
557,36926255,0.00100126268456378,-0.00113682979998357,0.707208684960615,0.707003239743157,-0.00335979343518066,0.425923995305321,-0.00264795896965993,0
558,36942922,0.000995142894532785,-0.00113769071939764,0.707207232016346,0.707004700362186,-0.0146676147141526,0.421440371311002,-0.00631651551904947,0
559,36959589,0.000986261278035461,-0.00113050130901786,0.70720498344904,0.707006973544339,0.00269683602883313,0.440703145983626,-0.000830063667470768,0
560,36976256,0.000980972371743449,-0.00113741966918988,0.70721025749335,0.707001694245418,-0.00623781121822268,0.441341920933745,-0.00346360801294713,0
561,36992923,0.000975527029224086,-0.00114121310159485,0.707206748293181,0.707005205884835,-0.00794925098583092,0.437410492965894,0.0173949782963292,0
562,37009590,0.00096950260471297,-0.00113338589862187,0.70721056896172,0.707001404984421,0.00862009856914077,0.425691320005026,-1.50388309606907e-05,0
563,37026257,0.000966268689568355,-0.00112341492578768,0.707199058417092,0.707012939087895,0.00496395882760962,0.440225983818972,0.00223649237595123,0
564,37042924,0.000958140047536713,-0.00112603648589397,0.707192702154969,0.707019303858272,-0.00959251046103258,0.441662467901085,0.0141885620764527,0
565,37059591,0.000966567736941941,-0.00112221313764799,0.707187052332702,0.707024949628702,-0.0145894774613883,0.45050185838197,0.00506952208014667,0
566,37076258,0.000962517872318404,-0.0011173788559082,0.707190132127095,0.707021882296368,-0.00589170720107932,0.418117543597059,0.000877093822195229,0
567,37092925,0.000963597732519335,-0.00112391006436041,0.707189666869385,0.707022335841482,-0.00324189012675031,0.442685576761625,0.0166282796846873,0
568,37109592,0.000966914356385614,-0.00112544626656967,0.707190198300299,0.707021797312722,-0.00938222501591097,0.425916219417783,0.00304000149442389,0
569,37126259,0.000962538865495839,-0.00112407724686341,0.70718951795905,0.707022485963582,-0.00577158005089147,0.426901331125959,0.00605183593065886,0
570,37142926,0.000965293967516164,-0.00112659070166515,0.707190213563973,0.707021782436927,-0.00224059492145016,0.45413587208719,0.00466252772895962,0
571,37159593,0.000959616602142754,-0.0011276363563566,0.707186627598147,0.707025375300339,-0.00207603587254535,0.443405136212526,0.00700563849137467,0
572,37176260,0.000960356454438999,-0.00112263056166567,0.707182488158436,0.707029522621331,-0.00597141008920663,0.445540182432734,0.00962643989724422,0
573,37192927,0.000964803773371832,-0.00112275510544089,0.707181504464222,0.707030500274473,0.00601986692007182,0.42973388032476,0.00721770588062834,0
574,37209594,0.000961492738442885,-0.001120644618983,0.707178917459116,0.707033095681315,-0.00612262276227315,0.430830692298617,0.00647427224706225,0
575,37226261,0.000956715751349863,-0.00111128098872504,0.707186388915464,0.707025643864663,-0.00477795353721746,0.434117256778687,-0.00107036233216915,0
576,37242928,0.000958108420162802,-0.00111492097874193,0.707182939453365,0.707029086477752,-0.0112873089399202,0.449035549369981,-0.000574581025406131,0
577,37259595,0.000956836819523476,-0.00111656770879877,0.707182859406585,0.707029165665306,-0.00303035181466842,0.442257568143823,-0.0102249251936525,0
578,37276262,0.00095598821791644,-0.00111710819606559,0.707180867545674,0.707031158247749,0.00873273354725912,0.427890158382516,-0.00454002719619885,0
579,37292929,0.000956565699641621,-0.00110237384043523,0.707180164765549,0.707031883521634,-0.0014456482545544,0.447030624022432,0.00130537177384715,0
580,37309596,0.000956731371091874,-0.0011022163261071,0.707181719957232,0.707030328021779,0.00395485253718266,0.441847320332574,0.00203004953994225,0
581,37326263,0.000955179272799749,-0.00109436504471423,0.707180252605889,0.707031809978856,0.00308075916101065,0.455602836954685,0.00333563199420236,0
582,37342930,0.000945022922036288,-0.00109062392812474,0.707182075295778,0.707030006330341,-0.00522487878126614,0.449516512902371,0.0137703324145253,0
583,37359597,0.000941747408948321,-0.00109154914760346,0.707188784517015,0.707023298545121,-0.00251829194489996,0.434132333347712,0.0146177410184786,0
584,37376264,0.000938645689138139,-0.00109103089246108,0.707181514743396,0.707030574870068,-0.00166386786857953,0.423093825223439,0.0131353940303786,0
585,37392931,0.000936645680181265,-0.0010860012929383,0.707182097753337,0.707030002130922,0.000771884230031527,0.440620183611153,0.00619015688912412,0
586,37409598,0.000930610386759382,-0.00107746265564216,0.70718000285139,0.707032118510639,0.00423230769928192,0.452419532406325,-0.00247280156287804,0
587,37426265,0.000928293733658554,-0.00107086107862083,0.707182068087047,0.707030065911925,-0.00376066897801428,0.420304993200226,0.000577222215632728,0
588,37442932,0.000925976083401615,-0.00107147531325858,0.707184125793315,0.707028009865869,0.0153127868882563,0.452678966273974,0.00324077390925345,0
589,37459599,0.000929155739205588,-0.00107752352931521,0.707181874434763,0.707030248351222,-0.000627502653776197,0.451294651672343,0.0193978286448098,0
590,37476266,0.000921713114257717,-0.00107464655455106,0.707183382714964,0.707028753864749,0.00341265719683098,0.446190824283316,0.00851983085854117,0
591,37492933,0.000914717210890777,-0.00107508920409818,0.707183430704347,0.707028714277473,0.00113467109081297,0.424131331433011,-0.0106572320429866,0
592,37509600,0.000923041470788252,-0.00107100478013446,0.707185044720837,0.707027095284468,0.0102426780129573,0.431875689569095,-0.0020250422060554,0
593,37526267,0.000923205032706691,-0.00107367713162836,0.707179797166449,0.70703233970555,-0.00360231893059867,0.437332336190722,0.0047159533811883,0
594,37542934,0.00091779122714443,-0.00106611718634455,0.707176897691112,0.707035258261837,-0.000767549195869527,0.430681007058102,8.27852612361969e-05,0
595,37559601,0.000921000972291994,-0.00106425894541691,0.707176645312645,0.707035509316512,-0.000825298305918968,0.433381664142482,0.00402741780458848,0
596,37576268,0.000927367844855993,-0.00106935911003756,0.707178529067146,0.707033609163243,-0.00228570545938872,0.435281491025921,0.000751328898601296,0
597,37592935,0.000916662910481634,-0.00106583828861079,0.707181683643659,0.707030473202373,-0.00459513121206543,0.460272669942489,0.00455957580980787,0
598,37609602,0.000916970720184948,-0.00106330407985168,0.707180722510587,0.707031437956288,-0.00861117799514175,0.456475789184172,0.00730415335705435,0
599,37626269,0.000936941645919438,-0.00106257129556675,0.707238445458007,0.706973673023781,-0.00419658062510813,0.434153438145503,0.0126728534111332,0
600,37642936,0.000925856392433941,-0.00105857391827207,0.707235346789121,0.706976793440401,-0.00469787524583898,0.425458766573152,-0.00295979846861355,0
601,37659603,0.000919274531588763,-0.00104725847944656,0.707232159409823,0.706980007412183,-3.82412822704311e-05,0.440600044599811,0.00758550617910333,0
602,37676270,0.000920153629003613,-0.00104838851853041,0.707231812309361,0.706980351817807,-0.00724660608426743,0.420236354859368,-0.0106470831110992,0
603,37692937,0.000916102738345414,-0.00104057154529264,0.707224334172355,0.70698784934474,-0.0144490015732646,0.438585219744289,-0.00131178023255288,0
604,37709604,0.000920822430965037,-0.00103945262738401,0.707224049662366,0.706988129464314,0.00242632160738587,0.429393340875951,-0.00889131554748947,0
605,37726271,0.000928940437045587,-0.0010328118599883,0.707220292549938,0.706991886922974,0.00335933073978054,0.450908684683544,0.00200215067654685,0
606,37742938,0.000928913275777344,-0.00104138094977474,0.707226989218292,0.706985175493145,-0.00768216122349527,0.462665658395153,-0.00211833161809162,0
607,37759605,0.000919515998960225,-0.00104465103834836,0.707232287793421,0.706979882526384,-0.00986538112357414,0.436538172728315,0.00963360329733211,0
608,37776272,0.000925696284013908,-0.00105082699709104,0.70723966942334,0.706972480965828,-0.00319067635092908,0.438607824692668,-0.00368234273430002,0
609,37792939,0.000923137955060247,-0.00104627262849849,0.707236414542905,0.706975747161385,0.00537154146787148,0.42975600509091,-0.000165927054377123,0
610,37809606,0.000927070466439461,-0.00104152473420879,0.707233746642043,0.706978417900601,-0.00835775449850766,0.439862158212609,0.00812316009021319,0
611,37826273,0.000928146075393045,-0.00104015701801489,0.707240543120539,0.706971619504493,0.000600437763700166,0.437341873503311,-0.00177503721992099,0
612,37842940,0.000927635918207321,-0.00103048912255831,0.707243215193778,0.706968961232485,0.00622014599160363,0.447222901822522,0.0111103530675135,0
613,37859607,0.000922767105922242,-0.00102641531108284,0.707243345004438,0.706968843669515,-0.00111267179374208,0.44061171408069,-0.0015157106904432,0
614,37876274,0.000921082612832564,-0.00102139588464773,0.707240320041066,0.706971879260751,-0.00168307367627867,0.441611600571616,0.00230730580979024,0
615,37892941,0.000912339256553456,-0.00101215133006066,0.707236986612234,0.706975238572337,-0.00691305673676296,0.461615370330304,0.00759067775614732,0
616,37909608,0.000913555905851807,-0.00100591134521533,0.70723854102514,0.706973690915443,0.00343010611356361,0.421569512795046,-0.00295619293994427,0
617,37926275,0.000922783812040845,-0.000996328722230732,0.707239330547796,0.706972902681156,0.00389987029218126,0.446093717814296,0.0120249125322905,0
618,37942942,0.000923461350464701,-0.000994413251962437,0.707242307422421,0.706969926484309,0.00475431209833249,0.450012179817638,-0.00476005658473574,0
